loggingTime(txt),locationTimestamp_since1970(s),locationLatitude(WGS84),locationLongitude(WGS84),locationAltitude(m),locationSpeed(m/s),locationSpeedAccuracy(m/s),locationCourse(°),locationCourseAccuracy(°),locationVerticalAccuracy(m),locationHorizontalAccuracy(m),locationFloor(Z),accelerometerTimestamp_sinceReboot(s),accelerometerAccelerationX(G),accelerometerAccelerationY(G),accelerometerAccelerationZ(G),motionTimestamp_sinceReboot(s),motionYaw(rad),motionRoll(rad),motionPitch(rad),motionRotationRateX(rad/s),motionRotationRateY(rad/s),motionRotationRateZ(rad/s),motionUserAccelerationX(G),motionUserAccelerationY(G),motionUserAccelerationZ(G),motionAttitudeReferenceFrame(txt),motionQuaternionX(R),motionQuaternionY(R),motionQuaternionZ(R),motionQuaternionW(R),motionGravityX(G),motionGravityY(G),motionGravityZ(G),motionMagneticFieldX(µT),motionMagneticFieldY(µT),motionMagneticFieldZ(µT),motionHeading(°),motionMagneticFieldCalibrationAccuracy(Z),activityTimestamp_sinceReboot(s),activity(txt),activityActivityConfidence(Z),activityActivityStartDate(txt),pedometerStartDate(txt),pedometerNumberofSteps(N),pedometerAverageActivePace(s/m),pedometerCurrentPace(s/m),pedometerCurrentCadence(steps/s),pedometerDistance(m),pedometerFloorAscended(N),pedometerFloorDescended(N),pedometerEndDate(txt),altimeterTimestamp_sinceReboot(s),altimeterReset(bool),altimeterRelativeAltitude(m),altimeterPressure(kPa),batteryState(N),batteryLevel(R)
2022-06-02T10:45:38.553+02:00,1654159538.33698,53.22893182036449,10.39806424167801,42.5016,-1,-1,-1,-1,60.41437530517578,45.752,-9999,34107.96546925,-0.1652984619140625,-0.3975372314453125,-0.9212646484375,34107.95673225,2.918001749214853,-0.203553192078268,0.4039821484843206,-0.03712616860866547,-0.1126098856329918,-0.1942975074052811,-0.00230872631072998,-0.002821505069732666,-0.009957313537597656,XArbitraryZVertical,-0.1211799022710993,-0.1872318027651304,-0.9662415008542294,-0.128984963057396,-0.1858779340982437,-0.3930830359458923,-0.9005193710327148,0,0,0,-1,-1,34103.36935416667,walking,2,2022-06-02T10:45:33.939+02:00,2022-06-02T10:32:51.428+02:00,64,2.264229,0,0,60.10083,0,0,2022-06-02T10:45:36.492+02:00,675852336.4922879,0,11.41016,101.0552,1,0.89
2022-06-02T10:45:38.556+02:00,1654159538.33698,53.22893182036449,10.39806424167801,42.5016,-1,-1,-1,-1,60.41437530517578,45.752,-9999,34107.97544125,-0.1664581298828125,-0.401702880859375,-0.9274749755859375,34107.96670525,2.915794624606212,-0.2038452536458371,0.4041832723247706,-0.02229582145810127,-0.1260428726673126,-0.2084468752145767,0.01922428607940674,-0.004254013299942017,-0.02009880542755127,XArbitraryZVertical,-0.1215365336274427,-0.1871765873308006,-0.9660597148889983,-0.130086199396281,-0.1861249208450317,-0.393267959356308,-0.9003875851631165,0,0,0,-1,-1,34103.36935416667,walking,2,2022-06-02T10:45:33.939+02:00,2022-06-02T10:32:51.428+02:00,64,2.264229,0,0,60.10083,0,0,2022-06-02T10:45:36.492+02:00,675852336.4922879,0,11.41016,101.0552,1,0.89
2022-06-02T10:45:38.562+02:00,1654159538.33698,53.22893182036449,10.39806424167801,42.5016,-1,-1,-1,-1,60.41437530517578,45.752,-9999,34107.98541375,-0.17742919921875,-0.403167724609375,-0.93060302734375,34107.97667725,2.913508883894148,-0.2042188247153047,0.4044518352149162,-0.02247296646237373,-0.1379954963922501,-0.2071191519498825,0.02014954388141632,-0.008050709962844849,-0.0259634256362915,XArbitraryZVertical,-0.1219429515945812,-0.1871433864006757,-0.9658594580842359,-0.1312353918991148,-0.1864398419857025,-0.39351487159729,-0.9002145528793335,0,0,0,-1,-1,34103.36935416667,walking,2,2022-06-02T10:45:33.939+02:00,2022-06-02T10:32:51.428+02:00,64,2.264229,0,0,60.10083,0,0,2022-06-02T10:45:36.492+02:00,675852336.4922879,0,11.41016,101.0552,1,0.89
2022-06-02T10:45:38.569+02:00,1654159538.33698,53.22893182036449,10.39806424167801,42.5016,-1,-1,-1,-1,60.41437530517578,45.752,-9999,34107.99538675,-0.179931640625,-0.4021759033203125,-0.9279327392578125,34107.98664975,2.911260353801125,-0.2048958488038881,0.4045376065305649,-0.03621088340878487,-0.1293497979640961,-0.2201494574546814,0.01063553988933563,-0.009863913059234619,-0.03039532899856567,XArbitraryZVertical,-0.1224840974926215,-0.1870029823723306,-0.9656609025891268,-0.1323877731577127,-0.1870423853397369,-0.3935937285423279,-0.9000550508499146,0,0,0,-1,-1,34103.36935416667,walking,2,2022-06-02T10:45:33.939+02:00,2022-06-02T10:32:51.428+02:00,64,2.264229,0,0,60.10083,0,0,2022-06-02T10:45:36.492+02:00,675852336.4922879,0,11.41016,101.0552,1,0.89
2022-06-02T10:45:38.581+02:00,1654159538.33698,53.22893182036449,10.39806424167801,42.5016,-1,-1,-1,-1,60.41437530517578,45.752,-9999,34108.00535875,-0.1818695068359375,-0.4058074951171875,-0.9186859130859375,34107.99662275,2.908972991183715,-0.2055668349423643,0.4044310760126045,-0.03439527377486229,-0.1127386093139648,-0.2221167981624603,0.007128104567527771,-0.008359700441360474,-0.028877854347229,XArbitraryZVertical,-0.1230168639728568,-0.1867662816635168,-0.9654789196919498,-0.1335507200376917,-0.1876548379659653,-0.3934957981109619,-0.8999704122543335,0,0,0,-1,-1,34103.36935416667,walking,2,2022-06-02T10:45:33.939+02:00,2022-06-02T10:32:51.428+02:00,64,2.264229,0,0,60.10083,0,0,2022-06-02T10:45:36.492+02:00,675852336.4922879,0,11.41016,101.0552,1,0.89
2022-06-02T10:45:38.589+02:00,1654159538.33698,53.22893182036449,10.39806424167801,42.5016,-1,-1,-1,-1,60.41437530517578,45.752,-9999,34108.01533175,-0.1808319091796875,-0.406005859375,-0.9049835205078125,34108.00659475,2.906666961165438,-0.2055774272993105,0.4045539007657796,-0.03799692913889885,-0.08563322573900223,-0.1963997185230255,0.006135940551757812,-0.01186314225196838,-0.02003127336502075,XArbitraryZVertical,-0.1232429957320528,-0.1866831846123936,-0.9653107227911428,-0.1346695216374024,-0.1876544952392578,-0.3936087191104889,-0.8999211192131042,0,0,0,-1,-1,34103.36935416667,walking,2,2022-06-02T10:45:33.939+02:00,2022-06-02T10:32:51.428+02:00,64,2.264229,0,0,60.10083,0,0,2022-06-02T10:45:36.492+02:00,675852336.4922879,0,11.41016,101.0552,1,0.89
2022-06-02T10:45:38.599+02:00,1654159538.33698,53.22893182036449,10.39806424167801,42.5016,-1,-1,-1,-1,60.41437530517578,45.752,-9999,34108.02530375,-0.1817779541015625,-0.3967132568359375,-0.8975830078125,34108.01656775,2.904472883614266,-0.2052405653330215,0.4048559008253989,-0.03950978815555573,-0.06631633639335632,-0.1864704340696335,0.006815612316131592,-0.01344707608222961,-0.006733119487762451,XArbitraryZVertical,-0.1232994757215554,-0.1867172127577593,-0.9651513746175975,-0.1357084653926542,-0.1873271018266678,-0.3938863277435303,-0.899867832660675,0,0,0,-1,-1,34103.36935416667,walking,2,2022-06-02T10:45:33.939+02:00,2022-06-02T10:32:51.428+02:00,64,2.264229,0,0,60.10083,0,0,2022-06-02T10:45:36.492+02:00,675852336.4922879,0,11.41016,101.0552,1,0.89
2022-06-02T10:45:38.610+02:00,1654159538.33698,53.22893182036449,10.39806424167801,42.5016,-1,-1,-1,-1,60.41437530517578,45.752,-9999,34108.03527675,-0.184722900390625,-0.3867950439453125,-0.8946685791015625,34108.02653975,2.902504224901965,-0.2050022360372016,0.4049072546851255,-0.03659442067146301,-0.04237505048513412,-0.1624090373516083,0.005284786224365234,-0.003512203693389893,0.002584338188171387,XArbitraryZVertical,-0.1233706700285879,-0.1866369440448281,-0.9650266251022666,-0.1366381319210101,-0.1871085166931152,-0.39393350481987,-0.8998926281929016,0,0,0,-1,-1,34103.36935416667,walking,2,2022-06-02T10:45:33.939+02:00,2022-06-02T10:32:51.428+02:00,64,2.264229,0,0,60.10083,0,0,2022-06-02T10:45:36.492+02:00,675852336.4922879,0,11.41016,101.0552,1,0.89
2022-06-02T10:45:38.619+02:00,1654159538.33698,53.22893182036449,10.39806424167801,42.5016,-1,-1,-1,-1,60.41437530517578,45.752,-9999,34108.04524975,-0.1871795654296875,-0.3769683837890625,-0.895599365234375,34108.03651275,2.900801199415501,-0.2045583512578216,0.405006458785129,-0.002431081840768456,-0.006072881631553173,-0.1452938616275787,0.002207085490226746,0.005947887897491455,0.00487208366394043,XArbitraryZVertical,-0.123320180989722,-0.1866104222198398,-0.9649269323398724,-0.1374221634486766,-0.1867011189460754,-0.3940246999263763,-0.8999373912811279,0,0,0,-1,-1,34103.36935416667,walking,2,2022-06-02T10:45:33.939+02:00,2022-06-02T10:32:51.428+02:00,64,2.264229,0,0,60.10083,0,0,2022-06-02T10:45:36.492+02:00,675852336.4922879,0,11.41016,101.0552,1,0.89
2022-06-02T10:45:38.629+02:00,1654159538.33698,53.22893182036449,10.39806424167801,42.5016,-1,-1,-1,-1,60.41437530517578,45.752,-9999,34108.05522175,-0.1861419677734375,-0.377288818359375,-0.8958740234375,34108.04648575,2.899332407926543,-0.2037350450697859,0.4053511112214744,0.02127904258668423,0.0238605160266161,-0.1181069761514664,-0.0006213188171386719,0.01662534475326538,0.004434645175933838,XArbitraryZVertical,-0.1230768027017649,-0.1867437796655371,-0.9648401522595723,-0.1380668366590778,-0.1859326362609863,-0.3943414390087128,-0.8999577164649963,0,0,0,-1,-1,34103.36935416667,walking,2,2022-06-02T10:45:33.939+02:00,2022-06-02T10:32:51.428+02:00,64,2.264229,0,0,60.10083,0,0,2022-06-02T10:45:36.492+02:00,675852336.4922879,0,11.41016,101.0552,1,0.89
2022-06-02T10:45:38.639+02:00,1654159538.33698,53.22893182036449,10.39806424167801,42.5016,-1,-1,-1,-1,60.41437530517578,45.752,-9999,34108.06519475,-0.17803955078125,-0.3860321044921875,-0.9034576416015625,34108.05645775,2.898248280143537,-0.2028152771140964,0.405823063146817,0.03314564377069473,0.04252545908093452,-0.08876990526914597,-0.000525355339050293,0.01834076642990112,0.004773855209350586,XArbitraryZVertical,-0.1227574570206327,-0.1869696009648049,-0.9647718875307628,-0.1385214279198473,-0.1850672960281372,-0.3947750926017761,-0.8999459743499756,0,0,0,-1,-1,34103.36935416667,walking,2,2022-06-02T10:45:33.939+02:00,2022-06-02T10:32:51.428+02:00,64,2.264229,0,0,60.10083,0,0,2022-06-02T10:45:36.492+02:00,675852336.4922879,0,11.41016,101.0552,1,0.89
2022-06-02T10:45:38.649+02:00,1654159538.33698,53.22893182036449,10.39806424167801,42.5016,-1,-1,-1,-1,60.41437530517578,45.752,-9999,34108.07516675,-0.1811065673828125,-0.38507080078125,-0.911376953125,34108.06643075,2.897466336016005,-0.2018659090818874,0.406198861131686,0.02225438132882118,0.06410372257232666,-0.05529104173183441,0.005029618740081787,0.008737266063690186,-0.003191888332366943,XArbitraryZVertical,-0.1223911032636843,-0.1871697089060071,-0.9647361902660596,-0.1388236905259287,-0.1841830760240555,-0.3951203525066376,-0.8999758362770081,0,0,0,-1,-1,34103.36935416667,walking,2,2022-06-02T10:45:33.939+02:00,2022-06-02T10:32:51.428+02:00,64,2.264229,0,0,60.10083,0,0,2022-06-02T10:45:36.492+02:00,675852336.4922879,0,11.41016,101.0552,1,0.89
2022-06-02T10:45:38.659+02:00,1654159538.33698,53.22893182036449,10.39806424167801,42.5016,-1,-1,-1,-1,60.41437530517578,45.752,-9999,34108.08513975,-0.187225341796875,-0.3905792236328125,-0.9139862060546875,34108.07640275,2.897061190788432,-0.2009131695657985,0.4063419890096667,0.0145553145557642,0.06898422539234161,-0.01420159358531237,0.0030621737241745,0.0100436806678772,-0.01004546880722046,XArbitraryZVertical,-0.1219765107761985,-0.1872805039683818,-0.9647511746995853,-0.1389351847172992,-0.1833142638206482,-0.3952518403530121,-0.9000954627990723,0,0,0,-1,-1,34103.36935416667,walking,2,2022-06-02T10:45:33.939+02:00,2022-06-02T10:32:51.428+02:00,64,2.264229,0,0,60.10083,0,0,2022-06-02T10:45:36.492+02:00,675852336.4922879,0,11.41016,101.0552,1,0.89
2022-06-02T10:45:38.669+02:00,1654159538.33698,53.22893182036449,10.39806424167801,42.5016,-1,-1,-1,-1,60.41437530517578,45.752,-9999,34108.09511275,-0.186767578125,-0.3894805908203125,-0.914703369140625,34108.08637575,2.897034091991996,-0.2000682581496879,0.4064253729834614,-0.007742268033325672,0.07872500270605087,0.01625964231789112,-0.003808453679084778,0.005512088537216187,-0.01350903511047363,XArbitraryZVertical,-0.1215755971939955,-0.1873779680621334,-0.9647919089487611,-0.1388721469098853,-0.1825471371412277,-0.3953284323215485,-0.9002177715301514,0,0,0,-1,-1,34103.36935416667,walking,2,2022-06-02T10:45:33.939+02:00,2022-06-02T10:32:51.428+02:00,64,2.264229,0,0,60.10083,0,0,2022-06-02T10:45:36.492+02:00,675852336.4922879,0,11.41016,101.0552,1,0.89
2022-06-02T10:45:38.679+02:00,1654159538.33698,53.22893182036449,10.39806424167801,42.5016,-1,-1,-1,-1,60.41437530517578,45.752,-9999,34108.10508475,-0.1786956787109375,-0.393707275390625,-0.9051971435546875,34108.09634875,2.897243960746232,-0.1993254991705916,0.4063481019558829,-0.02914156578481197,0.07727118581533432,0.0340556874871254,-0.005127221345901489,0.005624234676361084,-0.01471704244613647,XArbitraryZVertical,-0.1211937927059789,-0.1874047672371328,-0.9648597759660632,-0.1386985318336285,-0.1818844974040985,-0.395257443189621,-0.9003830552101135,0,0,0,-1,-1,34103.36935416667,walking,2,2022-06-02T10:45:33.939+02:00,2022-06-02T10:32:51.428+02:00,64,2.264229,0,0,60.10083,0,0,2022-06-02T10:45:36.492+02:00,675852336.4922879,0,11.41016,101.0552,1,0.89
2022-06-02T10:45:38.689+02:00,1654159538.33698,53.22893182036449,10.39806424167801,42.5016,-1,-1,-1,-1,60.41437530517578,45.752,-9999,34108.11505775,-0.17523193359375,-0.3939208984375,-0.8970489501953125,34108.10632075,2.897552613128944,-0.1987192526931995,0.4060184860709345,-0.04680364951491356,0.0678798109292984,0.03665279597043991,0.002195611596107483,0.0009116530418395996,-0.005461335182189941,XArbitraryZVertical,-0.1208561078668347,-0.1873056239561929,-0.9649526413193411,-0.1384809435265101,-0.1813643276691437,-0.394954651594162,-0.9006208181381226,0,0,0,-1,-1,34103.36935416667,walking,2,2022-06-02T10:45:33.939+02:00,2022-06-02T10:32:51.428+02:00,64,2.264229,0,0,60.10083,0,0,2022-06-02T10:45:36.492+02:00,675852336.4922879,0,11.41016,101.0552,1,0.89
2022-06-02T10:45:38.699+02:00,1654159538.33698,53.22893182036449,10.39806424167801,42.5016,-1,-1,-1,-1,60.41437530517578,45.752,-9999,34108.12502975,-0.17529296875,-0.39031982421875,-0.8949737548828125,34108.11629375,2.897912381697224,-0.1982924460593155,0.4052750975488751,-0.06517098098993301,0.06341121345758438,0.04227288812398911,0.005500584840774536,0.001281440258026123,0.0035858154296875,XArbitraryZVertical,-0.1205798125382702,-0.1869963926936359,-0.9650815273262925,-0.1382406351546916,-0.1810376942157745,-0.394271582365036,-0.9009857177734375,0,0,0,-1,-1,34103.36935416667,walking,2,2022-06-02T10:45:33.939+02:00,2022-06-02T10:32:51.428+02:00,64,2.264229,0,0,60.10083,0,0,2022-06-02T10:45:36.492+02:00,675852336.4922879,0,11.41016,101.0552,1,0.89
2022-06-02T10:45:38.709+02:00,1654159538.33698,53.22893182036449,10.39806424167801,42.5016,-1,-1,-1,-1,60.41437530517578,45.752,-9999,34108.13500275,-0.1772308349609375,-0.38458251953125,-0.8914031982421875,34108.12626575,2.89827659933515,-0.1979669975713066,0.4043319236013477,-0.05507973581552505,0.06139945611357689,0.03363785892724991,0.005600839853286743,0.001757293939590454,0.005626320838928223,XArbitraryZVertical,-0.1203422159844738,-0.1865833629286308,-0.9652255180296299,-0.1380005982016925,-0.1808175295591354,-0.393404632806778,-0.9014087915420532,0,0,0,-1,-1,34103.36935416667,walking,2,2022-06-02T10:45:33.939+02:00,2022-06-02T10:32:51.428+02:00,64,2.264229,0,0,60.10083,0,0,2022-06-02T10:45:36.492+02:00,675852336.4922879,0,11.41016,101.0552,1,0.89
2022-06-02T10:45:38.719+02:00,1654159538.33698,53.22893182036449,10.39806424167801,42.5016,-1,-1,-1,-1,60.41437530517578,45.752,-9999,34108.14497575,-0.1797943115234375,-0.371917724609375,-0.8909759521484375,34108.13623875,2.898545462143916,-0.1976631745868576,0.4034654406029383,-0.04187161102890968,0.04787548258900642,0.01736998185515404,0.004188403487205505,0.00732344388961792,0.0102418065071106,XArbitraryZVertical,-0.1201278124334136,-0.1862002001228636,-0.9653531993373747,-0.1378113914237743,-0.1806105226278305,-0.3926078677177429,-0.9017975926399231,0,0,0,-1,-1,34103.36935416667,walking,2,2022-06-02T10:45:33.939+02:00,2022-06-02T10:32:51.428+02:00,64,2.264229,0,0,60.10083,0,0,2022-06-02T10:45:36.492+02:00,675852336.4922879,0,11.41016,101.0552,1,0.89
2022-06-02T10:45:38.729+02:00,1654159538.486943,53.2289370904497,10.39807396998332,20.86453,1.315907,1.606681,-1,-1,157.8533020019531,64,-9999,34108.15494775,-0.18023681640625,-0.3766021728515625,-0.8857421875,34108.14621175001,2.898587376574277,-0.1972138923005682,0.4030598719886287,-0.02023049630224705,0.04252519458532333,0.006020121276378632,0.001891806721687317,0.01975253224372864,0.01025009155273438,XArbitraryZVertical,-0.1198870521544776,-0.1860369240673328,-0.9654255543775807,-0.1377348175760738,-0.1802365183830261,-0.3922348320484161,-0.9020346999168396,0,0,0,-1,-1,34103.36935416667,walking,2,2022-06-02T10:45:33.939+02:00,2022-06-02T10:32:51.428+02:00,64,2.264229,0,0,60.10083,0,0,2022-06-02T10:45:36.492+02:00,675852336.4922879,0,11.41016,101.0552,1,0.89
2022-06-02T10:45:38.739+02:00,1654159538.486943,53.2289370904497,10.39807396998332,20.86453,1.315907,1.606681,-1,-1,157.8533020019531,64,-9999,34108.16492075,-0.17669677734375,-0.37701416015625,-0.886505126953125,34108.15618375,2.898454729611625,-0.1968483743659562,0.4027167954573483,-0.01267395354807377,0.01802455447614193,-0.02175056748092175,-0.0004563033580780029,0.01701077818870544,0.01664286851882935,XArbitraryZVertical,-0.1197060117775967,-0.1858877140549587,-0.9654742589670821,-0.137752607264049,-0.1799331158399582,-0.3919192254543304,-0.9022324681282043,0,0,0,-1,-1,34103.36935416667,walking,2,2022-06-02T10:45:33.939+02:00,2022-06-02T10:32:51.428+02:00,64,2.264229,0,0,60.10083,0,0,2022-06-02T10:45:36.492+02:00,675852336.4922879,0,11.41016,101.0552,1,0.89
2022-06-02T10:45:38.749+02:00,1654159538.486943,53.2289370904497,10.39807396998332,20.86453,1.315907,1.606681,-1,-1,157.8533020019531,64,-9999,34108.17489275,-0.17913818359375,-0.3783416748046875,-0.8923797607421875,34108.16615675001,2.898137937117128,-0.1966643499743181,0.4025334062394196,-0.0009834759403020144,0.002759847091510892,-0.04162680357694626,0.003099590539932251,0.01455321907997131,0.01531213521957397,XArbitraryZVertical,-0.1196375462280211,-0.1857924611827454,-0.9654826770783859,-0.137881907657891,-0.1797811239957809,-0.3917505145072937,-0.902336061000824,0,0,0,-1,-1,34103.36935416667,walking,2,2022-06-02T10:45:33.939+02:00,2022-06-02T10:32:51.428+02:00,64,2.264229,0,0,60.10083,0,0,2022-06-02T10:45:36.492+02:00,675852336.4922879,0,11.41016,101.0552,1,0.89
2022-06-02T10:45:38.759+02:00,1654159538.486943,53.2289370904497,10.39807396998332,20.86453,1.315907,1.606681,-1,-1,157.8533020019531,64,-9999,34108.18486575,-0.1780853271484375,-0.3853302001953125,-0.8964385986328125,34108.17612875,2.897632452625314,-0.1964816858501745,0.4025408930144945,0.01525465957820415,0.006522450130432844,-0.0625494197010994,0.001209959387779236,0.01396501064300537,0.01081019639968872,XArbitraryZVertical,-0.1195967008509836,-0.185778482821555,-0.9654578573060175,-0.1381091953856307,-0.1796157211065292,-0.3917573988437653,-0.9023659825325012,0,0,0,-1,-1,34103.36935416667,walking,2,2022-06-02T10:45:33.939+02:00,2022-06-02T10:32:51.428+02:00,64,2.264229,0,0,60.10083,0,0,2022-06-02T10:45:36.492+02:00,675852336.4922879,0,11.41016,101.0552,1,0.89
2022-06-02T10:45:38.769+02:00,1654159538.486943,53.2289370904497,10.39807396998332,20.86453,1.315907,1.606681,-1,-1,157.8533020019531,64,-9999,34108.19483875,-0.1707000732421875,-0.3821258544921875,-0.8978271484375,34108.18610175001,2.896868726271447,-0.1961494301440075,0.4028909586358321,0.02299833297729492,-0.005986950360238552,-0.08230235427618027,0.0005781948566436768,0.008687108755111694,0.005760908126831055,XArbitraryZVertical,-0.1195246754025364,-0.1859255992592342,-0.9653883668546142,-0.1384594401273881,-0.1792891472578049,-0.3920794725418091,-0.9022910594940186,0,0,0,-1,-1,34103.36935416667,walking,2,2022-06-02T10:45:33.939+02:00,2022-06-02T10:32:51.428+02:00,64,2.264229,0,0,60.10083,0,0,2022-06-02T10:45:36.492+02:00,675852336.4922879,0,11.41016,101.0552,1,0.89
2022-06-02T10:45:38.779+02:00,1654159538.486943,53.2289370904497,10.39807396998332,20.86453,1.315907,1.606681,-1,-1,157.8533020019531,64,-9999,34108.20481075,-0.16986083984375,-0.3822174072265625,-0.898895263671875,34108.19607475001,2.896070451271813,-0.1959129922554882,0.4032818555499331,0.01245803013443947,-0.009542359039187431,-0.07387648522853851,0.007689744234085083,0.008772015571594238,0.004752576351165771,XArbitraryZVertical,-0.11950429608653,-0.1860839079909974,-0.9653061796282787,-0.138836583076607,-0.1790459603071213,-0.3924390375614166,-0.9021829962730408,0,0,0,-1,-1,34103.36935416667,walking,2,2022-06-02T10:45:33.939+02:00,2022-06-02T10:32:51.428+02:00,64,2.264229,0,0,60.10083,0,0,2022-06-02T10:45:36.492+02:00,675852336.4922879,0,11.41016,101.0552,1,0.89
2022-06-02T10:45:38.789+02:00,1654159538.486943,53.2289370904497,10.39807396998332,20.86453,1.315907,1.606681,-1,-1,157.8533020019531,64,-9999,34108.21478375,-0.17474365234375,-0.3803863525390625,-0.897918701171875,34108.20604675001,2.89533217240173,-0.1958489736206668,0.4035972606050533,0.009329082444310188,-0.03679342195391655,-0.06636343896389008,0.01024766266345978,0.009748756885528564,0.003711819648742676,XArbitraryZVertical,-0.1195579075132792,-0.1861972354586579,-0.9652255442173007,-0.1391980540634483,-0.1789641082286835,-0.3927291035652161,-0.9020729660987854,0,0,0,-1,-1,34103.36935416667,walking,2,2022-06-02T10:45:33.939+02:00,2022-06-02T10:32:51.428+02:00,64,2.264229,0,0,60.10083,0,0,2022-06-02T10:45:36.492+02:00,675852336.4922879,0,11.41016,101.0552,1,0.89
2022-06-02T10:45:38.802+02:00,1654159538.486943,53.2289370904497,10.39807396998332,20.86453,1.315907,1.606681,-1,-1,157.8533020019531,64,-9999,34108.22475575,-0.179931640625,-0.38299560546875,-0.89569091796875,34108.21601975001,2.894671389646323,-0.1959603862241815,0.4036745033979858,-0.006019557826220989,-0.04495690017938614,-0.05716646090149879,0.005215317010879517,0.01235273480415344,0.0042877197265625,XArbitraryZVertical,-0.1196770678275137,-0.1861874053971309,-0.9651647776077085,-0.1395300563784485,-0.179058700799942,-0.3928001523017883,-0.9020233154296875,0,0,0,-1,-1,34103.36935416667,walking,2,2022-06-02T10:45:33.939+02:00,2022-06-02T10:32:51.428+02:00,64,2.264229,0,0,60.10083,0,0,2022-06-02T10:45:36.492+02:00,675852336.4922879,0,11.41016,101.0552,1,0.89
2022-06-02T10:45:38.813+02:00,1654159538.486943,53.2289370904497,10.39807396998332,20.86453,1.315907,1.606681,-1,-1,157.8533020019531,64,-9999,34108.23472875,-0.18072509765625,-0.384735107421875,-0.890380859375,34108.22599175001,2.894053722835953,-0.1961801002625521,0.4034250712173109,-0.007706137839704752,-0.04328896105289459,-0.05560211837291718,-6.057322025299072e-05,0.01017019152641296,0.005656719207763672,XArbitraryZVertical,-0.1198280013514588,-0.1860140930090896,-0.9651346888752285,-0.139839785125791,-0.1792759746313095,-0.3925707638263702,-0.9020799994468689,0,0,0,-1,-1,34103.36935416667,walking,2,2022-06-02T10:45:33.939+02:00,2022-06-02T10:32:51.428+02:00,64,2.264229,0,0,60.10083,0,0,2022-06-02T10:45:36.492+02:00,675852336.4922879,0,11.41016,101.0552,1,0.89
2022-06-02T10:45:38.819+02:00,1654159538.486943,53.2289370904497,10.39807396998332,20.86453,1.315907,1.606681,-1,-1,157.8533020019531,64,-9999,34108.24470175,-0.18280029296875,-0.3925323486328125,-0.8861541748046875,34108.23596475001,2.893557040688022,-0.1965120406261151,0.4032085028291416,-0.01157553400844336,-0.04276582598686218,-0.0422777459025383,-0.0009652525186538696,0.008063644170761108,0.01123470067977905,XArbitraryZVertical,-0.1200234187076268,-0.185856043247413,-0.9651027449341768,-0.1401026773528288,-0.1795919984579086,-0.3923715651035309,-0.9021038413047791,0,0,0,-1,-1,34103.36935416667,walking,2,2022-06-02T10:45:33.939+02:00,2022-06-02T10:32:51.428+02:00,64,2.264229,0,0,60.10083,0,0,2022-06-02T10:45:36.492+02:00,675852336.4922879,0,11.41016,101.0552,1,0.89
2022-06-02T10:45:38.829+02:00,1654159538.486943,53.2289370904497,10.39807396998332,20.86453,1.315907,1.606681,-1,-1,157.8533020019531,64,-9999,34108.25467375,-0.1870269775390625,-0.393341064453125,-0.8838348388671875,34108.24593775001,2.893128303771959,-0.1967204041674117,0.4030351770209213,-0.01176408585160971,-0.03210199624300003,-0.04294593259692192,-0.002488240599632263,-0.0003507733345031738,0.01617729663848877,XArbitraryZVertical,-0.1201550197383034,-0.1857316317527804,-0.9650783477297639,-0.140322788634151,-0.1797932535409927,-0.3922121226787567,-0.902133047580719,0,0,0,-1,-1,34103.36935416667,walking,2,2022-06-02T10:45:33.939+02:00,2022-06-02T10:32:51.428+02:00,64,2.264229,0,0,60.10083,0,0,2022-06-02T10:45:36.492+02:00,675852336.4922879,0,11.41016,101.0552,1,0.89
2022-06-02T10:45:38.838+02:00,1654159538.486943,53.2289370904497,10.39807396998332,20.86453,1.315907,1.606681,-1,-1,157.8533020019531,64,-9999,34108.26464675,-0.182098388671875,-0.388580322265625,-0.8932037353515625,34108.25590975001,2.89275925231114,-0.196862951256492,0.4027030298877504,-0.03414946421980858,-0.02818750403821468,-0.01944291591644287,-0.007293298840522766,-0.0004884600639343262,0.01881229877471924,XArbitraryZVertical,-0.120241219634921,-0.1855383661883117,-0.9650786403497035,-0.1405023327724564,-0.1799473166465759,-0.3919065594673157,-0.9022351503372192,0,0,0,-1,-1,34103.36935416667,walking,2,2022-06-02T10:45:33.939+02:00,2022-06-02T10:32:51.428+02:00,64,2.264229,0,0,60.10083,0,0,2022-06-02T10:45:36.492+02:00,675852336.4922879,0,11.41016,101.0552,1,0.89
2022-06-02T10:45:38.848+02:00,1654159538.486943,53.2289370904497,10.39807396998332,20.86453,1.315907,1.606681,-1,-1,157.8533020019531,64,-9999,34108.27461875,-0.1843719482421875,-0.3727569580078125,-0.901763916015625,34108.26588275001,2.892527274076306,-0.1970352085970146,0.4022326558722995,-0.04172535985708237,-0.02772118523716927,-0.003454096149653196,-0.00206640362739563,0.001260727643966675,0.01046282052993774,XArbitraryZVertical,-0.1203219604511169,-0.1852841809312075,-0.9651012259743054,-0.1406135745838034,-0.1801387965679169,-0.3914737701416016,-0.9023848176002502,0,0,0,-1,-1,34103.36935416667,walking,2,2022-06-02T10:45:33.939+02:00,2022-06-02T10:32:51.428+02:00,64,2.264229,0,0,60.10083,0,0,2022-06-02T10:45:36.492+02:00,675852336.4922879,0,11.41016,101.0552,1,0.89
2022-06-02T10:45:38.858+02:00,1654159538.486943,53.2289370904497,10.39807396998332,20.86453,1.315907,1.606681,-1,-1,157.8533020019531,64,-9999,34108.28459175,-0.188507080078125,-0.375244140625,-0.9079437255859375,34108.27585475001,2.892441555021141,-0.1970849262733125,0.4018720938700168,-0.01081928424537182,-0.01589470915496349,0.01144185196608305,-0.002680554986000061,0.01771363615989685,0.002077817916870117,XArbitraryZVertical,-0.1203355724905712,-0.1851006814379759,-0.9651297961275918,-0.1406467138481291,-0.1802112907171249,-0.3911419808864594,-0.9025141596794128,0,0,0,-1,-1,34103.36935416667,walking,2,2022-06-02T10:45:33.939+02:00,2022-06-02T10:32:51.428+02:00,64,2.264229,0,0,60.10083,0,0,2022-06-02T10:45:36.492+02:00,675852336.4922879,0,11.41016,101.0552,1,0.89
2022-06-02T10:45:38.869+02:00,1654159538.486943,53.2289370904497,10.39807396998332,20.86453,1.315907,1.606681,-1,-1,157.8533020019531,64,-9999,34108.29456475,-0.182769775390625,-0.383758544921875,-0.91015625,34108.28582775001,2.892469929142502,-0.1969862886480138,0.401757719774909,0.003486683825030923,0.001561779761686921,0.007923548109829426,-0.007933557033538818,0.01596039533615112,-0.005184769630432129,XArbitraryZVertical,-0.1202795308860482,-0.1850538472426393,-0.9651496985621252,-0.1406198420117577,-0.1801310181617737,-0.391036719083786,-0.9025757908821106,0,0,0,-1,-1,34103.36935416667,walking,2,2022-06-02T10:45:33.939+02:00,2022-06-02T10:32:51.428+02:00,64,2.264229,0,0,60.10083,0,0,2022-06-02T10:45:36.492+02:00,675852336.4922879,0,11.41016,101.0552,1,0.89
2022-06-02T10:45:38.879+02:00,1654159538.486943,53.2289370904497,10.39807396998332,20.86453,1.315907,1.606681,-1,-1,157.8533020019531,64,-9999,34108.30453675,-0.177947998046875,-0.3843994140625,-0.9155120849609375,34108.29580075001,2.892537194680043,-0.1969177718476181,0.4016080906561597,0.002469179220497608,-0.007650183513760567,0.01645907014608383,-0.004413396120071411,0.008330613374710083,-0.007464945316314697,XArbitraryZVertical,-0.1202326369715609,-0.1849901372138221,-0.965174173260104,-0.1405757334179079,-0.1800806224346161,-0.3908990025520325,-0.9026455283164978,0,0,0,-1,-1,34103.36935416667,walking,2,2022-06-02T10:45:33.939+02:00,2022-06-02T10:32:51.428+02:00,64,2.264229,0,0,60.10083,0,0,2022-06-02T10:45:36.492+02:00,675852336.4922879,0,11.41016,101.0552,1,0.89
2022-06-02T10:45:38.888+02:00,1654159538.486943,53.2289370904497,10.39807396998332,20.86453,1.315907,1.606681,-1,-1,157.8533020019531,64,-9999,34108.31450975,-0.1885223388671875,-0.3824005126953125,-0.915924072265625,34108.30577275001,2.892759714500529,-0.1971906645243409,0.4014602166615024,-0.0008259499445557594,-0.02188451401889324,0.01721247844398022,0.002756461501121521,0.006531268358230591,-0.0123860239982605,XArbitraryZVertical,-0.120336242874269,-0.1849126229641672,-0.9651888373993728,-0.1404883321479049,-0.1803382635116577,-0.3907628655433655,-0.9026530385017395,0,0,0,-1,-1,34103.36935416667,walking,2,2022-06-02T10:45:33.939+02:00,2022-06-02T10:32:51.428+02:00,64,2.264229,0,0,60.10083,0,0,2022-06-02T10:45:36.492+02:00,675852336.4922879,0,11.41016,101.0552,1,0.89
2022-06-02T10:45:38.898+02:00,1654159538.486943,53.2289370904497,10.39807396998332,20.86453,1.315907,1.606681,-1,-1,157.8533020019531,64,-9999,34108.32448175,-0.1907501220703125,-0.38568115234375,-0.913116455078125,34108.31574575001,2.892913492897292,-0.1975018711758219,0.4013665371500982,-0.006660758517682552,-0.02263250574469566,0.005296207033097744,-0.005988642573356628,0.006857037544250488,-0.01319974660873413,XArbitraryZVertical,-0.1204674540990271,-0.1848545681069102,-0.9651907676514545,-0.1404395803054417,-0.1806263476610184,-0.3906766474246979,-0.9026327729225159,0,0,0,-1,-1,34103.36935416667,walking,2,2022-06-02T10:45:33.939+02:00,2022-06-02T10:32:51.428+02:00,64,2.264229,0,0,60.10083,0,0,2022-06-02T10:45:36.492+02:00,675852336.4922879,0,11.41016,101.0552,1,0.89
2022-06-02T10:45:38.908+02:00,1654159538.486943,53.2289370904497,10.39807396998332,20.86453,1.315907,1.606681,-1,-1,157.8533020019531,64,-9999,34108.33445475,-0.1851806640625,-0.3878173828125,-0.9082183837890625,34108.32571775001,2.892905624445366,-0.1978632161257618,0.401398983797193,-0.01910331472754478,-0.02981345355510712,-0.01125320792198181,-0.01123444736003876,0.006658047437667847,-0.01086658239364624,XArbitraryZVertical,-0.1206442041725896,-0.1848444439513686,-0.9651650931616134,-0.1404779471922572,-0.1809500157833099,-0.3907065093517303,-0.902554988861084,0,0,0,-1,-1,34103.36935416667,walking,2,2022-06-02T10:45:33.939+02:00,2022-06-02T10:32:51.428+02:00,64,2.264229,0,0,60.10083,0,0,2022-06-02T10:45:36.492+02:00,675852336.4922879,0,11.41016,101.0552,1,0.89
2022-06-02T10:45:38.918+02:00,1654159538.486943,53.2289370904497,10.39807396998332,20.86453,1.315907,1.606681,-1,-1,157.8533020019531,64,-9999,34108.34442775,-0.186737060546875,-0.38433837890625,-0.90771484375,34108.33569075001,2.892751122262456,-0.1983710715234555,0.4013391230021288,-0.03668323904275894,-0.04336228594183922,-0.02093825861811638,-0.003889769315719604,0.001155555248260498,-0.006602227687835693,XArbitraryZVertical,-0.1209005312108116,-0.1847704178093356,-0.9651297123644887,-0.1405972579820052,-0.1814129650592804,-0.3906514048576355,-0.9024859070777893,0,0,0,-1,-1,34103.36935416667,walking,2,2022-06-02T10:45:33.939+02:00,2022-06-02T10:32:51.428+02:00,64,2.264229,0,0,60.10083,0,0,2022-06-02T10:45:36.492+02:00,675852336.4922879,0,11.41016,101.0552,1,0.89
2022-06-02T10:45:38.928+02:00,1654159538.486943,53.2289370904497,10.39807396998332,20.86453,1.315907,1.606681,-1,-1,157.8533020019531,64,-9999,34108.35439975,-0.1882781982421875,-0.3806304931640625,-0.9064788818359375,34108.34566375,2.892474479994058,-0.1987639134936547,0.4011102005831552,-0.02978591807186604,-0.04851629957556725,-0.0241502970457077,-0.004646763205528259,0.006132781505584717,-0.005044758319854736,XArbitraryZVertical,-0.1211040313894669,-0.1846150153766004,-0.9651104005202905,-0.1407588224268788,-0.1817851364612579,-0.3904406726360321,-0.9025022387504578,0,0,0,-1,-1,34103.36935416667,walking,2,2022-06-02T10:45:33.939+02:00,2022-06-02T10:32:51.428+02:00,64,2.264229,0,0,60.10083,0,0,2022-06-02T10:45:36.492+02:00,675852336.4922879,0,11.41016,101.0552,1,0.89
2022-06-02T10:45:38.938+02:00,1654159538.486943,53.2289370904497,10.39807396998332,20.86453,1.315907,1.606681,-1,-1,157.8533020019531,64,-9999,34108.36437275,-0.1841583251953125,-0.3830108642578125,-0.9011077880859375,34108.35563575001,2.892189922369997,-0.1990539509554562,0.4006595420256686,-0.01070698816329241,-0.02967088483273983,-0.02469160780310631,-0.006089732050895691,0.009746164083480835,-0.004452109336853027,XArbitraryZVertical,-0.1212473433950548,-0.1843587676843007,-0.9651198452513238,-0.1409066968708173,-0.1820816695690155,-0.3900257349014282,-0.902621865272522,0,0,0,-1,-1,34103.36935416667,walking,2,2022-06-02T10:45:33.939+02:00,2022-06-02T10:32:51.428+02:00,64,2.264229,0,0,60.10083,0,0,2022-06-02T10:45:36.492+02:00,675852336.4922879,0,11.41016,101.0552,1,0.89
2022-06-02T10:45:38.948+02:00,1654159538.486943,53.2289370904497,10.39807396998332,20.86453,1.315907,1.606681,-1,-1,157.8533020019531,64,-9999,34108.37434475,-0.1758575439453125,-0.3848724365234375,-0.8960418701171875,34108.36560875,2.891958775468788,-0.1992354872475113,0.4004074382947739,0.004694604780524969,-0.01013659965246916,-0.02457895502448082,-0.002671554684638977,0.007133632898330688,-0.0001163482666015625,XArbitraryZVertical,-0.1213434204686011,-0.1842096756251124,-0.9651188420004256,-0.1410258904637305,-0.182264968752861,-0.3897935748100281,-0.9026851654052734,0,0,0,-1,-1,34103.36935416667,walking,2,2022-06-02T10:45:33.939+02:00,2022-06-02T10:32:51.428+02:00,64,2.264229,0,0,60.10083,0,0,2022-06-02T10:45:36.492+02:00,675852336.4922879,0,11.41016,101.0552,1,0.89
2022-06-02T10:45:38.958+02:00,1654159538.486943,53.2289370904497,10.39807396998332,20.86453,1.315907,1.606681,-1,-1,157.8533020019531,64,-9999,34108.38431775,-0.174591064453125,-0.3862457275390625,-0.9031829833984375,34108.37558075001,2.89176199170855,-0.1992975650607919,0.4002355487496725,-0.009141227230429649,-0.01890780963003635,-0.01230129599571228,0.005805328488349915,0.005281627178192139,0.006087243556976318,XArbitraryZVertical,-0.1213827511101348,-0.1841100028387019,-0.9651190296669073,-0.141120346064079,-0.1823342740535736,-0.389635294675827,-0.9027394652366638,0,0,0,-1,-1,34103.36935416667,walking,2,2022-06-02T10:45:33.939+02:00,2022-06-02T10:32:51.428+02:00,64,2.264229,0,0,60.10083,0,0,2022-06-02T10:45:36.492+02:00,675852336.4922879,0,11.41016,101.0552,1,0.89
2022-06-02T10:45:38.968+02:00,1654159538.486943,53.2289370904497,10.39807396998332,20.86453,1.315907,1.606681,-1,-1,157.8533020019531,64,-9999,34108.39429075,-0.180633544921875,-0.38677978515625,-0.9088287353515625,34108.38555375,2.89163934253893,-0.199214116438701,0.3999723860798932,-0.01340388227254152,-0.005170957650989294,0.0008962657302618027,0.007978066802024841,0.001758605241775513,-0.0003125667572021484,XArbitraryZVertical,-0.121340360123446,-0.183980815269477,-0.9651428185516999,-0.1411623585235093,-0.1822792291641235,-0.3893929123878479,-0.9028551578521729,0,0,0,-1,-1,34103.36935416667,walking,2,2022-06-02T10:45:33.939+02:00,2022-06-02T10:32:51.428+02:00,64,2.264229,0,0,60.10083,0,0,2022-06-02T10:45:36.492+02:00,675852336.4922879,0,11.41016,101.0552,1,0.89
2022-06-02T10:45:38.978+02:00,1654159538.486943,53.2289370904497,10.39807396998332,20.86453,1.315907,1.606681,-1,-1,157.8533020019531,64,-9999,34108.40426275,-0.1825408935546875,-0.384063720703125,-0.9122772216796875,34108.39552675,2.891762095784244,-0.1992953283464601,0.3996093518853976,-0.0033522245939821,-0.002386445179581642,0.02160057052969933,0.001273944973945618,0.002156615257263184,-0.005193710327148438,XArbitraryZVertical,-0.1213497583783487,-0.1838064367858736,-0.965184381183983,-0.1410975119657955,-0.1823805272579193,-0.3890585005283356,-0.9029788374900818,0,0,0,-1,-1,34103.36935416667,walking,2,2022-06-02T10:45:33.939+02:00,2022-06-02T10:32:51.428+02:00,64,2.264229,0,0,60.10083,0,0,2022-06-02T10:45:36.492+02:00,675852336.4922879,0,11.41016,101.0552,1,0.89
2022-06-02T10:45:38.988+02:00,1654159538.486943,53.2289370904497,10.39807396998332,20.86453,1.315907,1.606681,-1,-1,157.8533020019531,64,-9999,34108.41423575,-0.1860504150390625,-0.3807830810546875,-0.905731201171875,34108.40549875,2.892208294614535,-0.1995065936413468,0.3994531773724715,0.02158375270664692,0.02396073937416077,0.04079157486557961,0.0008358806371688843,0.004301548004150391,-0.009246826171875,XArbitraryZVertical,-0.1214027631516563,-0.1837428601877555,-0.9652192986194034,-0.1408959605132911,-0.1825833320617676,-0.3889146149158478,-0.9029998779296875,0,0,0,-1,-1,34103.36935416667,walking,2,2022-06-02T10:45:33.939+02:00,2022-06-02T10:32:51.428+02:00,64,2.264229,0,0,60.10083,0,0,2022-06-02T10:45:36.492+02:00,675852336.4922879,0,11.41016,101.0552,1,0.89
2022-06-02T10:45:38.998+02:00,1654159538.486943,53.2289370904497,10.39807396998332,20.86453,1.315907,1.606681,-1,-1,157.8533020019531,64,-9999,34108.42420775,-0.18096923828125,-0.3888397216796875,-0.896240234375,34108.41547175,2.892769289068993,-0.1994737530674855,0.3996005722048536,0.03018150106072426,0.03224743157625198,0.05364905297756195,-0.003462329506874084,0.008419901132583618,-0.003590226173400879,XArbitraryZVertical,-0.121342842332384,-0.1838507112353517,-0.965245451514665,-0.1406275297359518,-0.1825423091650009,-0.3890504240989685,-0.9029496908187866,0,0,0,-1,-1,34103.36935416667,walking,2,2022-06-02T10:45:33.939+02:00,2022-06-02T10:32:51.428+02:00,64,2.264229,0,0,60.10083,0,0,2022-06-02T10:45:36.492+02:00,675852336.4922879,0,11.41016,101.0552,1,0.89
2022-06-02T10:45:39.008+02:00,1654159538.486943,53.2289370904497,10.39807396998332,20.86453,1.315907,1.606681,-1,-1,157.8533020019531,64,-9999,34108.43418075,-0.171234130859375,-0.386016845703125,-0.892364501953125,34108.42544375,2.893379590501928,-0.1994287094383169,0.3996302698299747,0.0216042585670948,0.03211240842938423,0.04545876383781433,0.0002025812864303589,0.001138299703598022,0.005790829658508301,XArbitraryZVertical,-0.1212664920099422,-0.1839052860335469,-0.9652880116293882,-0.1403299268027348,-0.1824993491172791,-0.3890777826309204,-0.9029465913772583,0,0,0,-1,-1,34103.36935416667,walking,2,2022-06-02T10:45:33.939+02:00,2022-06-02T10:32:51.428+02:00,64,2.264229,0,0,60.10083,0,0,2022-06-02T10:45:36.492+02:00,675852336.4922879,0,11.41016,101.0552,1,0.89
2022-06-02T10:45:39.018+02:00,1654159538.486943,53.2289370904497,10.39807396998332,20.86453,1.315907,1.606681,-1,-1,157.8533020019531,64,-9999,34108.44415375,-0.17169189453125,-0.3804473876953125,-0.8918914794921875,34108.43541675,2.893891292750513,-0.1994979048674812,0.3994360618290981,0.001668366370722651,0.02229226939380169,0.03829246386885643,0.01137317717075348,0.001966476440429688,0.009895801544189453,XArbitraryZVertical,-0.1212430378245106,-0.1838372443601343,-0.9653399035584659,-0.1400822846765876,-0.1825768053531647,-0.3888988494873047,-0.903007984161377,0,0,0,-1,-1,34103.36935416667,walking,2,2022-06-02T10:45:33.939+02:00,2022-06-02T10:32:51.428+02:00,64,2.264229,0,0,60.10083,0,0,2022-06-02T10:45:36.492+02:00,675852336.4922879,0,11.41016,101.0552,1,0.89
2022-06-02T10:45:39.028+02:00,1654159538.486943,53.2289370904497,10.39807396998332,20.86453,1.315907,1.606681,-1,-1,157.8533020019531,64,-9999,34108.45412575,-0.1786346435546875,-0.380340576171875,-0.886199951171875,34108.44538975,2.8941820446049,-0.1994412101942087,0.3993808215945881,0.009523360058665276,0.02268694899976254,0.01264196168631315,0.01129572093486786,0.006859421730041504,0.01116317510604858,XArbitraryZVertical,-0.1211861698400807,-0.1838320559022159,-0.9653693501781452,-0.1399347052879684,-0.1825298517942429,-0.3888479769229889,-0.9030393958091736,0,0,0,-1,-1,34103.36935416667,walking,2,2022-06-02T10:45:33.939+02:00,2022-06-02T10:32:51.428+02:00,64,2.264229,0,0,60.10083,0,0,2022-06-02T10:45:36.492+02:00,675852336.4922879,0,11.41016,101.0552,1,0.89
2022-06-02T10:45:39.038+02:00,1654159538.486943,53.2289370904497,10.39807396998332,20.86453,1.315907,1.606681,-1,-1,157.8533020019531,64,-9999,34108.46409875,-0.1743927001953125,-0.3848724365234375,-0.8924102783203125,34108.45536175,2.894199671516645,-0.1991426066485621,0.399415554998685,0.008792588487267494,0.021164420992136,-0.005145291797816753,0.003775477409362793,0.01047724485397339,0.01743000745773315,XArbitraryZVertical,-0.121042165442049,-0.1838708598180741,-0.9653850707770646,-0.1399000099476372,-0.1822575330734253,-0.3888799548149109,-0.9030805826187134,0,0,0,-1,-1,34103.36935416667,walking,2,2022-06-02T10:45:33.939+02:00,2022-06-02T10:32:51.428+02:00,64,2.264229,0,0,60.10083,0,0,2022-06-02T10:45:36.492+02:00,675852336.4922879,0,11.41016,101.0552,1,0.89
2022-06-02T10:45:39.048+02:00,1654159538.486943,53.2289370904497,10.39807396998332,20.86453,1.315907,1.606681,-1,-1,157.8533020019531,64,-9999,34108.47407075,-0.1749267578125,-0.3861541748046875,-0.896697998046875,34108.46533475,2.894044337319245,-0.198721606383473,0.3995527550096639,0.007575257681310177,0.02568353898823261,-0.0135536901652813,0.007214680314064026,0.002333372831344604,0.01193064451217651,XArbitraryZVertical,-0.120860150946787,-0.1839574759474901,-0.9653854098028354,-0.1399412320231514,-0.181866779923439,-0.3890063762664795,-0.9031049609184265,0,0,0,-1,-1,34103.36935416667,walking,2,2022-06-02T10:45:33.939+02:00,2022-06-02T10:32:51.428+02:00,64,2.264229,0,0,60.10083,0,0,2022-06-02T10:45:36.492+02:00,675852336.4922879,0,11.41016,101.0552,1,0.89
2022-06-02T10:45:39.058+02:00,1654159538.486943,53.2289370904497,10.39807396998332,20.86453,1.315907,1.606681,-1,-1,157.8533020019531,64,-9999,34108.48404375,-0.175445556640625,-0.3907928466796875,-0.90478515625,34108.47530675,2.893877116116968,-0.198449846825492,0.3994491253300379,-0.01900202408432961,0.01467855833470821,-0.01520751416683197,0.006290540099143982,0.004694551229476929,0.007106184959411621,XArbitraryZVertical,-0.1207391216375776,-0.1839161171812434,-0.965400913337131,-0.1399932292422538,-0.1816293001174927,-0.3889108896255493,-0.9031938314437866,0,0,0,-1,-1,34103.36935416667,walking,2,2022-06-02T10:45:33.939+02:00,2022-06-02T10:32:51.428+02:00,64,2.305696,0,0,60.10083,0,0,2022-06-02T10:45:39.045+02:00,675852339.045217,0,11.44922,101.0548,1,0.89
2022-06-02T10:45:39.068+02:00,1654159538.486943,53.2289370904497,10.39807396998332,20.86453,1.315907,1.606681,-1,-1,157.8533020019531,64,-9999,34108.49401675,-0.1835479736328125,-0.3886871337890625,-0.907196044921875,34108.48527975,2.893720306432704,-0.1982510505527251,0.3990932485273977,-0.02487535960972309,0.0142282173037529,0.0008715875446796417,0.006870657205581665,-0.002179354429244995,-0.0005803108215332031,XArbitraryZVertical,-0.1206395940430917,-0.1837479228011308,-0.9654389115520619,-0.140037854117288,-0.1814769804477692,-0.3885830044746399,-0.9033655524253845,0,0,0,-1,-1,34103.36935416667,walking,2,2022-06-02T10:45:33.939+02:00,2022-06-02T10:32:51.428+02:00,64,2.305696,0,0,60.10083,0,0,2022-06-02T10:45:39.045+02:00,675852339.045217,0,11.44922,101.0548,1,0.89
2022-06-02T10:45:39.078+02:00,1654159538.486943,53.2289370904497,10.39807396998332,20.86453,1.315907,1.606681,-1,-1,157.8533020019531,64,-9999,34108.50398875,-0.1855621337890625,-0.389984130859375,-0.9047088623046875,34108.49525275,2.893752297627609,-0.198207879899751,0.3987211560039637,-0.01800049841403961,0.01541288010776043,0.006963347084820271,-0.0001436620950698853,-0.000126570463180542,-0.004459142684936523,XArbitraryZVertical,-0.1205970052262201,-0.1835723523322755,-0.9654823859004972,-0.1400050746634839,-0.1814664453268051,-0.3882401287555695,-0.903515100479126,0,0,0,-1,-1,34103.36935416667,walking,2,2022-06-02T10:45:33.939+02:00,2022-06-02T10:32:51.428+02:00,64,2.305696,0,0,60.10083,0,0,2022-06-02T10:45:39.045+02:00,675852339.045217,0,11.44922,101.0548,1,0.89
2022-06-02T10:45:39.088+02:00,1654159538.486943,53.2289370904497,10.39807396998332,20.86453,1.315907,1.606681,-1,-1,157.8533020019531,64,-9999,34108.51396175,-0.1780242919921875,-0.386474609375,-0.9046173095703125,34108.50522475,2.893769933023312,-0.1980465263586824,0.3985533712614999,-0.02083143778145313,0.02008912526071072,0.006512473337352276,-0.004839017987251282,-0.002432703971862793,-0.001237928867340088,XArbitraryZVertical,-0.1205090088757223,-0.1835033020108486,-0.9655107695410741,-0.1399757314166035,-0.1813334673643112,-0.3880855143070221,-0.9036082625389099,0,0,0,-1,-1,34103.36935416667,walking,2,2022-06-02T10:45:33.939+02:00,2022-06-02T10:32:51.428+02:00,64,2.305696,0,0,60.10083,0,0,2022-06-02T10:45:39.045+02:00,675852339.045217,0,11.44922,101.0548,1,0.89
2022-06-02T10:45:39.098+02:00,1654159538.486943,53.2289370904497,10.39807396998332,20.86453,1.315907,1.606681,-1,-1,157.8533020019531,64,-9999,34108.52393375,-0.180511474609375,-0.38360595703125,-0.905548095703125,34108.51519775,2.893770472851947,-0.1977594411987026,0.3984486719899338,-0.01139235310256481,0.005789636634290218,0.01623751595616341,0.002844125032424927,0.00110238790512085,-0.0007646083831787109,XArbitraryZVertical,-0.1203650682178909,-0.1834726213781528,-0.9655389791311345,-0.1399453844168657,-0.1810820400714874,-0.3879890143871307,-0.9037001132965088,0,0,0,-1,-1,34103.36935416667,walking,2,2022-06-02T10:45:33.939+02:00,2022-06-02T10:32:51.428+02:00,64,2.305696,0,0,60.10083,0,0,2022-06-02T10:45:39.045+02:00,675852339.045217,0,11.44922,101.0548,1,0.89
2022-06-02T10:45:39.108+02:00,1654159538.486943,53.2289370904497,10.39807396998332,20.86453,1.315907,1.606681,-1,-1,157.8533020019531,64,-9999,34108.53390675,-0.186859130859375,-0.3719482421875,-0.90924072265625,34108.52516975,2.893921659930061,-0.1976698093527801,0.3983147925706638,-0.008951565250754356,-0.00347816408611834,0.02336839959025383,0.001338973641395569,0.004061251878738403,-0.001765608787536621,XArbitraryZVertical,-0.120301165509894,-0.1834230518751667,-0.9655687308801553,-0.1398593450240666,-0.1810112297534943,-0.3878656029701233,-0.9037672281265259,0,0,0,-1,-1,34103.36935416667,walking,2,2022-06-02T10:45:33.939+02:00,2022-06-02T10:32:51.428+02:00,64,2.305696,0,0,60.10083,0,0,2022-06-02T10:45:39.045+02:00,675852339.045217,0,11.44922,101.0548,1,0.89
2022-06-02T10:45:39.118+02:00,1654159538.486943,53.2289370904497,10.39807396998332,20.86453,1.315907,1.606681,-1,-1,157.8533020019531,64,-9999,34108.54387975,-0.1898345947265625,-0.3725738525390625,-0.910919189453125,34108.53514275,2.894192381511085,-0.1977831335322855,0.3981410199346744,-0.007074657827615738,0.01188303809612989,0.02512306347489357,-0.004084303975105286,0.01507052779197693,-0.004695534706115723,XArbitraryZVertical,-0.1203222755402305,-0.1833471038697194,-0.9655988344843447,-0.139732799411428,-0.1811268925666809,-0.3877054452896118,-0.9038127660751343,0,0,0,-1,-1,34103.36935416667,walking,2,2022-06-02T10:45:33.939+02:00,2022-06-02T10:32:51.428+02:00,64,2.305696,0,0,60.10083,0,0,2022-06-02T10:45:39.045+02:00,675852339.045217,0,11.44922,101.0548,1,0.89
2022-06-02T10:45:39.128+02:00,1654159538.486943,53.2289370904497,10.39807396998332,20.86453,1.315907,1.606681,-1,-1,157.8533020019531,64,-9999,34108.55385175,-0.1857757568359375,-0.3799591064453125,-0.9071807861328125,34108.54511575,2.894467435264731,-0.1976828547300505,0.3981430006978404,0.002859731670469046,0.01659603416919708,0.03121131658554077,-0.008554339408874512,0.01571324467658997,-0.008187592029571533,XArbitraryZVertical,-0.1202487407842563,-0.1833716023089615,-0.9656239029000372,-0.1395908905176816,-0.1810360997915268,-0.3877072632312775,-0.9038301706314087,0,0,0,-1,-1,34103.36935416667,walking,2,2022-06-02T10:45:33.939+02:00,2022-06-02T10:32:51.428+02:00,64,2.305696,0,0,60.10083,0,0,2022-06-02T10:45:39.045+02:00,675852339.045217,0,11.44922,101.0548,1,0.89
2022-06-02T10:45:39.138+02:00,1654159538.486943,53.2289370904497,10.39807396998332,20.86453,1.315907,1.606681,-1,-1,157.8533020019531,64,-9999,34108.56382475,-0.1810760498046875,-0.3785552978515625,-0.905303955078125,34108.55508775,2.894753669981653,-0.1975677787890463,0.3981059563627931,0.00189801980741322,0.01836721412837505,0.03066006302833557,-0.005466461181640625,0.009148299694061279,-0.00415492057800293,XArbitraryZVertical,-0.1201650686427619,-0.1833788584901075,-0.965654625298745,-0.1394408114994055,-0.1809349209070206,-0.3876731097698212,-0.9038650989532471,0,0,0,-1,-1,34103.36935416667,walking,2,2022-06-02T10:45:33.939+02:00,2022-06-02T10:32:51.428+02:00,64,2.305696,0,0,60.10083,0,0,2022-06-02T10:45:39.045+02:00,675852339.045217,0,11.44922,101.0548,1,0.89
2022-06-02T10:45:39.148+02:00,1654159538.486943,53.2289370904497,10.39807396998332,20.86453,1.315907,1.606681,-1,-1,157.8533020019531,64,-9999,34108.57379675,-0.1835784912109375,-0.3728179931640625,-0.9017181396484375,34108.56506075,2.895012994532535,-0.1974069119603798,0.3980600229698434,-0.0148961404338479,0.01050476357340813,0.02813751995563507,-0.001274868845939636,0.008083611726760864,-0.00242990255355835,XArbitraryZVertical,-0.1200613072749,-0.1833833563452315,-0.9656871054583945,-0.1392992008437993,-0.1807930022478104,-0.3876307606697083,-0.9039116501808167,0,0,0,-1,-1,34103.36935416667,walking,2,2022-06-02T10:45:33.939+02:00,2022-06-02T10:32:51.428+02:00,64,2.305696,0,0,60.10083,0,0,2022-06-02T10:45:39.045+02:00,675852339.045217,0,11.44922,101.0548,1,0.89
2022-06-02T10:45:39.158+02:00,1654159538.486943,53.2289370904497,10.39807396998332,20.86453,1.315907,1.606681,-1,-1,157.8533020019531,64,-9999,34108.58376975,-0.184722900390625,-0.372283935546875,-0.90435791015625,34108.57503275,2.895316870939762,-0.1974370906083392,0.3978466978042334,-0.01600326038897038,0.007043630816042423,0.03111109137535095,-0.001689136028289795,0.01431092619895935,0.002314925193786621,XArbitraryZVertical,-0.1200372971893158,-0.1832959804666411,-0.9657285335825138,-0.139147591197879,-0.1808364987373352,-0.3874341249465942,-0.9039872884750366,0,0,0,-1,-1,34103.36935416667,walking,2,2022-06-02T10:45:33.939+02:00,2022-06-02T10:32:51.428+02:00,64,2.305696,0,0,60.10083,0,0,2022-06-02T10:45:39.045+02:00,675852339.045217,0,11.44922,101.0548,1,0.89
2022-06-02T10:45:39.168+02:00,1654159538.486943,53.2289370904497,10.39807396998332,20.86453,1.315907,1.606681,-1,-1,157.8533020019531,64,-9999,34108.59374275,-0.1818695068359375,-0.378814697265625,-0.904571533203125,34108.58500575,2.895512780203121,-0.1975760811626995,0.3976693759347031,-0.02028988301753998,0.0002810655860230327,0.008885947987437248,-0.004128754138946533,0.01501718163490295,-0.001762747764587402,XArbitraryZVertical,-0.1200775540453422,-0.183212020829035,-0.9657521918213566,-0.1390593712934585,-0.1809756308794022,-0.3872706294059753,-0.9040294885635376,0,0,0,-1,-1,34103.36935416667,walking,2,2022-06-02T10:45:33.939+02:00,2022-06-02T10:32:51.428+02:00,64,2.305696,0,0,60.10083,0,0,2022-06-02T10:45:39.045+02:00,675852339.045217,0,11.44922,101.0548,1,0.89
2022-06-02T10:45:39.178+02:00,1654159538.486943,53.2289370904497,10.39807396998332,20.86453,1.315907,1.606681,-1,-1,157.8533020019531,64,-9999,34108.60371475,-0.1807708740234375,-0.383453369140625,-0.902923583984375,34108.59497875,2.895459668436004,-0.1975716020345785,0.3974578947590565,-0.02065819874405861,-0.0127782765775919,-0.003487363457679749,-0.0008818507194519043,0.008764505386352539,5.78761100769043e-05,XArbitraryZVertical,-0.1200696382185361,-0.1831065194139872,-0.9657706377110714,-0.1390770099365304,-0.1809876412153244,-0.387075662612915,-0.9041105508804321,0,0,0,-1,-1,34103.36935416667,walking,2,2022-06-02T10:45:33.939+02:00,2022-06-02T10:32:51.428+02:00,64,2.305696,0,0,60.10083,0,0,2022-06-02T10:45:39.045+02:00,675852339.045217,0,11.44922,101.0548,1,0.89
2022-06-02T10:45:39.188+02:00,1654159538.486943,53.2289370904497,10.39807396998332,20.86453,1.315907,1.606681,-1,-1,157.8533020019531,64,-9999,34108.61368775,-0.1808319091796875,-0.3877410888671875,-0.897125244140625,34108.60495075,2.8953623748882,-0.1976326765617329,0.3971684977562336,-0.0291755199432373,-0.01585396192967892,-0.005594989284873009,4.984438419342041e-05,0.002836614847183228,0.0009652972221374512,XArbitraryZVertical,-0.1200934969352524,-0.182955988026587,-0.965790140336105,-0.1391191888437248,-0.1810648590326309,-0.3868088126182556,-0.904209315776825,0,0,0,-1,-1,34103.36935416667,walking,2,2022-06-02T10:45:33.939+02:00,2022-06-02T10:32:51.428+02:00,64,2.305696,0,0,60.10083,0,0,2022-06-02T10:45:39.045+02:00,675852339.045217,0,11.44922,101.0548,1,0.89
2022-06-02T10:45:39.198+02:00,1654159538.486943,53.2289370904497,10.39807396998332,20.86453,1.315907,1.606681,-1,-1,157.8533020019531,64,-9999,34108.62365975,-0.17987060546875,-0.3910675048828125,-0.8952178955078125,34108.61492375,2.895281565327958,-0.1978237144615149,0.3966294546723654,-0.03475520014762878,-0.01548182964324951,-0.005005055107176304,-0.0005146563053131104,5.066394805908203e-05,0.005117595195770264,XArbitraryZVertical,-0.1201660414570244,-0.1826762361592005,-0.9658287831891892,-0.1391563047712865,-0.1812785416841507,-0.3863116502761841,-0.9043790102005005,0,0,0,-1,-1,34103.36935416667,walking,2,2022-06-02T10:45:33.939+02:00,2022-06-02T10:32:51.428+02:00,64,2.305696,0,0,60.10083,0,0,2022-06-02T10:45:39.045+02:00,675852339.045217,0,11.44922,101.0548,1,0.89
2022-06-02T10:45:39.208+02:00,1654159538.486943,53.2289370904497,10.39807396998332,20.86453,1.315907,1.606681,-1,-1,157.8533020019531,64,-9999,34108.63363275,-0.1794281005859375,-0.4061737060546875,-0.8940582275390625,34108.62489575,2.895159535858173,-0.1979685849223653,0.3959346047878062,-0.05713028088212013,0.001796492841094732,-0.005656197667121887,0.001423835754394531,-0.005442649126052856,0.009641945362091064,XArbitraryZVertical,-0.120212200271102,-0.1823216175956139,-0.9658831718065234,-0.1392033960312696,-0.1814623028039932,-0.3856706619262695,-0.9046157002449036,0,0,0,-1,-1,34103.36935416667,walking,2,2022-06-02T10:45:33.939+02:00,2022-06-02T10:32:51.428+02:00,64,2.305696,0,0,60.10083,0,0,2022-06-02T10:45:39.045+02:00,675852339.045217,0,11.44922,101.0548,1,0.89
2022-06-02T10:45:39.218+02:00,1654159538.486943,53.2289370904497,10.39807396998332,20.86453,1.315907,1.606681,-1,-1,157.8533020019531,64,-9999,34108.64360575,-0.17388916015625,-0.4077606201171875,-0.891876220703125,34108.63486875,2.895102027959663,-0.1981160783931947,0.3952654474663743,-0.04649041965603828,-0.01712207123637199,0.008834860287606716,0.001989498734474182,-0.01960992813110352,0.009913802146911621,XArbitraryZVertical,-0.1202549976816233,-0.1819831316342889,-0.9659391783448923,-0.1392204469927414,-0.1816464811563492,-0.3850531876087189,-0.9048417210578918,0,0,0,-1,-1,34103.36935416667,walking,2,2022-06-02T10:45:33.939+02:00,2022-06-02T10:32:51.428+02:00,64,2.305696,0,0,60.10083,0,0,2022-06-02T10:45:39.045+02:00,675852339.045217,0,11.44922,101.0548,1,0.89
2022-06-02T10:45:39.228+02:00,1654159538.486943,53.2289370904497,10.39807396998332,20.86453,1.315907,1.606681,-1,-1,157.8533020019531,64,-9999,34108.65357775,-0.1792144775390625,-0.39483642578125,-0.9033660888671875,34108.64484175,2.895197162408298,-0.1983214226413533,0.3946369463817161,-0.05071046575903893,-0.01312599796801805,0.02479678392410278,0.007258355617523193,-0.0235011875629425,0.01420295238494873,XArbitraryZVertical,-0.1203138921145436,-0.1816695033204849,-0.9659980957243456,-0.1391704528327925,-0.181879922747612,-0.38447305560112,-0.905041515827179,0,0,0,-1,-1,34103.36935416667,walking,2,2022-06-02T10:45:33.939+02:00,2022-06-02T10:32:51.428+02:00,64,2.305696,0,0,60.10083,0,0,2022-06-02T10:45:39.045+02:00,675852339.045217,0,11.44922,101.0548,1,0.89
2022-06-02T10:45:39.237+02:00,1654159538.486943,53.2289370904497,10.39807396998332,20.86453,1.315907,1.606681,-1,-1,157.8533020019531,64,-9999,34108.66355075,-0.184478759765625,-0.3925933837890625,-0.89678955078125,34108.65481375,2.895461155708496,-0.1985115171566999,0.3939916975201636,-0.03052650019526482,0.003187994472682476,0.04037580639123917,0.003222063183784485,-0.01243922114372253,0.001136183738708496,XArbitraryZVertical,-0.1203492940174435,-0.1813589517247696,-0.9660713224475984,-0.1390368312557098,-0.1821008622646332,-0.3838773369789124,-0.9052499532699585,0,0,0,-1,-1,34103.36935416667,walking,2,2022-06-02T10:45:33.939+02:00,2022-06-02T10:32:51.428+02:00,64,2.305696,0,0,60.10083,0,0,2022-06-02T10:45:39.045+02:00,675852339.045217,0,11.44922,101.0548,1,0.89
2022-06-02T10:45:39.248+02:00,1654159538.486943,53.2289370904497,10.39807396998332,20.86453,1.315907,1.606681,-1,-1,157.8533020019531,64,-9999,34108.67352275,-0.1832275390625,-0.3912811279296875,-0.9019927978515625,34108.66478675,2.895843907898303,-0.1985862607860945,0.393436248980681,-0.03098349831998348,0.02086659148335457,0.04428532719612122,-0.002359747886657715,-0.008282959461212158,0.007206141948699951,XArbitraryZVertical,-0.120322817301984,-0.1811071611246561,-0.9661503443085214,-0.1388385456877657,-0.1822105497121811,-0.3833643794059753,-0.9054452180862427,0,0,0,-1,-1,34103.36935416667,walking,2,2022-06-02T10:45:33.939+02:00,2022-06-02T10:32:51.428+02:00,64,2.305696,0,0,60.10083,0,0,2022-06-02T10:45:39.045+02:00,675852339.045217,0,11.44922,101.0548,1,0.89
2022-06-02T10:45:39.257+02:00,1654159538.486943,53.2289370904497,10.39807396998332,20.86453,1.315907,1.606681,-1,-1,157.8533020019531,64,-9999,34108.68349575,-0.1790924072265625,-0.38824462890625,-0.8936614990234375,34108.67475875,2.896261797878962,-0.1984547382876142,0.3928892838320788,-0.04688603058457375,0.03671266511082649,0.05224218964576721,0.0007057785987854004,-0.008055776357650757,0.00676417350769043,XArbitraryZVertical,-0.12019403058405,-0.180875875886796,-0.9662432490041984,-0.1386048923201743,-0.1821327805519104,-0.3828591406345367,-0.9056746363639832,0,0,0,-1,-1,34103.36935416667,walking,2,2022-06-02T10:45:33.939+02:00,2022-06-02T10:32:51.428+02:00,64,2.305696,0,0,60.10083,0,0,2022-06-02T10:45:39.045+02:00,675852339.045217,0,11.44922,101.0548,1,0.89
2022-06-02T10:45:39.268+02:00,1654159538.486943,53.2289370904497,10.39807396998332,20.86453,1.315907,1.606681,-1,-1,157.8533020019531,64,-9999,34108.69346875,-0.1787109375,-0.3815765380859375,-0.893646240234375,34108.68473175,2.896614285167074,-0.1981478275940446,0.3925703829153633,-0.008288837969303131,0.04648460075259209,0.04181245341897011,0.001672536134719849,-0.0079689621925354,0.00899958610534668,XArbitraryZVertical,-0.119997909665401,-0.1807634672510156,-0.9663187118382193,-0.1383952665264653,-0.1818788349628448,-0.382564514875412,-0.9058501124382019,0,0,0,-1,-1,34103.36935416667,walking,2,2022-06-02T10:45:33.939+02:00,2022-06-02T10:32:51.428+02:00,64,2.305696,0,0,60.10083,0,0,2022-06-02T10:45:39.045+02:00,675852339.045217,0,11.44922,101.0548,1,0.89
2022-06-02T10:45:39.277+02:00,1654159538.486943,53.2289370904497,10.39807396998332,20.86453,1.315907,1.606681,-1,-1,157.8533020019531,64,-9999,34108.70344075,-0.177154541015625,-0.393951416015625,-0.8991241455078125,34108.69470475,2.897057448231553,-0.1976985513131309,0.3925735148881894,0.006974803749471903,0.06977314502000809,0.03162359446287155,0.004668012261390686,0.003630608320236206,0.01574814319610596,XArbitraryZVertical,-0.1197409251025214,-0.1808226024949393,-0.9663759868999684,-0.1381406517204927,-0.1814716011285782,-0.382567435503006,-0.9059305787086487,0,0,0,-1,-1,34103.36935416667,walking,2,2022-06-02T10:45:33.939+02:00,2022-06-02T10:32:51.428+02:00,64,2.305696,0,0,60.10083,0,0,2022-06-02T10:45:39.045+02:00,675852339.045217,0,11.44922,101.0548,1,0.89
2022-06-02T10:45:39.287+02:00,1654159538.486943,53.2289370904497,10.39807396998332,20.86453,1.315907,1.606681,-1,-1,157.8533020019531,64,-9999,34108.71341375,-0.1746826171875,-0.39715576171875,-0.8979644775390625,34108.70467675,2.897379522856748,-0.1971673351809087,0.3927246336179471,-0.01604289747774601,0.06123132258653641,0.03278340399265289,0.00333617627620697,-0.01292285323143005,0.005487978458404541,XArbitraryZVertical,-0.1194626574641815,-0.1809518952835679,-0.966414567553379,-0.1379424523866845,-0.1809790134429932,-0.3827070295810699,-0.9059701561927795,0,0,0,-1,-1,34103.36935416667,walking,2,2022-06-02T10:45:33.939+02:00,2022-06-02T10:32:51.428+02:00,64,2.305696,0,0,60.10083,0,0,2022-06-02T10:45:39.045+02:00,675852339.045217,0,11.44922,101.0548,1,0.89
2022-06-02T10:45:39.297+02:00,1654159538.486943,53.2289370904497,10.39807396998332,20.86453,1.315907,1.606681,-1,-1,157.8533020019531,64,-9999,34108.72338575,-0.176727294921875,-0.405364990234375,-0.9059295654296875,34108.71464975,2.89763183782522,-0.1967494662950915,0.3929040945842393,-0.02064710296690464,0.0515936091542244,0.02281099557876587,0.00561445951461792,-0.0124366283416748,0.008242785930633545,XArbitraryZVertical,-0.119246858834927,-0.1810829081913697,-0.9664384857286897,-0.1377891572318321,-0.1805869787931442,-0.3828728199005127,-0.9059783220291138,0,0,0,-1,-1,34103.36935416667,walking,2,2022-06-02T10:45:33.939+02:00,2022-06-02T10:32:51.428+02:00,64,2.305696,0,0,60.10083,0,0,2022-06-02T10:45:39.045+02:00,675852339.045217,0,11.44922,101.0548,1,0.89
2022-06-02T10:45:39.314+02:00,1654159538.486943,53.2289370904497,10.39807396998332,20.86453,1.315907,1.606681,-1,-1,157.8533020019531,64,-9999,34108.73335875,-0.1651153564453125,-0.4029693603515625,-0.9001312255859375,34108.72462175,2.897770643270258,-0.1961966126872096,0.3930157489634378,-0.0585782416164875,0.05376382172107697,0.02242723479866982,0.002434909343719482,-0.02086314558982849,0.0003507137298583984,XArbitraryZVertical,-0.1189727016695304,-0.1811834635255544,-0.9664695449639542,-0.137676021560034,-0.1800777465105057,-0.3829759657382965,-0.9060360789299011,0,0,0,-1,-1,34103.36935416667,walking,2,2022-06-02T10:45:33.939+02:00,2022-06-02T10:32:51.428+02:00,64,2.305696,0,0,60.10083,0,0,2022-06-02T10:45:39.045+02:00,675852339.045217,0,11.44922,101.0548,1,0.89
2022-06-02T10:45:39.317+02:00,1654159538.486943,53.2289370904497,10.39807396998332,20.86453,1.315907,1.606681,-1,-1,157.8533020019531,64,-9999,34108.74333175,-0.1623992919921875,-0.4263458251953125,-0.891693115234375,34108.73459475,2.898050601526011,-0.1958286173090844,0.3923346230613831,-0.1201806664466858,0.04372920840978622,0.06127625331282616,0.0145576000213623,-0.01943251490592957,0.005326509475708008,XArbitraryZVertical,-0.1187355715150327,-0.1808946698615632,-0.9665802827393458,-0.1374830153376772,-0.179795041680336,-0.3823466897010803,-0.9063579440116882,0,0,0,-1,-1,34103.36935416667,walking,2,2022-06-02T10:45:33.939+02:00,2022-06-02T10:32:51.428+02:00,64,2.305696,0,0,60.10083,0,0,2022-06-02T10:45:39.045+02:00,675852339.045217,0,11.44922,101.0548,1,0.89
2022-06-02T10:45:39.327+02:00,1654159538.486943,53.2289370904497,10.39807396998332,20.86453,1.315907,1.606681,-1,-1,157.8533020019531,64,-9999,34108.75330375,-0.1523590087890625,-0.4054107666015625,-0.8671417236328125,34108.74456775,2.898365047900666,-0.19577210431964,0.3909941617700209,-0.1616103947162628,0.0122732799500227,0.05093333125114441,0.01573507487773895,-0.04424628615379333,0.01294916868209839,XArbitraryZVertical,-0.118613090831403,-0.180266217352554,-0.9667419233596684,-0.1372779207171803,-0.1798433512449265,-0.3811077475547791,-0.9068700671195984,0,0,0,-1,-1,34103.36935416667,walking,2,2022-06-02T10:45:33.939+02:00,2022-06-02T10:32:51.428+02:00,64,2.305696,0,0,60.10083,0,0,2022-06-02T10:45:39.045+02:00,675852339.045217,0,11.44922,101.0548,1,0.89
2022-06-02T10:45:39.337+02:00,1654159538.486943,53.2289370904497,10.39807396998332,20.86453,1.315907,1.606681,-1,-1,157.8533020019531,64,-9999,34108.76327675,-0.167816162109375,-0.3892059326171875,-0.8688201904296875,34108.75453975,2.898771376956893,-0.1959541756214329,0.3892981493446987,-0.2020686417818069,-0.003058893606066704,0.08745927363634109,0.02760718762874603,-0.02724489569664001,0.0385277271270752,XArbitraryZVertical,-0.1185801689631558,-0.1794540639924709,-0.9669311503910017,-0.1370369291694591,-0.1801340579986572,-0.3795391619205475,-0.9074699878692627,0,0,0,-1,-1,34103.36935416667,walking,2,2022-06-02T10:45:33.939+02:00,2022-06-02T10:32:51.428+02:00,64,2.305696,0,0,60.10083,0,0,2022-06-02T10:45:39.045+02:00,675852339.045217,0,11.44922,101.0548,1,0.89
2022-06-02T10:45:39.347+02:00,1654159538.486943,53.2289370904497,10.39807396998332,20.86453,1.315907,1.606681,-1,-1,157.8533020019531,64,-9999,34108.77324875,-0.1779327392578125,-0.4150848388671875,-0.8602447509765625,34108.76451275,2.899211782615379,-0.1961994121640213,0.3874687557006692,-0.2093510627746582,0.002504449803382158,0.07114368677139282,0.01678009331226349,-0.01612067222595215,0.03940713405609131,XArbitraryZVertical,-0.1185683921338264,-0.1785746540510841,-0.9671318143095974,-0.1367800050230007,-0.180491641163826,-0.3778460323810577,-0.9081052541732788,0,0,0,-1,-1,34103.36935416667,walking,2,2022-06-02T10:45:33.939+02:00,2022-06-02T10:32:51.428+02:00,64,2.305696,0,0,60.10083,0,0,2022-06-02T10:45:39.045+02:00,675852339.045217,0,11.44922,101.0548,1,0.89
2022-06-02T10:45:39.357+02:00,1654159538.486943,53.2289370904497,10.39807396998332,20.86453,1.315907,1.606681,-1,-1,157.8533020019531,64,-9999,34108.78322175,-0.138763427734375,-0.408966064453125,-0.852630615234375,34108.77448475,2.899071653355981,-0.196228704328654,0.3851942900107535,-0.2626580893993378,-0.02326163463294506,-0.006514023989439011,-0.0006653815507888794,-0.03421872854232788,0.04887890815734863,XArbitraryZVertical,-0.1184819435655977,-0.1774592059873504,-0.9673493386381006,-0.136768123757382,-0.1806853413581848,-0.375739187002182,-0.9089404940605164,0,0,0,-1,-1,34103.36935416667,walking,2,2022-06-02T10:45:33.939+02:00,2022-06-02T10:32:51.428+02:00,64,2.305696,0,0,60.10083,0,0,2022-06-02T10:45:39.045+02:00,675852339.045217,0,11.44922,101.0548,1,0.89
2022-06-02T10:45:39.367+02:00,1654159538.486943,53.2289370904497,10.39807396998332,20.86453,1.315907,1.606681,-1,-1,157.8533020019531,64,-9999,34108.79319475,-0.1395416259765625,-0.3925628662109375,-0.8523712158203125,34108.78445775,2.898388173984821,-0.1964618495097623,0.3828491952125281,-0.3222101032733917,-0.07461643218994141,0.003500260412693024,0.03963501751422882,-0.03822404146194458,0.05529838800430298,XArbitraryZVertical,-0.118538177892132,-0.1762630679487347,-0.967523453057183,-0.1370343436982154,-0.1810687482357025,-0.3735648989677429,-0.909760057926178,0,0,0,-1,-1,34103.36935416667,walking,2,2022-06-02T10:45:33.939+02:00,2022-06-02T10:32:51.428+02:00,64,2.305696,0,0,60.10083,0,0,2022-06-02T10:45:39.045+02:00,675852339.045217,0,11.44922,101.0548,1,0.89
2022-06-02T10:45:39.377+02:00,1654159538.486943,53.2289370904497,10.39807396998332,20.86453,1.315907,1.606681,-1,-1,157.8533020019531,64,-9999,34108.80316675,-0.1566925048828125,-0.369781494140625,-0.8759307861328125,34108.79443075,2.897755570267476,-0.1971982905220125,0.3798402524682744,-0.3675290942192078,-0.1258467733860016,0.014763412065804,0.04525458812713623,-0.0245373547077179,0.05923843383789062,XArbitraryZVertical,-0.1187992370605562,-0.1747124380259667,-0.9677356995790596,-0.1372954352577063,-0.1819580793380737,-0.370772123336792,-0.9107246398925781,0,0,0,-1,-1,34103.36935416667,walking,2,2022-06-02T10:45:33.939+02:00,2022-06-02T10:32:51.428+02:00,64,2.305696,0,0,60.10083,0,0,2022-06-02T10:45:39.045+02:00,675852339.045217,0,11.44922,101.0548,1,0.89
2022-06-02T10:45:39.387+02:00,1654159538.486943,53.2289370904497,10.39807396998332,20.86453,1.315907,1.606681,-1,-1,157.8533020019531,64,-9999,34108.81313975,-0.153778076171875,-0.351654052734375,-0.765655517578125,34108.80440275,2.89722137367285,-0.1983292562337097,0.3762876157533874,-0.399306446313858,-0.1582305431365967,0.05108333379030228,0.02499742805957794,-0.005942732095718384,0.03243988752365112,XArbitraryZVertical,-0.1192142994380982,-0.1728757094062669,-0.9679823068857853,-0.1375216964719425,-0.1832463443279266,-0.3674703538417816,-0.9118039011955261,0,0,0,-1,-1,34103.36935416667,walking,2,2022-06-02T10:45:33.939+02:00,2022-06-02T10:32:51.428+02:00,64,2.305696,0,0,60.10083,0,0,2022-06-02T10:45:39.045+02:00,675852339.045217,0,11.44922,101.0548,1,0.89
2022-06-02T10:45:39.397+02:00,1654159538.486943,53.2289370904497,10.39807396998332,20.86453,1.315907,1.606681,-1,-1,157.8533020019531,64,-9999,34108.82311175,-0.1519927978515625,-0.390411376953125,-0.7991485595703125,34108.81437575,2.896869537799652,-0.2000787587136552,0.3729718085746855,-0.3657151460647583,-0.1801157742738724,0.02971038222312927,0.03405091166496277,0.01511082053184509,0.144833505153656,XArbitraryZVertical,-0.1199241662423953,-0.1711218186005734,-0.9681781707250015,-0.137719159888505,-0.185082420706749,-0.3643845319747925,-0.9126710295677185,0,0,0,-1,-1,34103.36935416667,walking,2,2022-06-02T10:45:33.939+02:00,2022-06-02T10:32:51.428+02:00,64,2.305696,0,0,60.10083,0,0,2022-06-02T10:45:39.045+02:00,675852339.045217,0,11.44922,101.0548,1,0.89
2022-06-02T10:45:39.407+02:00,1654159538.486943,53.2289370904497,10.39807396998332,20.86453,1.315907,1.606681,-1,-1,157.8533020019531,64,-9999,34108.83308475,-0.1305084228515625,-0.3712005615234375,-0.825164794921875,34108.82434775,2.896026913683919,-0.2012281718418934,0.3691653334772896,-0.4600802659988403,-0.151017814874649,0.002803133800625801,0.03047762811183929,-0.02517974376678467,0.121421217918396,XArbitraryZVertical,-0.1203596748288958,-0.1691404398522391,-0.9684206680009025,-0.1380816632342291,-0.186407208442688,-0.3608371317386627,-0.913810133934021,0,0,0,-1,-1,34103.36935416667,walking,2,2022-06-02T10:45:33.939+02:00,2022-06-02T10:32:51.428+02:00,64,2.305696,0,0,60.10083,0,0,2022-06-02T10:45:39.045+02:00,675852339.045217,0,11.44922,101.0548,1,0.89
2022-06-02T10:45:39.417+02:00,1654159538.486943,53.2289370904497,10.39807396998332,20.86453,1.315907,1.606681,-1,-1,157.8533020019531,64,-9999,34108.84305775,-0.156005859375,-0.34918212890625,-0.82659912109375,34108.83432075,2.895492156619478,-0.202736751447579,0.3644598900300093,-0.5263264775276184,-0.2029689997434616,0.1109133809804916,0.05839510262012482,-0.02034059166908264,0.09221339225769043,XArbitraryZVertical,-0.1208959218297243,-0.1667145352021358,-0.968745032186928,-0.1382881938179725,-0.188125342130661,-0.3564447164535522,-0.9151808619499207,0,0,0,-1,-1,34103.36935416667,walking,2,2022-06-02T10:45:33.939+02:00,2022-06-02T10:32:51.428+02:00,64,2.305696,0,0,60.10083,0,0,2022-06-02T10:45:39.045+02:00,675852339.045217,0,11.44922,101.0548,1,0.89
2022-06-02T10:45:39.427+02:00,1654159538.486943,53.2289370904497,10.39807396998332,20.86453,1.315907,1.606681,-1,-1,157.8533020019531,64,-9999,34108.85302975,-0.1610260009765625,-0.3444061279296875,-0.784088134765625,34108.84429375,2.895793579910023,-0.2048519153414048,0.3591384214235184,-0.5385229587554932,-0.2018901407718658,0.1575967371463776,0.03814585506916046,0.0008360147476196289,0.08608925342559814,XArbitraryZVertical,-0.1216246774661819,-0.163996604544708,-0.9691428914659933,-0.1381112272355517,-0.1904438436031342,-0.3514677584171295,-0.9166250824928284,0,0,0,-1,-1,34103.36935416667,walking,2,2022-06-02T10:45:33.939+02:00,2022-06-02T10:32:51.428+02:00,64,2.305696,0,0,60.10083,0,0,2022-06-02T10:45:39.045+02:00,675852339.045217,0,11.44922,101.0548,1,0.89
2022-06-02T10:45:39.437+02:00,1654159538.486943,53.2289370904497,10.39807396998332,20.86453,1.315907,1.606681,-1,-1,157.8533020019531,64,-9999,34108.86300275,-0.14727783203125,-0.3327789306640625,-0.76873779296875,34108.85426575,2.896384819617883,-0.2070779442825048,0.3533019421025126,-0.5918722152709961,-0.2010067701339722,0.1912016868591309,0.02975529432296753,0.002171367406845093,0.1295402646064758,XArbitraryZVertical,-0.122358503841212,-0.161037270876258,-0.9695944353938863,-0.1377754807831027,-0.1929022669792175,-0.34599769115448,-0.9181907773017883,0,0,0,-1,-1,34103.36935416667,walking,2,2022-06-02T10:45:33.939+02:00,2022-06-02T10:32:51.428+02:00,64,2.305696,0,0,60.10083,0,0,2022-06-02T10:45:39.045+02:00,675852339.045217,0,11.44922,101.0548,1,0.89
2022-06-02T10:45:39.447+02:00,1654159538.486943,53.2289370904497,10.39807396998332,20.86453,1.315907,1.606681,-1,-1,157.8533020019531,64,-9999,34108.87297575,-0.1668548583984375,-0.3166656494140625,-0.7941131591796875,34108.86423875,2.897352639247889,-0.2095536538203596,0.3466605659830592,-0.6783836483955383,-0.2202403843402863,0.2661180198192596,0.04771459102630615,0.004508048295974731,0.1521918177604675,XArbitraryZVertical,-0.1231446279009503,-0.1576911870031487,-0.9701212196720556,-0.1372361725017403,-0.1956485658884048,-0.3397589325904846,-0.919937789440155,0,0,0,-1,-1,34103.36935416667,walking,2,2022-06-02T10:45:33.939+02:00,2022-06-02T10:32:51.428+02:00,64,2.305696,0,0,60.10083,0,0,2022-06-02T10:45:39.045+02:00,675852339.045217,0,11.44922,101.0548,1,0.89
2022-06-02T10:45:39.457+02:00,1654159538.486943,53.2289370904497,10.39807396998332,20.86453,1.315907,1.606681,-1,-1,157.8533020019531,64,-9999,34108.88294775,-0.18707275390625,-0.3079681396484375,-0.809906005859375,34108.87421175,2.898889597210152,-0.2123800718854797,0.3391701333245661,-0.7230740189552307,-0.2364787459373474,0.3271797001361847,0.03569282591342926,0.01443678140640259,0.1304917335510254,XArbitraryZVertical,-0.1240174431963729,-0.1539420094839641,-0.970729614769093,-0.1364021089274979,-0.1987787783145905,-0.3327046036720276,-0.9218430519104004,0,0,0,-1,-1,34103.36935416667,walking,2,2022-06-02T10:45:33.939+02:00,2022-06-02T10:32:51.428+02:00,64,2.305696,0,0,60.10083,0,0,2022-06-02T10:45:39.045+02:00,675852339.045217,0,11.44922,101.0548,1,0.89
2022-06-02T10:45:39.467+02:00,1654159538.486943,53.2289370904497,10.39807396998332,20.86453,1.315907,1.606681,-1,-1,157.8533020019531,64,-9999,34108.89292075,-0.189849853515625,-0.296417236328125,-0.79986572265625,34108.88418375,2.900828810771183,-0.2154220762671372,0.3312467959488414,-0.7461662888526917,-0.2421084046363831,0.3703924119472504,0.01656188070774078,0.01614025235176086,0.1154002547264099,XArbitraryZVertical,-0.1249488131535974,-0.1499920218629145,-0.9713746594360503,-0.1353570267057142,-0.2021392732858658,-0.3252222836017609,-0.9237803816795349,0,0,0,-1,-1,34103.36935416667,walking,2,2022-06-02T10:45:33.939+02:00,2022-06-02T10:32:51.428+02:00,64,2.305696,0,0,60.10083,0,0,2022-06-02T10:45:39.045+02:00,675852339.045217,0,11.44922,101.0548,1,0.89
2022-06-02T10:45:39.477+02:00,1654159538.486943,53.2289370904497,10.39807396998332,20.86453,1.315907,1.606681,-1,-1,157.8533020019531,64,-9999,34108.90289275,-0.20068359375,-0.2868804931640625,-0.7988128662109375,34108.89415675,2.903284606777483,-0.2186730394837427,0.3230970465879657,-0.7537954449653625,-0.2455755770206451,0.4397123754024506,0.01674468815326691,0.01904293894767761,0.1240087747573853,XArbitraryZVertical,-0.1259404298149517,-0.1459503173249335,-0.9720431881744677,-0.1340508767961465,-0.2057095319032669,-0.3175048828125,-0.9256750345230103,0,0,0,-1,-1,34103.36935416667,walking,2,2022-06-02T10:45:33.939+02:00,2022-06-02T10:32:51.428+02:00,64,2.305696,0,0,60.10083,0,0,2022-06-02T10:45:39.045+02:00,675852339.045217,0,11.44922,101.0548,1,0.89
2022-06-02T10:45:39.487+02:00,1654159538.486943,53.2289370904497,10.39807396998332,20.86453,1.315907,1.606681,-1,-1,157.8533020019531,64,-9999,34108.91286575,-0.2130126953125,-0.2812652587890625,-0.7961883544921875,34108.90412875,2.906345126363179,-0.2221207673719696,0.3146226595695195,-0.7781529426574707,-0.2516121566295624,0.4978747665882111,0.01000687479972839,0.02257716655731201,0.1291049718856812,XArbitraryZVertical,-0.126978903724587,-0.1417764384674474,-0.9727472893055796,-0.1324329548638859,-0.2094850242137909,-0.3094576895236969,-0.9275516271591187,0,0,0,-1,-1,34103.36935416667,walking,2,2022-06-02T10:45:33.939+02:00,2022-06-02T10:32:51.428+02:00,64,2.305696,0,0,60.10083,0,0,2022-06-02T10:45:39.045+02:00,675852339.045217,0,11.44922,101.0548,1,0.89
2022-06-02T10:45:39.497+02:00,1654159538.486943,53.2289370904497,10.39807396998332,20.86453,1.315907,1.606681,-1,-1,157.8533020019531,64,-9999,34108.92283875,-0.229156494140625,-0.24932861328125,-0.810211181640625,34108.91410175,2.909837189410598,-0.2257520564941631,0.3057484271388662,-0.8103063702583313,-0.264393538236618,0.5493870973587036,0.001772984862327576,0.0174681544303894,0.1323209404945374,XArbitraryZVertical,-0.1280705841390506,-0.1374246502637909,-0.973478962478311,-0.1305801964363026,-0.2134581655263901,-0.3010069727897644,-0.9294247627258301,0,0,0,-1,-1,34103.36935416667,walking,2,2022-06-02T10:45:33.939+02:00,2022-06-02T10:32:51.428+02:00,64,2.305696,0,0,60.10083,0,0,2022-06-02T10:45:39.045+02:00,675852339.045217,0,11.44922,101.0548,1,0.89
2022-06-02T10:45:39.507+02:00,1654159538.486943,53.2289370904497,10.39807396998332,20.86453,1.315907,1.606681,-1,-1,157.8533020019531,64,-9999,34108.93281075,-0.2577056884765625,-0.2357177734375,-0.827362060546875,34108.92407475,2.913666678356448,-0.2296376367904671,0.2963466126441434,-0.8500441908836365,-0.2776409089565277,0.5854681134223938,-0.009165212512016296,0.03969341516494751,0.1221141815185547,XArbitraryZVertical,-0.1292539173730892,-0.1328229205064586,-0.9742333214006057,-0.1285338141283135,-0.2177024781703949,-0.2920280396938324,-0.9313029646873474,0,0,0,-1,-1,34103.36935416667,walking,2,2022-06-02T10:45:33.939+02:00,2022-06-02T10:32:51.428+02:00,64,2.305696,0,0,60.10083,0,0,2022-06-02T10:45:39.045+02:00,675852339.045217,0,11.44922,101.0548,1,0.89
2022-06-02T10:45:39.517+02:00,1654159538.486943,53.2289370904497,10.39807396998332,20.86453,1.315907,1.606681,-1,-1,157.8533020019531,64,-9999,34108.94278375,-0.2711944580078125,-0.1981201171875,-0.83551025390625,34108.93404675,2.917616178115469,-0.2334901662741177,0.2869534014386686,-0.7964128255844116,-0.2725856900215149,0.5843866467475891,-0.03252668678760529,0.04406359791755676,0.1082100868225098,XArbitraryZVertical,-0.1304314839014545,-0.1282386773711166,-0.9749690227401641,-0.1264036919798604,-0.2219136208295822,-0.2830315232276917,-0.9330849647521973,0,0,0,-1,-1,34103.36935416667,walking,2,2022-06-02T10:45:33.939+02:00,2022-06-02T10:32:51.428+02:00,64,2.305696,0,0,60.10083,0,0,2022-06-02T10:45:39.045+02:00,675852339.045217,0,11.44922,101.0548,1,0.89
2022-06-02T10:45:39.527+02:00,1654159538.486943,53.2289370904497,10.39807396998332,20.86453,1.315907,1.606681,-1,-1,157.8533020019531,64,-9999,34108.95275575,-0.2783660888671875,-0.17730712890625,-0.8574066162109375,34108.94401975,2.921724421916214,-0.2374448729391655,0.2782687413366469,-0.7163582444190979,-0.3059199452400208,0.5896578431129456,-0.04448878765106201,0.071917325258255,0.09960824251174927,XArbitraryZVertical,-0.1316995651365594,-0.1240091387696147,-0.975626720235,-0.1242150685144171,-0.2261716276407242,-0.2746914029121399,-0.9345539212226868,0,0,0,-1,-1,34103.36935416667,walking,2,2022-06-02T10:45:33.939+02:00,2022-06-02T10:32:51.428+02:00,64,2.305696,0,0,60.10083,0,0,2022-06-02T10:45:39.045+02:00,675852339.045217,0,11.44922,101.0548,1,0.89
2022-06-02T10:45:39.537+02:00,1654159538.486943,53.2289370904497,10.39807396998332,20.86453,1.315907,1.606681,-1,-1,157.8533020019531,64,-9999,34108.96272875,-0.3163604736328125,-0.134307861328125,-0.873809814453125,34108.95399175,2.926070960769318,-0.2418446056068769,0.2703828514918147,-0.6273983716964722,-0.3356506824493408,0.5900256037712097,-0.0437585711479187,0.08813005685806274,0.0815742015838623,XArbitraryZVertical,-0.1332238939973911,-0.120164270272422,-0.9761857130855901,-0.1219567659957147,-0.230792835354805,-0.2671003937721252,-0.9356238842010498,0,0,0,-1,-1,34103.36935416667,walking,2,2022-06-02T10:45:33.939+02:00,2022-06-02T10:32:51.428+02:00,64,2.305696,0,0,60.10083,0,0,2022-06-02T10:45:39.045+02:00,675852339.045217,0,11.44922,101.0548,1,0.89
2022-06-02T10:45:39.547+02:00,1654159538.486943,53.2289370904497,10.39807396998332,20.86453,1.315907,1.606681,-1,-1,157.8533020019531,64,-9999,34108.97270175,-0.3513336181640625,-0.0962982177734375,-0.8901519775390625,34108.96396475,2.930251200857747,-0.2463694557545526,0.2632871567081724,-0.5588517785072327,-0.3435280621051788,0.5384657382965088,-0.07553958892822266,0.1194019317626953,0.06425315141677856,XArbitraryZVertical,-0.1348708201889677,-0.116694534134733,-0.9766464450252301,-0.1198080825209922,-0.235480323433876,-0.2602558434009552,-0.9363844990730286,0,0,0,-1,-1,34103.36935416667,walking,2,2022-06-02T10:45:33.939+02:00,2022-06-02T10:32:51.428+02:00,64,2.305696,0,0,60.10083,0,0,2022-06-02T10:45:39.045+02:00,675852339.045217,0,11.44922,101.0548,1,0.89
2022-06-02T10:45:39.557+02:00,1654159538.486943,53.2289370904497,10.39807396998332,20.86453,1.315907,1.606681,-1,-1,157.8533020019531,64,-9999,34108.982674125,-0.38043212890625,-0.1165924072265625,-0.916259765625,34108.97393775,2.933716004655627,-0.2507871666042669,0.2570954615999127,-0.470165878534317,-0.3611080944538116,0.417405366897583,-0.1070511788129807,0.1528015732765198,0.04851144552230835,XArbitraryZVertical,-0.1365598311102886,-0.1136324708903014,-0.9769887946408029,-0.1180334393807696,-0.240009993314743,-0.2542725503444672,-0.9368781447410583,0,0,0,-1,-1,34103.36935416667,walking,2,2022-06-02T10:45:33.939+02:00,2022-06-02T10:32:51.428+02:00,64,2.305696,0,0,60.10083,0,0,2022-06-02T10:45:39.045+02:00,675852339.045217,0,11.44922,101.0548,1,0.89
2022-06-02T10:45:39.567+02:00,1654159538.486943,53.2289370904497,10.39807396998332,20.86453,1.315907,1.606681,-1,-1,157.8533020019531,64,-9999,34108.992647125,-0.393218994140625,-0.1400299072265625,-0.935089111328125,34108.983910125,2.936377155868957,-0.2549619644276089,0.2522266902582685,-0.3548885583877563,-0.3360927700996399,0.3336145877838135,-0.1345404237508774,0.1372103244066238,0.02343487739562988,XArbitraryZVertical,-0.1382416728388883,-0.1111836374989525,-0.9771946267550032,-0.1166967421360062,-0.2442284971475601,-0.2495608180761337,-0.9370548725128174,0,0,0,-1,-1,34103.36935416667,walking,2,2022-06-02T10:45:33.939+02:00,2022-06-02T10:32:51.428+02:00,64,2.305696,0,0,60.10083,0,0,2022-06-02T10:45:39.045+02:00,675852339.045217,0,11.44922,101.0548,1,0.89
2022-06-02T10:45:39.577+02:00,1654159538.486943,53.2289370904497,10.39807396998332,20.86453,1.315907,1.606681,-1,-1,157.8533020019531,64,-9999,34109.002619125,-0.411529541015625,-0.1821441650390625,-0.9818878173828125,34108.993883125,2.938617986584573,-0.2588321765525334,0.2485884430215941,-0.2514678537845612,-0.3243960738182068,0.2671551108360291,-0.1437922120094299,0.10940882563591,0.006035447120666504,XArbitraryZVertical,-0.1398558152875346,-0.1093309910459581,-0.9773033939311817,-0.1156081384761929,-0.2480840235948563,-0.2460360378026962,-0.9369741678237915,0,0,0,-1,-1,34103.36935416667,walking,2,2022-06-02T10:45:33.939+02:00,2022-06-02T10:32:51.428+02:00,64,2.305696,0,0,60.10083,0,0,2022-06-02T10:45:39.045+02:00,675852339.045217,0,11.44922,101.0548,1,0.89
2022-06-02T10:45:39.587+02:00,1654159538.486943,53.2289370904497,10.39807396998332,20.86453,1.315907,1.606681,-1,-1,157.8533020019531,64,-9999,34109.012592125,-0.4398651123046875,-0.1894989013671875,-0.966217041015625,34109.003855125,2.940255708450422,-0.2624882790802402,0.2459483300075581,-0.1613206416368484,-0.3331770598888397,0.1802050471305847,-0.1580380499362946,0.06691676378250122,-0.04106771945953369,XArbitraryZVertical,-0.1414434211125415,-0.1079411439816139,-0.9773183656850931,-0.1148533484632958,-0.2516756951808929,-0.2434762269258499,-0.9366849064826965,0,0,0,-1,-1,34103.36935416667,walking,2,2022-06-02T10:45:33.939+02:00,2022-06-02T10:32:51.428+02:00,64,2.305696,0,0,60.10083,0,0,2022-06-02T10:45:39.045+02:00,675852339.045217,0,11.44922,101.0548,1,0.89
2022-06-02T10:45:39.597+02:00,1654159538.486943,53.2289370904497,10.39807396998332,20.86453,1.315907,1.606681,-1,-1,157.8533020019531,64,-9999,34109.022565125,-0.5207977294921875,-0.2171173095703125,-0.959716796875,34109.013828125,2.942014554911759,-0.2664252969303608,0.2449433777956521,0.05073000863194466,-0.3503471910953522,0.2125313431024551,-0.1785341501235962,0.05263626575469971,-0.03359049558639526,XArbitraryZVertical,-0.1432311086123155,-0.107348247742939,-0.9772061322926197,-0.1141465057143611,-0.2554257810115814,-0.2425013929605484,-0.935922384262085,0,0,0,-1,-1,34103.36935416667,walking,2,2022-06-02T10:45:33.939+02:00,2022-06-02T10:32:51.428+02:00,64,2.305696,0,0,60.10083,0,0,2022-06-02T10:45:39.045+02:00,675852339.045217,0,11.44922,101.0548,1,0.89
2022-06-02T10:45:39.607+02:00,1654159538.486943,53.2289370904497,10.39807396998332,20.86453,1.315907,1.606681,-1,-1,157.8533020019531,64,-9999,34109.032537125,-0.5608673095703125,-0.294586181640625,-0.961944580078125,34109.023801125,2.944673068491805,-0.2701605534799706,0.2452318098793326,0.1181274205446243,-0.2587370872497559,0.2649716138839722,-0.2517493963241577,0.03246930241584778,-0.0258294939994812,XArbitraryZVertical,-0.1449249582732164,-0.1074689776799778,-0.9770687709281355,-0.1130655554672418,-0.2589012086391449,-0.2427812069654465,-0.934894323348999,0,0,0,-1,-1,34103.36935416667,walking,2,2022-06-02T10:45:33.939+02:00,2022-06-02T10:32:51.428+02:00,64,2.305696,0,0,60.10083,0,0,2022-06-02T10:45:39.045+02:00,675852339.045217,0,11.44922,101.0548,1,0.89
2022-06-02T10:45:39.617+02:00,1654159538.486943,53.2289370904497,10.39807396998332,20.86453,1.315907,1.606681,-1,-1,157.8533020019531,64,-9999,34109.042510125,-0.5399169921875,-0.357452392578125,-0.9632110595703125,34109.033773125,2.947407212335543,-0.27303081078326,0.245293345103337,0.02810534462332726,-0.1915754526853561,0.2319244891405106,-0.2994709014892578,-0.04027068614959717,-0.02771997451782227,XArbitraryZVertical,-0.1461826170452298,-0.1075367009833228,-0.977009541583916,-0.111887904940637,-0.2615795135498047,-0.242840901017189,-0.934132993221283,0,0,0,-1,-1,34103.36935416667,walking,2,2022-06-02T10:45:33.939+02:00,2022-06-02T10:32:51.428+02:00,64,2.305696,0,0,60.10083,0,0,2022-06-02T10:45:39.045+02:00,675852339.045217,0,11.44922,101.0548,1,0.89
2022-06-02T10:45:39.627+02:00,1654159538.486943,53.2289370904497,10.39807396998332,20.86453,1.315907,1.606681,-1,-1,157.8533020019531,64,-9999,34109.052482125,-0.5258636474609375,-0.31414794921875,-0.9610595703125,34109.043746125,2.949264352723527,-0.275444995068625,0.2442929986021727,-0.1357562988996506,-0.1977617144584656,0.1777254343032837,-0.2790383994579315,-0.1125760674476624,-0.03025716543197632,XArbitraryZVertical,-0.147223181113375,-0.1070480815650259,-0.9770027809982517,-0.1110485072849048,-0.2638998627662659,-0.2418703734874725,-0.9337320923805237,0,0,0,-1,-1,34103.36935416667,walking,2,2022-06-02T10:45:33.939+02:00,2022-06-02T10:32:51.428+02:00,64,2.305696,0,0,60.10083,0,0,2022-06-02T10:45:39.045+02:00,675852339.045217,0,11.44922,101.0548,1,0.89
2022-06-02T10:45:39.637+02:00,1654159538.486943,53.2289370904497,10.39807396998332,20.86453,1.315907,1.606681,-1,-1,157.8533020019531,64,-9999,34109.062455125,-0.5454254150390625,-0.2918548583984375,-0.9592742919921875,34109.053718125,2.95028738606808,-0.2777818690944782,0.2418776097218508,-0.2530773282051086,-0.2158107608556747,0.1384679079055786,-0.2593026459217072,-0.08121375739574432,-0.02677726745605469,XArbitraryZVertical,-0.1482167379085117,-0.1058103953163294,-0.9770469384532501,-0.1105224512476247,-0.2662405669689178,-0.2395260035991669,-0.9336718916893005,0,0,0,-1,-1,34103.36935416667,walking,2,2022-06-02T10:45:33.939+02:00,2022-06-02T10:32:51.428+02:00,64,2.305696,0,0,60.10083,0,0,2022-06-02T10:45:39.045+02:00,675852339.045217,0,11.44922,101.0548,1,0.89
2022-06-02T10:45:39.646+02:00,1654159538.486943,53.2289370904497,10.39807396998332,20.86453,1.315907,1.606681,-1,-1,157.8533020019531,64,-9999,34109.072428125,-0.5725555419921875,-0.3020172119140625,-0.954376220703125,34109.063691125,2.950563239510032,-0.2799850513438062,0.2392790266395598,-0.2322026640176773,-0.2027881741523743,0.05423532426357269,-0.273798793554306,-0.05569185316562653,-0.02628278732299805,XArbitraryZVertical,-0.1491782205745257,-0.1044356374056087,-0.9770691499204291,-0.1103397562169489,-0.2684680819511414,-0.2370022535324097,-0.9336780905723572,0,0,0,-1,-1,34103.36935416667,walking,2,2022-06-02T10:45:33.939+02:00,2022-06-02T10:32:51.428+02:00,64,2.305696,0,0,60.10083,0,0,2022-06-02T10:45:39.045+02:00,675852339.045217,0,11.44922,101.0548,1,0.89
2022-06-02T10:45:39.657+02:00,1654159538.486943,53.2289370904497,10.39807396998332,20.86453,1.315907,1.606681,-1,-1,157.8533020019531,64,-9999,34109.082400125,-0.586212158203125,-0.3184051513671875,-0.9607391357421875,34109.073664125,2.95009715978633,-0.2817244414432069,0.2371546577521758,-0.2055821567773819,-0.1752317249774933,-0.02363768219947815,-0.2999135851860046,-0.06512624025344849,-0.02300429344177246,XArbitraryZVertical,-0.1499700242782813,-0.1032635321269592,-0.9770519427028056,-0.1105227853794449,-0.2702310681343079,-0.2349378764629364,-0.9336912631988525,0,0,0,-1,-1,34103.36935416667,walking,2,2022-06-02T10:45:33.939+02:00,2022-06-02T10:32:51.428+02:00,64,2.305696,0,0,60.10083,0,0,2022-06-02T10:45:39.045+02:00,675852339.045217,0,11.44922,101.0548,1,0.89
2022-06-02T10:45:39.666+02:00,1654159538.486943,53.2289370904497,10.39807396998332,20.86453,1.315907,1.606681,-1,-1,157.8533020019531,64,-9999,34109.092373125,-0.6037750244140625,-0.3232879638671875,-0.9723358154296875,34109.083636125,2.94898357030076,-0.283110449867824,0.235589685286561,-0.1390305608510971,-0.1599808633327484,-0.1064936816692352,-0.3126470446586609,-0.08297458291053772,-0.02508777379989624,XArbitraryZVertical,-0.1506435123183404,-0.1023360806948512,-0.9769874726536337,-0.1110379205868464,-0.271627277135849,-0.233416423201561,-0.9336677193641663,0,0,0,-1,-1,34103.36935416667,walking,2,2022-06-02T10:45:33.939+02:00,2022-06-02T10:32:51.428+02:00,64,2.305696,0,0,60.10083,0,0,2022-06-02T10:45:39.045+02:00,675852339.045217,0,11.44922,101.0548,1,0.89
2022-06-02T10:45:39.676+02:00,1654159538.486943,53.2289370904497,10.39807396998332,20.86453,1.315907,1.606681,-1,-1,157.8533020019531,64,-9999,34109.102345125,-0.617218017578125,-0.3455810546875,-0.984405517578125,34109.093609125,2.94710229185646,-0.2841216604791664,0.2350576724150156,-0.06352603435516357,-0.1292654722929001,-0.2186084538698196,-0.3291395604610443,-0.08930553495883942,-0.03854948282241821,XArbitraryZVertical,-0.1512126196151835,-0.1018770202084148,-0.9768406134618701,-0.1119742870202432,-0.2726060450077057,-0.2328990697860718,-0.9335116147994995,0,0,0,-1,-1,34103.36935416667,walking,2,2022-06-02T10:45:33.939+02:00,2022-06-02T10:32:51.428+02:00,64,2.305696,0,0,60.10083,0,0,2022-06-02T10:45:39.045+02:00,675852339.045217,0,11.44922,101.0548,1,0.89
2022-06-02T10:45:39.686+02:00,1654159539.494091,53.22903046947008,10.39825805551847,30.23013,1.315907,1.609729,-1,-1,3,48.00000000000001,-9999,34109.112318125,-0.6266937255859375,-0.37042236328125,-0.9975128173828125,34109.103581125,2.944477888748619,-0.2846683499011581,0.2356466143334429,0.03231686726212502,-0.101125180721283,-0.3065780103206635,-0.342934787273407,-0.1084319204092026,-0.0489928126335144,XArbitraryZVertical,-0.1516367501375914,-0.1019361103447025,-0.9766132483850674,-0.1133216940155972,-0.2730777859687805,-0.2334717810153961,-0.9332306385040283,0,0,0,-1,-1,34103.36935416667,walking,2,2022-06-02T10:45:33.939+02:00,2022-06-02T10:32:51.428+02:00,64,2.305696,0,0,60.10083,0,0,2022-06-02T10:45:39.045+02:00,675852339.045217,0,11.44922,101.0548,1,0.89
2022-06-02T10:45:39.696+02:00,1654159539.494091,53.22903046947008,10.39825805551847,30.23013,1.315907,1.609729,-1,-1,3,48.00000000000001,-9999,34109.122291125,-0.6305999755859375,-0.396942138671875,-0.999603271484375,34109.113554125,2.941267112233225,-0.2847626913229186,0.2372609078491069,0.09862558543682098,-0.07133293151855469,-0.3859415054321289,-0.3519404232501984,-0.1326956748962402,-0.063129723072052,XArbitraryZVertical,-0.1519121471416603,-0.1024778916447633,-0.9763178246569396,-0.1149979445363334,-0.2730595767498016,-0.235041156411171,-0.932841956615448,0,0,0,-1,-1,34103.36935416667,walking,2,2022-06-02T10:45:33.939+02:00,2022-06-02T10:32:51.428+02:00,64,2.305696,0,0,60.10083,0,0,2022-06-02T10:45:39.045+02:00,675852339.045217,0,11.44922,101.0548,1,0.89
2022-06-02T10:45:39.706+02:00,1654159539.494091,53.22903046947008,10.39825805551847,30.23013,1.315907,1.609729,-1,-1,3,48.00000000000001,-9999,34109.132263125,-0.636810302734375,-0.4048919677734375,-0.9984130859375,34109.123527125,2.937397934743372,-0.2844976869980179,0.2396370443928773,0.1459723263978958,-0.0586424358189106,-0.4710039496421814,-0.3575789034366608,-0.1566318869590759,-0.06719708442687988,XArbitraryZVertical,-0.1520798730797987,-0.1033629891970965,-0.9759573991611579,-0.1170250516387664,-0.2726548314094543,-0.2373500615358353,-0.9323756098747253,0,0,0,-1,-1,34103.36935416667,walking,2,2022-06-02T10:45:33.939+02:00,2022-06-02T10:32:51.428+02:00,64,2.305696,0,0,60.10083,0,0,2022-06-02T10:45:39.045+02:00,675852339.045217,0,11.44922,101.0548,1,0.89
2022-06-02T10:45:39.716+02:00,1654159539.494091,53.22903046947008,10.39825805551847,30.23013,1.315907,1.609729,-1,-1,3,48.00000000000001,-9999,34109.142236125,-0.6489715576171875,-0.407684326171875,-0.999359130859375,34109.133499125,2.932751377055092,-0.2839865683222858,0.2425705497653513,0.1525329351425171,-0.05842103809118271,-0.5634123086929321,-0.3635618388652802,-0.1653188914060593,-0.06725728511810303,XArbitraryZVertical,-0.1521956709757048,-0.1044760727657827,-0.9755266368811376,-0.1194525669212363,-0.2719819843769073,-0.2401987165212631,-0.9318424463272095,0,0,0,-1,-1,34103.36935416667,walking,2,2022-06-02T10:45:33.939+02:00,2022-06-02T10:32:51.428+02:00,64,2.305696,0,0,60.10083,0,0,2022-06-02T10:45:39.045+02:00,675852339.045217,0,11.44922,101.0548,1,0.89
2022-06-02T10:45:39.726+02:00,1654159539.494091,53.22903046947008,10.39825805551847,30.23013,1.315907,1.609729,-1,-1,3,48.00000000000001,-9999,34109.152208125,-0.6604766845703125,-0.41546630859375,-0.99578857421875,34109.143472125,2.927105304459692,-0.2832273859716172,0.2458092453909284,0.163413017988205,-0.05629397183656693,-0.6792936325073242,-0.3770919442176819,-0.1624204218387604,-0.06877940893173218,XArbitraryZVertical,-0.1522624567027357,-0.1056774168254536,-0.9750249955867879,-0.1223711987135076,-0.271055668592453,-0.243341326713562,-0.9312968850135803,0,0,0,-1,-1,34103.36935416667,walking,2,2022-06-02T10:45:33.939+02:00,2022-06-02T10:32:51.428+02:00,64,2.305696,0,0,60.10083,0,0,2022-06-02T10:45:39.045+02:00,675852339.045217,0,11.44922,101.0548,1,0.89
2022-06-02T10:45:39.736+02:00,1654159539.494091,53.22903046947008,10.39825805551847,30.23013,1.315907,1.609729,-1,-1,3,48.00000000000001,-9999,34109.162181125,-0.6739654541015625,-0.434783935546875,-0.98236083984375,34109.153444125,2.920423730474299,-0.2820732711707023,0.2495129100349198,0.1790213584899902,-0.03501966595649719,-0.7765042185783386,-0.3901841640472412,-0.1676035523414612,-0.06686729192733765,XArbitraryZVertical,-0.1522210401185113,-0.1070524551632526,-0.9744451659799198,-0.125798928638147,-0.2697279453277588,-0.2469319850206375,-0.9307370781898499,0,0,0,-1,-1,34103.36935416667,walking,2,2022-06-02T10:45:33.939+02:00,2022-06-02T10:32:51.428+02:00,64,2.305696,0,0,60.10083,0,0,2022-06-02T10:45:39.045+02:00,675852339.045217,0,11.44922,101.0548,1,0.89
2022-06-02T10:45:39.746+02:00,1654159539.494091,53.22903046947008,10.39825805551847,30.23013,1.315907,1.609729,-1,-1,3,48.00000000000001,-9999,34109.172154125,-0.6882781982421875,-0.439239501953125,-0.974578857421875,34109.163417125,2.912744014592123,-0.2805287367377683,0.2535380079286413,0.1848155856132507,-0.03419488295912743,-0.8790444731712341,-0.4037402272224426,-0.1799862384796143,-0.05439865589141846,XArbitraryZVertical,-0.1520694539788335,-0.1085353155132242,-0.9737923049099594,-0.1297062373389305,-0.2680127024650574,-0.2508304119110107,-0.9301899075508118,0,0,0,-1,-1,34103.36935416667,walking,2,2022-06-02T10:45:33.939+02:00,2022-06-02T10:32:51.428+02:00,64,2.305696,0,0,60.10083,0,0,2022-06-02T10:45:39.045+02:00,675852339.045217,0,11.44922,101.0548,1,0.89
2022-06-02T10:45:39.756+02:00,1654159539.494091,53.22903046947008,10.39825805551847,30.23013,1.315907,1.609729,-1,-1,3,48.00000000000001,-9999,34109.182126125,-0.698272705078125,-0.425048828125,-0.9766693115234375,34109.173390125,2.904163311852975,-0.2786615626634587,0.2580436690825662,0.2200826853513718,-0.02444762736558914,-0.9691033363342285,-0.4207141995429993,-0.1850113272666931,-0.04690873622894287,XArbitraryZVertical,-0.1518475071558149,-0.1102087721991752,-0.9730494454707809,-0.1340565741452336,-0.2659618556499481,-0.2551894783973694,-0.9295927286148071,0,0,0,-1,-1,34103.36935416667,walking,2,2022-06-02T10:45:33.939+02:00,2022-06-02T10:32:51.428+02:00,64,2.305696,0,0,60.10083,0,0,2022-06-02T10:45:39.045+02:00,675852339.045217,0,11.44922,101.0548,1,0.89
2022-06-02T10:45:39.766+02:00,1654159539.494091,53.22903046947008,10.39825805551847,30.23013,1.315907,1.609729,-1,-1,3,48.00000000000001,-9999,34109.192099125,-0.7000732421875,-0.4181060791015625,-0.983642578125,34109.183362125,2.894745104484173,-0.2763171862574748,0.2629071712293723,0.2109813392162323,0.01998295448720455,-1.06015682220459,-0.4336424469947815,-0.1661669909954071,-0.04618054628372192,XArbitraryZVertical,-0.1514756979511716,-0.1120302801767924,-0.9722340631087136,-0.1387998678775881,-0.2634401023387909,-0.2598889172077179,-0.9290086627006531,0,0,0,-1,-1,34103.36935416667,walking,2,2022-06-02T10:45:33.939+02:00,2022-06-02T10:32:51.428+02:00,64,2.305696,0,0,60.10083,0,0,2022-06-02T10:45:39.045+02:00,675852339.045217,0,11.44922,101.0548,1,0.89
2022-06-02T10:45:39.776+02:00,1654159539.494091,53.22903046947008,10.39825805551847,30.23013,1.315907,1.609729,-1,-1,3,48.00000000000001,-9999,34109.202071125,-0.6976318359375,-0.43280029296875,-0.9534454345703125,34109.193335125,2.884210927269605,-0.2732649023072735,0.2678310097204041,0.1772308647632599,0.04729988425970078,-1.172062039375305,-0.4400473535060883,-0.1535725295543671,-0.05600833892822266,XArbitraryZVertical,-0.1508471223136813,-0.1138536446459131,-0.971357783970885,-0.1440370641931803,-0.2602547705173492,-0.2646403908729553,-0.9285649657249451,0,0,0,-1,-1,34103.36935416667,walking,2,2022-06-02T10:45:33.939+02:00,2022-06-02T10:32:51.428+02:00,64,2.305696,0,0,60.10083,0,0,2022-06-02T10:45:39.045+02:00,675852339.045217,0,11.44922,101.0548,1,0.89
2022-06-02T10:45:39.786+02:00,1654159539.494091,53.22903046947008,10.39825805551847,30.23013,1.315907,1.609729,-1,-1,3,48.00000000000001,-9999,34109.212044125,-0.6981964111328125,-0.45037841796875,-0.9170074462890625,34109.203307125,2.872347040348664,-0.2695833572268153,0.2726436200636768,0.1332077533006668,0.06615426391363144,-1.2900710105896,-0.4418414533138275,-0.1611416041851044,-0.03091955184936523,XArbitraryZVertical,-0.1500070940479114,-0.1155795962705847,-0.9704022152588297,-0.1498627565231757,-0.2564922869205475,-0.269278347492218,-0.9282784461975098,0,0,0,-1,-1,34103.36935416667,walking,2,2022-06-02T10:45:33.939+02:00,2022-06-02T10:32:51.428+02:00,64,2.305696,0,0,60.10083,0,0,2022-06-02T10:45:39.045+02:00,675852339.045217,0,11.44922,101.0548,1,0.89
2022-06-02T10:45:39.796+02:00,1654159539.494091,53.22903046947008,10.39825805551847,30.23013,1.315907,1.609729,-1,-1,3,48.00000000000001,-9999,34109.222017125,-0.69683837890625,-0.4309539794921875,-0.90997314453125,34109.213280125,2.859315687155091,-0.2652248559649893,0.277326679912016,0.1167543008923531,0.09704258292913437,-1.382777571678162,-0.4456890523433685,-0.1744567453861237,0.008604764938354492,XArbitraryZVertical,-0.1489254445103038,-0.1172220093683378,-0.9693733488769325,-0.1561911461631975,-0.252110630273819,-0.2737854421138763,-0.9281604290008545,0,0,0,-1,-1,34103.36935416667,walking,2,2022-06-02T10:45:33.939+02:00,2022-06-02T10:32:51.428+02:00,64,2.305696,0,0,60.10083,0,0,2022-06-02T10:45:39.045+02:00,675852339.045217,0,11.44922,101.0548,1,0.89
2022-06-02T10:45:39.809+02:00,1654159539.494091,53.22903046947008,10.39825805551847,30.23013,1.315907,1.609729,-1,-1,3,48.00000000000001,-9999,34109.231989125,-0.69659423828125,-0.4007415771484375,-0.9127960205078125,34109.223253125,2.845361408697424,-0.2601894701623473,0.2820997945338863,0.1046875193715096,0.1399690061807632,-1.463313937187195,-0.4500487446784973,-0.1572501361370087,0.01911765336990356,XArbitraryZVertical,-0.1476045678842812,-0.1189139937791944,-0.9682623210510896,-0.1629122263548455,-0.2470947951078415,-0.2783730626106262,-0.9281446933746338,0,0,0,-1,-1,34103.36935416667,walking,2,2022-06-02T10:45:33.939+02:00,2022-06-02T10:32:51.428+02:00,64,2.305696,0,0,60.10083,0,0,2022-06-02T10:45:39.045+02:00,675852339.045217,0,11.44922,101.0548,1,0.89
2022-06-02T10:45:39.816+02:00,1654159539.494091,53.22903046947008,10.39825805551847,30.23013,1.315907,1.609729,-1,-1,3,48.00000000000001,-9999,34109.241962125,-0.6936492919921875,-0.380767822265625,-0.9214630126953125,34109.233225125,2.830466786254068,-0.2545119111831934,0.287007382451573,0.1190050691366196,0.1688917428255081,-1.562618970870972,-0.4551961421966553,-0.120069146156311,0.01612049341201782,XArbitraryZVertical,-0.1460699712001544,-0.1206810101135602,-0.9670511156151116,-0.1700345394504766,-0.241474375128746,-0.2830832898616791,-0.928199291229248,0,0,0,-1,-1,34103.36935416667,walking,2,2022-06-02T10:45:33.939+02:00,2022-06-02T10:32:51.428+02:00,64,2.305696,0,0,60.10083,0,0,2022-06-02T10:45:39.045+02:00,675852339.045217,0,11.44922,101.0548,1,0.89
2022-06-02T10:45:39.826+02:00,1654159539.494091,53.22903046947008,10.39825805551847,30.23013,1.315907,1.609729,-1,-1,3,48.00000000000001,-9999,34109.251934125,-0.6873931884765625,-0.3787078857421875,-0.9291229248046875,34109.243198125,2.814486131934116,-0.2480855896699948,0.2922050319651904,0.1107215732336044,0.2100993692874908,-1.675710439682007,-0.459089070558548,-0.09503796696662903,0.007562458515167236,XArbitraryZVertical,-0.1442957225632524,-0.1226059210711418,-0.9657101647489839,-0.1776245241750894,-0.2351400554180145,-0.2880644798278809,-0.9282930493354797,0,0,0,-1,-1,34103.36935416667,walking,2,2022-06-02T10:45:33.939+02:00,2022-06-02T10:32:51.428+02:00,64,2.305696,0,0,60.10083,0,0,2022-06-02T10:45:39.045+02:00,675852339.045217,0,11.44922,101.0548,1,0.89
2022-06-02T10:45:39.836+02:00,1654159539.494091,53.22903046947008,10.39825805551847,30.23013,1.315907,1.609729,-1,-1,3,48.00000000000001,-9999,34109.261907125,-0.6771087646484375,-0.3631439208984375,-0.941497802734375,34109.253170125,2.797222323288522,-0.2408124512555678,0.2972977915635748,0.08239956200122833,0.2384823560714722,-1.784024715423584,-0.4600656628608704,-0.08642643690109253,0.001280605792999268,XArbitraryZVertical,-0.1422257208288506,-0.124502511353777,-0.9642455995450062,-0.1857456402079148,-0.2280294597148895,-0.2929376065731049,-0.9285419583320618,0,0,0,-1,-1,34103.36935416667,walking,2,2022-06-02T10:45:33.939+02:00,2022-06-02T10:32:51.428+02:00,64,2.305696,0,0,60.10083,0,0,2022-06-02T10:45:39.045+02:00,675852339.045217,0,11.44922,101.0548,1,0.89
2022-06-02T10:45:39.846+02:00,1654159539.494091,53.22903046947008,10.39825805551847,30.23013,1.315907,1.609729,-1,-1,3,48.00000000000001,-9999,34109.271880125,-0.67108154296875,-0.3325653076171875,-0.9582366943359375,34109.263143125,2.778875405552899,-0.2330257746633342,0.3022176705129576,0.04655980691313744,0.2371718138456345,-1.858976721763611,-0.458299845457077,-0.06872546672821045,-0.01077562570571899,XArbitraryZVertical,-0.1400071541020812,-0.1263331683538812,-0.9626422122317456,-0.1943144220651453,-0.2204568833112717,-0.2976380884647369,-0.9288758635520935,0,0,0,-1,-1,34103.36935416667,walking,2,2022-06-02T10:45:33.939+02:00,2022-06-02T10:32:51.428+02:00,64,2.305696,0,0,60.10083,0,0,2022-06-02T10:45:39.045+02:00,675852339.045217,0,11.44922,101.0548,1,0.89
2022-06-02T10:45:39.856+02:00,1654159539.494091,53.22903046947008,10.39825805551847,30.23013,1.315907,1.609729,-1,-1,3,48.00000000000001,-9999,34109.281852125,-0.680633544921875,-0.30523681640625,-0.9621734619140625,34109.273116125,2.759712289398628,-0.2250591619985465,0.3070926488060155,0.08352603763341904,0.2229214161634445,-1.936822652816772,-0.4580374956130981,-0.03435084223747253,-0.02623659372329712,XArbitraryZVertical,-0.1377967355542963,-0.1281540439888886,-0.9608788020668797,-0.2032253309878439,-0.2127236276865005,-0.3022885918617249,-0.9291772246360779,0,0,0,-1,-1,34103.36935416667,walking,2,2022-06-02T10:45:33.939+02:00,2022-06-02T10:32:51.428+02:00,64,2.305696,0,0,60.10083,0,0,2022-06-02T10:45:39.045+02:00,675852339.045217,0,11.44922,101.0548,1,0.89
2022-06-02T10:45:39.866+02:00,1654159539.494091,53.22903046947008,10.39825805551847,30.23013,1.315907,1.609729,-1,-1,3,48.00000000000001,-9999,34109.291825125,-0.6826934814453125,-0.3192291259765625,-0.9250030517578125,34109.283088125,2.739669344685758,-0.2165023453654712,0.3126087010740201,0.1546713262796402,0.2785114645957947,-2.047022342681885,-0.475497305393219,0.001954138278961182,-0.03547722101211548,XArbitraryZVertical,-0.1354664193495204,-0.1303398846543467,-0.9589068352214649,-0.2125040910662452,-0.2044038325548172,-0.3075419366359711,-0.929320752620697,0,0,0,-1,-1,34103.36935416667,walking,2,2022-06-02T10:45:33.939+02:00,2022-06-02T10:32:51.428+02:00,64,2.305696,0,0,60.10083,0,0,2022-06-02T10:45:39.045+02:00,675852339.045217,0,11.44922,101.0548,1,0.89
2022-06-02T10:45:39.876+02:00,1654159539.494091,53.22903046947008,10.39825805551847,30.23013,1.315907,1.609729,-1,-1,3,48.00000000000001,-9999,34109.301797125,-0.657470703125,-0.3561859130859375,-0.9048309326171875,34109.293061125,2.718654114639292,-0.2067106377405501,0.318343917038399,0.1054940074682236,0.3621937334537506,-2.105199337005615,-0.4888933002948761,-0.001596361398696899,-0.0009143948554992676,XArbitraryZVertical,-0.1326891893198076,-0.1327612783771436,-0.9567801372571872,-0.2221258919866139,-0.1949293315410614,-0.312994122505188,-0.9295360445976257,0,0,0,-1,-1,34103.36935416667,walking,2,2022-06-02T10:45:33.939+02:00,2022-06-02T10:32:51.428+02:00,64,2.305696,0,0,60.10083,0,0,2022-06-02T10:45:39.045+02:00,675852339.045217,0,11.44922,101.0548,1,0.89
2022-06-02T10:45:39.886+02:00,1654159539.494091,53.22903046947008,10.39825805551847,30.23013,1.315907,1.609729,-1,-1,3,48.00000000000001,-9999,34109.311770125,-0.6182098388671875,-0.329681396484375,-0.9205780029296875,34109.303033125,2.696911776395889,-0.1962241937003039,0.3232179822068725,0.0200550090521574,0.3664180338382721,-2.140827894210815,-0.4767799973487854,-0.03719308972358704,0.02479398250579834,XArbitraryZVertical,-0.1296098849975696,-0.1348719542645003,-0.954569179275212,-0.2319665969937763,-0.1848716288805008,-0.3176195621490479,-0.9300216436386108,0,0,0,-1,-1,34103.36935416667,walking,2,2022-06-02T10:45:33.939+02:00,2022-06-02T10:32:51.428+02:00,64,2.305696,0,0,60.10083,0,0,2022-06-02T10:45:39.045+02:00,675852339.045217,0,11.44922,101.0548,1,0.89
2022-06-02T10:45:39.896+02:00,1654159539.494091,53.22903046947008,10.39825805551847,30.23013,1.315907,1.609729,-1,-1,3,48.00000000000001,-9999,34109.321743125,-0.6003265380859375,-0.2955322265625,-0.936553955078125,34109.313006125,2.674727148608856,-0.1855439629276247,0.3272982838038714,-0.0150346253067255,0.3628540337085724,-2.155143976211548,-0.4476723372936249,-0.01416170597076416,0.01302850246429443,XArbitraryZVertical,-0.1264465405421305,-0.1366765673762408,-0.9522609054473787,-0.2419299376472857,-0.1746878921985626,-0.3214859068393707,-0.9306615591049194,0,0,0,-1,-1,34103.36935416667,walking,2,2022-06-02T10:45:33.939+02:00,2022-06-02T10:32:51.428+02:00,64,2.305696,0,0,60.10083,0,0,2022-06-02T10:45:39.045+02:00,675852339.045217,0,11.44922,101.0548,1,0.89
2022-06-02T10:45:39.906+02:00,1654159539.494091,53.22903046947008,10.39825805551847,30.23013,1.315907,1.609729,-1,-1,3,48.00000000000001,-9999,34109.331715125,-0.5923919677734375,-0.279876708984375,-0.939666748046875,34109.32297912501,2.652119545631533,-0.174606328577601,0.330998330027791,-0.02702870406210423,0.3787219226360321,-2.202585458755493,-0.4375618100166321,0.02600657939910889,-0.003094255924224854,XArbitraryZVertical,-0.1232039408424375,-0.1383886822526671,-0.9498195331611291,-0.2520162166390115,-0.1642906367778778,-0.3249873220920563,-0.9313387274742126,0,0,0,-1,-1,34103.36935416667,walking,2,2022-06-02T10:45:33.939+02:00,2022-06-02T10:32:51.428+02:00,64,2.305696,0,0,60.10083,0,0,2022-06-02T10:45:39.045+02:00,675852339.045217,0,11.44922,101.0548,1,0.89
2022-06-02T10:45:39.916+02:00,1654159539.494091,53.22903046947008,10.39825805551847,30.23013,1.315907,1.609729,-1,-1,3,48.00000000000001,-9999,34109.341688125,-0.574981689453125,-0.2751922607421875,-0.9305419921875,34109.332951125,2.628839518625079,-0.1632952093494657,0.3342193317101715,-0.07743342220783234,0.3703055679798126,-2.259639501571655,-0.4396563172340393,0.04804825782775879,-0.007841706275939941,XArbitraryZVertical,-0.1198300065058379,-0.1399675292222672,-0.947222624044701,-0.2623340338358641,-0.1535748988389969,-0.3280318081378937,-0.9320996999740601,0,0,0,-1,-1,34103.36935416667,walking,2,2022-06-02T10:45:33.939+02:00,2022-06-02T10:32:51.428+02:00,64,2.305696,0,0,60.10083,0,0,2022-06-02T10:45:39.045+02:00,675852339.045217,0,11.44922,101.0548,1,0.89
2022-06-02T10:45:39.926+02:00,1654159539.494091,53.22903046947008,10.39825805551847,30.23013,1.315907,1.609729,-1,-1,3,48.00000000000001,-9999,34109.351661125,-0.5560455322265625,-0.24139404296875,-0.9222259521484375,34109.34292412501,2.60478638151548,-0.1517423701934342,0.3368454666744916,-0.1096129268407822,0.366617351770401,-2.320836067199707,-0.4353371560573578,0.05324399471282959,0.003757715225219727,XArbitraryZVertical,-0.1163760077794157,-0.1413441029468645,-0.9444485681201181,-0.2729386267722902,-0.1426657736301422,-0.3305114805698395,-0.9329569339752197,0,0,0,-1,-1,34103.36935416667,walking,2,2022-06-02T10:45:33.939+02:00,2022-06-02T10:32:51.428+02:00,64,2.305696,0,0,60.10083,0,0,2022-06-02T10:45:39.045+02:00,675852339.045217,0,11.44922,101.0548,1,0.89
2022-06-02T10:45:39.936+02:00,1654159539.494091,53.22903046947008,10.39825805551847,30.23013,1.315907,1.609729,-1,-1,3,48.00000000000001,-9999,34109.361633125,-0.525115966796875,-0.226165771484375,-0.89862060546875,34109.35289712501,2.58013730565269,-0.1398847186744832,0.3391767138779901,-0.1031096205115318,0.3763676881790161,-2.360644102096558,-0.4273370802402496,0.08748680353164673,0.008921265602111816,XArbitraryZVertical,-0.1128323786460339,-0.1426888831411755,-0.9414866068066516,-0.2837460235716986,-0.1314855366945267,-0.3327108323574066,-0.933817446231842,0,0,0,-1,-1,34103.36935416667,walking,2,2022-06-02T10:45:33.939+02:00,2022-06-02T10:32:51.428+02:00,64,2.305696,0,0,60.10083,0,0,2022-06-02T10:45:39.045+02:00,675852339.045217,0,11.44922,101.0548,1,0.89
2022-06-02T10:45:39.946+02:00,1654159539.494091,53.22903046947008,10.39825805551847,30.23013,1.315907,1.609729,-1,-1,3,48.00000000000001,-9999,34109.371606125,-0.492156982421875,-0.2110443115234375,-0.890716552734375,34109.36286912501,2.55507997121386,-0.1278185068502041,0.3416049789252384,-0.0413714237511158,0.3676035106182098,-2.394919872283936,-0.4096493721008301,0.1076743006706238,0.03362250328063965,XArbitraryZVertical,-0.1092835531660744,-0.1441913678943983,-0.9383136566946438,-0.2946751918534602,-0.1201052591204643,-0.3349997699260712,-0.9345319271087646,0,0,0,-1,-1,34103.36935416667,walking,2,2022-06-02T10:45:33.939+02:00,2022-06-02T10:32:51.428+02:00,64,2.305696,0,0,60.10083,0,0,2022-06-02T10:45:39.045+02:00,675852339.045217,0,11.44922,101.0548,1,0.89
2022-06-02T10:45:39.956+02:00,1654159539.494091,53.22903046947008,10.39825805551847,30.23013,1.315907,1.609729,-1,-1,3,48.00000000000001,-9999,34109.381578125,-0.468780517578125,-0.2166748046875,-0.872802734375,34109.37284212501,2.529840437281665,-0.1156823894355388,0.3446288787241987,0.06214972957968712,0.3690162301063538,-2.408751487731934,-0.3871508836746216,0.124025970697403,0.04317128658294678,XArbitraryZVertical,-0.105855359037784,-0.146080691698593,-0.9349055514531002,-0.3056250631665531,-0.1086376830935478,-0.3378474116325378,-0.9349101781845093,0,0,0,-1,-1,34103.36935416667,walking,2,2022-06-02T10:45:33.939+02:00,2022-06-02T10:32:51.428+02:00,64,2.305696,0,0,60.10083,0,0,2022-06-02T10:45:39.045+02:00,675852339.045217,0,11.44922,101.0548,1,0.89
2022-06-02T10:45:39.966+02:00,1654159539.494091,53.22903046947008,10.39825805551847,30.23013,1.315907,1.609729,-1,-1,3,48.00000000000001,-9999,34109.391551125,-0.43463134765625,-0.2316741943359375,-0.863006591796875,34109.38281412501,2.504489604590396,-0.103318672708541,0.3484303182652324,0.1644619852304459,0.3912205994129181,-2.435486793518066,-0.3749252557754517,0.1282880902290344,0.05902785062789917,XArbitraryZVertical,-0.1025109000519495,-0.1484678754781526,-0.9312635767936448,-0.3165391187283826,-0.09693755209445953,-0.3414228558540344,-0.9348976016044617,0,0,0,-1,-1,34103.36935416667,walking,2,2022-06-02T10:45:33.939+02:00,2022-06-02T10:32:51.428+02:00,64,2.305696,0,0,60.10083,0,0,2022-06-02T10:45:39.045+02:00,675852339.045217,0,11.44922,101.0548,1,0.89
2022-06-02T10:45:39.975+02:00,1654159539.494091,53.22903046947008,10.39825805551847,30.23013,1.315907,1.609729,-1,-1,3,48.00000000000001,-9999,34109.401524125,-0.404205322265625,-0.2271881103515625,-0.84698486328125,34109.39278712501,2.478832887106877,-0.09062645642420104,0.3528879722382617,0.251740038394928,0.3905065953731537,-2.45701003074646,-0.3539172112941742,0.1136146187782288,0.07063603401184082,XArbitraryZVertical,-0.09921794701080593,-0.1513009555561589,-0.9273707242355466,-0.3274866319369075,-0.08492555469274521,-0.3456092476844788,-0.9345276355743408,0,0,0,-1,-1,34103.36935416667,walking,2,2022-06-02T10:45:33.939+02:00,2022-06-02T10:32:51.428+02:00,64,2.305696,0,0,60.10083,0,0,2022-06-02T10:45:39.045+02:00,675852339.045217,0,11.44922,101.0548,1,0.89
2022-06-02T10:45:39.985+02:00,1654159539.494091,53.22903046947008,10.39825805551847,30.23013,1.315907,1.609729,-1,-1,3,48.00000000000001,-9999,34109.411496125,-0.3752899169921875,-0.2652740478515625,-0.81512451171875,34109.40276012501,2.452894163368774,-0.07776655841457955,0.3575960613284359,0.2572709023952484,0.3910442888736725,-2.479228973388672,-0.3343155086040497,0.1229878067970276,0.08298826217651367,XArbitraryZVertical,-0.09600101340786242,-0.1543660443386303,-0.9232553403294781,-0.3384590801897862,-0.07277371734380722,-0.3500233888626099,-0.9339098334312439,0,0,0,-1,-1,34103.36935416667,walking,2,2022-06-02T10:45:33.939+02:00,2022-06-02T10:32:51.428+02:00,64,2.305696,0,0,60.10083,0,0,2022-06-02T10:45:39.045+02:00,675852339.045217,0,11.44922,101.0548,1,0.89
2022-06-02T10:45:39.995+02:00,1654159539.494091,53.22903046947008,10.39825805551847,30.23013,1.315907,1.609729,-1,-1,3,48.00000000000001,-9999,34109.421469125,-0.3430938720703125,-0.26129150390625,-0.810089111328125,34109.41273212501,2.426565496337408,-0.0646846323358993,0.3617641088220976,0.2218181788921356,0.3817457854747772,-2.508358716964722,-0.3186641931533813,0.09422007203102112,0.1149280667304993,XArbitraryZVertical,-0.09271926268198652,-0.1573027554053783,-0.9189691808228353,-0.3495063360215704,-0.06045566871762276,-0.3539247214794159,-0.9333179593086243,0,0,0,-1,-1,34103.36935416667,walking,2,2022-06-02T10:45:33.939+02:00,2022-06-02T10:32:51.428+02:00,64,2.305696,0,0,60.10083,0,0,2022-06-02T10:45:39.045+02:00,675852339.045217,0,11.44922,101.0548,1,0.89
2022-06-02T10:45:40.005+02:00,1654159539.494091,53.22903046947008,10.39825805551847,30.23013,1.315907,1.609729,-1,-1,3,48.00000000000001,-9999,34109.431441125,-0.3030242919921875,-0.209869384765625,-0.7875823974609375,34109.42270512501,2.400044041343965,-0.05155909634353709,0.3649990132915884,0.1179775297641754,0.3672171831130981,-2.483814239501953,-0.2982179820537567,0.08946177363395691,0.1236786842346191,XArbitraryZVertical,-0.08936416851890824,-0.1599145156547496,-0.9145690985818938,-0.3605618726832384,-0.04814125970005989,-0.3569483757019043,-0.9328827857971191,0,0,0,-1,-1,34103.36935416667,walking,2,2022-06-02T10:45:33.939+02:00,2022-06-02T10:32:51.428+02:00,64,2.305696,0,0,60.10083,0,0,2022-06-02T10:45:39.045+02:00,675852339.045217,0,11.44922,101.0548,1,0.89
2022-06-02T10:45:40.016+02:00,1654159539.494091,53.22903046947008,10.39825805551847,30.23013,1.315907,1.609729,-1,-1,3,48.00000000000001,-9999,34109.441414125,-0.277740478515625,-0.1376495361328125,-0.815032958984375,34109.43267712501,2.373722301717098,-0.03877207636674945,0.3670627161130249,0.07625356316566467,0.3162667155265808,-2.456545114517212,-0.2727186977863312,0.1379280984401703,0.1423245072364807,XArbitraryZVertical,-0.08601929312491469,-0.1620452774173387,-0.9101294297659865,-0.3714923227394343,-0.03618022799491882,-0.3588753640651703,-0.9326840043067932,0,0,0,-1,-1,34103.36935416667,walking,2,2022-06-02T10:45:33.939+02:00,2022-06-02T10:32:51.428+02:00,64,2.305696,0,0,60.10083,0,0,2022-06-02T10:45:39.045+02:00,675852339.045217,0,11.44922,101.0548,1,0.89
2022-06-02T10:45:40.025+02:00,1654159539.494091,53.22903046947008,10.39825805551847,30.23013,1.315907,1.609729,-1,-1,3,48.00000000000001,-9999,34109.451387125,-0.234283447265625,-0.1824798583984375,-0.840240478515625,34109.44265012501,2.347322146027649,-0.02599770071422933,0.3678769606519219,-0.06488171964883804,0.3407624661922455,-2.505205869674683,-0.2569486796855927,0.2222908735275269,0.1237566471099854,XArbitraryZVertical,-0.08252155939071415,-0.1637112087567157,-0.905620525061832,-0.3824139392102619,-0.02425554022192955,-0.3596352636814117,-0.9327776432037354,0,0,0,-1,-1,34103.36935416667,walking,2,2022-06-02T10:45:33.939+02:00,2022-06-02T10:32:51.428+02:00,64,2.305696,0,0,60.10083,0,0,2022-06-02T10:45:39.045+02:00,675852339.045217,0,11.44922,101.0548,1,0.89
2022-06-02T10:45:40.035+02:00,1654159539.494091,53.22903046947008,10.39825805551847,30.23013,1.315907,1.609729,-1,-1,3,48.00000000000001,-9999,34109.461359125,-0.189239501953125,-0.145599365234375,-0.8570098876953125,34109.45262312501,2.32010513942077,-0.01281950490393386,0.3678048819086415,-0.05858631804585457,0.3424984812736511,-2.575597763061523,-0.2278453260660172,0.1785376667976379,0.09461754560470581,XArbitraryZVertical,-0.07879342764549532,-0.1651377818032522,-0.9008776798422167,-0.3936249009519306,-0.01196179445832968,-0.3595679998397827,-0.9330422282218933,0,0,0,-1,-1,34103.36935416667,walking,2,2022-06-02T10:45:33.939+02:00,2022-06-02T10:32:51.428+02:00,64,2.305696,0,0,60.10083,0,0,2022-06-02T10:45:39.045+02:00,675852339.045217,0,11.44922,101.0548,1,0.89
2022-06-02T10:45:40.045+02:00,1654159539.494091,53.22903046947008,10.39825805551847,30.23013,1.315907,1.609729,-1,-1,3,48.00000000000001,-9999,34109.471332125,-0.1529388427734375,-0.13519287109375,-0.88897705078125,34109.46259512501,2.292591484301808,0.0004561086313260841,0.3669212241194493,-0.1636493504047394,0.3391514420509338,-2.575761795043945,-0.1949295252561569,0.2095733284950256,0.08051562309265137,XArbitraryZVertical,-0.07493365774969962,-0.1663335936733066,-0.8959693923139054,-0.4049160273104519,0.0004257483233232051,-0.3587433099746704,-0.9334361553192139,0,0,0,-1,-1,34103.36935416667,walking,2,2022-06-02T10:45:33.939+02:00,2022-06-02T10:32:51.428+02:00,64,2.305696,0,0,60.10083,0,0,2022-06-02T10:45:39.045+02:00,675852339.045217,0,11.44922,101.0548,1,0.89
2022-06-02T10:45:40.055+02:00,1654159539.494091,53.22903046947008,10.39825805551847,30.23013,1.315907,1.609729,-1,-1,3,48.00000000000001,-9999,34109.481304125,-0.1245880126953125,-0.07965087890625,-0.9155731201171875,34109.47256812501,2.264930658898682,0.01366747057679123,0.3647166621535874,-0.2252979427576065,0.3314559757709503,-2.612173557281494,-0.1690180897712708,0.2199200987815857,0.04824286699295044,XArbitraryZVertical,-0.07088304193202331,-0.1670532558603733,-0.8909528193407176,-0.4162594278655345,0.01276809349656105,-0.3566845953464508,-0.9341375827789307,0,0,0,-1,-1,34103.36935416667,walking,2,2022-06-02T10:45:33.939+02:00,2022-06-02T10:32:51.428+02:00,64,2.305696,0,0,60.10083,0,0,2022-06-02T10:45:39.045+02:00,675852339.045217,0,11.44922,101.0548,1,0.89
