,loggingTime(txt),accelerometerTimestamp_sinceReboot(s),accelerometerAccelerationX(G),accelerometerAccelerationY(G),accelerometerAccelerationZ(G),motionTimestamp_sinceReboot(s),motionYaw(rad),motionRoll(rad),motionPitch(rad),motionRotationRateX(rad/s),motionRotationRateY(rad/s),motionRotationRateZ(rad/s),motionUserAccelerationX(G),motionUserAccelerationY(G),motionUserAccelerationZ(G),motionAttitudeReferenceFrame(txt),motionQuaternionX(R),motionQuaternionY(R),motionQuaternionZ(R),motionQuaternionW(R),motionGravityX(G),motionGravityY(G),motionGravityZ(G),motionMagneticFieldX(µT),motionMagneticFieldY(µT),motionMagneticFieldZ(µT),motionHeading(°),motionMagneticFieldCalibrationAccuracy(Z),activityTimestamp_sinceReboot(s),activity(txt),activityActivityConfidence(Z),activityActivityStartDate(txt),pedometerStartDate(txt),pedometerNumberofSteps(N),pedometerAverageActivePace(s/m),pedometerCurrentPace(s/m),pedometerCurrentCadence(steps/s),pedometerDistance(m),pedometerFloorAscended(N),pedometerFloorDescended(N),pedometerEndDate(txt)
215,2022-06-30T09:23:03.447+02:00,3377.866141416667,-1.4934443664550783,-2.831661529541016,-1.379231872558594,3377.856190416667,-1.554722324275565,0.7489148747856336,0.7044344978912407,-3.185653209686279,8.130293846130371,-2.12005615234375,-0.4699755311012268,0.4160963892936707,0.1832928061485291,XArbitraryZVertical,-0.4696517185039603,-0.0195000712382844,0.5227843817053244,-0.7111564506786375,0.5187883973121643,-0.6476030349731445,-0.5580940246582031,0,0,0,-1,-1,3368.5691805,walking,2,2022-06-30T09:22:54.150+02:00,2022-06-30T08:20:05.567+02:00,1052,1.408595,0.4660077,2.148604,819.8695,0,0,2022-06-30T09:23:01.797+02:00
216,2022-06-30T09:23:03.458+02:00,3377.876092416667,-2.202519836425781,-2.7032286071777345,0.0712518310546875,3377.866141416667,-1.542592991539704,0.8249343234495513,0.6634132459925222,-3.973186016082764,8.706158638000488,-2.38213038444519,-0.6090458035469055,0.3732252717018127,0.3089619278907776,XArbitraryZVertical,-0.4781168520109365,-0.0637926083185779,0.5101912562715324,-0.71206711515363,0.5787113308906555,-0.6158097386360168,-0.5346695780754089,0,0,0,-1,-1,3368.5691805,walking,2,2022-06-30T09:22:54.150+02:00,2022-06-30T08:20:05.567+02:00,1052,1.408595,0.4660077,2.148604,819.8695,0,0,2022-06-30T09:23:01.797+02:00
217,2022-06-30T09:23:03.467+02:00,3377.886044416667,-2.61775634765625,-2.184108123779297,1.9561322021484375,3377.876092416667,-1.521723875448233,0.9019308020256784,0.6164296747291738,-4.690077781677246,9.29446029663086,-2.614388227462769,-0.7923688888549805,0.2894747853279114,0.3653721213340759,XArbitraryZVertical,-0.4841061558668777,-0.1125082440350614,0.4956097097937266,-0.7122879977817997,0.640131950378418,-0.5781256556510925,-0.5059662461280823,0,0,0,-1,-1,3368.5691805,walking,2,2022-06-30T09:22:54.150+02:00,2022-06-30T08:20:05.567+02:00,1052,1.408595,0.4660077,2.148604,819.8695,0,0,2022-06-30T09:23:01.797+02:00
218,2022-06-30T09:23:03.477+02:00,3377.895995416667,-2.9916787719726563,-2.369871826171875,3.108286285400391,3377.886044416667,-1.49166293383947,0.980558249466512,0.5644876770534044,-5.482914447784424,9.903903007507324,-2.850284099578857,-0.9264368414878844,0.2594242095947266,0.4774793982505798,XArbitraryZVertical,-0.4873578564808438,-0.1654520175200694,0.478632178123615,-0.7113503490955951,0.7019190192222595,-0.5349830389022827,-0.4702158868312836,0,0,0,-1,-1,3368.5691805,walking,2,2022-06-30T09:22:54.150+02:00,2022-06-30T08:20:05.567+02:00,1052,1.408595,0.4660077,2.148604,819.8695,0,0,2022-06-30T09:23:01.797+02:00
219,2022-06-30T09:23:03.487+02:00,3377.905947416667,-3.340603179931641,-2.7057733154296875,4.438420257568359,3377.895995416667,-1.450798747161264,1.060598403999983,0.5073287291048164,-6.306455135345459,10.60713005065918,-3.134218454360962,-1.029579639434814,0.2632028460502625,0.6262422800064087,XArbitraryZVertical,-0.4868034603466951,-0.2227158499987063,0.4590277595412369,-0.7090229860947072,0.7627339363098145,-0.4858441650867462,-0.4268400967121124,0,0,0,-1,-1,3368.5691805,walking,2,2022-06-30T09:22:54.150+02:00,2022-06-30T08:20:05.567+02:00,1052,1.408595,0.4660077,2.148604,819.8695,0,0,2022-06-30T09:23:01.797+02:00
220,2022-06-30T09:23:03.497+02:00,3377.915898416667,-3.6685711669921877,-1.9802320861816407,6.4499372863769535,3377.905947416667,-1.399755497653514,1.146689465392241,0.447599716358462,-7.246695041656494,11.41840171813965,-3.45855188369751,-1.126584887504578,0.1912254095077515,0.6878178119659424,XArbitraryZVertical,-0.4833052563697623,-0.284484838797948,0.435540703110274,-0.7041227042317969,0.8216226696968079,-0.4328029453754425,-0.3709688186645508,0,0,0,-1,-1,3368.5691805,walking,2,2022-06-30T09:22:54.150+02:00,2022-06-30T08:20:05.567+02:00,1052,1.408595,0.4660077,2.148604,819.8695,0,0,2022-06-30T09:23:01.797+02:00
221,2022-06-30T09:23:03.507+02:00,3377.925850416667,-3.840114440917969,-1.9721488952636719,8.23692123413086,3377.915898416667,-1.33608744290667,1.238581011949134,0.3857283531700179,-8.188610076904297,12.24760913848877,-3.779860734939575,-1.216394782066345,0.1004157960414886,0.7546135187149048,XArbitraryZVertical,-0.4754235028794261,-0.3505496038140258,0.4077208110699247,-0.6963126635642812,0.8758643865585327,-0.3762340843677521,-0.3021749258041382,0,0,0,-1,-1,3368.5691805,walking,2,2022-06-30T09:22:54.150+02:00,2022-06-30T08:20:05.567+02:00,1052,1.408595,0.4660077,2.148604,819.8695,0,0,2022-06-30T09:23:01.797+02:00
222,2022-06-30T09:23:03.517+02:00,3377.935801416667,-3.157683563232422,-1.3217514038085938,12.632380828857427,3377.925850416667,-1.260126464092483,1.339072737320991,0.3240681246794053,-9.039214134216309,13.2650785446167,-4.122522354125977,-1.296573638916016,0.1165666580200195,0.8751875162124634,XArbitraryZVertical,-0.463086886483158,-0.4203568275773322,0.3750444699127582,-0.6842458517627921,0.9226111769676208,-0.3184255659580231,-0.2177013456821442,0,0,0,-1,-1,3368.5691805,walking,2,2022-06-30T09:22:54.150+02:00,2022-06-30T08:20:05.567+02:00,1052,1.408595,0.4660077,2.148604,819.8695,0,0,2022-06-30T09:23:01.797+02:00
223,2022-06-30T09:23:03.527+02:00,3377.945752416667,-2.2478755187988284,-1.4880555725097657,18.238073730468752,3377.935801416667,-1.170410595227523,1.450565673090908,0.2659233693991039,-10.02951717376709,14.38405609130859,-4.347639083862305,-1.349334001541138,0.0617653429508209,0.9553707838058472,XArbitraryZVertical,-0.4458755489002675,-0.493287289984561,0.3363902902428561,-0.6668614190898403,0.9578849077224731,-0.2628003060817719,-0.1157252863049507,0,0,0,-1,-1,3368.5691805,walking,2,2022-06-30T09:22:54.150+02:00,2022-06-30T08:20:05.567+02:00,1052,1.408595,0.4660077,2.148604,819.8695,0,0,2022-06-30T09:23:01.797+02:00
224,2022-06-30T09:23:03.537+02:00,3377.955704416667,-0.8590635681152344,-1.482217712402344,25.722509765625002,3377.945752416667,-1.064855225053506,1.574780780746213,0.2156523310528655,-11.19532203674316,15.60660743713379,-4.528038024902344,-1.298713564872742,0.0792491734027862,1.283812403678894,XArbitraryZVertical,-0.4230043661407669,-0.5683426625542067,0.2904559021677438,-0.6431868085092978,0.97682923078537,-0.2139846980571747,0.0038921516388654,0,0,0,-1,-1,3368.5691805,walking,2,2022-06-30T09:22:54.150+02:00,2022-06-30T08:20:05.567+02:00,1052,1.408595,0.4660077,2.148604,819.8695,0,0,2022-06-30T09:23:01.797+02:00
225,2022-06-30T09:23:03.547+02:00,3377.965655416667,-3.1500494384765627,-2.7294241333007814,33.454081878662116,3377.955704416667,-0.9397267738438774,1.71190580229962,0.1791662999185999,-12.95898151397705,16.86428070068359,-4.559350967407227,-1.203353643417358,0.0265212506055831,1.720740556716919,XArbitraryZVertical,-0.392842799042383,-0.6441038036529602,0.2353560190815415,-0.6127090735987389,0.9742123484611512,-0.1782092750072479,0.1383903473615646,0,0,0,-1,-1,3368.5691805,walking,2,2022-06-30T09:22:54.150+02:00,2022-06-30T08:20:05.567+02:00,1052,1.408595,0.4660077,2.148604,819.8695,0,0,2022-06-30T09:23:01.797+02:00
226,2022-06-30T09:23:03.557+02:00,3377.975607416667,-9.52499267578125,-6.526577911376953,46.766199188232434,3377.965655416667,-0.7915189558863069,1.862282909394017,0.1655473381430356,-15.26254940032959,18.45077133178711,-4.420529365539551,-1.032293081283569,0.0136992484331131,2.338622808456421,XArbitraryZVertical,-0.353773646598265,-0.718726618920499,0.1681233208560519,-0.574465659865553,0.9447227120399476,-0.1647922098636627,0.2834475040435791,0,0,0,-1,-1,3368.5691805,walking,2,2022-06-30T09:22:54.150+02:00,2022-06-30T08:20:05.567+02:00,1052,1.408595,0.4660077,2.148604,819.8695,0,0,2022-06-30T09:23:01.797+02:00
227,2022-06-30T09:23:03.567+02:00,3377.985558416667,-16.66709060668945,-16.91692108154297,59.594672241210944,3377.975607416667,-0.6187498243541222,2.025432914905534,0.1872131391981755,-18.30227088928223,20.35027885437012,-3.974951982498169,-1.20382833480835,-0.0921077281236648,2.978739261627197,XArbitraryZVertical,-0.3042852884073202,-0.7893933317557406,0.085001444957599,-0.52634914650189,0.8827223777770996,-0.1861214488744736,0.4314627349376678,0,0,0,-1,-1,3368.5691805,walking,2,2022-06-30T09:22:54.150+02:00,2022-06-30T08:20:05.567+02:00,1052,1.408595,0.4660077,2.148604,819.8695,0,0,2022-06-30T09:23:01.797+02:00
228,2022-06-30T09:23:03.577+02:00,3377.995510416667,-27.356362152099614,-36.02708129882813,62.51180603027344,3377.985558416667,-0.4289250443161706,2.196405008864241,0.2564399626792186,-20.50690269470215,22.33602523803711,-3.320317983627319,-1.755046486854553,-0.4116602540016174,4.20075511932373,XArbitraryZVertical,-0.2448115837861274,-0.8504633918920115,-0.0151641387133952,-0.4653486008625056,0.7840991616249084,-0.2536385357379913,0.5664413571357727,0,0,0,-1,-1,3368.5691805,walking,2,2022-06-30T09:22:54.150+02:00,2022-06-30T08:20:05.567+02:00,1052,1.408595,0.4660077,2.148604,819.8695,0,0,2022-06-30T09:23:01.797+02:00
229,2022-06-30T09:23:03.587+02:00,3378.005461416667,-47.24625091552735,-56.62290206909181,57.814424285888684,3377.995510416667,-0.2529997214359698,2.376796085974314,0.3572179139535518,-17.66546630859375,24.46384811401367,-3.72093677520752,-2.347671747207642,-1.374787926673889,5.398913860321045,XArbitraryZVertical,-0.1809520783331051,-0.8973540115164388,-0.1171834786834585,-0.3850715608314729,0.6486818194389343,-0.3496691286563873,0.6759757399559021,0,0,0,-1,-1,3368.5691805,walking,2,2022-06-30T09:22:54.150+02:00,2022-06-30T08:20:05.567+02:00,1052,1.408595,0.4660077,2.148604,819.8695,0,0,2022-06-30T09:23:01.797+02:00
230,2022-06-30T09:23:03.597+02:00,3378.015413416667,-84.35498291015625,-75.09703491210938,74.3080256652832,3378.005461416667,-0.1148170182797084,2.580062983715773,0.4428194237417167,-11.35717487335205,27.52430152893066,-5.728188991546631,-3.269742012023926,-3.243996858596802,5.607453346252441,XArbitraryZVertical,-0.1145347982976718,-0.9323527557866648,-0.1951481120388633,-0.2819880418304517,0.4811221659183502,-0.4284886419773102,0.7647997736930847,0,0,0,-1,-1,3368.5691805,walking,2,2022-06-30T09:22:54.150+02:00,2022-06-30T08:20:05.567+02:00,1052,1.408595,0.4660077,2.148604,819.8695,0,0,2022-06-30T09:23:01.797+02:00
231,2022-06-30T09:23:03.607+02:00,3378.025364416667,-128.30269317626949,-64.05779113769532,119.71774566650386,3378.015413416667,-0.0072352410650109,2.823950861473227,0.4813937760293369,-3.785390853881836,30.59733963012695,-8.311628341674805,-5.092962741851807,-5.308942794799805,5.051406860351562,XArbitraryZVertical,-0.0411695418304249,-0.9588066914125916,-0.2348221585072187,-0.1544453080027902,0.2768313586711884,-0.4630149900913239,0.8420103788375854,0,0,0,-1,-1,3368.5691805,walking,2,2022-06-30T09:22:54.150+02:00,2022-06-30T08:20:05.567+02:00,1052,1.408595,0.4660077,2.148604,819.8695,0,0,2022-06-30T09:23:01.797+02:00
232,2022-06-30T09:23:03.617+02:00,3378.035315416667,-152.38072265625001,-34.4644807434082,174.48375915527345,3378.025364416667,0.1156563106985914,3.054057007681269,0.4635771107697568,2.880004644393921,25.36093521118164,-14.78899669647217,-8.67707347869873,-7.208001136779785,6.683688163757324,XArbitraryZVertical,0.0461621529188638,-0.9712806969812046,-0.2315761481770216,-0.0292484880636992,0.0781970918178558,-0.4471505284309387,0.8910342454910278,0,0,0,-1,-1,3368.5691805,walking,2,2022-06-30T09:22:54.150+02:00,2022-06-30T08:20:05.567+02:00,1052,1.408595,0.4660077,2.148604,819.8695,0,0,2022-06-30T09:23:01.797+02:00
233,2022-06-30T09:23:03.626+02:00,3378.045267416667,-126.32485610961913,-14.895973663330075,191.3704431152344,3378.035315416667,0.330895040948289,-3.120777499276575,0.4202479888524713,3.91563606262207,15.29771709442139,-23.99287796020508,-13.05976295471191,-6.121859550476074,11.29085350036621,XArbitraryZVertical,0.163203739589964,-0.9642404473866132,-0.2040454568667026,0.0443896420545625,-0.0190026126801967,-0.4079868793487549,0.9127901792526244,0,0,0,-1,-1,3368.5691805,walking,2,2022-06-30T09:22:54.150+02:00,2022-06-30T08:20:05.567+02:00,1052,1.408595,0.4660077,2.148604,819.8695,0,0,2022-06-30T09:23:01.797+02:00
234,2022-06-30T09:23:03.636+02:00,3378.055218416667,-141.5646647644043,7.964637451171876,168.48393585205076,3378.045267416667,0.6260642845362789,3.138253717731342,0.4046637542948097,0.2293961495161057,2.741603136062622,-29.86879920959473,-15.5362720489502,-3.119489192962646,16.86708641052246,XArbitraryZVertical,0.3013433559509521,-0.9320982057676628,-0.1916920042217595,0.0603267780101886,0.003069260623306,-0.3937096893787384,0.9192297458648682,0,0,0,-1,-1,3368.5691805,walking,2,2022-06-30T09:22:54.150+02:00,2022-06-30T08:20:05.567+02:00,1052,1.408595,0.4660077,2.148604,819.8695,0,0,2022-06-30T09:23:01.797+02:00
235,2022-06-30T09:23:03.646+02:00,3378.065170416667,-155.4265887451172,22.634880523681637,136.87297119140626,3378.055218416667,0.9609863306617754,2.963292233576365,0.3721544064070526,2.229596614837646,-11.69259548187256,-32.7267951965332,-13.04236793518066,-1.154824495315552,18.59091186523438,XArbitraryZVertical,0.437827354927808,-0.8756118730676659,-0.2038468086334584,0.007584989011879,0.165216401219368,-0.3636232018470764,0.9167779088020324,0,0,0,-1,-1,3368.5691805,walking,2,2022-06-30T09:22:54.150+02:00,2022-06-30T08:20:05.567+02:00,1052,1.408595,0.4660077,2.148604,819.8695,0,0,2022-06-30T09:23:01.797+02:00
236,2022-06-30T09:23:03.657+02:00,3378.075121416667,-192.91642822265626,29.724437713623054,88.43983840942383,3378.065170416667,1.271608408336824,2.691241408354124,0.1971766845358384,13.63451290130615,-24.88898086547852,-34.8629264831543,-14.85749626159668,1.00779139995575,16.29186248779297,XArbitraryZVertical,0.5583403552033652,-0.7935243176636474,-0.2091397996189306,-0.1218016276016397,0.4268474876880646,-0.1959014981985092,0.8828495740890503,0,0,0,-1,-1,3368.5691805,walking,2,2022-06-30T09:22:54.150+02:00,2022-06-30T08:20:05.567+02:00,1052,1.408595,0.4660077,2.148604,819.8695,0,0,2022-06-30T09:23:01.797+02:00
237,2022-06-30T09:23:03.666+02:00,3378.085073416667,-307.5734976196289,121.70366592407225,-14.901212768554688,3378.075121416667,1.426887336771178,2.384494354655717,-0.1760111087526727,31.64769554138184,-33.8997917175293,-33.50042343139648,-16.51989364624023,2.132223844528198,13.23678970336914,XArbitraryZVertical,0.6303152202121923,-0.6786044213208221,-0.1791764330958917,-0.3318050556493083,0.6762040257453918,0.1751037091016769,0.715602457523346,0,0,0,-1,-1,3368.5691805,walking,2,2022-06-30T09:22:54.150+02:00,2022-06-30T08:20:05.567+02:00,1052,1.408595,0.4660077,2.148604,819.8695,0,0,2022-06-30T09:23:01.797+02:00
238,2022-06-30T09:23:03.676+02:00,3378.095024416667,-301.7878788757325,311.140280456543,24.00198760986328,3378.085073416667,1.286090480562945,1.979060603489215,-0.5691491425636932,34.93373489379883,-34.81120300292969,-16.05003929138184,-20.43840980529785,2.491098642349243,8.680842399597168,XArbitraryZVertical,0.6043658416377164,-0.5495065689379031,-0.1282300776086251,-0.562442488394085,0.7731274366378784,0.5389155149459839,0.3344310820102692,0,0,0,-1,-1,3368.5691805,walking,2,2022-06-30T09:22:54.150+02:00,2022-06-30T08:20:05.567+02:00,1052,1.408595,0.4660077,2.148604,819.8695,0,0,2022-06-30T09:23:01.797+02:00
239,2022-06-30T09:23:03.686+02:00,3378.104975416667,-134.22303176879882,312.78101852416995,313.9737382507324,3378.095024416667,0.8705342926261577,1.371717044817775,-0.7382115008105135,34.92991638183594,-34.82611465454102,-11.88215637207031,-32.07812118530273,11.73311614990234,-1.372699379920959,XArbitraryZVertical,0.5022295904049952,-0.4178803616203971,-0.097139116144006,-0.7508031743379353,0.7250640988349915,0.6729660630226135,-0.1462828814983368,0,0,0,-1,-1,3368.5691805,walking,2,2022-06-30T09:22:54.150+02:00,2022-06-30T08:20:05.567+02:00,1052,1.408595,0.4660077,2.148604,819.8695,0,0,2022-06-30T09:23:01.797+02:00
240,2022-06-30T09:23:03.696+02:00,3378.114927416667,-298.7953019714356,-21.861289215087886,313.5668843078613,3378.104975416667,0.5300347060261302,0.8210112161376174,-0.527688579011136,34.85812377929688,-34.82730102539062,16.55437469482422,-31.39557647705078,31.21310615539551,3.035467386245728,XArbitraryZVertical,0.3316887547192162,-0.3091790466286626,-0.1314117248541134,-0.8815450892637116,0.6322861313819885,0.503537654876709,-0.5887817740440369,0,0,0,-1,-1,3368.5691805,walking,2,2022-06-30T09:22:54.150+02:00,2022-06-30T08:20:05.567+02:00,1052,1.408595,0.4660077,2.148604,819.8695,0,0,2022-06-30T09:23:01.797+02:00
241,2022-06-30T09:23:03.706+02:00,3378.124878416667,-130.81312271118162,-276.96050765991214,142.51174530029303,3378.114927416667,0.3928533777552983,0.6075717787494259,-0.1859068097333904,34.59751129150391,10.39446544647217,13.44384574890137,-14.24330520629883,31.69905853271484,32.8123664855957,XArbitraryZVertical,0.1449952322019519,-0.2748302923068883,-0.1581938843149927,-0.9372402552231331,0.5610387325286865,0.1848377883434296,-0.8068894147872925,0,0,0,-1,-1,3368.5691805,walking,2,2022-06-30T09:22:54.150+02:00,2022-06-30T08:20:05.567+02:00,1052,1.408595,0.4660077,2.148604,819.8695,0,0,2022-06-30T09:23:01.797+02:00
242,2022-06-30T09:23:03.716+02:00,3378.134830416667,-90.6948989868164,-84.90314300537109,-11.406280517578125,3378.124878416667,0.4257364354524136,0.6635614683285735,0.1175179498192339,8.32012939453125,2.684369802474976,22.59821128845215,-31.06991577148438,-2.111222267150879,32.74637603759766,XArbitraryZVertical,0.014426409652554,-0.3295556205709238,-0.2180946008409439,-0.9184878104668186,0.6116783022880554,-0.1172476410865784,-0.7823699712753296,0,0,0,-1,-1,3368.5691805,walking,2,2022-06-30T09:22:54.150+02:00,2022-06-30T08:20:05.567+02:00,1052,1.408595,0.4660077,2.148604,819.8695,0,0,2022-06-30T09:23:01.797+02:00
243,2022-06-30T09:23:03.726+02:00,3378.144781416667,-55.030962524414065,-34.13157302856445,-12.66815643310547,3378.134830416667,0.5616337484188111,0.7050006785114267,0.2268091383322848,-7.517871379852295,9.677754402160645,13.95798110961914,-13.96610832214355,-28.00759887695312,15.26929664611816,XArbitraryZVertical,-0.0069766195745812,-0.3590245300885362,-0.2959673738448416,-0.8851305907634168,0.6314374804496765,-0.2248695343732834,-0.7421054244041443,0,0,0,-1,-1,3368.5691805,walking,2,2022-06-30T09:22:54.150+02:00,2022-06-30T08:20:05.567+02:00,1052,1.408595,0.4660077,2.148604,819.8695,0,0,2022-06-30T09:23:01.797+02:00
244,2022-06-30T09:23:03.736+02:00,3378.154733416667,-69.96241241455078,-4.978796539306641,20.084484100341804,3378.144781416667,0.7237323551301077,0.7339945673116617,0.2528624705254279,-9.075703620910645,4.354230403900146,12.47056102752686,-9.893688201904297,-8.40457820892334,-0.4438267946243286,XArbitraryZVertical,0.0159380442693515,-0.3745655896440161,-0.3701224636731624,-0.8499741906717875,0.648540198802948,-0.2501764297485352,-0.7188931703567505,0,0,0,-1,-1,3368.5691805,walking,2,2022-06-30T09:22:54.150+02:00,2022-06-30T08:20:05.567+02:00,1052,1.408595,0.4660077,2.148604,819.8695,0,0,2022-06-30T09:23:01.797+02:00
245,2022-06-30T09:23:03.746+02:00,3378.164684416667,-80.48073944091797,-30.271250610351565,51.596055450439444,3378.154733416667,0.8724941181155235,0.7371243682663177,0.2547887509668217,-9.91465663909912,5.34900426864624,9.125304222106934,-6.26014232635498,-3.227222204208374,-0.5748498439788818,XArbitraryZVertical,0.0435788901317642,-0.3739652640302934,-0.4324575880683325,-0.8192871241096228,0.6504619121551514,-0.2520409822463989,-0.7165017127990723,0,0,0,-1,-1,3368.5691805,walking,2,2022-06-30T09:22:54.150+02:00,2022-06-30T08:20:05.567+02:00,1052,1.408595,0.4660077,2.148604,819.8695,0,0,2022-06-30T09:23:01.797+02:00
246,2022-06-30T09:23:03.756+02:00,3378.174636416667,-63.457539367675786,-37.91884735107422,68.06316192626953,3378.164684416667,1.026631951021224,0.7718248185793524,0.2492388176426681,-12.80602550506592,9.408428192138672,12.24944400787354,-7.807638168334961,-0.260856032371521,2.741843223571777,XArbitraryZVertical,0.0830924853411216,-0.3819004798140814,-0.4921812368376284,-0.7778208334069252,0.6758934259414673,-0.2466663718223572,-0.6944953203201294,0,0,0,-1,-1,3368.5691805,walking,2,2022-06-30T09:22:54.150+02:00,2022-06-30T08:20:05.567+02:00,1052,1.408595,0.4660077,2.148604,819.8695,0,0,2022-06-30T09:23:01.797+02:00
247,2022-06-30T09:23:03.766+02:00,3378.184587416667,-50.40198852539063,-3.148253173828125,73.55434295654297,3378.174636416667,1.255111455414094,0.8136371156841755,0.2254655064608129,-22.518798828125,9.193007469177246,15.33609390258789,-8.912343978881836,-2.862194061279297,5.929011821746826,XArbitraryZVertical,0.1472333086267454,-0.3789257611227857,-0.5718544516856152,-0.7125447963265181,0.7083951830863953,-0.2235601097345352,-0.669475257396698,0,0,0,-1,-1,3368.5691805,walking,2,2022-06-30T09:22:54.150+02:00,2022-06-30T08:20:05.567+02:00,1052,1.408595,0.4660077,2.148604,819.8695,0,0,2022-06-30T09:23:01.797+02:00
248,2022-06-30T09:23:03.776+02:00,3378.194539416667,-46.650190429687505,21.02991806030274,74.67895431518556,3378.184587416667,1.567357016643971,0.8194975105951968,0.156812226403154,-31.30277061462402,3.993481636047363,15.75044631958008,-7.190494537353516,-3.709155321121216,7.612353801727295,XArbitraryZVertical,0.2294603351130097,-0.332026090490648,-0.6675697736671037,-0.6256654742319374,0.7218360900878906,-0.1561703383922577,-0.6742132306098938,0,0,0,-1,-1,3368.5691805,walking,2,2022-06-30T09:22:54.150+02:00,2022-06-30T08:20:05.567+02:00,1052,1.408595,0.4660077,2.148604,819.8695,0,0,2022-06-30T09:23:01.797+02:00
249,2022-06-30T09:23:03.786+02:00,3378.204490416667,-47.89021179199219,51.53483276367188,63.65872100830079,3378.194539416667,1.910045135170009,0.7982762938479406,0.0468725664446166,-32.59043884277344,-1.093366384506226,15.43537902832031,-5.853184700012207,-0.2740670442581177,8.195070266723633,XArbitraryZVertical,0.3046859549768655,-0.2420302763058787,-0.7572140587851277,-0.5246091026734191,0.7153675556182861,-0.04685540497303,-0.6971756219863892,0,0,0,-1,-1,3368.5691805,walking,2,2022-06-30T09:22:54.150+02:00,2022-06-30T08:20:05.567+02:00,1052,1.408595,0.4660077,2.148604,819.8695,0,0,2022-06-30T09:23:01.797+02:00
250,2022-06-30T09:23:03.796+02:00,3378.214441416667,-57.97249557495118,56.91898635864257,32.86790084838868,3378.204490416667,2.231712000499465,0.7698551867073749,-0.0719561201387844,-29.5467700958252,-5.335143566131592,12.83770751953125,-5.449601173400879,2.071828842163086,8.328686714172363,XArbitraryZVertical,0.351730504049352,-0.1349404245255705,-0.8260819842872215,-0.4191245083810786,0.6942301392555237,0.0718940421938896,-0.7161534428596497,0,0,0,-1,-1,3368.5691805,walking,2,2022-06-30T09:22:54.150+02:00,2022-06-30T08:20:05.567+02:00,1052,1.408595,0.4660077,2.148604,819.8695,0,0,2022-06-30T09:23:01.797+02:00
251,2022-06-30T09:23:03.806+02:00,3378.224393416667,-70.23828872680663,49.5861849975586,12.412039031982427,3378.214441416667,2.482502951415523,0.7281354593786302,-0.1913105136206678,-21.48594284057617,-9.235922813415527,7.346780776977539,-5.535112857818604,5.063150882720947,7.221965312957764,XArbitraryZVertical,0.3642596001292367,-0.0302577249637544,-0.8691251853477594,-0.3331980322617175,0.6533380150794983,0.1901456564664841,-0.7327988147735596,0,0,0,-1,-1,3368.5691805,walking,2,2022-06-30T09:22:54.150+02:00,2022-06-30T08:20:05.567+02:00,1052,1.408595,0.4660077,2.148604,819.8695,0,0,2022-06-30T09:23:01.797+02:00
252,2022-06-30T09:23:03.816+02:00,3378.234344416667,-71.89594161987306,35.943554992675786,4.013004913330079,3378.224393416667,2.626993689450295,0.6643353846204526,-0.281483636494447,-10.5765380859375,-10.03586101531982,2.62609601020813,-6.501802444458008,5.52435827255249,4.106789588928223,XArbitraryZVertical,0.3459852198435719,0.0460839693030997,-0.8935379237034877,-0.2824190761715195,0.5922718644142151,0.2777811884880066,-0.7563409805297852,0,0,0,-1,-1,3368.5691805,walking,2,2022-06-30T09:22:54.150+02:00,2022-06-30T08:20:05.567+02:00,1052,1.408595,0.4660077,2.148604,819.8695,0,0,2022-06-30T09:23:01.797+02:00
253,2022-06-30T09:23:03.825+02:00,3378.2442965,-60.64967834472657,14.481784973144531,7.651638336181641,3378.234344416667,2.669314212837732,0.5782896928569051,-0.3223826395870745,-1.527853012084961,-9.807600021362305,-0.7457716464996338,-7.678299903869629,4.73783016204834,2.059502363204956,XArbitraryZVertical,0.3096151933672532,0.0837204325197197,-0.909102192841516,-0.265824315821975,0.5184338688850403,0.3168273568153381,-0.7942586541175842,0,0,0,-1,-1,3368.5691805,walking,2,2022-06-30T09:22:54.150+02:00,2022-06-30T08:20:05.567+02:00,1052,1.408595,0.4660077,2.148604,819.8695,0,0,2022-06-30T09:23:01.797+02:00
254,2022-06-30T09:23:03.835+02:00,3378.2542475,-52.759885253906255,3.0717622375488283,9.58771224975586,3378.2442965,2.64847738758807,0.4705534948284164,-0.3262550179912003,2.312666416168213,-10.73864841461182,-2.840044260025024,-7.758305549621582,3.343473434448242,1.25337290763855,XArbitraryZVertical,0.2616069589801516,0.0970149423047151,-0.9212816588530875,-0.2709057881745486,0.4294635653495789,0.3204978406429291,-0.8442997932434082,0,0,0,-1,-1,3368.5691805,walking,2,2022-06-30T09:22:54.150+02:00,2022-06-30T08:20:05.567+02:00,1052,1.408595,0.4660077,2.148604,819.8695,0,0,2022-06-30T09:23:01.797+02:00
255,2022-06-30T09:23:03.845+02:00,3378.2641995,-57.36670532226563,5.171595611572266,12.692256317138677,3378.2542475,2.608427689092693,0.3428227008925695,-0.3137714456404509,2.573172807693481,-12.37670993804932,-3.056623220443726,-6.502168655395508,1.167579054832458,1.675810694694519,XArbitraryZVertical,0.2030839603419686,0.1041317834385503,-0.9318448681159284,-0.2820971101610911,0.3197349309921265,0.3086481392383575,-0.8958269357681274,0,0,0,-1,-1,3368.5691805,walking,2,2022-06-30T09:22:54.150+02:00,2022-06-30T08:20:05.567+02:00,1052,1.408595,0.4660077,2.148604,819.8695,0,0,2022-06-30T09:23:01.797+02:00
256,2022-06-30T09:23:03.856+02:00,3378.2741505,-61.85691787719726,7.480993194580079,15.064223785400387,3378.2641995,2.571385488350515,0.2055564424437464,-0.3019497342380005,1.776359796524048,-12.69591331481934,-3.10536003112793,-5.573051452636719,0.0157437026500701,1.911999464035034,XArbitraryZVertical,0.1394141843834788,0.1150410040107124,-0.9393702791293712,-0.2913982400713501,0.1948775947093964,0.2973822951316833,-0.9346585273742676,0,0,0,-1,-1,3368.5691805,walking,2,2022-06-30T09:22:54.150+02:00,2022-06-30T08:20:05.567+02:00,1052,1.408595,0.4660077,2.148604,819.8695,0,0,2022-06-30T09:23:01.797+02:00
257,2022-06-30T09:23:03.865+02:00,3378.2841025,-59.87818267822266,7.755821685791016,14.66949462890625,3378.2741505,2.538412809077446,0.0753314611971929,-0.2880608674111035,1.946949601173401,-11.50264453887939,-2.696437358856201,-5.919937610626221,0.2430827915668488,2.249885559082031,XArbitraryZVertical,0.078189495957284,0.1258877351194921,-0.9427026229957982,-0.2989156660112171,0.0721592530608177,0.2840935289859772,-0.9560773372650146,0,0,0,-1,-1,3368.5691805,walking,2,2022-06-30T09:22:54.150+02:00,2022-06-30T08:20:05.567+02:00,1052,1.408595,0.4660077,2.148604,819.8695,0,0,2022-06-30T09:23:01.797+02:00
258,2022-06-30T09:23:03.875+02:00,3378.2940535,-56.87901947021485,6.1891795349121095,10.123148803710938,3378.2841025,2.5145312584091,-0.0402860985278545,-0.2690537183984809,1.787711262702942,-10.51756381988525,-1.788879156112671,-6.266669750213623,0.4967696070671082,2.498839616775513,XArbitraryZVertical,0.0223705549746295,0.1337131792163689,-0.9432979092175277,-0.3030008413195745,-0.0388262160122394,0.2658193111419678,-0.963240683078766,0,0,0,-1,-1,3368.5691805,walking,2,2022-06-30T09:22:54.150+02:00,2022-06-30T08:20:05.567+02:00,1052,1.408595,0.4660077,2.148604,819.8695,0,0,2022-06-30T09:23:01.797+02:00
259,2022-06-30T09:23:03.885+02:00,3378.3040045,-56.81270736694337,6.437363433837891,9.388326873779299,3378.2940535,2.501619321502452,-0.1462189557792641,-0.2572357130802115,0.2372848242521286,-10.10988521575928,-0.9425047636032104,-5.96288537979126,0.5361958742141724,2.452138423919678,XArbitraryZVertical,-0.0285258693517279,0.1442141958126339,-0.9418313034067282,-0.3022290732827871,-0.1409045606851578,0.2544081807136536,-0.9567770957946776,0,0,0,-1,-1,3368.5691805,walking,2,2022-06-30T09:22:54.150+02:00,2022-06-30T08:20:05.567+02:00,1052,1.408595,0.4660077,2.148604,819.8695,0,0,2022-06-30T09:23:01.797+02:00
260,2022-06-30T09:23:03.896+02:00,3378.3139565,-55.676120910644535,7.706125030517579,8.502618713378906,3378.3040045,2.493998594180486,-0.2449308428418306,-0.2631559844886396,-1.643267154693604,-9.298247337341309,-0.2571229934692383,-5.563923835754395,0.3707763850688934,1.968676805496216,XArbitraryZVertical,-0.0733797027744496,0.1619806174184637,-0.9378998098402368,-0.2978616741203355,-0.2341412603855133,0.2601291835308075,-0.9367554187774658,0,0,0,-1,-1,3368.5691805,walking,2,2022-06-30T09:22:54.150+02:00,2022-06-30T08:20:05.567+02:00,1052,1.408595,0.4660077,2.148604,819.8695,0,0,2022-06-30T09:23:01.797+02:00
261,2022-06-30T09:23:03.905+02:00,3378.3239075,-53.55323547363282,8.324788513183595,5.8299266052246095,3378.3139565,2.487095902305962,-0.3345157807118849,-0.2859675034343702,-3.081081390380859,-8.344008445739746,0.2992499768733978,-5.476326465606689,0.3741188049316406,1.863225698471069,XArbitraryZVertical,-0.1108705623867705,0.186018508046926,-0.9318130570570164,-0.2912547407073776,-0.3149788081645966,0.2820858061313629,-0.9062096476554872,0,0,0,-1,-1,3368.5691805,walking,2,2022-06-30T09:22:54.150+02:00,2022-06-30T08:20:05.567+02:00,1052,1.408595,0.4660077,2.148604,819.8695,0,0,2022-06-30T09:23:01.797+02:00
262,2022-06-30T09:23:03.915+02:00,3378.3338595,-52.052456359863285,8.9717431640625,4.3301953125,3378.3239075,2.477902105818564,-0.4165810189077311,-0.3215370302693035,-4.209506034851074,-7.62004566192627,0.6767712235450745,-5.29154634475708,0.469512939453125,1.734341382980347,XArbitraryZVertical,-0.1419607987851706,0.2145725633566099,-0.9238637295293878,-0.2833402810030395,-0.3838989734649658,0.3160251975059509,-0.8676114678382874,0,0,0,-1,-1,3368.5691805,walking,2,2022-06-30T09:22:54.150+02:00,2022-06-30T08:20:05.567+02:00,1052,1.408595,0.4660077,2.148604,819.8695,0,0,2022-06-30T09:23:01.797+02:00
263,2022-06-30T09:23:03.925+02:00,3378.3438105,-49.87209045410157,9.374705200195313,2.3736140441894533,3378.3338595,2.463219995764943,-0.4938130847341168,-0.3672634097434971,-5.232368946075439,-6.908475875854492,0.8320822715759277,-5.016666889190674,0.4895400404930115,1.416096448898315,XArbitraryZVertical,-0.1676929769996331,0.2469269622870518,-0.913901344130849,-0.2751191014634135,-0.4423783123493195,0.359062671661377,-0.8218122720718384,0,0,0,-1,-1,3368.5691805,walking,2,2022-06-30T09:22:54.150+02:00,2022-06-30T08:20:05.567+02:00,1052,1.408595,0.4660077,2.148604,819.8695,0,0,2022-06-30T09:23:01.797+02:00
264,2022-06-30T09:23:03.935+02:00,3378.3537625,-47.00031234741212,10.832972717285157,0.5176235961914063,3378.3438105,2.439310557574071,-0.5684317395282192,-0.4198525053541856,-6.114677429199219,-6.260673522949219,0.6874690055847168,-4.814502239227295,0.5069254040718079,1.210959315299988,XArbitraryZVertical,-0.1887110772902127,0.2821553647563955,-0.9016227235966232,-0.2680542272769486,-0.4915582537651062,0.4076257646083832,-0.7695529460906982,0,0,0,-1,-1,3368.5691805,walking,2,2022-06-30T09:22:54.150+02:00,2022-06-30T08:20:05.567+02:00,1052,1.408595,0.4660077,2.148604,819.8695,0,0,2022-06-30T09:23:01.797+02:00
265,2022-06-30T09:23:03.945+02:00,3378.3637135,-44.8636555480957,13.134436798095699,0.5468128967285156,3378.3537625,2.403642713597667,-0.6441018505657675,-0.4752382278982653,-6.663946151733398,-5.8429856300354,0.323793888092041,-4.549863815307617,0.4980775713920593,0.9529851675033568,XArbitraryZVertical,-0.206384712052338,0.3192054845979757,-0.8867561622961071,-0.2630150542570212,-0.5339375138282776,0.4575502872467041,-0.7110264301300049,0,0,0,-1,-1,3368.5691805,walking,2,2022-06-30T09:22:54.150+02:00,2022-06-30T08:20:05.567+02:00,1052,1.408595,0.4660077,2.148604,819.8695,0,0,2022-06-30T09:23:01.797+02:00
266,2022-06-30T09:23:03.955+02:00,3378.3736645,-42.844654083251946,13.885125732421876,-0.7608677673339844,3378.3637135,2.355977312903074,-0.7227280353981496,-0.5274914243916075,-6.725004196166992,-5.316614627838135,-0.2142666578292847,-4.219534873962402,0.6009116172790527,0.7008230090141296,XArbitraryZVertical,-0.2219825728288332,0.3559420537486725,-0.869570722441194,-0.2605300049489596,-0.571526288986206,0.5033673644065857,-0.6480579972267151,0,0,0,-1,-1,3368.5691805,walking,2,2022-06-30T09:22:54.150+02:00,2022-06-30T08:20:05.567+02:00,1052,1.408595,0.4660077,2.148604,819.8695,0,0,2022-06-30T09:23:01.797+02:00
267,2022-06-30T09:23:03.965+02:00,3378.3836165,-40.54438751220703,14.99611541748047,-3.885769500732422,3378.3736645,2.29922250938586,-0.8022024657967227,-0.571051819935095,-6.279152870178223,-4.683052539825439,-0.7664616107940674,-3.968432426452637,0.7983655333518982,0.6405721306800842,XArbitraryZVertical,-0.2358692059528654,0.3898075333313492,-0.8511179298332257,-0.2607951360421026,-0.6048248410224915,0.540517270565033,-0.5848315954208374,0,0,0,-1,-1,3368.5691805,walking,2,2022-06-30T09:22:54.150+02:00,2022-06-30T08:20:05.567+02:00,1052,1.408595,0.4660077,2.148604,819.8695,0,0,2022-06-30T09:23:01.797+02:00
268,2022-06-30T09:23:03.975+02:00,3378.3935675,-38.18604171752931,16.31517242431641,-4.167034606933594,3378.3836165,2.238104926035007,-0.879536538451223,-0.6035359839422899,-5.706134796142578,-4.04691743850708,-1.166884660720825,-3.73311448097229,0.8478482961654663,0.4473219513893127,XArbitraryZVertical,-0.2483186506733522,0.4194004967615846,-0.8325309788926515,-0.2633118797052772,-0.6343321800231934,0.5675573348999023,-0.5248821377754211,0,0,0,-1,-1,3368.5691805,walking,2,2022-06-30T09:22:54.150+02:00,2022-06-30T08:20:05.567+02:00,1052,1.408595,0.4660077,2.148604,819.8695,0,0,2022-06-30T09:23:01.797+02:00
269,2022-06-30T09:23:03.985+02:00,3378.4035195,-35.67890533447266,15.991096343994137,-4.2062530517578125,3378.3935675,2.175894454414868,-0.952662631906972,-0.6259915104889031,-5.135378837585449,-3.429251670837402,-1.468023180961609,-3.4725341796875,0.9427553415298462,0.073526382446289,XArbitraryZVertical,-0.2593216498511727,0.4449019325894407,-0.814397030845554,-0.2675298461792525,-0.6604306697845459,0.5859010815620422,-0.4696291089057922,0,0,0,-1,-1,3368.5691805,walking,2,2022-06-30T09:22:54.150+02:00,2022-06-30T08:20:05.567+02:00,1052,1.408595,0.4660077,2.148604,819.8695,0,0,2022-06-30T09:23:01.797+02:00
270,2022-06-30T09:23:03.995+02:00,3378.4134705,-33.86602523803712,14.271322631835938,-5.368286590576172,3378.4035195,2.114830900427894,-1.019395893776129,-0.6402016685139116,-4.741742134094238,-2.698379039764404,-1.576436638832092,-3.209446907043457,1.065759658813477,-0.0046346187591552,XArbitraryZVertical,-0.268531502297651,0.4667131537623595,-0.7971442522455452,-0.2731862519033373,-0.6831158995628357,0.5973572134971619,-0.420139342546463,0,0,0,-1,-1,3368.5691805,walking,2,2022-06-30T09:22:54.150+02:00,2022-06-30T08:20:05.567+02:00,1052,1.408595,0.4660077,2.148604,819.8695,0,0,2022-06-30T09:23:01.797+02:00
271,2022-06-30T09:23:04.005+02:00,3378.4234225,-31.51845703125,12.839400329589845,-4.982688446044922,3378.4134705,2.054505892934082,-1.078674343328658,-0.6497768973350868,-4.656695365905762,-1.927004933357239,-1.573738932609558,-2.935259819030762,1.025072813034058,-0.0525606870651245,XArbitraryZVertical,-0.2749089749782207,0.4861270591184467,-0.7807511298394193,-0.2802377024206702,-0.7017332315444946,0.6050087809562683,-0.3762110769748688,0,0,0,-1,-1,3368.5691805,walking,2,2022-06-30T09:22:54.150+02:00,2022-06-30T08:20:05.567+02:00,1052,1.408595,0.4660077,2.148604,819.8695,0,0,2022-06-30T09:23:01.797+02:00
272,2022-06-30T09:23:04.015+02:00,3378.4333735,-28.51839569091797,13.532309417724614,-4.052373046875,3378.4234225,1.992287314297995,-1.131736638672286,-0.6579830272358005,-5.006527900695801,-1.133989810943604,-1.37018096446991,-2.736013174057007,0.84325110912323,-0.2108840346336365,XArbitraryZVertical,-0.2776585752423926,0.5047126607572664,-0.7646958715251515,-0.2888100299627472,-0.7161808609962463,0.6115221977233887,-0.3363416790962219,0,0,0,-1,-1,3368.5691805,walking,2,2022-06-30T09:22:54.150+02:00,2022-06-30T08:20:05.567+02:00,1052,1.408595,0.4660077,2.148604,819.8695,0,0,2022-06-30T09:23:01.797+02:00
273,2022-06-30T09:23:04.024+02:00,3378.4433255,-25.68014785766601,15.672409057617188,-3.6649786376953126,3378.4333735,1.92478117619997,-1.180840256251799,-0.6681701774040553,-5.60850715637207,-0.4030653238296509,-1.066274881362915,-2.486863851547241,0.689257025718689,-0.2095194756984711,XArbitraryZVertical,-0.2758683352570031,0.5241153423227559,-0.7482945284600304,-0.2987559121223081,-0.7260266542434692,0.6195507049560547,-0.2983995378017426,0,0,0,-1,-1,3368.5691805,walking,2,2022-06-30T09:22:54.150+02:00,2022-06-30T08:20:05.567+02:00,1052,1.408595,0.4660077,2.148604,819.8695,0,0,2022-06-30T09:23:01.797+02:00
274,2022-06-30T09:23:04.034+02:00,3378.4532765,-23.299348754882814,17.640516357421877,-3.6607873535156252,3378.4433255,1.850856544998376,-1.228047749776097,-0.6801421849570858,-6.048810005187988,0.1694639176130295,-0.8547146320343018,-2.174813270568848,0.750537097454071,-0.1517913341522217,XArbitraryZVertical,-0.2699401819389563,0.5445044810567189,-0.7311537238828126,-0.3099378906529562,-0.7322607040405273,0.6289035677909851,-0.2612943351268768,0,0,0,-1,-1,3368.5691805,walking,2,2022-06-30T09:22:54.150+02:00,2022-06-30T08:20:05.567+02:00,1052,1.408595,0.4660077,2.148604,819.8695,0,0,2022-06-30T09:23:01.797+02:00
