,loggingTime(txt),accelerometerTimestamp_sinceReboot(s),accelerometerAccelerationX(G),accelerometerAccelerationY(G),accelerometerAccelerationZ(G),motionTimestamp_sinceReboot(s),motionYaw(rad),motionRoll(rad),motionPitch(rad),motionRotationRateX(rad/s),motionRotationRateY(rad/s),motionRotationRateZ(rad/s),motionUserAccelerationX(G),motionUserAccelerationY(G),motionUserAccelerationZ(G),motionAttitudeReferenceFrame(txt),motionQuaternionX(R),motionQuaternionY(R),motionQuaternionZ(R),motionQuaternionW(R),motionGravityX(G),motionGravityY(G),motionGravityZ(G),motionMagneticFieldX(µT),motionMagneticFieldY(µT),motionMagneticFieldZ(µT),motionHeading(°),motionMagneticFieldCalibrationAccuracy(Z),activityTimestamp_sinceReboot(s),activity(txt),activityActivityConfidence(Z),activityActivityStartDate(txt),pedometerStartDate(txt),pedometerNumberofSteps(N),pedometerAverageActivePace(s/m),pedometerCurrentPace(s/m),pedometerCurrentCadence(steps/s),pedometerDistance(m),pedometerFloorAscended(N),pedometerFloorDescended(N),pedometerEndDate(txt)
153,2022-06-30T09:48:22.697+02:00,4802.41444175,-8.553512878417969,3.8181101989746096,18.16697158813476,4802.40449075,-1.321184020807309,2.289937021232631,0.3073270242565044,3.007516860961914,5.652821063995361,3.253315210342407,-1.541186571121216,0.7373565435409546,1.214792966842651,XArbitraryZVertical,0.6021296269624753,0.6718458025765726,-0.1404027546096549,0.4078606714131492,0.7171202898025513,-0.302511990070343,0.6278737187385559,0,0,0,-1,-1,4800.387874625,unknown,2,2022-06-30T09:48:20.672+02:00,2022-06-30T08:20:05.567+02:00,1383,1.400134,0,0,1092.013,0,0,2022-06-30T09:48:20.672+02:00
154,2022-06-30T09:48:22.707+02:00,4802.42439375,-8.532556457519531,3.483406219482422,17.70667877197266,4802.41444175,-1.367300726724541,2.359985796516761,0.3107849549925435,3.018329381942749,5.657656192779541,3.282116651535034,-1.550389885902405,0.7245067954063416,1.181016683578491,XArbitraryZVertical,0.6226747753116053,0.6709441216657758,-0.1267669973418493,0.3821523238295924,0.6706749200820923,-0.3058060705661774,0.6757797598838806,0,0,0,-1,-1,4800.387874625,unknown,2,2022-06-30T09:48:20.672+02:00,2022-06-30T08:20:05.567+02:00,1383,1.400134,0,0,1092.013,0,0,2022-06-30T09:48:20.672+02:00
155,2022-06-30T09:48:22.717+02:00,4802.43434475,-8.792715454101563,3.074007568359375,18.571580200195314,4802.42439375,-1.414502964921706,2.43038696377794,0.3105369107461262,3.215147018432617,5.627176284790039,3.284387826919556,-1.493444442749023,0.6947754621505737,1.130542635917664,XArbitraryZVertical,0.6426962551190193,0.6690379169857368,-0.1132924962384504,0.3556609038266864,0.6215265989303589,-0.3055699169635773,0.7213404178619385,0,0,0,-1,-1,4800.387874625,unknown,2,2022-06-30T09:48:20.672+02:00,2022-06-30T08:20:05.567+02:00,1383,1.400134,0,0,1092.013,0,0,2022-06-30T09:48:20.672+02:00
156,2022-06-30T09:48:22.727+02:00,4802.44429675,-9.009913787841798,2.832110595703125,19.727626190185553,4802.43434475,-1.46281011768616,2.500484517170132,0.3050521700897841,3.467427730560303,5.553190231323242,3.23522424697876,-1.440253019332886,0.6554298400878906,1.040529847145081,XArbitraryZVertical,0.6621631339920266,0.6661502587955996,-0.1006960941284325,0.3280916537809645,0.5704711675643921,-0.3003429472446442,0.7644323706626892,0,0,0,-1,-1,4800.387874625,unknown,2,2022-06-30T09:48:20.672+02:00,2022-06-30T08:20:05.567+02:00,1383,1.400134,0,0,1092.013,0,0,2022-06-30T09:48:20.672+02:00
157,2022-06-30T09:48:22.737+02:00,4802.45424775,-9.414223022460938,2.4876768493652346,20.85747665405274,4802.44429675,-1.510836369483952,2.569202565914072,0.295292281910993,3.377736806869507,5.435349941253662,3.203253030776978,-1.41450047492981,0.6043736338615417,1.088902592658997,XArbitraryZVertical,0.6807839474628266,0.6623032896577311,-0.0887019776749378,0.3000325715731695,0.5181989073753357,-0.2910194993019104,0.8042248487472534,0,0,0,-1,-1,4800.387874625,unknown,2,2022-06-30T09:48:20.672+02:00,2022-06-30T08:20:05.567+02:00,1383,1.400134,0,0,1092.013,0,0,2022-06-30T09:48:20.672+02:00
158,2022-06-30T09:48:22.747+02:00,4802.46419975,-9.45793212890625,2.8349546813964843,22.133722686767573,4802.45424775,-1.556182686069306,2.635561946837439,0.283535882153984,3.204432964324951,5.331287860870361,3.049377679824829,-1.383798003196716,0.568448007106781,1.17121958732605,XArbitraryZVertical,0.6979477221919212,0.6578334198914925,-0.0765124214041833,0.2725253885588256,0.4653559625148773,-0.279752105474472,0.839751660823822,0,0,0,-1,-1,4800.387874625,unknown,2,2022-06-30T09:48:20.672+02:00,2022-06-30T08:20:05.567+02:00,1383,1.400134,0,0,1092.013,0,0,2022-06-30T09:48:20.672+02:00
159,2022-06-30T09:48:22.757+02:00,4802.474151750001,-9.560169525146486,2.6533822631835937,23.33467529296875,4802.46419975,-1.598369982560311,2.699519960653023,0.2695085811642508,3.076109647750854,5.237697601318359,2.924596309661865,-1.372026681900024,0.5198432803153992,1.254905462265015,XArbitraryZVertical,0.7135473198733996,0.653046491786673,-0.064324860444975,0.2454441551878572,0.4123705625534058,-0.2662577927112579,0.8712390065193176,0,0,0,-1,-1,4800.387874625,unknown,2,2022-06-30T09:48:20.672+02:00,2022-06-30T08:20:05.567+02:00,1383,1.400134,0,0,1092.013,0,0,2022-06-30T09:48:20.672+02:00
160,2022-06-30T09:48:22.767+02:00,4802.484102750001,-9.717941436767578,1.9773880004882813,25.03693542480469,4802.474151750001,-1.63826045133878,2.761208359400928,0.2529503975603398,3.110624551773071,5.098627090454102,2.833549499511719,-1.323574304580688,0.5392473936080933,1.357265949249268,XArbitraryZVertical,0.7279323636900797,0.6477669344953476,-0.0524247993166284,0.2185502899082936,0.359462708234787,-0.2502615451812744,0.8989750742912292,0,0,0,-1,-1,4800.387874625,unknown,2,2022-06-30T09:48:20.672+02:00,2022-06-30T08:20:05.567+02:00,1383,1.400134,0,0,1092.013,0,0,2022-06-30T09:48:20.672+02:00
161,2022-06-30T09:48:22.777+02:00,4802.49405475,-9.999505920410156,1.3846206665039062,27.34064483642578,4802.484102750001,-1.675897720813027,2.819882005607794,0.2341141735712555,2.994922637939453,4.888383388519287,2.755048036575317,-1.282097697257996,0.502458393573761,1.455846428871155,XArbitraryZVertical,0.7411702004888654,0.6419303682006297,-0.041107213693858,0.1920998394303894,0.3075643181800842,-0.2319814115762711,0.92281574010849,0,0,0,-1,-1,4800.387874625,unknown,2,2022-06-30T09:48:20.672+02:00,2022-06-30T08:20:05.567+02:00,1383,1.400134,0,0,1092.013,0,0,2022-06-30T09:48:20.672+02:00
162,2022-06-30T09:48:22.787+02:00,4802.50400575,-10.025402069091802,1.6735198974609375,29.33419921875,4802.49405475,-1.710818177278816,2.874997366005241,0.2151129983967954,2.662606239318848,4.634637832641602,2.669837951660156,-1.247992753982544,0.4150261282920837,1.609745144844055,XArbitraryZVertical,0.753177803898196,0.6355652324745804,-0.0299540833252685,0.1669814021783726,0.25737664103508,-0.2134578227996826,0.9424399137496948,0,0,0,-1,-1,4800.387874625,unknown,2,2022-06-30T09:48:20.672+02:00,2022-06-30T08:20:05.567+02:00,1383,1.400134,0,0,1092.013,0,0,2022-06-30T09:48:20.672+02:00
163,2022-06-30T09:48:22.797+02:00,4802.51395775,-9.76733871459961,2.4947122192382816,30.898745727539065,4802.50400575,-1.742517107324256,2.925785532420729,0.1981226002185638,2.192148208618164,4.269882678985596,2.558391809463501,-1.229264855384827,0.3379724621772766,1.829322338104248,XArbitraryZVertical,0.7638182782807547,0.6288318177887452,-0.0186898263841079,0.1442322907443114,0.2099469751119614,-0.1968290060758591,0.9576956629753112,0,0,0,-1,-1,4800.387874625,unknown,2,2022-06-30T09:48:20.672+02:00,2022-06-30T08:20:05.567+02:00,1383,1.400134,0,0,1092.013,0,0,2022-06-30T09:48:20.672+02:00
164,2022-06-30T09:48:22.807+02:00,4802.523909750001,-9.138047332763673,1.9724482727050783,32.131881408691406,4802.51395775,-1.771070884990708,2.971394186438581,0.1839427018837099,1.77366578578949,3.825257062911987,2.404849052429199,-1.188478350639343,0.3535001277923584,2.021309375762939,XArbitraryZVertical,0.7731320503897207,0.6218757341554836,-0.0076167818541822,0.1244163644350341,0.1665205955505371,-0.1829071789979935,0.9689251780509948,0,0,0,-1,-1,4800.387874625,unknown,2,2022-06-30T09:48:20.672+02:00,2022-06-30T08:20:05.567+02:00,1383,1.400134,0,0,1092.013,0,0,2022-06-30T09:48:20.672+02:00
165,2022-06-30T09:48:22.817+02:00,4802.533860750001,-8.346194000244141,0.5279521179199219,33.54284729003906,4802.523909750001,-1.796768444001793,3.011515556643533,0.1714101476912524,1.558432579040527,3.337394237518311,2.245413303375244,-1.123461246490479,0.4248746633529663,2.172698259353638,XArbitraryZVertical,0.7812673799670716,0.6149241797013851,0.0025469079652482,0.1071590176358708,0.1278097033500671,-0.1705719977617264,0.9770209193229676,0,0,0,-1,-1,4800.387874625,unknown,2,2022-06-30T09:48:20.672+02:00,2022-06-30T08:20:05.567+02:00,1383,1.400134,0,0,1092.013,0,0,2022-06-30T09:48:20.672+02:00
166,2022-06-30T09:48:22.827+02:00,4802.54381275,-7.577542419433594,-0.3950285339355469,34.922079162597655,4802.533860750001,-1.820002791834477,3.045482769665358,0.1604231666436843,1.232243061065674,2.744891881942749,2.079595804214478,-1.026233434677124,0.3608007431030273,2.292817115783691,XArbitraryZVertical,0.7884199541311858,0.6080263681791809,0.0113168247031444,0.0925738228600477,0.094729833304882,-0.1597359478473663,0.982604205608368,0,0,0,-1,-1,4800.387874625,unknown,2,2022-06-30T09:48:20.672+02:00,2022-06-30T08:20:05.567+02:00,1383,1.400134,0,0,1092.013,0,0,2022-06-30T09:48:20.672+02:00
167,2022-06-30T09:48:22.837+02:00,4802.55376375,-6.786587219238282,-0.2082170104980469,35.647919769287114,4802.54381275,-1.840598429883799,3.072359584947904,0.1529022200962532,0.8225569128990173,2.050534009933472,1.853765368461609,-0.9191553592681884,0.2061246037483215,2.433284997940063,XArbitraryZVertical,0.7945838292233139,0.6013479413146976,0.018763329759611,0.0816405684150858,0.0683706998825073,-0.1523071229457855,0.985965609550476,0,0,0,-1,-1,4800.387874625,unknown,2,2022-06-30T09:48:20.672+02:00,2022-06-30T08:20:05.567+02:00,1383,1.400134,0,0,1092.013,0,0,2022-06-30T09:48:20.672+02:00
168,2022-06-30T09:48:22.847+02:00,4802.56371575,-5.848488006591797,-0.13921051025390627,36.179165039062504,4802.55376375,-1.858127844722744,3.088619104587742,0.1602707712765162,0.4569639563560486,1.271970987319946,1.658489227294922,-0.8247009515762329,0.1193173229694366,2.574045658111572,XArbitraryZVertical,0.7994781946664398,0.5947555905788371,0.02675270684997,0.0799039113827051,0.0522701852023601,-0.1595855206251144,0.9857991933822632,0,0,0,-1,-1,4800.387874625,unknown,2,2022-06-30T09:48:20.672+02:00,2022-06-30T08:20:05.567+02:00,1383,1.400134,0,0,1092.013,0,0,2022-06-30T09:48:20.672+02:00
169,2022-06-30T09:48:22.856+02:00,4802.57366775,-5.057981872558594,-0.28306137084960936,36.82312591552735,4802.56371575,-1.874035542999505,3.099851520149647,0.1586104104875303,0.1699295341968536,0.515442430973053,1.480379104614258,-0.7330085635185242,0.1367209404706955,2.647247314453125,XArbitraryZVertical,0.8040671583003498,0.5888717920050301,0.0301412749861598,0.0761425945986265,0.0412052348256111,-0.1579462140798569,0.986587941646576,0,0,0,-1,-1,4800.387874625,unknown,2,2022-06-30T09:48:20.672+02:00,2022-06-30T08:20:05.567+02:00,1383,1.400134,0,0,1092.013,0,0,2022-06-30T09:48:20.672+02:00
170,2022-06-30T09:48:22.866+02:00,4802.58361875,-4.792284393310547,-1.0832972717285156,37.020265960693365,4802.57366775,-1.88813676816469,3.103631073695576,0.1602425519675293,-0.3446874618530273,-0.1698454022407532,1.334460616111755,-0.6336427330970764,0.1453667283058167,2.701510906219482,XArbitraryZVertical,0.8080980739081998,0.5832805888872818,0.0316089586855369,0.0759090237523123,0.0374662429094314,-0.1595576554536819,0.9864774942398072,0,0,0,-1,-1,4800.387874625,unknown,2,2022-06-30T09:48:20.672+02:00,2022-06-30T08:20:05.567+02:00,1383,1.400134,0,0,1092.013,0,0,2022-06-30T09:48:20.672+02:00
171,2022-06-30T09:48:22.876+02:00,4802.59357075,-4.51940185546875,-1.1059002685546875,36.13770126342774,4802.58361875,-1.900500136644977,3.10125630823587,0.1674531971760237,-0.9577668309211732,-0.6884675621986389,1.167932152748108,-0.5553562045097351,0.1378170996904373,2.768421173095703,XArbitraryZVertical,0.8115268309744935,0.5779528387690914,0.0322691105981338,0.0797088031782276,0.0397613607347011,-0.1666717082262039,0.9852105379104614,0,0,0,-1,-1,4800.387874625,unknown,2,2022-06-30T09:48:20.672+02:00,2022-06-30T08:20:05.567+02:00,1383,1.400134,0,0,1092.013,0,0,2022-06-30T09:48:20.672+02:00
172,2022-06-30T09:48:22.887+02:00,4802.60352175,-4.427043914794922,-0.9789642333984375,34.289045562744136,4802.59357075,-1.910895945182727,3.094201524314329,0.1804189618614707,-1.518548488616943,-1.068374872207642,0.9993689656257628,-0.5351149439811707,0.0690136700868606,2.79106330871582,XArbitraryZVertical,0.8142559265184293,0.5729914886981985,0.0327189329439518,0.0871632651793122,0.0466044470667839,-0.1794417500495911,0.9826639294624328,0,0,0,-1,-1,4800.387874625,unknown,2,2022-06-30T09:48:20.672+02:00,2022-06-30T08:20:05.567+02:00,1383,1.400134,0,0,1092.013,0,0,2022-06-30T09:48:20.672+02:00
173,2022-06-30T09:48:22.896+02:00,4802.613473750001,-4.336482238769531,-0.7511380004882813,31.91528182983399,4802.60352175,-1.919294895589407,3.083842868110673,0.1984348722275725,-1.978584170341492,-1.309821248054504,0.8499677777290344,-0.517278790473938,0.0844029933214187,2.705019474029541,XArbitraryZVertical,0.8162627712421663,0.5684065546180027,0.0332861240510246,0.0975758432848875,0.0565850511193275,-0.1971351653337479,0.9787418246269226,0,0,0,-1,-1,4800.387874625,unknown,2,2022-06-30T09:48:20.672+02:00,2022-06-30T08:20:05.567+02:00,1383,1.400134,0,0,1092.013,0,0,2022-06-30T09:48:20.672+02:00
174,2022-06-30T09:48:22.906+02:00,4802.62342575,-4.028273162841797,-0.8509803771972657,29.368927001953125,4802.613473750001,-1.92592621317461,3.071563391070499,0.2208194389329424,-2.384239673614502,-1.40954852104187,0.7355167269706726,-0.5195520520210266,0.1192364692687988,2.521988868713379,XArbitraryZVertical,0.8175918200349269,0.564098551971582,0.034325079871565,0.1102651579709217,0.0682730227708816,-0.2190292328596115,0.973327100276947,0,0,0,-1,-1,4800.387874625,unknown,2,2022-06-30T09:48:20.672+02:00,2022-06-30T08:20:05.567+02:00,1383,1.400134,0,0,1092.013,0,0,2022-06-30T09:48:20.672+02:00
175,2022-06-30T09:48:22.916+02:00,4802.63337675,-3.6027081298828127,-0.8601113891601563,27.25487319946289,4802.62342575,-1.930963797373381,3.058931813887217,0.2468183422455258,-2.718945741653442,-1.327865123748779,0.6468300223350525,-0.5221120119094849,0.1677510440349579,2.286957979202271,XArbitraryZVertical,0.8182664934205451,0.56002849704377,0.0362655557829771,0.1244707419569003,0.0800645500421524,-0.244319960474968,0.966383934020996,0,0,0,-1,-1,4800.387874625,unknown,2,2022-06-30T09:48:20.672+02:00,2022-06-30T08:20:05.567+02:00,1383,1.400134,0,0,1092.013,0,0,2022-06-30T09:48:20.672+02:00
176,2022-06-30T09:48:22.926+02:00,4802.64332875,-3.5410363769531252,-1.0916798400878907,25.549469604492188,4802.63337675,-1.934576966330238,3.047938637873746,0.2759613730653915,-3.032742738723755,-1.049768209457397,0.5628893971443176,-0.5006084442138672,0.1857256293296814,2.035827159881592,XArbitraryZVertical,0.8182845884806065,0.5562229141756528,0.0398003160233348,0.1394358201744471,0.0899788290262222,-0.2724720537662506,0.9579471945762634,0,0,0,-1,-1,4800.387874625,unknown,2,2022-06-30T09:48:20.672+02:00,2022-06-30T08:20:05.567+02:00,1383,1.400134,0,0,1092.013,0,0,2022-06-30T09:48:20.672+02:00
177,2022-06-30T09:48:22.936+02:00,4802.65327975,-3.574267272949219,-2.0046313476562503,24.280408630371095,4802.64332875,-1.936806492304955,3.040329573416304,0.307360178934691,-3.173667907714844,-0.5746996402740479,0.4814973175525665,-0.4636014699935913,0.2148663699626923,1.830021619796753,XArbitraryZVertical,0.817617093197468,0.552836957281696,0.0454139055910797,0.1543085495334984,0.096352569758892,-0.302543580532074,0.94825279712677,0,0,0,-1,-1,4800.387874625,unknown,2,2022-06-30T09:48:20.672+02:00,2022-06-30T08:20:05.567+02:00,1383,1.400134,0,0,1092.013,0,0,2022-06-30T09:48:20.672+02:00
178,2022-06-30T09:48:22.946+02:00,4802.663231750001,-4.629273376464844,-3.1124775695800784,24.35360641479493,4802.65327975,-1.938019240495164,3.03807918897197,0.339094922573637,-3.110293626785278,0.0616971440613269,0.4025067389011383,-0.458407074213028,0.2213511168956757,1.666422843933105,XArbitraryZVertical,0.8163594530667537,0.5500558085855028,0.0533625818954314,0.167774680874949,0.0974447801709175,-0.3326337039470673,0.9380083084106444,0,0,0,-1,-1,4800.387874625,unknown,2,2022-06-30T09:48:20.672+02:00,2022-06-30T08:20:05.567+02:00,1383,1.400134,0,0,1092.013,0,0,2022-06-30T09:48:20.672+02:00
179,2022-06-30T09:48:22.956+02:00,4802.673182750001,-6.804400177001954,-3.244802398681641,25.80064727783203,4802.663231750001,-1.938549578890818,3.042569459446768,0.3700063987647801,-3.077363967895508,0.8086642622947693,0.3196361064910889,-0.4565207362174988,0.1572754085063934,1.547309279441833,XArbitraryZVertical,0.8145652104562798,0.5480534487779177,0.0638609866274096,0.1790052693329266,0.0921710357069969,-0.3616214096546173,0.9277581572532654,0,0,0,-1,-1,4800.387874625,unknown,2,2022-06-30T09:48:20.672+02:00,2022-06-30T08:20:05.567+02:00,1383,1.400134,0,0,1092.013,0,0,2022-06-30T09:48:20.672+02:00
180,2022-06-30T09:48:22.966+02:00,4802.68313475,-8.427624664306641,-2.904110870361328,27.227031097412116,4802.673182750001,-1.937700153961401,3.053983221237062,0.401143951837471,-3.156844854354858,1.548838496208191,0.1014546379446983,-0.552445113658905,0.0731953978538513,1.565444469451904,XArbitraryZVertical,0.8118768912356348,0.5471728789127331,0.0773349779405549,0.1883540072114217,0.0805514454841613,-0.3904717266559601,0.9170845150947572,0,0,0,-1,-1,4800.387874625,unknown,2,2022-06-30T09:48:20.672+02:00,2022-06-30T08:20:05.567+02:00,1383,1.400134,0,0,1092.013,0,0,2022-06-30T09:48:20.672+02:00
181,2022-06-30T09:48:22.976+02:00,4802.69308675,-9.574988708496095,-3.0831385803222657,29.098289794921875,4802.68313475,-1.93465429228251,3.071727874938344,0.4323843201513326,-3.117698192596436,2.254709482192993,-0.1624491810798645,-0.7570026516914368,0.0882719457149505,1.724281072616577,XArbitraryZVertical,0.8079658728010564,0.5477848730346949,0.0935746973919323,0.1958741600192727,0.0633834823966026,-0.4190368950366974,0.9057542085647584,0,0,0,-1,-1,4800.387874625,unknown,2,2022-06-30T09:48:20.672+02:00,2022-06-30T08:20:05.567+02:00,1383,1.400134,0,0,1092.013,0,0,2022-06-30T09:48:20.672+02:00
182,2022-06-30T09:48:22.986+02:00,4802.70303775,-10.604398040771489,-3.0195208740234376,30.821955413818365,4802.69308675,-1.929043254419599,3.09494661524486,0.4630173369701468,-3.074255228042603,2.897366046905518,-0.5201520919799805,-0.9008049368858336,0.1506138145923615,1.88170063495636,XArbitraryZVertical,0.8026839952952506,0.5500602134807504,0.1120519118530955,0.2014361685637631,0.0417194925248622,-0.4466497600078583,0.8937356472015381,0,0,0,-1,-1,4800.387874625,unknown,2,2022-06-30T09:48:20.672+02:00,2022-06-30T08:20:05.567+02:00,1383,1.400134,0,0,1092.013,0,0,2022-06-30T09:48:20.672+02:00
183,2022-06-30T09:48:22.996+02:00,4802.71298975,-11.972552947998052,-3.320694580078125,32.89170135498047,4802.70303775,-1.919303682169452,3.122143144820361,0.4929989855074351,-2.993113279342651,3.447201013565063,-1.037079930305481,-0.9931764006614684,0.1589842736721039,2.085435390472412,XArbitraryZVertical,0.7955598356650496,0.5544908649432995,0.1322843916248191,0.2052447114449266,0.0171323381364345,-0.4732698798179626,0.8807511329650879,0,0,0,-1,-1,4800.387874625,unknown,2,2022-06-30T09:48:20.672+02:00,2022-06-30T08:20:05.567+02:00,1383,1.400134,0,0,1092.013,0,0,2022-06-30T09:48:20.672+02:00
184,2022-06-30T09:48:23.006+02:00,4802.72294075,-13.381123809814449,-3.409010925292969,35.0057551574707,4802.71298975,-1.903592494251883,-3.132358335203533,0.5224362113595156,-2.90485143661499,3.848797798156738,-1.712295174598694,-1.072976350784302,0.1911923587322235,2.275322198867798,XArbitraryZVertical,0.7861291764677563,0.5615029282479925,0.1534777625341112,0.2077498430178807,-0.0080024041235446,-0.4989928603172302,0.8665692210197449,0,0,0,-1,-1,4800.387874625,unknown,2,2022-06-30T09:48:20.672+02:00,2022-06-30T08:20:05.567+02:00,1383,1.400134,0,0,1092.013,0,0,2022-06-30T09:48:20.672+02:00
185,2022-06-30T09:48:23.016+02:00,4802.73289275,-14.917528839111325,-2.178419952392578,37.45840484619141,4802.72294075,-1.879700888857061,-3.104626574297254,0.5509441108009006,-2.712160587310791,4.161119937896729,-2.564725160598755,-1.188955068588257,0.1849906444549561,2.501425981521606,XArbitraryZVertical,0.7739275130177298,0.5716297330691814,0.1747894900995288,0.2091036491733037,-0.0314890630543232,-0.5234918594360352,0.8514487147331238,0,0,0,-1,-1,4800.387874625,unknown,2,2022-06-30T09:48:20.672+02:00,2022-06-30T08:20:05.567+02:00,1383,1.400134,0,0,1092.013,0,0,2022-06-30T09:48:20.672+02:00
186,2022-06-30T09:48:23.026+02:00,4802.742844750001,-16.0707307434082,-2.098935241699219,40.824455108642574,4802.73289275,-1.845236716444338,-3.081376243507458,0.5786732923814701,-2.614782571792603,4.187983512878418,-3.558443546295166,-1.313647150993347,0.1994098424911499,2.732702732086182,XArbitraryZVertical,0.7585170254488548,0.5852244810881846,0.195178129030909,0.209927835629012,-0.0503820516169071,-0.546913743019104,0.8356715440750122,0,0,0,-1,-1,4800.387874625,unknown,2,2022-06-30T09:48:20.672+02:00,2022-06-30T08:20:05.567+02:00,1383,1.400134,0,0,1092.013,0,0,2022-06-30T09:48:20.672+02:00
187,2022-06-30T09:48:23.036+02:00,4802.752795750001,-15.780484313964845,-2.884351959228516,42.42313064575195,4802.742844750001,-1.797750861233314,-3.067207553934578,0.6082179385332314,-2.759265899658203,3.964626550674438,-4.763724327087402,-1.459656238555908,0.3493444323539734,2.999991416931152,XArbitraryZVertical,0.7392683429268156,0.6022304918550907,0.21403747402244,0.2121057289775784,-0.0609891824424266,-0.5714058876037598,0.8183984756469727,0,0,0,-1,-1,4800.387874625,unknown,2,2022-06-30T09:48:20.672+02:00,2022-06-30T08:20:05.567+02:00,1383,1.400134,0,0,1092.013,0,0,2022-06-30T09:48:20.672+02:00
188,2022-06-30T09:48:23.046+02:00,4802.76274775,-16.494948577880866,-4.063899078369141,42.45157150268556,4802.752795750001,-1.733827678894639,-3.067286368630544,0.6399164214179646,-2.72162127494812,3.49695873260498,-6.129522323608398,-1.578649520874023,0.3831693530082703,3.361581802368164,XArbitraryZVertical,0.7155852578054629,0.6228193675651998,0.2302953000018939,0.2167901390263573,-0.0595496483147144,-0.5971283912658691,0.7999324798583984,0,0,0,-1,-1,4800.387874625,unknown,2,2022-06-30T09:48:20.672+02:00,2022-06-30T08:20:05.567+02:00,1383,1.400134,0,0,1092.013,0,0,2022-06-30T09:48:20.672+02:00
189,2022-06-30T09:48:23.055+02:00,4802.7726985,-19.94482452392578,-3.849844207763672,43.73724792480469,4802.76274775,-1.648773457326726,-3.088889264153792,0.668867102576698,-2.222290515899658,2.446282625198364,-7.82820987701416,-1.567284345626831,0.3260757327079773,3.541042566299438,XArbitraryZVertical,0.6873447993648348,0.6475143901670574,0.241067695520251,0.2239836511119753,-0.0413279794156551,-0.6200975775718689,0.7834355235099792,0,0,0,-1,-1,4800.387874625,unknown,2,2022-06-30T09:48:20.672+02:00,2022-06-30T08:20:05.567+02:00,1383,1.400134,0,0,1092.013,0,0,2022-06-30T09:48:20.672+02:00
190,2022-06-30T09:48:23.065+02:00,4802.7826505,-26.55522811889649,0.85981201171875,43.97719894409181,4802.7726985,-1.536230764624119,3.137554390697909,0.6902021428882164,-1.453842639923096,0.3208796977996826,-9.914043426513672,-1.684556484222412,0.2224317193031311,3.556265830993652,XArbitraryZVertical,0.6543075394509746,0.6763411542387409,0.2419860364537663,0.2364047653821017,0.0031139675993472,-0.6366930603981018,0.7711114287376404,0,0,0,-1,-1,4800.387874625,unknown,2,2022-06-30T09:48:20.672+02:00,2022-06-30T08:20:05.567+02:00,1383,1.400134,0,0,1092.013,0,0,2022-06-30T09:48:20.672+02:00
191,2022-06-30T09:48:23.075+02:00,4802.792602500001,-31.826217041015628,14.092893676757813,42.563538665771496,4802.7826505,-1.392422765651731,3.03570683873377,0.6906360183878835,0.2275334447622299,-2.455569505691528,-12.32785606384277,-2.114580392837524,0.2445864677429199,3.691910982131958,XArbitraryZVertical,0.6163555402087743,0.7094842081867718,0.2274225072167298,0.2549845054290519,0.081468716263771,-0.6370275616645813,0.7665240168571472,0,0,0,-1,-1,4800.387874625,unknown,2,2022-06-30T09:48:20.672+02:00,2022-06-30T08:20:05.567+02:00,1383,1.400134,0,0,1092.013,0,0,2022-06-30T09:48:20.672+02:00
192,2022-06-30T09:48:23.085+02:00,4802.802553500001,-36.68256820678712,24.38788513183594,41.35585006713868,4802.792602500001,-1.227751517631724,2.890715732115932,0.6600097252263664,1.059984922409058,-5.882388591766357,-14.09654808044434,-2.903072118759155,0.7007704973220825,3.717638731002808,XArbitraryZVertical,0.5738149487431099,0.7438847874142251,0.194622805900243,0.2819468596281313,0.1961170136928558,-0.6131245493888855,0.7652563452720642,0,0,0,-1,-1,4800.387874625,unknown,2,2022-06-30T09:48:20.672+02:00,2022-06-30T08:20:05.567+02:00,1383,1.400134,0,0,1092.013,0,0,2022-06-30T09:48:20.672+02:00
193,2022-06-30T09:48:23.095+02:00,4802.8125055,-41.674088287353506,28.424840240478513,36.373760375976566,4802.802553500001,-1.057509584531618,2.718009901526929,0.6050758079447403,0.025365762412548,-8.398709297180176,-15.48446750640869,-3.582317590713501,2.005408525466919,3.589018821716309,XArbitraryZVertical,0.5248660928557456,0.7742103058357541,0.1502802995128555,0.3202029223257721,0.338054746389389,-0.5688244104385376,0.7497720122337341,0,0,0,-1,-1,4800.387874625,unknown,2,2022-06-30T09:48:20.672+02:00,2022-06-30T08:20:05.567+02:00,1383,1.400134,0,0,1092.013,0,0,2022-06-30T09:48:20.672+02:00
194,2022-06-30T09:48:23.105+02:00,4802.8224565,-47.94859039306641,27.898684387207034,30.90772705078125,4802.8125055,-0.8882365960097948,2.52913305953286,0.5350929618840286,-1.95984148979187,-11.33282089233398,-16.34799957275391,-4.233829021453857,2.995943546295166,3.511818408966064,XArbitraryZVertical,0.4670634303445843,0.7961055183742528,0.1026936995667366,0.3708393175931843,0.4945255219936371,-0.5099210143089294,0.7038645148277283,0,0,0,-1,-1,4800.387874625,unknown,2,2022-06-30T09:48:20.672+02:00,2022-06-30T08:20:05.567+02:00,1383,1.400134,0,0,1092.013,0,0,2022-06-30T09:48:20.672+02:00
195,2022-06-30T09:48:23.115+02:00,4802.8324085,-60.97510162353516,27.034082336425783,33.89536422729493,4802.8224565,-0.721483209486591,2.317093410509482,0.4466401036112718,-4.276064872741699,-15.5508861541748,-17.63848114013672,-4.910307884216309,3.329474449157715,3.095499992370605,XArbitraryZVertical,0.3983910229854548,0.8046408464912413,0.0519413130778413,0.4371954328190435,0.6621847152709961,-0.4319376647472382,0.612324595451355,0,0,0,-1,-1,4800.387874625,unknown,2,2022-06-30T09:48:20.672+02:00,2022-06-30T08:20:05.567+02:00,1383,1.400134,0,0,1092.013,0,0,2022-06-30T09:48:20.672+02:00
196,2022-06-30T09:48:23.125+02:00,4802.842360500001,-76.10653564453125,14.488221588134762,44.294838409423825,4802.8324085,-0.552385958783332,2.074104166022445,0.3306633759327378,-7.434332370758057,-20.02744674682617,-19.69658660888672,-5.716262817382812,3.168572664260864,2.694437742233276,XArbitraryZVertical,0.3121220943031552,0.7941525592698031,-0.0005265866743863,0.521441648992321,0.8285371661186218,-0.3246705532073975,0.4561969637870789,0,0,0,-1,-1,4800.387874625,unknown,2,2022-06-30T09:48:20.672+02:00,2022-06-30T08:20:05.567+02:00,1383,1.400134,0,0,1092.013,0,0,2022-06-30T09:48:20.672+02:00
197,2022-06-30T09:48:23.135+02:00,4802.852311500001,-108.32942779541011,11.26856689453125,65.17237335205078,4802.842360500001,-0.399769960407272,1.825821061581522,0.1718826941048283,-7.969582557678223,-21.9904956817627,-20.58975982666016,-7.169004917144775,2.926805019378662,3.206632614135742,XArbitraryZVertical,0.2079741138812269,0.7622485146218878,-0.0543902038361147,0.6105454717262814,0.9533982872962952,-0.1710375994443893,0.2485520541667938,0,0,0,-1,-1,4800.387874625,unknown,2,2022-06-30T09:48:20.672+02:00,2022-06-30T08:20:05.567+02:00,1383,1.400134,0,0,1092.013,0,0,2022-06-30T09:48:20.672+02:00
198,2022-06-30T09:48:23.145+02:00,4802.8622635,-150.20709274291994,29.17163726806641,82.74717636108399,4802.852311500001,-0.2990803946161572,1.591355025747512,-0.0105079274753566,-7.388607501983643,-23.0472469329834,-18.28050994873047,-8.757790565490723,1.46637487411499,4.494717597961426,XArbitraryZVertical,0.1027873937568643,0.7069036778730907,-0.1079685428220796,0.6914222685015216,0.9997335076332092,0.0105077344924211,0.020556116476655,0,0,0,-1,-1,4800.387874625,unknown,2,2022-06-30T09:48:20.672+02:00,2022-06-30T08:20:05.567+02:00,1383,1.400134,0,0,1092.013,0,0,2022-06-30T09:48:20.672+02:00
199,2022-06-30T09:48:23.155+02:00,4802.8722145,-165.86857452392576,57.72027008056641,107.27082916259761,4802.8622635,-0.2536472498293555,1.350441208118358,-0.1949961626805844,-4.256481647491455,-26.68783378601074,-17.89548873901367,-12.00008201599121,0.9549185633659364,6.85789680480957,XArbitraryZVertical,0.0033125485545086,0.6267153479387545,-0.1586184494471323,0.76292664373563,0.9573265314102172,0.1937627643346786,-0.2144338041543961,0,0,0,-1,-1,4800.387874625,unknown,2,2022-06-30T09:48:20.672+02:00,2022-06-30T08:20:05.567+02:00,1383,1.400134,0,0,1092.013,0,0,2022-06-30T09:48:20.672+02:00
200,2022-06-30T09:48:23.165+02:00,4802.8821665,-212.00323699951176,78.94613067626953,111.3615225219726,4802.8722145,-0.3078523842539341,1.050430565988469,-0.3488287962019123,3.668812990188599,-29.78471946716309,-15.40765953063965,-16.12701225280762,2.631865739822388,8.90223503112793,XArbitraryZVertical,-0.0726592553106846,0.5109736380861447,-0.216621350285403,0.8286747244962057,0.8153827786445618,0.3417973816394806,-0.4672531485557556,0,0,0,-1,-1,4800.387874625,unknown,2,2022-06-30T09:48:20.672+02:00,2022-06-30T08:20:05.567+02:00,1383,1.400134,0,0,1092.013,0,0,2022-06-30T09:48:20.672+02:00
201,2022-06-30T09:48:23.175+02:00,4802.8921185,-240.35353225708005,31.45858154296875,73.09255325317382,4802.8821665,-0.4846663222399301,0.6889542296871641,-0.3864422092696789,17.02957344055176,-29.93268203735352,-11.47720146179199,-17.4969596862793,5.506923675537109,11.64983177185059,XArbitraryZVertical,-0.0959288117974989,0.3651082126556928,-0.2846189975559608,0.8811842493440734,0.588848888874054,0.3768953680992126,-0.7149873375892639,0,0,0,-1,-1,4800.387874625,unknown,2,2022-06-30T09:48:20.672+02:00,2022-06-30T08:20:05.567+02:00,1383,1.400134,0,0,1092.013,0,0,2022-06-30T09:48:20.672+02:00
202,2022-06-30T09:48:23.185+02:00,4802.9020695,-264.04820892333987,-45.85878616333007,-17.49262390136719,4802.8921185,-0.6539319542068445,0.3431035138369428,-0.2475180245995324,21.10989570617676,-26.77193069458008,-2.581769704818726,-21.93708992004395,7.802516937255859,12.26485157012939,XArbitraryZVertical,-0.060779133928523,0.1994954226272835,-0.3339931656184348,0.9192148704433272,0.3261586725711823,0.2449983805418015,-0.9130149483680724,0,0,0,-1,-1,4800.387874625,unknown,2,2022-06-30T09:48:20.672+02:00,2022-06-30T08:20:05.567+02:00,1383,1.400134,0,0,1092.013,0,0,2022-06-30T09:48:20.672+02:00
203,2022-06-30T09:48:23.195+02:00,4802.9120215,-188.18836029052738,-70.69079772949219,-21.177960205078126,4802.9020695,-0.6896125005786302,0.1372226059604427,-0.0953542431696999,8.412524223327637,-12.78343868255615,2.989343404769897,-24.63704109191895,3.111576795578003,8.436920166015625,XArbitraryZVertical,-0.021601282257117,0.0805204768120245,-0.3399109112059823,0.9367552989486406,0.1361709386110306,0.0952098071575164,-0.986099660396576,0,0,0,-1,-1,4800.387874625,unknown,2,2022-06-30T09:48:20.672+02:00,2022-06-30T08:20:05.567+02:00,1383,1.400134,0,0,1092.013,0,0,2022-06-30T09:48:20.672+02:00
204,2022-06-30T09:48:23.205+02:00,4802.9219725,-63.442271118164065,-26.453290100097657,-23.335274047851563,4802.9120215,-0.6553959920284761,0.0915413753930667,-0.0773816968633581,-3.529697179794312,2.149985790252686,2.943773031234741,-27.00736999511719,-4.752002716064453,-0.7903090715408325,XArbitraryZVertical,-0.0218686631223545,0.0557245424865305,-0.3229623107198589,0.9445168126529364,0.0911400243639946,0.0773044973611831,-0.9928330779075624,0,0,0,-1,-1,4800.387874625,unknown,2,2022-06-30T09:48:20.672+02:00,2022-06-30T08:20:05.567+02:00,1383,1.400134,0,0,1092.013,0,0,2022-06-30T09:48:20.672+02:00
205,2022-06-30T09:48:23.214+02:00,4802.931924500001,3.9639070129394534,8.331674194335937,-23.008054504394533,4802.9219725,-0.6275206399996949,0.130035719023016,-0.1030611447705016,-1.391272306442261,2.850167274475098,2.955775499343872,-19.31230163574219,-7.308872699737549,-1.172517538070679,XArbitraryZVertical,-0.0288634289823736,0.0775817108010308,-0.3107597772603612,0.946877199430224,0.1289815157651901,0.1028787940740585,-0.9862959384918212,0,0,0,-1,-1,4800.387874625,unknown,2,2022-06-30T09:48:20.672+02:00,2022-06-30T08:20:05.567+02:00,1383,1.400134,0,0,1092.013,0,0,2022-06-30T09:48:20.672+02:00
206,2022-06-30T09:48:23.225+02:00,4802.9418765,-41.09179916381837,-5.38684799194336,-22.15108657836914,4802.931924500001,-0.585874631770542,0.1222116900993132,-0.0962090354090879,1.399815320968628,-5.652584075927734,5.073019027709961,-6.588446140289307,-2.792624711990356,-1.390771865844727,XArbitraryZVertical,-0.0283376816960704,0.0722583481675725,-0.2907046899291725,0.9536595465461406,0.1213439330458641,0.0960606858134269,-0.987951397895813,0,0,0,-1,-1,4802.9347355,running,2,2022-06-30T09:48:23.219+02:00,2022-06-30T08:20:05.567+02:00,1383,1.400134,0,0,1092.013,0,0,2022-06-30T09:48:23.219+02:00
207,2022-06-30T09:48:23.235+02:00,4802.9518275,-65.63206741333008,-7.6438545227050785,-35.336118164062505,4802.9418765,-0.5319560709204788,0.0526001796588596,-0.0795916518545151,0.3581409156322479,-8.188958168029785,5.723990440368652,0.3516583144664764,0.7697961330413818,-1.34991192817688,XArbitraryZVertical,-0.0314662432703206,0.0358063339215044,-0.2635635450646756,0.963463545049744,0.0524094849824905,0.0795076414942741,-0.99545556306839,0,0,0,-1,-1,4802.9347355,running,2,2022-06-30T09:48:23.219+02:00,2022-06-30T08:20:05.567+02:00,1383,1.400134,0,0,1092.013,0,0,2022-06-30T09:48:23.219+02:00
208,2022-06-30T09:48:23.245+02:00,4802.9617795,-44.06177307128907,-25.045317993164065,-29.74554382324219,4802.9518275,-0.480518665944462,-0.0225231597162193,-0.089166849000608,-2.447454214096069,-8.03721809387207,4.588060855865479,-4.166335105895996,-0.638167142868042,-1.26223623752594,XArbitraryZVertical,-0.0459627588381651,-0.0003223651066387,-0.2372155075131545,0.9703690699225692,-0.0224317852407693,0.0890487357974052,-0.9957746267318726,0,0,0,-1,-1,4802.9347355,running,2,2022-06-30T09:48:23.219+02:00,2022-06-30T08:20:05.567+02:00,1383,1.400134,0,0,1092.013,0,0,2022-06-30T09:48:23.219+02:00
209,2022-06-30T09:48:23.254+02:00,4802.9717305,-43.079964752197256,-18.395695953369138,-30.870454559326177,4802.9617795,-0.4439683667057019,-0.1093705083539233,-0.1305576715312542,-5.261391639709473,-10.27321243286133,3.211893558502197,-6.582099437713623,-0.9093775153160096,-2.616485595703125,XArbitraryZVertical,-0.075544898203148,-0.0388627963649667,-0.2158902098882801,0.9727148113008988,-0.1082236394286156,0.1301870942115784,-0.9855653047561646,0,0,0,-1,-1,4802.9347355,running,2,2022-06-30T09:48:23.219+02:00,2022-06-30T08:20:05.567+02:00,1383,1.400134,0,0,1092.013,0,0,2022-06-30T09:48:23.219+02:00
210,2022-06-30T09:48:23.264+02:00,4802.981682500001,-52.9631625366211,-3.7952078247070316,-34.90366744995118,4802.9717305,-0.4282164535891938,-0.2141269671734554,-0.1893351972853012,-5.631462097167969,-10.8555850982666,1.85261058807373,-4.282819271087646,-2.741245985031128,-2.072465419769287,XArbitraryZVertical,-0.1144423159411418,-0.0839819488440188,-0.2004432067974749,0.9693671202960176,-0.2086970508098602,0.1882060170173645,-0.9596999883651732,0,0,0,-1,-1,4802.9347355,running,2,2022-06-30T09:48:23.219+02:00,2022-06-30T08:20:05.567+02:00,1383,1.400134,0,0,1092.013,0,0,2022-06-30T09:48:23.219+02:00
211,2022-06-30T09:48:23.274+02:00,4802.9916345,-54.469480133056635,2.915636901855469,-37.56633041381836,4802.981682500001,-0.4312939249667852,-0.3136771587451163,-0.2416232468344654,-4.601706027984619,-8.953186988830566,0.2441324591636658,-4.091838836669922,-2.114477634429932,-2.223261594772339,XArbitraryZVertical,-0.14946075181471,-0.1259946134509102,-0.1914240832811754,0.9618439527708968,-0.2995950877666473,0.23927903175354,-0.923573672771454,0,0,0,-1,-1,4802.9347355,running,2,2022-06-30T09:48:23.219+02:00,2022-06-30T08:20:05.567+02:00,1383,1.400134,0,0,1092.013,0,0,2022-06-30T09:48:23.219+02:00
212,2022-06-30T09:48:23.285+02:00,4803.0015855,-43.77796325683594,9.282047882080077,-39.1777294921875,4802.9916345,-0.4470528364752165,-0.396063119038454,-0.2766921114565537,-3.007423162460327,-6.78045654296875,-0.4336301684379578,-5.027780055999756,-0.6600468158721924,-2.670472383499146,XArbitraryZVertical,-0.1750406732556099,-0.1600402792260924,-0.1888043009116288,0.9529432731233304,-0.3711154758930206,0.2731750905513763,-0.887495756149292,0,0,0,-1,-1,4802.9347355,running,2,2022-06-30T09:48:23.219+02:00,2022-06-30T08:20:05.567+02:00,1383,1.400134,0,0,1092.013,0,0,2022-06-30T09:48:23.219+02:00
