,loggingTime(txt),accelerometerTimestamp_sinceReboot(s),accelerometerAccelerationX(G),accelerometerAccelerationY(G),accelerometerAccelerationZ(G),motionTimestamp_sinceReboot(s),motionYaw(rad),motionRoll(rad),motionPitch(rad),motionRotationRateX(rad/s),motionRotationRateY(rad/s),motionRotationRateZ(rad/s),motionUserAccelerationX(G),motionUserAccelerationY(G),motionUserAccelerationZ(G),motionAttitudeReferenceFrame(txt),motionQuaternionX(R),motionQuaternionY(R),motionQuaternionZ(R),motionQuaternionW(R),motionGravityX(G),motionGravityY(G),motionGravityZ(G),motionMagneticFieldX(µT),motionMagneticFieldY(µT),motionMagneticFieldZ(µT),motionHeading(°),motionMagneticFieldCalibrationAccuracy(Z),activityTimestamp_sinceReboot(s),activity(txt),activityActivityConfidence(Z),activityActivityStartDate(txt),pedometerStartDate(txt),pedometerNumberofSteps(N),pedometerAverageActivePace(s/m),pedometerCurrentPace(s/m),pedometerCurrentCadence(steps/s),pedometerDistance(m),pedometerFloorAscended(N),pedometerFloorDescended(N),pedometerEndDate(txt)
251,2022-06-30T09:23:47.781+02:00,3422.199767541667,2.1885987854003908,-7.30720458984375,-1.4317726135253908,3422.189816541667,0.8393916939564331,1.198653441370109,0.8993928901470748,-1.864496946334839,6.204002857208252,-1.782946705818176,-0.1331691741943359,0.0719051361083984,-0.0512834191322326,XArbitraryZVertical,-0.120778348487337,-0.6101750272234416,-0.5269366793739173,-0.5791690983614483,0.5795039534568787,-0.7829493880271912,-0.2261980473995209,0,0,0,-1,-1,3422.072564541667,unknown,2,2022-06-30T09:23:47.653+02:00,2022-06-30T08:20:05.567+02:00,1065,1.414741,0.5991362,0.7218989,836.4535,0,0,2022-06-30T09:23:47.653+02:00
252,2022-06-30T09:23:47.791+02:00,3422.209718541667,1.4352154541015625,-7.13476318359375,-0.5134323120117188,3422.199767541667,0.8581120902870517,1.248618533696494,0.8734423525028479,-2.173088073730469,6.746001720428467,-2.314295291900635,-0.2641332745552063,0.0368536114692688,-0.0053862333297729,XArbitraryZVertical,-0.0917266754427583,-0.6244330645410079,-0.5306903230209935,-0.5657185022920128,0.6091497540473938,-0.7665441036224365,-0.2033391296863556,0,0,0,-1,-1,3422.072564541667,unknown,2,2022-06-30T09:23:47.653+02:00,2022-06-30T08:20:05.567+02:00,1065,1.414741,0.5991362,0.7218989,836.4535,0,0,2022-06-30T09:23:47.653+02:00
253,2022-06-30T09:23:47.801+02:00,3422.219670541667,1.0835966491699218,-7.150630187988281,0.28410919189453127,3422.209718541667,0.8805663896234786,1.301557989283092,0.8420262210575182,-2.50571608543396,7.291581630706787,-2.877449512481689,-0.4188622236251831,0.0011209845542907,0.0311909317970275,XArbitraryZVertical,-0.0584997815517824,-0.6387542270968323,-0.5334481228291166,-0.5513655708344132,0.6419609785079956,-0.7459940314292908,-0.1771416217088699,0,0,0,-1,-1,3422.072564541667,unknown,2,2022-06-30T09:23:47.653+02:00,2022-06-30T08:20:05.567+02:00,1065,1.414741,0.5991362,0.7218989,836.4535,0,0,2022-06-30T09:23:47.653+02:00
254,2022-06-30T09:23:47.811+02:00,3422.229621541667,1.542242889404297,-7.408693542480469,0.6001020812988281,3422.219670541667,0.9072313502453164,1.357426447395101,0.804859628521126,-2.824167490005493,7.853029251098633,-3.514647483825684,-0.5311911106109619,-0.0065615177154541,0.0944528579711914,XArbitraryZVertical,-0.0208944085295018,-0.6528154186486745,-0.5348630696092959,-0.5360196103089779,0.6774924397468567,-0.7207333445549011,-0.1467909067869186,0,0,0,-1,-1,3422.072564541667,unknown,2,2022-06-30T09:23:47.653+02:00,2022-06-30T08:20:05.567+02:00,1065,1.414741,0.5991362,0.7218989,836.4535,0,0,2022-06-30T09:23:47.653+02:00
255,2022-06-30T09:23:47.821+02:00,3422.239573541667,2.4233106994628906,-7.240293731689453,1.0484197998046876,3422.229621541667,0.9374313272039644,1.417314919787043,0.7616344772963922,-2.981183290481567,8.461230278015137,-4.263846874237061,-0.604743480682373,-0.0388070940971374,0.1396011561155319,XArbitraryZVertical,0.021180124430468,-0.6665067374813292,-0.5342134234197549,-0.5195540668951935,0.7152019739151001,-0.6901052594184875,-0.1106403395533562,0,0,0,-1,-1,3422.072564541667,unknown,2,2022-06-30T09:23:47.653+02:00,2022-06-30T08:20:05.567+02:00,1065,1.414741,0.5991362,0.7218989,836.4535,0,0,2022-06-30T09:23:47.653+02:00
256,2022-06-30T09:23:47.831+02:00,3422.249524541667,3.603157196044922,-7.358398132324219,2.798580322265625,3422.239573541667,0.9698557926581176,1.483340329160142,0.7117810242716356,-3.02457332611084,9.188501358032228,-5.115427494049072,-0.5970945358276367,-0.1020349860191345,0.1273093819618225,XArbitraryZVertical,0.0678690209320503,-0.6799449639127841,-0.530402124267971,-0.5017392925539661,0.7543059587478638,-0.6531834006309509,-0.066137284040451,0,0,0,-1,-1,3422.072564541667,unknown,2,2022-06-30T09:23:47.653+02:00,2022-06-30T08:20:05.567+02:00,1065,1.414741,0.5991362,0.7218989,836.4535,0,0,2022-06-30T09:23:47.653+02:00
257,2022-06-30T09:23:47.841+02:00,3422.259475541667,6.162684631347656,-7.590415649414063,6.029761047363282,3422.249524541667,1.005451627371598,1.556831678075473,0.6549555821907669,-3.123065233230591,10.11109161376953,-6.01695728302002,-0.5459730625152588,-0.1289282441139221,0.1179468631744385,XArbitraryZVertical,0.1196387225591271,-0.6929280258016925,-0.5227415163581176,-0.4819529752806783,0.7929977178573608,-0.6091240048408508,-0.0110746538266539,0,0,0,-1,-1,3422.072564541667,unknown,2,2022-06-30T09:23:47.653+02:00,2022-06-30T08:20:05.567+02:00,1065,1.414741,0.5991362,0.7218989,836.4535,0,0,2022-06-30T09:23:47.653+02:00
258,2022-06-30T09:23:47.851+02:00,3422.269427541667,8.300838317871094,-6.877298583984375,11.385623474121095,3422.259475541667,1.047705354967429,1.63846920766898,0.5915099133759194,-3.487330198287964,11.25798892974854,-6.928539276123047,-0.4609052538871765,-0.1924763321876526,0.2291456460952759,XArbitraryZVertical,0.1772865600843159,-0.7047238202654522,-0.5111038055198036,-0.4590280729777797,0.8281996846199036,-0.5576150417327881,0.0561323761940002,0,0,0,-1,-1,3422.072564541667,unknown,2,2022-06-30T09:23:47.653+02:00,2022-06-30T08:20:05.567+02:00,1065,1.414741,0.5991362,0.7218989,836.4535,0,0,2022-06-30T09:23:47.653+02:00
259,2022-06-30T09:23:47.861+02:00,3422.279378541667,8.962013397216799,-5.449417877197266,19.19054306030274,3422.269427541667,1.102194210639738,1.728270119251841,0.5226937503963519,-4.270782947540283,12.56991767883301,-7.87896728515625,-0.2275518178939819,-0.2745264768600464,0.4787698984146118,XArbitraryZVertical,0.2417804981630389,-0.7137817110008071,-0.4958572583354396,-0.4314898546316504,0.8557563424110413,-0.4992160201072693,0.1358842849731445,0,0,0,-1,-1,3422.072564541667,unknown,2,2022-06-30T09:23:47.653+02:00,2022-06-30T08:20:05.567+02:00,1065,1.414741,0.5991362,0.7218989,836.4535,0,0,2022-06-30T09:23:47.653+02:00
260,2022-06-30T09:23:47.871+02:00,3422.289330041667,7.2512210083007815,-4.949008483886719,26.41062881469726,3422.279378541667,1.17542835847118,1.826398650014869,0.4514247403048045,-5.608420848846436,14.01719188690186,-8.8289794921875,-0.0244312286376953,-0.2648016810417175,0.9331121444702148,XArbitraryZVertical,0.3138650596447011,-0.7178018683911324,-0.477708697811058,-0.3975472715282271,0.870592474937439,-0.4362480044364929,0.2275016009807587,0,0,0,-1,-1,3422.072564541667,unknown,2,2022-06-30T09:23:47.653+02:00,2022-06-30T08:20:05.567+02:00,1065,1.414741,0.5991362,0.7218989,836.4535,0,0,2022-06-30T09:23:47.653+02:00
261,2022-06-30T09:23:47.880+02:00,3422.299281041667,0.4517605590820313,-4.000730438232422,38.30294860839844,3422.289330041667,1.272516881990441,1.935184038253211,0.382950515472798,-7.265163898468018,15.77626991271973,-9.757219314575195,0.0468949079513549,-0.1818370819091797,1.625658750534058,XArbitraryZVertical,0.3935524337708817,-0.7144216254639671,-0.456970155585763,-0.3548190894478118,0.8666642904281616,-0.3736588954925537,0.3305635452270508,0,0,0,-1,-1,3422.072564541667,unknown,2,2022-06-30T09:23:47.653+02:00,2022-06-30T08:20:05.567+02:00,1065,1.414741,0.5991362,0.7218989,836.4535,0,0,2022-06-30T09:23:47.653+02:00
262,2022-06-30T09:23:47.891+02:00,3422.309232041667,-7.5682617187500005,-5.051245880126953,56.826778106689446,3422.299281041667,1.39894103192536,2.059340041605219,0.3254472930579175,-9.803223609924316,17.99107360839844,-10.66641330718994,-0.0974993705749511,-0.1847532093524933,2.24751091003418,XArbitraryZVertical,0.48068625397618,-0.7009226972412766,-0.433501761127199,-0.2995403066577119,0.8366658687591553,-0.3197326362133026,0.4447038173675537,0,0,0,-1,-1,3422.072564541667,unknown,2,2022-06-30T09:23:47.653+02:00,2022-06-30T08:20:05.567+02:00,1065,1.414741,0.5991362,0.7218989,836.4535,0,0,2022-06-30T09:23:47.653+02:00
263,2022-06-30T09:23:47.900+02:00,3422.319184041667,-14.960339813232427,-12.038565673828126,73.60718307495118,3422.309232041667,1.561145056317191,2.200939674271069,0.2936332917577743,-13.31262588500977,20.29966163635254,-11.24852180480957,-0.7273107767105103,-0.1183894574642181,3.340440273284912,XArbitraryZVertical,0.5734284293859017,-0.6732010000997317,-0.4081186301443585,-0.2267587522666745,0.7733621001243591,-0.2894318997859955,0.5640395283699036,0,0,0,-1,-1,3422.072564541667,unknown,2,2022-06-30T09:23:47.653+02:00,2022-06-30T08:20:05.567+02:00,1065,1.414741,0.5991362,0.7218989,836.4535,0,0,2022-06-30T09:23:47.653+02:00
264,2022-06-30T09:23:47.910+02:00,3422.329135041667,-25.079596710205074,-24.610322570800783,78.55229965209962,3422.319184041667,1.758953426308586,2.357387584115213,0.3078234540399787,-17.47461700439453,22.76918029785156,-11.371413230896,-1.444549083709717,-0.2119223177433014,5.118066787719727,XArbitraryZVertical,0.6661719890453538,-0.6273367257431901,-0.3812390526053383,-0.1316067045343167,0.6730650067329407,-0.3029851317405701,0.6746729612350464,0,0,0,-1,-1,3422.072564541667,unknown,2,2022-06-30T09:23:47.653+02:00,2022-06-30T08:20:05.567+02:00,1065,1.414741,0.5991362,0.7218989,836.4535,0,0,2022-06-30T09:23:47.653+02:00
265,2022-06-30T09:23:47.920+02:00,3422.339087041667,-46.903014678955074,-35.02641220092774,74.9401611328125,3422.329135041667,1.97655728865703,2.52261505551648,0.3744856034335647,-18.73916244506836,24.99985885620117,-11.6771936416626,-2.065001487731934,-0.8613786697387695,6.745254993438721,XArbitraryZVertical,0.7503121930839495,-0.5621784585434272,-0.3474375952363095,-0.0165597953533054,0.5399924516677856,-0.3657938241958618,0.7580260038375854,0,0,0,-1,-1,3422.072564541667,unknown,2,2022-06-30T09:23:47.653+02:00,2022-06-30T08:20:05.567+02:00,1065,1.414741,0.5991362,0.7218989,836.4535,0,0,2022-06-30T09:23:47.653+02:00
266,2022-06-30T09:23:47.930+02:00,3422.349038041667,-87.48168090820313,-53.42764663696288,81.33665954589844,3422.339087041667,2.187065458183469,2.703016515763245,0.465412571314417,-16.27703857421875,28.51867866516113,-12.45457935333252,-2.936017274856567,-2.059905529022217,7.198309898376465,XArbitraryZVertical,0.8205712097223065,-0.480825494617639,-0.2914129709974272,0.1027052585908786,0.3794835805892944,-0.4487915337085724,0.8090605139732361,0,0,0,-1,-1,3422.072564541667,unknown,2,2022-06-30T09:23:47.653+02:00,2022-06-30T08:20:05.567+02:00,1065,1.414741,0.5991362,0.7218989,836.4535,0,0,2022-06-30T09:23:47.653+02:00
267,2022-06-30T09:23:47.940+02:00,3422.358990041667,-140.10624755859376,-72.29710739135743,103.37173736572261,3422.349038041667,2.374587861467971,2.915892239116016,0.55350232506895,-10.71412563323975,32.34951019287109,-12.88368797302246,-4.971518039703369,-3.044810056686401,6.810047149658203,XArbitraryZVertical,0.8748849915293417,-0.3861772118330878,-0.2020420576947801,0.2112401982389799,0.1903748214244843,-0.5256698131561279,0.8291131854057312,0,0,0,-1,-1,3422.072564541667,unknown,2,2022-06-30T09:23:47.653+02:00,2022-06-30T08:20:05.567+02:00,1065,1.414741,0.5991362,0.7218989,836.4535,0,0,2022-06-30T09:23:47.653+02:00
268,2022-06-30T09:23:47.950+02:00,3422.368941041667,-182.49554855346685,-43.825564270019534,138.6334602355957,3422.358990041667,2.565590433887783,3.128153004467721,0.5953013042598826,-0.9784055352211,29.62730407714844,-18.92963981628418,-8.928730010986328,-4.88548469543457,7.46329402923584,XArbitraryZVertical,0.9160723073564692,-0.2734301107616035,-0.0894585416275808,0.2793649211535588,0.0111274225637316,-0.5607582330703735,0.827904999256134,0,0,0,-1,-1,3422.072564541667,unknown,2,2022-06-30T09:23:47.653+02:00,2022-06-30T08:20:05.567+02:00,1065,1.414741,0.5991362,0.7218989,836.4535,0,0,2022-06-30T09:23:47.653+02:00
269,2022-06-30T09:23:47.960+02:00,3422.378892041667,-170.7470796203613,-18.13448913574219,161.03677230834964,3422.368941041667,2.836529715237182,-3.075674599287795,0.5782045298996356,5.395196914672852,15.73433113098145,-25.07246589660645,-14.22681999206543,-6.823214530944824,9.701757431030272,XArbitraryZVertical,0.9482846096580988,-0.1362705444938972,-0.0120747318886064,0.2864279059652918,-0.0551628097891807,-0.5465211868286133,0.8356267213821411,0,0,0,-1,-1,3422.072564541667,unknown,2,2022-06-30T09:23:47.653+02:00,2022-06-30T08:20:05.567+02:00,1065,1.414741,0.5991362,0.7218989,836.4535,0,0,2022-06-30T09:23:47.653+02:00
270,2022-06-30T09:23:47.970+02:00,3422.388844041667,-181.5074533081055,16.776962127685554,154.0198141479493,3422.378892041667,-3.118148561385695,3.126417764671607,0.519498834653714,8.23612117767334,2.474350929260254,-31.34103775024414,-18.61618423461914,-3.97099232673645,13.26388359069824,XArbitraryZVertical,0.9663830379140156,0.0093796441439337,-0.0043218297642176,0.2568992881355969,0.0131723340600729,-0.4964451491832733,0.8679683208465576,0,0,0,-1,-1,3422.072564541667,unknown,2,2022-06-30T09:23:47.653+02:00,2022-06-30T08:20:05.567+02:00,1065,1.414741,0.5991362,0.7218989,836.4535,0,0,2022-06-30T09:23:47.653+02:00
271,2022-06-30T09:23:47.980+02:00,3422.398795041667,-184.7757568359375,31.033315887451177,112.49541458129882,3422.388844041667,-2.765224756959651,2.905386999523338,0.3926367475093827,10.08013248443604,-15.08702278137207,-34.07461547851562,-17.62161827087402,-1.465945959091187,15.51732349395752,XArbitraryZVertical,0.961064230128911,0.1596258468248787,-0.0772882929535679,0.2119006451369246,0.2162076681852341,-0.3826258480548859,0.8982497453689575,0,0,0,-1,-1,3422.072564541667,unknown,2,2022-06-30T09:23:47.653+02:00,2022-06-30T08:20:05.567+02:00,1065,1.414741,0.5991362,0.7218989,836.4535,0,0,2022-06-30T09:23:47.653+02:00
272,2022-06-30T09:23:47.990+02:00,3422.408747041667,-287.26403137207035,51.64560241699219,-40.618782806396496,3422.398795041667,-2.492254847050694,2.611089799317274,0.1282337852691289,21.72627067565918,-27.75629043579102,-34.83140563964844,-19.00410270690918,1.838072419166565,14.84481620788574,XArbitraryZVertical,0.9180889800580816,0.2912868614393178,-0.2282215332260799,0.1420551297464281,0.5018129348754883,-0.1278826296329498,0.8554708361625671,0,0,0,-1,-1,3422.072564541667,unknown,2,2022-06-30T09:23:47.653+02:00,2022-06-30T08:20:05.567+02:00,1065,1.414741,0.5991362,0.7218989,836.4535,0,0,2022-06-30T09:23:47.653+02:00
273,2022-06-30T09:23:48.000+02:00,3422.418698041667,-314.41038024902343,286.37083877563475,-67.35333801269532,3422.408747041667,-2.421932571114576,2.29307639467708,-0.3209406612356202,34.88875961303711,-34.64400863647461,-33.47482299804688,-19.54743957519531,2.84797739982605,10.8400821685791,XArbitraryZVertical,0.818860090945607,0.3783366256731294,-0.4316056041990124,0.0067930319702531,0.7119893431663513,0.3154593408107758,0.6273409128189087,0,0,0,-1,-1,3422.072564541667,unknown,2,2022-06-30T09:23:47.653+02:00,2022-06-30T08:20:05.567+02:00,1065,1.414741,0.5991362,0.7218989,836.4535,0,0,2022-06-30T09:23:47.653+02:00
274,2022-06-30T09:23:48.010+02:00,3422.428649041667,-210.499015045166,312.8025736999512,261.09021011352536,3422.418698041667,-2.665393637761701,1.823303313476936,-0.6423301092416877,34.9306640625,-34.82572937011719,-12.16701412200928,-30.05808639526367,4.665524482727051,-4.34058952331543,XArbitraryZVertical,0.6833359590329974,0.3647911379152797,-0.6235876199525701,-0.1054417760043301,0.7753112316131592,0.5990628004074097,0.2000412195920944,0,0,0,-1,-1,3422.072564541667,unknown,2,2022-06-30T09:23:47.653+02:00,2022-06-30T08:20:05.567+02:00,1065,1.414741,0.5991362,0.7218989,836.4535,0,0,2022-06-30T09:23:47.653+02:00
275,2022-06-30T09:23:48.020+02:00,3422.438601041667,-315.58423919677745,-37.939055328369136,313.97433700561527,3422.428649041667,-3.097212846144799,1.207455853541102,-0.6504513500675794,34.89863204956055,-34.86767578125,0.8334226608276367,-32.79384231567383,28.586181640625,-6.582953453063965,XArbitraryZVertical,0.5319861330855175,0.2749104280391519,-0.7839033502132937,-0.1640449201631629,0.7438561320304871,0.6055456399917603,-0.2828300297260284,0,0,0,-1,-1,3422.072564541667,unknown,2,2022-06-30T09:23:47.653+02:00,2022-06-30T08:20:05.567+02:00,1065,1.414741,0.5991362,0.7218989,836.4535,0,0,2022-06-30T09:23:47.653+02:00
276,2022-06-30T09:23:48.030+02:00,3422.448552041667,-107.20406799316407,-312.9286116027832,110.96559585571288,3422.438601041667,2.853420358137938,0.8778304530140404,-0.4512494255886223,34.61809158325195,7.908740997314453,10.96419048309326,-22.14994049072266,31.45000267028809,27.18957901000977,XArbitraryZVertical,0.4389730249626397,0.1409391721672565,-0.8594768947264431,-0.220767906982551,0.6923446655273438,0.4360902309417725,-0.5748776793479919,0,0,0,-1,-1,3422.072564541667,unknown,2,2022-06-30T09:23:47.653+02:00,2022-06-30T08:20:05.567+02:00,1065,1.414741,0.5991362,0.7218989,836.4535,0,0,2022-06-30T09:23:47.653+02:00
277,2022-06-30T09:23:48.040+02:00,3422.458504041667,-32.5004150390625,-176.23137496948246,9.746531982421876,3422.448552041667,2.744946078216389,0.8955808860737239,-0.1086084833336866,18.92950820922852,8.81787109375,20.67966461181641,-32.94562149047852,-3.975780487060547,32.62692260742188,XArbitraryZVertical,0.4335017842307302,-0.0372143872932313,-0.8778040045809797,-0.200378604232408,0.7759731411933899,0.108395092189312,-0.6213825941085815,0,0,0,-1,-1,3422.072564541667,unknown,2,2022-06-30T09:23:47.653+02:00,2022-06-30T08:20:05.567+02:00,1065,1.414741,0.5991362,0.7218989,836.4535,0,0,2022-06-30T09:23:47.653+02:00
278,2022-06-30T09:23:48.050+02:00,3422.468455041667,5.705684967041016,-110.70513748168945,12.312196655273437,3422.458504041667,2.786397343769305,1.007812226513105,0.0241702558683018,-7.188003540039062,13.08788776397705,5.121166706085205,-11.77345848083496,-31.8747730255127,11.84503364562988,XArbitraryZVertical,0.4733507171815208,-0.0957129627780315,-0.8628971786848362,-0.1489519117816173,0.8454192280769348,-0.0241679027676582,-0.5335562825202942,0,0,0,-1,-1,3422.072564541667,unknown,2,2022-06-30T09:23:47.653+02:00,2022-06-30T08:20:05.567+02:00,1065,1.414741,0.5991362,0.7218989,836.4535,0,0,2022-06-30T09:23:47.653+02:00
279,2022-06-30T09:23:48.060+02:00,3422.478406041667,-11.174861755371094,-56.36049774169922,16.82351531982422,3422.468455041667,2.888676414817374,1.105444575491422,0.0130556382090673,-13.31356906890869,8.499643325805664,3.69813084602356,-4.206575870513916,-17.95140647888184,1.442229509353638,XArbitraryZVertical,0.5201020454920711,-0.0717244759263822,-0.8447165055079724,-0.1039396315982323,0.893587589263916,-0.0130552677437663,-0.4486989378929138,0,0,0,-1,-1,3422.072564541667,unknown,2,2022-06-30T09:23:47.653+02:00,2022-06-30T08:20:05.567+02:00,1065,1.414741,0.5991362,0.7218989,836.4535,0,0,2022-06-30T09:23:47.653+02:00
280,2022-06-30T09:23:48.070+02:00,3422.488358041667,-67.97200149536133,-29.622200317382813,47.96011642456056,3422.478406041667,3.03754880192938,1.139483946699474,0.0059422035223473,-13.04031944274902,-0.2684685587882996,6.509874820709229,-0.3267824649810791,-11.27898502349854,1.67312228679657,XArbitraryZVertical,0.5385525896795957,-0.0305470168621994,-0.8409806826442814,-0.0421841195316813,0.9084018468856812,-0.0059421686455607,-0.4180559813976288,0,0,0,-1,-1,3422.072564541667,unknown,2,2022-06-30T09:23:47.653+02:00,2022-06-30T08:20:05.567+02:00,1065,1.414741,0.5991362,0.7218989,836.4535,0,0,2022-06-30T09:23:47.653+02:00
281,2022-06-30T09:23:48.079+02:00,3422.498309041667,-77.89366928100587,-17.45654891967774,72.03410430908204,3422.488358041667,-3.123301791161786,1.15307376804962,0.0150773950949157,-9.350190162658691,4.625694751739502,4.160961627960205,-2.053040742874146,-5.73013162612915,2.120569467544556,XArbitraryZVertical,0.5451434037082911,-0.0013346026115222,-0.8382590255880822,0.0117761110129516,0.9139113426208496,-0.0150768235325813,-0.4056337773799896,0,0,0,-1,-1,3422.072564541667,unknown,2,2022-06-30T09:23:47.653+02:00,2022-06-30T08:20:05.567+02:00,1065,1.414741,0.5991362,0.7218989,836.4535,0,0,2022-06-30T09:23:47.653+02:00
282,2022-06-30T09:23:48.089+02:00,3422.508261041667,-35.68713821411133,-8.440946960449219,50.66603942871094,3422.498309041667,-3.014437658058297,1.219740381144245,0.0203852184836971,-9.86194896697998,8.806498527526855,5.525213718414307,-7.867663383483887,-2.999208211898804,5.232719421386719,XArbitraryZVertical,0.57210501300684,0.0280502107154936,-0.8176527970931754,0.0579041186822311,0.9388149976730348,-0.0203838068991899,-0.3438180685043335,0,0,0,-1,-1,3422.072564541667,unknown,2,2022-06-30T09:23:47.653+02:00,2022-06-30T08:20:05.567+02:00,1065,1.414741,0.5991362,0.7218989,836.4535,0,0,2022-06-30T09:23:47.653+02:00
283,2022-06-30T09:23:48.099+02:00,3422.518212041667,-12.762310638427738,10.615325317382814,22.110670623779303,3422.508261041667,-2.899225399272498,1.299453617947351,0.0549258238248363,-9.765165328979492,8.035079002380371,7.930947780609131,-8.902190208435059,-1.724566340446472,7.610547542572021,XArbitraryZVertical,0.6029488986671393,0.0514012261302593,-0.7881034085277444,0.1127103591995163,0.9619590640068054,-0.0548982098698616,-0.2676210701465607,0,0,0,-1,-1,3422.072564541667,unknown,2,2022-06-30T09:23:47.653+02:00,2022-06-30T08:20:05.567+02:00,1065,1.414741,0.5991362,0.7218989,836.4535,0,0,2022-06-30T09:23:47.653+02:00
284,2022-06-30T09:23:48.109+02:00,3422.528163041667,-4.7363008117675784,25.315206756591802,-0.9090596008300782,3422.518212041667,-2.798490680792313,1.352158178524546,0.0994948884005212,-8.140554428100586,2.971498250961304,4.927542209625244,-4.609198570251465,-0.7611122131347656,5.380561828613281,XArbitraryZVertical,0.6224131472752664,0.0684690800163497,-0.7623195743104995,0.1636545247654017,0.9713659882545472,-0.0993308126926422,-0.2158277183771133,0,0,0,-1,-1,3422.072564541667,unknown,2,2022-06-30T09:23:47.653+02:00,2022-06-30T08:20:05.567+02:00,1065,1.414741,0.5991362,0.7218989,836.4535,0,0,2022-06-30T09:23:47.653+02:00
285,2022-06-30T09:23:48.119+02:00,3422.538115041667,-25.6793994140625,30.26750839233399,-16.795224151611325,3422.528163041667,-2.723869696685708,1.335543658554393,0.1326733120032312,-3.165043354034424,-4.291733264923096,5.319241046905518,-2.264858245849609,1.21437680721283,2.484931707382202,XArbitraryZVertical,0.6152403137249312,0.0771958784544741,-0.7579385062673446,0.2026069184704007,0.9639095067977904,-0.1322844326496124,-0.2310402989387512,0,0,0,-1,-1,3422.072564541667,unknown,2,2022-06-30T09:23:47.653+02:00,2022-06-30T08:20:05.567+02:00,1065,1.414741,0.5991362,0.7218989,836.4535,0,0,2022-06-30T09:23:47.653+02:00
286,2022-06-30T09:23:48.129+02:00,3422.548066041667,-58.53966613769531,9.101972351074219,2.321821746826172,3422.538115041667,-2.732132629455398,1.269593912267182,0.194527832474342,6.930938720703125,-8.155965805053711,6.066365718841553,-1.419771909713745,2.773854494094849,0.1984070837497711,XArbitraryZVertical,0.5937819840854673,0.0434318737578495,-0.7729424491663628,0.2193094260676068,0.9369686245918274,-0.1933033019304276,-0.2910732626914978,0,0,0,-1,-1,3422.072564541667,unknown,2,2022-06-30T09:23:47.653+02:00,2022-06-30T08:20:05.567+02:00,1065,1.414741,0.5991362,0.7218989,836.4535,0,0,2022-06-30T09:23:47.653+02:00
287,2022-06-30T09:23:48.139+02:00,3422.558018041667,-58.48053909301757,-19.154019012451176,12.908107452392574,3422.548066041667,-2.794478284856436,1.224069852474866,0.2742454691964391,9.30954933166504,-3.646251678466797,4.910996437072754,-3.523019313812256,3.356193780899048,-1.384929180145264,XArbitraryZVertical,0.5799112931838908,-0.0119166853040563,-0.7850550597668271,0.2173696003554445,0.9053439497947692,-0.270820677280426,-0.327121764421463,0,0,0,-1,-1,3422.072564541667,unknown,2,2022-06-30T09:23:47.653+02:00,2022-06-30T08:20:05.567+02:00,1065,1.414741,0.5991362,0.7218989,836.4535,0,0,2022-06-30T09:23:47.653+02:00
288,2022-06-30T09:23:48.149+02:00,3422.567969041667,-38.84661804199219,-28.022476959228513,15.578254852294927,3422.558018041667,-2.861565030063419,1.227075756389136,0.3540284928250231,7.438907623291016,-0.7351372838020325,6.57220983505249,-6.850464820861816,1.274505376815796,0.5527728199958801,XArbitraryZVertical,0.5813130633179515,-0.0634699840225668,-0.7828146541917845,0.2127156772077659,0.8831186294555664,-0.3466792702674866,-0.3160933554172516,0,0,0,-1,-1,3422.072564541667,unknown,2,2022-06-30T09:23:47.653+02:00,2022-06-30T08:20:05.567+02:00,1065,1.414741,0.5991362,0.7218989,836.4535,0,0,2022-06-30T09:23:47.653+02:00
289,2022-06-30T09:23:48.159+02:00,3422.577921041667,-33.49734191894532,-30.890213470458992,10.818752288818365,3422.567969041667,-2.885237037689981,1.222165636098777,0.4521782758634225,3.515805959701538,-2.272841691970825,10.32712173461914,-6.806703567504883,-1.515573263168335,1.623090028762817,XArbitraryZVertical,0.5780348838662412,-0.1106185574511369,-0.7751947155791548,0.2295917494472366,0.845384955406189,-0.4369259178638458,-0.3072784245014191,0,0,0,-1,-1,3422.072564541667,unknown,2,2022-06-30T09:23:47.653+02:00,2022-06-30T08:20:05.567+02:00,1065,1.414741,0.5991362,0.7218989,836.4535,0,0,2022-06-30T09:23:47.653+02:00
290,2022-06-30T09:23:48.169+02:00,3422.587872041667,-28.33472763061524,-23.964116363525388,6.2809387207031255,3422.577921041667,-2.860604410799121,1.183356608996303,0.5596582076885497,0.2865999042987823,-2.994516134262085,11.03911399841309,-4.744524002075195,-2.325624942779541,1.908175587654114,XArbitraryZVertical,0.5628788653012808,-0.1519160088704975,-0.7682892621868181,0.2642359868303531,0.7846242189407349,-0.5308966040611267,-0.32017782330513,0,0,0,-1,-1,3422.072564541667,unknown,2,2022-06-30T09:23:47.653+02:00,2022-06-30T08:20:05.567+02:00,1065,1.414741,0.5991362,0.7218989,836.4535,0,0,2022-06-30T09:23:47.653+02:00
291,2022-06-30T09:23:48.179+02:00,3422.597823041667,-25.91036911010743,-15.50775146484375,1.8824853515625002,3422.587872041667,-2.797211909414517,1.114087834110201,0.6511752763088637,-2.228790044784546,-3.738615274429321,10.02289962768555,-4.128465175628662,-2.542727708816528,1.453585505485535,XArbitraryZVertical,0.5400171306857424,-0.1816684563175536,-0.7633591865506242,0.3044024135811417,0.7138534188270569,-0.6061215996742249,-0.3507561385631561,0,0,0,-1,-1,3422.072564541667,unknown,2,2022-06-30T09:23:47.653+02:00,2022-06-30T08:20:05.567+02:00,1065,1.414741,0.5991362,0.7218989,836.4535,0,0,2022-06-30T09:23:47.653+02:00
292,2022-06-30T09:23:48.189+02:00,3422.607775041667,-28.09462692260743,-8.075856170654298,-0.5613327026367188,3422.597823041667,-2.702829805499445,1.011846119273294,0.7186133123027636,-3.964714288711548,-4.803398609161377,9.007277488708496,-3.526515960693359,-1.784483671188354,1.039423584938049,XArbitraryZVertical,0.5097311504629546,-0.2014744937600945,-0.7621575561417921,0.344525641298233,0.6381646394729614,-0.6583415269851685,-0.3991643786430359,0,0,0,-1,-1,3422.072564541667,unknown,2,2022-06-30T09:23:47.653+02:00,2022-06-30T08:20:05.567+02:00,1065,1.414741,0.5991362,0.7218989,836.4535,0,0,2022-06-30T09:23:47.653+02:00
293,2022-06-30T09:23:48.199+02:00,3422.617726041667,-31.062954254150387,-4.4791355895996094,-2.919379119873047,3422.607775041667,-2.585245030436949,0.8797714545664819,0.7613421098965191,-5.101244926452637,-5.761033535003662,8.19759750366211,-3.199060440063477,-0.8909170031547546,0.6532630324363708,XArbitraryZVertical,0.4724679193651358,-0.2146857799708069,-0.7642924682659972,0.3828071386032539,0.5578408241271973,-0.6898936629295349,-0.4613681733608246,0,0,0,-1,-1,3422.072564541667,unknown,2,2022-06-30T09:23:47.653+02:00,2022-06-30T08:20:05.567+02:00,1065,1.414741,0.5991362,0.7218989,836.4535,0,0,2022-06-30T09:23:47.653+02:00
294,2022-06-30T09:23:48.209+02:00,3422.627678041667,-33.315919189453126,-1.2693603515625,-3.3148567199707033,3422.617726041667,-2.456279625577454,0.7289423563799337,0.7805967226723083,-5.519486427307129,-6.412258148193359,7.504607200622559,-3.337122440338135,-0.1195235252380371,0.4727225303649902,XArbitraryZVertical,0.4299196340820867,-0.224048665286958,-0.7682504399446477,0.418046202526086,0.4732465147972107,-0.7037035226821899,-0.5299426317214966,0,0,0,-1,-1,3422.072564541667,unknown,2,2022-06-30T09:23:47.653+02:00,2022-06-30T08:20:05.567+02:00,1065,1.414741,0.5991362,0.7218989,836.4535,0,0,2022-06-30T09:23:47.653+02:00
295,2022-06-30T09:23:48.219+02:00,3422.637629041667,-35.51424774169922,1.8314414978027345,-5.068909149169922,3422.627678041667,-2.328663496939295,0.5735537249621593,0.779919399109936,-5.717094898223877,-6.738929271697998,6.898373126983643,-3.552244901657104,0.2466332912445068,0.299607515335083,XArbitraryZVertical,0.3844701080464483,-0.2314801265033519,-0.7723561496450041,0.4495172849165013,0.3857870697975159,-0.7032220959663391,-0.5971993803977966,0,0,0,-1,-1,3422.072564541667,unknown,2,2022-06-30T09:23:47.653+02:00,2022-06-30T08:20:05.567+02:00,1065,1.414741,0.5991362,0.7218989,836.4535,0,0,2022-06-30T09:23:47.653+02:00
296,2022-06-30T09:23:48.229+02:00,3422.647580041667,-37.074453277587885,0.3537144470214844,-8.900641021728514,3422.637629041667,-2.211348487705407,0.4239574657220139,0.7591216136047605,-5.942409038543701,-6.838549613952637,5.94190502166748,-3.69454288482666,0.5588898062705994,0.3233106136322021,XArbitraryZVertical,0.3371271669969966,-0.2360872236388526,-0.776608557162658,0.4769561883190617,0.298425167798996,-0.6882845163345337,-0.6612161993980408,0,0,0,-1,-1,3422.072564541667,unknown,2,2022-06-30T09:23:47.653+02:00,2022-06-30T08:20:05.567+02:00,1065,1.414741,0.5991362,0.7218989,836.4535,0,0,2022-06-30T09:23:47.653+02:00
297,2022-06-30T09:23:48.239+02:00,3422.657532041667,-36.84378295898438,-1.122964782714844,-9.580377502441406,3422.647580041667,-2.11582847764085,0.2923336227000818,0.7246270476285152,-5.498495578765869,-6.603489875793457,4.909873008728027,-3.83598780632019,0.8495473861694336,0.2002722024917603,XArbitraryZVertical,0.2907332415090657,-0.2387132315007513,-0.7807473426247417,0.4989226517811865,0.2157795280218124,-0.6628562211990356,-0.7169803380966187,0,0,0,-1,-1,3422.072564541667,unknown,2,2022-06-30T09:23:47.653+02:00,2022-06-30T08:20:05.567+02:00,1065,1.414741,0.5991362,0.7218989,836.4535,0,0,2022-06-30T09:23:47.653+02:00
298,2022-06-30T09:23:48.249+02:00,3422.667483041667,-35.380426025390626,-3.2446527099609375,-8.081244964599609,3422.657532041667,-2.041771175010366,0.1803731799266238,0.6838538162218031,-5.13357400894165,-6.230225086212158,4.257315635681152,-3.918308973312378,0.6678413152694702,-0.1447342038154602,XArbitraryZVertical,0.2468621206655627,-0.2403640479346009,-0.784169554854695,0.5161031428141594,0.1390582323074341,-0.631784975528717,-0.7625684142112732,0,0,0,-1,-1,3422.072564541667,unknown,2,2022-06-30T09:23:47.653+02:00,2022-06-30T08:20:05.567+02:00,1065,1.414741,0.5991362,0.7218989,836.4535,0,0,2022-06-30T09:23:47.653+02:00
299,2022-06-30T09:23:48.259+02:00,3422.677435041667,-33.371603393554686,-4.1007225036621096,-5.184319152832032,3422.667483041667,-1.98254164800081,0.0845538203825614,0.640271129961281,-4.795547962188721,-5.671382904052734,3.920274019241333,-3.823462724685669,0.482941210269928,-0.1775239706039429,XArbitraryZVertical,0.2057484015734976,-0.2411082125691157,-0.7862177147333216,0.5304677804364981,0.0677257999777793,-0.5974128842353821,-0.7990688681602478,0,0,0,-1,-1,3422.072564541667,unknown,2,2022-06-30T09:23:47.653+02:00,2022-06-30T08:20:05.567+02:00,1065,1.414741,0.5991362,0.7218989,836.4535,0,0,2022-06-30T09:23:47.653+02:00
300,2022-06-30T09:23:48.269+02:00,3422.687386041667,-30.98930740356445,-3.276237030029297,-2.3429278564453124,3422.677435041667,-1.933733371491967,0.0031031053704468,0.5952082332313828,-4.636802196502686,-5.011373519897461,3.683884143829346,-3.609136581420898,0.2299314737319946,0.0042517185211181,XArbitraryZVertical,0.1677408891126551,-0.240518425308037,-0.7866686121059342,0.5432920968213608,0.0025694656651467,-0.560681164264679,-0.8280277848243713,0,0,0,-1,-1,3422.072564541667,unknown,2,2022-06-30T09:23:47.653+02:00,2022-06-30T08:20:05.567+02:00,1065,1.414741,0.5991362,0.7218989,836.4535,0,0,2022-06-30T09:23:47.653+02:00
301,2022-06-30T09:23:48.278+02:00,3422.697337041667,-29.04050994873047,-1.3945001220703126,-1.2687615966796875,3422.687386041667,-1.892920258696051,-0.0663498433076798,0.547574033274767,-4.716163635253906,-4.537420272827148,3.513754844665527,-3.345186710357666,0.1026027202606201,0.3234386444091797,XArbitraryZVertical,0.1320564315979715,-0.2379188842908739,-0.7859442512444152,0.5552002891171396,-0.0566072799265384,-0.5206174850463867,-0.8519114255905151,0,0,0,-1,-1,3422.072564541667,unknown,2,2022-06-30T09:23:47.653+02:00,2022-06-30T08:20:05.567+02:00,1065,1.414741,0.5991362,0.7218989,836.4535,0,0,2022-06-30T09:23:47.653+02:00
302,2022-06-30T09:23:48.288+02:00,3422.707289041667,-27.43285308837891,1.09931396484375,-3.343596954345703,3422.697337041667,-1.859831274647766,-0.126725583217438,0.4972455182940857,-4.806934356689453,-4.293136119842529,3.177671194076538,-3.047869205474854,0.1430370509624481,0.6330214738845825,XArbitraryZVertical,0.0976349147735144,-0.2335410912759766,-0.7846799849260747,0.5658651830686399,-0.1110812202095985,-0.4770064353942871,-0.8718519806861877,0,0,0,-1,-1,3422.072564541667,unknown,2,2022-06-30T09:23:47.653+02:00,2022-06-30T08:20:05.567+02:00,1065,1.414741,0.5991362,0.7218989,836.4535,0,0,2022-06-30T09:23:47.653+02:00
303,2022-06-30T09:23:48.298+02:00,3422.717240041667,-27.397676239013677,2.2409898376464845,-5.942492523193359,3422.707289041667,-1.835453611094431,-0.1803780701439733,0.4448279804776377,-4.909217357635498,-4.295474052429199,2.74347448348999,-2.79835319519043,0.2881514430046082,0.7587060928344727,XArbitraryZVertical,0.0637175087039703,-0.2278603165956609,-0.7835825231474226,0.5744722695537284,-0.1619430184364319,-0.430302619934082,-0.8880395293235779,0,0,0,-1,-1,3422.072564541667,unknown,2,2022-06-30T09:23:47.653+02:00,2022-06-30T08:20:05.567+02:00,1065,1.414741,0.5991362,0.7218989,836.4535,0,0,2022-06-30T09:23:47.653+02:00
304,2022-06-30T09:23:48.308+02:00,3422.727192041667,-29.045449676513677,5.721252593994141,-7.111411743164063,3422.717240041667,-1.818947231976367,-0.2312574901473423,0.3933704458163856,-4.570556640625,-4.568065643310547,2.349234342575073,-2.584721088409424,0.4953638911247253,0.5581991076469421,XArbitraryZVertical,0.0299243795489284,-0.222681887017213,-0.7826435291319965,0.580505432495334,-0.2116958498954773,-0.3833036124706268,-0.8990346193313599,0,0,0,-1,-1,3422.072564541667,unknown,2,2022-06-30T09:23:47.653+02:00,2022-06-30T08:20:05.567+02:00,1065,1.414741,0.5991362,0.7218989,836.4535,0,0,2022-06-30T09:23:47.653+02:00
305,2022-06-30T09:23:48.318+02:00,3422.737143041667,-30.96116592407226,8.080197143554688,-8.932075653076174,3422.727192041667,-1.808594501987119,-0.2810761716108209,0.3447102279624183,-4.444573402404785,-4.662248134613037,1.992512941360474,-2.531759262084961,0.5663629770278931,0.298480749130249,XArbitraryZVertical,-0.003482768414798,-0.2187879462731374,-0.7815630951508571,0.5841909015840648,-0.2610718607902527,-0.3379239737987518,-0.9042394161224364,0,0,0,-1,-1,3422.072564541667,unknown,2,2022-06-30T09:23:47.653+02:00,2022-06-30T08:20:05.567+02:00,1065,1.414741,0.5991362,0.7218989,836.4535,0,0,2022-06-30T09:23:47.653+02:00
306,2022-06-30T09:23:48.328+02:00,3422.747094041667,-31.552436370849616,8.261170806884767,-10.192005615234375,3422.737143041667,-1.804527131406465,-0.3284285527711906,0.2981995849645416,-4.194858551025391,-4.577072143554688,1.548779964447021,-2.65247917175293,0.8770055770874023,0.1798617243766785,XArbitraryZVertical,-0.0360258959186625,-0.2152068526824042,-0.7806379457342951,0.585655724134105,-0.3083206117153168,-0.2937997281551361,-0.9047762751579284,0,0,0,-1,-1,3422.072564541667,unknown,2,2022-06-30T09:23:47.653+02:00,2022-06-30T08:20:05.567+02:00,1065,1.414741,0.5991362,0.7218989,836.4535,0,0,2022-06-30T09:23:47.653+02:00
307,2022-06-30T09:23:48.338+02:00,3422.757046041667,-30.370344543457033,7.580985260009766,-9.990225219726563,3422.747094041667,-1.805227630808957,-0.3728738056056572,0.256520590701353,-3.708619356155396,-4.389233589172363,1.225485563278198,-2.803708791732788,1.077385663986206,-0.0096958875656127,XArbitraryZVertical,-0.066427992697167,-0.2125597111569353,-0.7796998483421308,0.58521272201782,-0.3523730933666229,-0.2537165284156799,-0.9008113741874696,0,0,0,-1,-1,3422.072564541667,unknown,2,2022-06-30T09:23:47.653+02:00,2022-06-30T08:20:05.567+02:00,1065,1.414741,0.5991362,0.7218989,836.4535,0,0,2022-06-30T09:23:47.653+02:00
308,2022-06-30T09:23:48.348+02:00,3422.766997041667,-28.261829223632812,5.672903137207031,-9.48233139038086,3422.757046041667,-1.807616341825687,-0.4148310269775674,0.2203250543536382,-3.184865713119507,-4.148629188537598,1.166717767715454,-2.823061466217041,1.060663819313049,-0.1458792686462402,XArbitraryZVertical,-0.0942636754467273,-0.2111486709864854,-0.7781933928286388,0.5839055688736073,-0.3932925164699554,-0.2185468375682831,-0.8930612206459045,0,0,0,-1,-1,3422.072564541667,unknown,2,2022-06-30T09:23:47.653+02:00,2022-06-30T08:20:05.567+02:00,1065,1.414741,0.5991362,0.7218989,836.4535,0,0,2022-06-30T09:23:47.653+02:00
309,2022-06-30T09:23:48.358+02:00,3422.776949041667,-26.07412857055664,3.5317556762695315,-8.626261596679688,3422.766997041667,-1.808923199943561,-0.4545188842689888,0.1891760220974068,-2.603447675704956,-3.87114429473877,1.236669182777405,-2.664657831192017,0.9608307480812072,-0.1359284520149231,XArbitraryZVertical,-0.1194439026272257,-0.210977615704795,-0.7756097221392358,0.5827961727653296,-0.4311975836753845,-0.1880496740341187,-0.8824431896209717,0,0,0,-1,-1,3422.072564541667,unknown,2,2022-06-30T09:23:47.653+02:00,2022-06-30T08:20:05.567+02:00,1065,1.414741,0.5991362,0.7218989,836.4535,0,0,2022-06-30T09:23:47.653+02:00
310,2022-06-30T09:23:48.368+02:00,3422.786900041667,-23.950794067382812,2.515069885253906,-8.100255432128908,3422.776949041667,-1.808062531254921,-0.4915722644507708,0.1629861101962025,-1.998492240905762,-3.548184156417847,1.307505488395691,-2.415163040161133,0.7405427694320679,-0.0966903567314147,XArbitraryZVertical,-0.1417414890605837,-0.2120265262284295,-0.7719293878922752,0.5823049868073177,-0.4657570421695709,-0.1622654646635056,-0.8699082136154175,0,0,0,-1,-1,3422.072564541667,unknown,2,2022-06-30T09:23:47.653+02:00,2022-06-30T08:20:05.567+02:00,1065,1.414741,0.5991362,0.7218989,836.4535,0,0,2022-06-30T09:23:47.653+02:00
