,loggingTime(txt),accelerometerTimestamp_sinceReboot(s),accelerometerAccelerationX(G),accelerometerAccelerationY(G),accelerometerAccelerationZ(G),motionTimestamp_sinceReboot(s),motionYaw(rad),motionRoll(rad),motionPitch(rad),motionRotationRateX(rad/s),motionRotationRateY(rad/s),motionRotationRateZ(rad/s),motionUserAccelerationX(G),motionUserAccelerationY(G),motionUserAccelerationZ(G),motionAttitudeReferenceFrame(txt),motionQuaternionX(R),motionQuaternionY(R),motionQuaternionZ(R),motionQuaternionW(R),motionGravityX(G),motionGravityY(G),motionGravityZ(G),motionMagneticFieldX(µT),motionMagneticFieldY(µT),motionMagneticFieldZ(µT),motionHeading(°),motionMagneticFieldCalibrationAccuracy(Z),activityTimestamp_sinceReboot(s),activity(txt),activityActivityConfidence(Z),activityActivityStartDate(txt),pedometerStartDate(txt),pedometerNumberofSteps(N),pedometerAverageActivePace(s/m),pedometerCurrentPace(s/m),pedometerCurrentCadence(steps/s),pedometerDistance(m),pedometerFloorAscended(N),pedometerFloorDescended(N),pedometerEndDate(txt)
166,2022-06-30T10:02:27.572+02:00,5594.589947291667,2.0648062133789065,3.3596136474609377,20.021016082763676,5594.584971291667,0.9925870393610126,2.229810417870452,0.2524809253726124,3.13306736946106,1.926203370094299,1.366250276565552,-0.5922977328300476,0.6852929592132568,1.529313921928406,XArbitraryZVertical,-0.3753917347535326,0.8096561822452646,0.3073792902945677,0.3302364804458938,0.7655313014984131,-0.2498070001602173,0.592924177646637,0,0,0,-1,-1,5593.747569291667,walking,2,2022-06-30T10:02:26.729+02:00,2022-06-30T08:20:05.567+02:00,1524,1.460561,0,0,1205.903,0,0,2022-06-30T10:02:26.728+02:00
167,2022-06-30T10:02:27.582+02:00,5594.599898291667,2.128872985839844,3.7616775512695315,19.54111404418945,5594.594922291667,0.9595757577607958,2.256347717462252,0.243871106631044,2.997603416442871,1.776184320449829,1.274481773376465,-0.540685772895813,0.5839293003082275,1.426511287689209,XArbitraryZVertical,-0.3677962835879511,0.819700828566981,0.2937385605737522,0.3263960306442202,0.7511661052703857,-0.241460993885994,0.6143671274185181,0,0,0,-1,-1,5593.747569291667,walking,2,2022-06-30T10:02:26.729+02:00,2022-06-30T08:20:05.567+02:00,1524,1.460561,0,0,1205.903,0,0,2022-06-30T10:02:26.728+02:00
168,2022-06-30T10:02:27.592+02:00,5594.609849291667,2.7461892700195314,3.898642730712891,19.214942321777343,5594.604874291667,0.9279467666095356,2.28074277983918,0.2339179599964663,3.046794176101685,1.632222890853882,1.164789915084839,-0.5207316875457764,0.6152440309524536,1.357916355133057,XArbitraryZVertical,-0.3603656300324943,0.828949769335941,0.2802863908551586,0.3231386523804305,0.7377426028251648,-0.2317905426025391,0.6340422034263611,0,0,0,-1,-1,5593.747569291667,walking,2,2022-06-30T10:02:26.729+02:00,2022-06-30T08:20:05.567+02:00,1524,1.460561,0,0,1205.903,0,0,2022-06-30T10:02:26.728+02:00
169,2022-06-30T10:02:27.602+02:00,5594.619801291667,3.677402801513672,2.859503631591797,19.53243209838868,5594.614825291667,0.8964668814967509,2.303738861045933,0.2222041482798593,3.12616229057312,1.555944800376892,1.154759764671326,-0.4449984431266785,0.6177953481674194,1.306099414825439,XArbitraryZVertical,-0.3528117589298272,0.8377523184267986,0.2664815435579,0.3204413433364002,0.7249366044998169,-0.220380112528801,0.652610182762146,0,0,0,-1,-1,5593.747569291667,walking,2,2022-06-30T10:02:26.729+02:00,2022-06-30T08:20:05.567+02:00,1524,1.460561,0,0,1205.903,0,0,2022-06-30T10:02:26.728+02:00
170,2022-06-30T10:02:27.612+02:00,5594.629752291667,3.8711000061035157,1.5163467407226563,20.955373077392576,5594.624776291667,0.8653373236200265,2.325279104529812,0.2099256243260126,3.018224716186523,1.430370092391968,1.155799150466919,-0.3377670049667358,0.4998759031295776,1.321197628974915,XArbitraryZVertical,-0.3449804417815514,0.8461243151169134,0.2528121479770829,0.3180381073581407,0.712630033493042,-0.2083871513605118,0.6698757410049438,0,0,0,-1,-1,5593.747569291667,walking,2,2022-06-30T10:02:26.729+02:00,2022-06-30T08:20:05.567+02:00,1524,1.460561,0,0,1205.903,0,0,2022-06-30T10:02:26.728+02:00
171,2022-06-30T10:02:27.622+02:00,5594.639703291667,4.214934997558594,1.0650352478027345,23.296354980468752,5594.634727291667,0.836203278796079,2.345081394703052,0.1986449842785575,2.641282558441162,1.383105397224426,1.181782484054565,-0.3062542676925659,0.3519127368927002,1.450668096542358,XArbitraryZVertical,-0.3372631885146498,0.8538039556098642,0.2402114574033961,0.3155485820580999,0.7008622288703918,-0.1973411440849304,0.685455322265625,0,0,0,-1,-1,5593.747569291667,walking,2,2022-06-30T10:02:26.729+02:00,2022-06-30T08:20:05.567+02:00,1524,1.460561,0,0,1205.903,0,0,2022-06-30T10:02:26.728+02:00
172,2022-06-30T10:02:27.632+02:00,5594.64965425,5.003495178222656,0.7629634094238281,25.83836883544922,5594.644679291667,0.8112186397217164,2.363493506725688,0.1906337516316523,1.981952309608459,1.347983598709106,1.112083077430725,-0.2595536708831787,0.2980475425720215,1.675409317016602,XArbitraryZVertical,-0.3302638157520596,0.8605805983310448,0.229903292188137,0.3122040802973055,0.6892110109329224,-0.1894811987876892,0.6993463039398193,0,0,0,-1,-1,5593.747569291667,walking,2,2022-06-30T10:02:26.729+02:00,2022-06-30T08:20:05.567+02:00,1524,1.460561,0,0,1205.903,0,0,2022-06-30T10:02:26.728+02:00
173,2022-06-30T10:02:27.642+02:00,5594.65960625,5.879623260498047,0.7611671447753907,28.1464192199707,5594.65463025,0.7924721306150332,2.380729659301812,0.1858801939327401,1.275663018226624,1.429656505584717,0.8855347633361816,-0.1676279902458191,0.2625858187675476,1.922114849090576,XArbitraryZVertical,-0.3250176553851948,0.8661675300784691,0.2221870355369152,0.3078152087628648,0.6776685118675232,-0.1848116368055344,0.7117653489112854,0,0,0,-1,-1,5593.747569291667,walking,2,2022-06-30T10:02:26.729+02:00,2022-06-30T08:20:05.567+02:00,1524,1.460561,0,0,1205.903,0,0,2022-06-30T10:02:26.728+02:00
174,2022-06-30T10:02:27.652+02:00,5594.66955725,6.651118927001954,0.5051994323730469,28.659701843261722,5594.66458125,0.7797057060297354,2.397748067727473,0.1842829179307589,0.7295461297035217,1.519703030586243,0.7400028705596924,-0.0663067102432251,0.260832667350769,2.145744800567627,XArbitraryZVertical,-0.3216378453117332,0.870778146967659,0.2168161279651895,0.3021346131725334,0.6656569838523865,-0.1832416355609894,0.723410964012146,0,0,0,-1,-1,5593.747569291667,walking,2,2022-06-30T10:02:26.729+02:00,2022-06-30T08:20:05.567+02:00,1524,1.460561,0,0,1205.903,0,0,2022-06-30T10:02:26.728+02:00
175,2022-06-30T10:02:27.661+02:00,5594.67950825,6.953190765380859,0.14100677490234376,29.574898681640626,5594.67453325,0.7707305586710365,2.414999064483271,0.1850769860680911,0.3275769352912903,1.618587732315063,0.6963463425636292,0.0250119566917419,0.2355206906795502,2.186801195144653,XArbitraryZVertical,-0.3194304870150314,0.874815783349275,0.2130471099032353,0.2954191146002605,0.6529821157455444,-0.1840222030878067,0.7346769571304321,0,0,0,-1,-1,5593.747569291667,walking,2,2022-06-30T10:02:26.729+02:00,2022-06-30T08:20:05.567+02:00,1524,1.460561,0,0,1205.903,0,0,2022-06-30T10:02:26.728+02:00
176,2022-06-30T10:02:27.671+02:00,5594.689460250001,6.83104476928711,-1.1056008911132813,30.734088134765628,5594.68448425,0.7653186271517652,2.432875159698275,0.1896319393028023,-0.3448488712310791,1.792081475257874,0.6969479322433472,0.0695932507514953,0.2028713226318359,2.269182682037354,XArbitraryZVertical,-0.3181420108184764,0.8783959274787289,0.2113497783776993,0.2872932809183543,0.6391929984092712,-0.1884974390268326,0.7455874681472778,0,0,0,-1,-1,5593.747569291667,walking,2,2022-06-30T10:02:26.729+02:00,2022-06-30T08:20:05.567+02:00,1524,1.460561,0,0,1205.903,0,0,2022-06-30T10:02:26.728+02:00
177,2022-06-30T10:02:27.681+02:00,5594.699411250001,6.9940557861328125,-2.0549267578125,31.769934082031252,5594.69443525,0.7650396153180814,2.452234856943273,0.1997855364999767,-1.174343705177307,2.097204446792603,0.6468483209609985,0.0729448199272155,0.0857578516006469,2.376628398895264,XArbitraryZVertical,-0.3182927192383741,0.8813867267735603,0.2125710997653598,0.2768765090828503,0.6233901977539062,-0.1984591335058212,0.7563056349754333,0,0,0,-1,-1,5593.747569291667,walking,2,2022-06-30T10:02:26.729+02:00,2022-06-30T08:20:05.567+02:00,1524,1.460561,0,0,1205.903,0,0,2022-06-30T10:02:26.728+02:00
178,2022-06-30T10:02:27.691+02:00,5594.709362250001,7.245682525634766,-1.88488037109375,33.24197296142578,5594.704387250001,0.7702276335892815,2.474065083410974,0.2155681411480583,-1.901859402656555,2.520733118057251,0.5388323664665222,0.108233630657196,0.0044299066066741,2.471347570419312,XArbitraryZVertical,-0.3202136283992669,0.8837714658066415,0.2165486576817692,0.2636624114834151,0.6047182679176331,-0.2139024585485458,0.7671775221824646,0,0,0,-1,-1,5593.747569291667,walking,2,2022-06-30T10:02:26.729+02:00,2022-06-30T08:20:05.567+02:00,1524,1.460561,0,0,1205.903,0,0,2022-06-30T10:02:26.728+02:00
179,2022-06-30T10:02:27.701+02:00,5594.71931425,7.544161834716797,-2.259700927734375,34.48319183349609,5594.714338250001,0.7800892849861111,2.499095514955386,0.2355186173763499,-2.401484727859497,2.948652267456055,0.3313292860984802,0.155947208404541,0.0412087142467498,2.610080003738403,XArbitraryZVertical,-0.323968718293595,0.8856039741461725,0.2223307322681963,0.2476267523225779,0.5826548933982849,-0.2333473116159439,0.7785002589225769,0,0,0,-1,-1,5593.747569291667,walking,2,2022-06-30T10:02:26.729+02:00,2022-06-30T08:20:05.567+02:00,1524,1.460561,0,0,1205.903,0,0,2022-06-30T10:02:26.728+02:00
180,2022-06-30T10:02:27.711+02:00,5594.72926525,8.172106018066406,-2.730172576904297,36.58437240600587,5594.724289250001,0.7936239195006854,2.526880809514404,0.2568947827641462,-2.617522716522217,3.283402919769287,0.0847083106637001,0.2112308144569397,0.023731917142868,2.724975347518921,XArbitraryZVertical,-0.3295912850920112,0.8868116567155484,0.2285670210843684,0.2295469231974276,0.5577971935272217,-0.2540784776210785,0.7901306748390198,0,0,0,-1,-1,5593.747569291667,walking,2,2022-06-30T10:02:26.729+02:00,2022-06-30T08:20:05.567+02:00,1524,1.460561,0,0,1205.903,0,0,2022-06-30T10:02:26.728+02:00
181,2022-06-30T10:02:27.721+02:00,5594.73921625,8.353229370117187,-2.8409422302246097,38.38093643188476,5594.73424125,0.8101126692984267,2.556796845052115,0.2799970421105989,-3.03342604637146,3.628849267959595,-0.1335226595401764,0.3025076389312744,-0.0019522309303283,2.927941083908081,XArbitraryZVertical,-0.3366845491036696,0.8873104905224077,0.2352856170770605,0.2096769618797441,0.5305312275886536,-0.2763527929782867,0.8013527989387512,0,0,0,-1,-1,5593.747569291667,walking,2,2022-06-30T10:02:26.729+02:00,2022-06-30T08:20:05.567+02:00,1524,1.460561,0,0,1205.903,0,0,2022-06-30T10:02:26.728+02:00
182,2022-06-30T10:02:27.732+02:00,5594.74916725,9.0675439453125,-3.605402526855469,39.569764251708996,5594.74419225,0.8309809393541038,2.58864152889362,0.3051601112888842,-3.328871250152588,3.952667951583862,-0.5372951626777649,0.3505658507347107,0.0108494460582733,3.100767612457275,XArbitraryZVertical,-0.3458406043676502,0.8866934951284406,0.2426762762066324,0.1878221591155914,0.500935971736908,-0.3004458844661713,0.8116621375083923,0,0,0,-1,-1,5593.747569291667,walking,2,2022-06-30T10:02:26.729+02:00,2022-06-30T08:20:05.567+02:00,1524,1.460561,0,0,1205.903,0,0,2022-06-30T10:02:26.728+02:00
183,2022-06-30T10:02:27.741+02:00,5594.75911925,9.089697875976563,-3.663032684326172,41.40824111938476,5594.75414325,0.8562096756439272,2.621024012505756,0.3313174233157221,-3.572896003723145,4.136064529418945,-1.005943775177002,0.4539930522441864,-0.0422340333461761,3.213259696960449,XArbitraryZVertical,-0.3570634413094189,0.884693940047041,0.2503449172337032,0.1647720876922737,0.470323771238327,-0.3252890706062317,0.8203553557395935,0,0,0,-1,-1,5593.747569291667,walking,2,2022-06-30T10:02:26.729+02:00,2022-06-30T08:20:05.567+02:00,1524,1.460561,0,0,1205.903,0,0,2022-06-30T10:02:26.728+02:00
184,2022-06-30T10:02:27.751+02:00,5594.76907025,8.487649841308594,-5.819598083496094,42.532852478027344,5594.76409425,0.8879866338349702,2.652128764761381,0.355925012282965,-3.591264247894287,4.229601860046387,-1.924200057983398,0.4858893156051636,-0.0249402225017547,3.393754720687866,XArbitraryZVertical,-0.371433751352824,0.8807220865314092,0.2575318178535697,0.1415735223704181,0.4406858682632446,-0.348457545042038,0.8272688388824463,0,0,0,-1,-1,5593.747569291667,walking,2,2022-06-30T10:02:26.729+02:00,2022-06-30T08:20:05.567+02:00,1524,1.460561,0,0,1205.903,0,0,2022-06-30T10:02:26.728+02:00
185,2022-06-30T10:02:27.761+02:00,5594.77902125,7.698341217041016,-9.371112670898437,46.02404251098632,5594.774046250001,0.9276646158404585,2.679247909709975,0.3762205604333683,-3.465718030929565,4.049787998199463,-2.821206331253052,0.4503529369831085,-0.2258231937885284,3.503250598907471,XArbitraryZVertical,-0.3894766927221756,0.8743649867156834,0.2634907119947286,0.1198609708498295,0.4148514568805695,-0.3674080073833466,0.8324124217033386,0,0,0,-1,-1,5593.747569291667,walking,2,2022-06-30T10:02:26.729+02:00,2022-06-30T08:20:05.567+02:00,1524,1.460561,0,0,1205.903,0,0,2022-06-30T10:02:26.728+02:00
186,2022-06-30T10:02:27.771+02:00,5594.788973250001,4.921615447998047,-13.809233551025388,51.24623291015625,5594.783997250001,0.9775923227862506,2.699543859210244,0.3941420752770453,-3.862561941146851,3.806177854537964,-4.033556938171387,0.3897527754306793,-0.571245014667511,3.856969833374023,XArbitraryZVertical,-0.411374698532802,0.8649033498519447,0.2696138865553013,0.1001079087664018,0.3949919939041138,-0.3840161859989166,0.8345738649368286,0,0,0,-1,-1,5593.747569291667,walking,2,2022-06-30T10:02:26.729+02:00,2022-06-30T08:20:05.567+02:00,1524,1.460561,0,0,1205.903,0,0,2022-06-30T10:02:26.728+02:00
187,2022-06-30T10:02:27.781+02:00,5594.798924250001,0.9102571105957031,-13.259576568603512,57.38736236572266,5594.793948250001,1.043802166501835,2.708477750041091,0.4115073333382849,-4.528453350067139,3.109467506408691,-5.620457649230957,0.1170309484004974,-1.007677555084229,4.391986846923828,XArbitraryZVertical,-0.4385604769536887,0.850652594675333,0.2778286915088443,0.0828621330606166,0.3846631348133087,-0.3999912738800049,0.8318902850151062,0,0,0,-1,-1,5593.747569291667,walking,2,2022-06-30T10:02:26.729+02:00,2022-06-30T08:20:05.567+02:00,1524,1.460561,0,0,1205.903,0,0,2022-06-30T10:02:26.728+02:00
188,2022-06-30T10:02:27.791+02:00,5594.808875250001,-5.588329010009766,-6.718628540039063,64.33366744995118,5594.80390025,1.131277176533655,2.69800106299047,0.4295819191569421,-5.592705726623535,1.905873775482178,-7.395617961883545,-0.2974012792110443,-0.9351480007171632,5.02873420715332,XArbitraryZVertical,-0.4712275117518209,0.829770837226688,0.2907285726024946,0.0700144152261894,0.390190452337265,-0.4164907336235046,0.821150004863739,0,0,0,-1,-1,5593.747569291667,walking,2,2022-06-30T10:02:26.729+02:00,2022-06-30T08:20:05.567+02:00,1524,1.460561,0,0,1205.903,0,0,2022-06-30T10:02:26.728+02:00
189,2022-06-30T10:02:27.801+02:00,5594.81882725,-12.436887359619137,5.158273315429688,64.3447444152832,5594.81385125,1.242986895788385,2.661721792106683,0.447165344608865,-6.484759330749512,0.2606548666954041,-9.289151191711426,-0.9859281778335572,-0.2524639070034027,5.758131980895996,XArbitraryZVertical,-0.508655067453192,0.8007422582151096,0.3100220721424772,0.062993784613317,0.4162721633911133,-0.4324113428592682,0.799836277961731,0,0,0,-1,-1,5593.747569291667,walking,2,2022-06-30T10:02:26.729+02:00,2022-06-30T08:20:05.567+02:00,1524,1.460561,0,0,1205.903,0,0,2022-06-30T10:02:26.728+02:00
190,2022-06-30T10:02:27.811+02:00,5594.82877825,-18.4130598449707,18.206938476562502,60.51151565551757,5594.82380225,1.377152442978905,2.594099226785498,0.4529787461160106,-6.32948112487793,-2.139099836349487,-11.25544166564941,-1.735826253890991,0.9634640216827391,5.791376113891602,XArbitraryZVertical,-0.5492783112257311,0.7629900243499727,0.3343339526850084,0.0660331349079639,0.4680500328540802,-0.4376457929611206,0.7677208781242371,0,0,0,-1,-1,5593.747569291667,walking,2,2022-06-30T10:02:26.729+02:00,2022-06-30T08:20:05.567+02:00,1524,1.460561,0,0,1205.903,0,0,2022-06-30T10:02:26.728+02:00
191,2022-06-30T10:02:27.821+02:00,5594.83872925,-16.13928817749024,16.014298095703126,53.5574267578125,5594.83375325,1.523149931354183,2.498458142170109,0.4372013732650512,-5.83460521697998,-4.366637706756592,-12.30891609191895,-2.420266389846802,2.27936315536499,5.443398952484131,XArbitraryZVertical,-0.5895037468758634,0.7176078165318666,0.3618163993119436,0.0813216327848053,0.5432983040809631,-0.4234057366847992,0.7249512672424316,0,0,0,-1,-1,5593.747569291667,walking,2,2022-06-30T10:02:26.729+02:00,2022-06-30T08:20:05.567+02:00,1524,1.460561,0,0,1205.903,0,0,2022-06-30T10:02:26.728+02:00
192,2022-06-30T10:02:27.831+02:00,5594.84868025,-19.98119888305664,15.276931457519533,51.41792587280275,5594.84370525,1.667651131918218,2.386699113366103,0.399590523992166,-5.49415111541748,-6.211845397949219,-12.96516609191895,-2.27641773223877,2.021487712860107,4.788506984710693,XArbitraryZVertical,-0.6255314481564526,0.6664783419544993,0.3914754226783215,0.106132652757187,0.6312305927276611,-0.3890411555767059,0.6709659695625305,0,0,0,-1,-1,5593.747569291667,walking,2,2022-06-30T10:02:26.729+02:00,2022-06-30T08:20:05.567+02:00,1524,1.460561,0,0,1205.903,0,0,2022-06-30T10:02:26.728+02:00
193,2022-06-30T10:02:27.841+02:00,5594.85863225,-24.868086547851565,23.465353546142573,47.64771606445313,5594.85365625,1.806083070542916,2.264196513597098,0.3376537569313762,-4.746897220611572,-8.440356254577637,-13.7812032699585,-2.762470245361328,1.888556003570557,4.638313293457031,XArbitraryZVertical,-0.6565572050141426,0.6086588126145789,0.4229798032597125,0.139840461386859,0.7256511449813843,-0.3312742412090302,0.6030658483505249,0,0,0,-1,-1,5593.747569291667,walking,2,2022-06-30T10:02:26.729+02:00,2022-06-30T08:20:05.567+02:00,1524,1.460561,0,0,1205.903,0,0,2022-06-30T10:02:26.728+02:00
194,2022-06-30T10:02:27.851+02:00,5594.86858325,-31.21114608764649,32.012130432128906,41.350610961914064,5594.86360725,1.922746661128919,2.128749526144848,0.2500153797296285,-2.959773778915405,-12.0976619720459,-13.6546688079834,-3.356937408447266,2.639402151107788,4.344066143035889,XArbitraryZVertical,-0.6768471974802053,0.5462350508538718,0.4570377272568905,0.186069464778744,0.8219647407531738,-0.2474188655614853,0.5129896998405457,0,0,0,-1,-1,5593.747569291667,walking,2,2022-06-30T10:02:26.729+02:00,2022-06-30T08:20:05.567+02:00,1524,1.460561,0,0,1205.903,0,0,2022-06-30T10:02:26.728+02:00
195,2022-06-30T10:02:27.861+02:00,5594.87853425,-45.87121032714844,43.07292938232422,26.7426383972168,5594.873559250001,1.998800427218501,1.968847196502273,0.13966986539275,0.0761995837092399,-17.21126556396484,-12.66860485076904,-4.094406127929688,3.402430772781372,3.831301212310791,XArbitraryZVertical,-0.6780469123548637,0.4818467290591242,0.4957412814216959,0.2496334849256154,0.9128418564796448,-0.1392161995172501,0.3838477730751038,0,0,0,-1,-1,5593.747569291667,walking,2,2022-06-30T10:02:26.729+02:00,2022-06-30T08:20:05.567+02:00,1524,1.460561,0,0,1205.903,0,0,2022-06-30T10:02:26.728+02:00
196,2022-06-30T10:02:27.870+02:00,5594.88848625,-69.32653472900391,51.4212190246582,26.471851501464844,5594.883510250001,2.019439948558937,1.76629900292261,0.0219194250996938,3.235584020614624,-23.21262550354004,-11.73097801208496,-5.656679153442383,4.41263484954834,2.531846046447754,XArbitraryZVertical,-0.6505265272325029,0.4170392591526176,0.541881037018971,0.3305427561740252,0.9807146191596984,-0.0219176691025495,0.194213017821312,0,0,0,-1,-1,5593.747569291667,walking,2,2022-06-30T10:02:26.729+02:00,2022-06-30T08:20:05.567+02:00,1524,1.460561,0,0,1205.903,0,0,2022-06-30T10:02:26.728+02:00
197,2022-06-30T10:02:27.881+02:00,5594.89843725,-95.24663360595702,54.4485237121582,64.74605987548829,5594.893461250001,1.966448063658204,1.488820062201822,-0.0996142187822216,8.939616203308105,-32.32276153564453,-11.58376216888428,-8.058626174926758,5.142265319824219,2.779934406280518,XArbitraryZVertical,-0.5835066071856553,0.3446458532944796,0.5926799868860866,0.4352812364719469,0.9917011260986328,0.0994495525956153,-0.081478551030159,0,0,0,-1,-1,5593.747569291667,walking,2,2022-06-30T10:02:26.729+02:00,2022-06-30T08:20:05.567+02:00,1524,1.460561,0,0,1205.903,0,0,2022-06-30T10:02:26.728+02:00
198,2022-06-30T10:02:27.890+02:00,5594.90838825,-158.68665939331058,68.64036163330078,74.00505569458008,5594.90341325,1.816738428234978,1.128199603825165,-0.140034816532543,19.41444396972656,-34.96296691894531,-4.054081439971924,-10.6039342880249,5.410731315612793,7.024101257324219,XArbitraryZVertical,-0.4569052262767705,0.2814074064028106,0.6417016908683528,0.5479657253547269,0.8947969675064087,0.1395775973796844,-0.4240949749946594,0,0,0,-1,-1,5593.747569291667,walking,2,2022-06-30T10:02:26.729+02:00,2022-06-30T08:20:05.567+02:00,1524,1.460561,0,0,1205.903,0,0,2022-06-30T10:02:26.728+02:00
199,2022-06-30T10:02:27.900+02:00,5594.91833925,-309.5790270996094,60.940822906494134,-22.344484405517576,5594.91336425,1.628998112110317,0.7643924066069744,-0.0330682803909572,19.4323902130127,-34.14142227172852,-1.11589241027832,-16.86773109436035,6.963916778564453,8.265246391296387,XArbitraryZVertical,-0.281773744211927,0.2447434397819844,0.6705759653730478,0.6411179149717393,0.691720187664032,0.0330622531473636,-0.7214084267616272,0,0,0,-1,-1,5593.747569291667,walking,2,2022-06-30T10:02:26.729+02:00,2022-06-30T08:20:05.567+02:00,1524,1.460561,0,0,1205.903,0,0,2022-06-30T10:02:26.728+02:00
200,2022-06-30T10:02:27.911+02:00,5594.92829125,-248.69718154907224,-13.245805206298824,-14.121933288574219,5594.92331525,1.525555293954379,0.5845096292517178,0.0914422963714572,11.60685443878174,-4.131261348724365,1.954312562942505,-32.10697937011719,6.303427696228027,-1.447227001190186,XArbitraryZVertical,-0.1672177736015027,0.2383044179691791,0.6704624452288002,0.6824436374668642,0.5494851469993591,-0.0913149118423461,-0.830498456954956,0,0,0,-1,-1,5593.747569291667,walking,2,2022-06-30T10:02:26.729+02:00,2022-06-30T08:20:05.567+02:00,1524,1.460561,0,0,1205.903,0,0,2022-06-30T10:02:26.728+02:00
201,2022-06-30T10:02:27.920+02:00,5594.93824225,-123.44095321655276,-80.26848083496094,70.09698257446288,5594.93326625,1.485155002374628,0.6606068946798487,0.1884063276474289,6.854366779327393,16.56420135498047,3.281491994857788,-25.95413208007812,-1.162940979003906,-0.6638979911804199,XArbitraryZVertical,-0.1527826276306684,0.2980504106262196,0.6592768481004564,0.6731845464602702,0.6027379631996155,-0.1872936636209488,-0.7756468653678894,0,0,0,-1,-1,5593.747569291667,walking,2,2022-06-30T10:02:26.729+02:00,2022-06-30T08:20:05.567+02:00,1524,1.460561,0,0,1205.903,0,0,2022-06-30T10:02:26.728+02:00
202,2022-06-30T10:02:27.930+02:00,5594.94819325,73.85671417236328,-106.12705764770507,5.547014923095704,5594.94321825,1.562921184145666,0.8041217583567942,0.242153207197382,-9.101776123046877,16.79352188110352,16.08270072937012,-13.28238391876221,-7.94251823425293,7.818964958190918,XArbitraryZVertical,-0.194689193796387,0.3540402150001294,0.6769589861654233,0.6152058048168088,0.6992083787918091,-0.2397935688495636,-0.6735032796859741,0,0,0,-1,-1,5593.747569291667,walking,2,2022-06-30T10:02:26.729+02:00,2022-06-30T08:20:05.567+02:00,1524,1.460561,0,0,1205.903,0,0,2022-06-30T10:02:26.728+02:00
203,2022-06-30T10:02:27.940+02:00,5594.958145250001,77.55222930908204,-75.75102493286133,26.315426788330075,5594.95316925,1.726578996816371,0.8666619051311546,0.2957891530618569,-7.028802871704102,5.070864200592041,7.879880428314209,6.799643993377686,-10.52675724029541,1.184705257415771,XArbitraryZVertical,-0.2287103886174932,0.3715660482416062,0.7224259588241024,0.5364056612458326,0.7290729284286499,-0.2914948165416718,-0.6192604303359985,0,0,0,-1,-1,5593.747569291667,walking,2,2022-06-30T10:02:26.729+02:00,2022-06-30T08:20:05.567+02:00,1524,1.460561,0,0,1205.903,0,0,2022-06-30T10:02:26.728+02:00
204,2022-06-30T10:02:27.950+02:00,5594.968096250001,-15.133679351806636,1.1190728759765625,18.55331817626953,5594.96312025,1.818852799800065,0.7950944359489754,0.261481955493825,-11.97009563446045,-11.23929882049561,0.0593129061162471,7.215764045715332,-7.463304042816162,3.358925819396973,XArbitraryZVertical,-0.22909109052811,0.3306198985797302,0.7523992219447159,0.5216350673973531,0.6896618008613586,-0.258512407541275,-0.6764155030250549,0,0,0,-1,-1,5593.747569291667,walking,2,2022-06-30T10:02:26.729+02:00,2022-06-30T08:20:05.567+02:00,1524,1.460561,0,0,1205.903,0,0,2022-06-30T10:02:26.728+02:00
205,2022-06-30T10:02:27.960+02:00,5594.978047250001,-27.46039581298828,-0.7084767150878907,-77.87525756835937,5594.973072250001,1.910122323659066,0.7031166418980761,0.1662150928315958,-11.20119953155518,-2.8492112159729,1.213276505470276,-2.180365800857544,0.2795259356498718,2.643583297729492,XArbitraryZVertical,-0.2351368308441491,0.2618243153659929,0.7802838035240136,0.5170260760765089,0.6376869082450867,-0.1654507964849472,-0.7523173689842224,0,0,0,-1,-1,5593.747569291667,walking,2,2022-06-30T10:02:26.729+02:00,2022-06-30T08:20:05.567+02:00,1524,1.460561,0,0,1205.903,0,0,2022-06-30T10:02:26.728+02:00
206,2022-06-30T10:02:27.970+02:00,5594.98799925,-8.1286962890625,22.80462753295899,-43.07876724243163,5594.983023250001,1.964546528696326,0.6544586837095374,0.1132033214573449,-5.651387214660645,-7.502189159393311,0.0208434760570526,-3.404058456420898,0.04074227809906,-7.150054931640625,XArbitraryZVertical,-0.2371788845499748,0.2227026082541073,0.7964581374383938,0.5097100371053006,0.6048336029052734,-0.1129616945981979,-0.7882994413375854,0,0,0,-1,-1,5593.747569291667,walking,2,2022-06-30T10:02:26.729+02:00,2022-06-30T08:20:05.567+02:00,1524,1.460561,0,0,1205.903,0,0,2022-06-30T10:02:26.728+02:00
207,2022-06-30T10:02:27.980+02:00,5594.99795025,-21.66759201049805,5.327271881103516,-10.362950134277344,5594.992974250001,1.986947943129587,0.5567005604977371,0.0735703199967581,-2.873308181762695,-10.47642612457275,-0.5382291078567505,-1.355571866035461,2.398135185241699,-3.544605255126953,XArbitraryZVertical,-0.210781691371202,0.1794932364003065,0.8106454996878517,0.5159527778280016,0.5269585251808167,-0.0735039710998535,-0.8467065095901489,0,0,0,-1,-1,5593.747569291667,walking,2,2022-06-30T10:02:26.729+02:00,2022-06-30T08:20:05.567+02:00,1524,1.460561,0,0,1205.903,0,0,2022-06-30T10:02:26.728+02:00
208,2022-06-30T10:02:27.990+02:00,5595.00790125,-34.21135711669922,-1.359023895263672,-28.137288208007813,5595.00292625,1.9888309908028,0.4773617210475446,0.077917409985001,3.219145059585571,-5.284024238586426,1.502914786338806,-2.666768550872803,0.6208840608596802,-0.1708507537841797,XArbitraryZVertical,-0.1774495162495077,0.1604805966040753,0.819071678381967,0.5214204981803554,0.4580434858798981,-0.0778385922312736,-0.8855152726173401,0,0,0,-1,-1,5593.747569291667,walking,2,2022-06-30T10:02:26.729+02:00,2022-06-30T08:20:05.567+02:00,1524,1.460561,0,0,1205.903,0,0,2022-06-30T10:02:26.728+02:00
209,2022-06-30T10:02:28.000+02:00,5595.01785325,-21.630020141601562,-8.131091308593751,-28.800558929443365,5595.01287725,1.999304489450903,0.4441107297500202,0.1192975121489488,2.914382934570312,-1.245366096496582,3.631346225738525,-3.913997650146484,-0.0195193812251091,-1.971650123596191,XArbitraryZVertical,-0.1535149999029873,0.167766521218927,0.8262649086239441,0.5153386866018904,0.4266012609004974,-0.1190147399902344,-0.8965750932693481,0,0,0,-1,-1,5593.747569291667,walking,2,2022-06-30T10:02:26.729+02:00,2022-06-30T08:20:05.567+02:00,1524,1.460561,0,0,1205.903,0,0,2022-06-30T10:02:26.728+02:00
210,2022-06-30T10:02:28.010+02:00,5595.02780425,-3.245101776123047,-20.992944946289064,-36.33678726196289,5595.02282825,2.01667817514715,0.4388565883731766,0.164053563807506,4.073201179504395,0.1196275353431702,3.418213367462158,-2.624094724655151,-0.6655383110046387,-2.042752981185913,XArbitraryZVertical,-0.140874178179256,0.1833372901911821,0.8323978602654869,0.5036425497718051,0.4191996455192566,-0.1633186787366867,-0.8930838108062744,0,0,0,-1,-1,5593.747569291667,walking,2,2022-06-30T10:02:26.729+02:00,2022-06-30T08:20:05.567+02:00,1524,1.460561,0,0,1205.903,0,0,2022-06-30T10:02:26.728+02:00
211,2022-06-30T10:02:28.020+02:00,5595.03775525,3.9761814880371094,-18.265616455078128,-30.086684417724616,5595.03277925,2.035248502129653,0.4284091001714102,0.215043947937848,3.040299654006958,-1.622146368026733,4.152721881866455,-0.7366510629653931,-1.926562786102295,-2.815379619598389,XArbitraryZVertical,-0.124729986949014,0.2002604634478789,0.8386002276158964,0.491006931305112,0.4058557450771332,-0.2133903652429581,-0.8886763453483582,0,0,0,-1,-1,5593.747569291667,walking,2,2022-06-30T10:02:26.729+02:00,2022-06-30T08:20:05.567+02:00,1524,1.460561,0,0,1205.903,0,0,2022-06-30T10:02:26.728+02:00
212,2022-06-30T10:02:28.030+02:00,5595.04770625,-1.2250524902343751,-13.753249969482427,-25.046066436767575,5595.042731250001,2.06611564239383,0.3993616946248087,0.2439216803208126,0.0191663224250078,-2.573027372360229,3.436972379684448,0.0279988944530487,-1.620427966117859,-2.172903299331665,XArbitraryZVertical,-0.1080220291010516,0.2032552700782784,0.8479106995512052,0.4775626394653896,0.3773203194141388,-0.2415100634098053,-0.8940370678901672,0,0,0,-1,-1,5593.747569291667,walking,2,2022-06-30T10:02:26.729+02:00,2022-06-30T08:20:05.567+02:00,1524,1.460561,0,0,1205.903,0,0,2022-06-30T10:02:26.728+02:00
213,2022-06-30T10:02:28.040+02:00,5595.057658250001,-6.5325654602050784,-12.996423797607427,-24.337290344238284,5595.052682250001,2.091998055735146,0.3664057014804732,0.2505601843383523,-0.3920946717262268,-2.785607576370239,1.827088594436646,-0.4719527363777161,-1.154015183448792,-1.648648500442505,XArbitraryZVertical,-0.0948690823670378,0.1968910742812527,0.8556792922257455,0.4690913940603955,0.3470748364925385,-0.2479466944932938,-0.904467523097992,0,0,0,-1,-1,5593.747569291667,walking,2,2022-06-30T10:02:26.729+02:00,2022-06-30T08:20:05.567+02:00,1524,1.460561,0,0,1205.903,0,0,2022-06-30T10:02:26.728+02:00
214,2022-06-30T10:02:28.050+02:00,5595.067609250001,-11.094029846191408,-13.502820739746095,-20.265757141113284,5595.062633250001,2.107601779055301,0.3343422350386411,0.2541928868221177,-0.0306107532232999,-2.805601596832275,1.421660423278809,-0.9835121631622314,-1.073349118232727,-1.566593289375305,XArbitraryZVertical,-0.0817029394433641,0.1902327277477886,0.8607002536905454,0.4651142408227953,0.3176033794879913,-0.251464307308197,-0.9142722487449646,0,0,0,-1,-1,5593.747569291667,walking,2,2022-06-30T10:02:26.729+02:00,2022-06-30T08:20:05.567+02:00,1524,1.460561,0,0,1205.903,0,0,2022-06-30T10:02:26.728+02:00
215,2022-06-30T10:02:28.060+02:00,5595.077560250001,-11.975995788574219,-16.468753051757812,-18.261724548339846,5595.07258525,2.123481646837194,0.3063580013497341,0.257597804509505,-0.3625101149082184,-1.886264443397522,1.787363290786743,-1.422527074813843,-1.121675610542297,-1.143847227096558,XArbitraryZVertical,-0.0702665031064977,0.1845885946734127,0.8653837932626095,0.4605437791208087,0.2916372418403625,-0.254758358001709,-0.9219793677330016,0,0,0,-1,-1,5593.747569291667,walking,2,2022-06-30T10:02:26.729+02:00,2022-06-30T08:20:05.567+02:00,1524,1.460561,0,0,1205.903,0,0,2022-06-30T10:02:26.728+02:00
216,2022-06-30T10:02:28.069+02:00,5595.08751225,-5.425467681884766,-16.262631683349614,-17.36957977294922,5595.08253625,2.146552990244892,0.2866589868344969,0.2564353566172908,-1.230728030204773,-1.001387596130371,2.408798456192017,-1.494297981262207,-1.425137519836426,-0.9337133765220642,XArbitraryZVertical,-0.0640940193514549,0.1788231309910362,0.8713350630089033,0.4524262839009132,0.273503303527832,-0.2536340951919556,-0.9278284907341005,0,0,0,-1,-1,5593.747569291667,walking,2,2022-06-30T10:02:26.729+02:00,2022-06-30T08:20:05.567+02:00,1524,1.460561,0,0,1205.903,0,0,2022-06-30T10:02:26.728+02:00
217,2022-06-30T10:02:28.080+02:00,5595.09746325,0.31569351196289064,-12.037068786621095,-17.156273345947262,5595.09248725,2.17586307779173,0.2702061220294757,0.2471821208531317,-2.067817449569702,-0.9078834056854248,2.473176240921021,-0.8118717074394226,-1.413087487220764,-0.8361750245094299,XArbitraryZVertical,-0.0616648828953011,0.1702504425329463,0.8786134364124735,0.4418718374127365,0.2588169276714325,-0.2446727007627487,-0.9344244599342346,0,0,0,-1,-1,5593.747569291667,walking,2,2022-06-30T10:02:26.729+02:00,2022-06-30T08:20:05.567+02:00,1524,1.460561,0,0,1205.903,0,0,2022-06-30T10:02:26.728+02:00
218,2022-06-30T10:02:28.090+02:00,5595.10741425,1.6754658508300782,-8.920100555419923,-18.755248260498053,5595.10243925,2.204174305510798,0.2531470624968097,0.2312284402948784,-2.330922603607178,-1.167377591133118,1.955378174781799,-0.2116054892539978,-0.9978464245796204,-0.806492805480957,XArbitraryZVertical,-0.0601758701715157,0.1587370001457565,0.8856851368551182,0.4321380064520401,0.2437863349914551,-0.2291734367609024,-0.9423628449440002,0,0,0,-1,-1,5593.747569291667,walking,2,2022-06-30T10:02:26.729+02:00,2022-06-30T08:20:05.567+02:00,1524,1.460561,0,0,1205.903,0,0,2022-06-30T10:02:26.728+02:00
219,2022-06-30T10:02:28.099+02:00,5595.11736625,0.22602996826171876,-7.308701477050781,-19.897822265625003,5595.11239025,2.223187991573332,0.2369360270576948,0.2154529014057431,-1.585750102996826,-1.217562913894653,0.8672565817832947,-0.0585067570209503,-0.6954962015151978,-0.9622626900672911,XArbitraryZVertical,-0.0580114642391898,0.1477870064935591,0.8905958476490394,0.4261839353711311,0.2292984277009964,-0.2137898802757263,-0.949587345123291,0,0,0,-1,-1,5593.747569291667,walking,2,2022-06-30T10:02:26.729+02:00,2022-06-30T08:20:05.567+02:00,1524,1.460561,0,0,1205.903,0,0,2022-06-30T10:02:26.728+02:00
220,2022-06-30T10:02:28.109+02:00,5595.12731725,-1.3742921447753906,-5.181624755859375,-18.437908172607425,5595.12234125,2.23057877034897,0.2236986223438364,0.2045743695800933,-0.9271255731582642,-1.110084414482117,0.1455473601818085,-0.1941709071397781,-0.5418747663497925,-1.073569655418396,XArbitraryZVertical,-0.0550729129501308,0.1399700228021283,0.8927758630941138,0.4246487972330016,0.2172117382287979,-0.2031504213809967,-0.9547507166862488,0,0,0,-1,-1,5593.747569291667,walking,2,2022-06-30T10:02:26.729+02:00,2022-06-30T08:20:05.567+02:00,1524,1.460561,0,0,1205.903,0,0,2022-06-30T10:02:26.728+02:00
221,2022-06-30T10:02:28.119+02:00,5595.13726825,-3.0252090454101563,-4.212689666748047,-16.116535491943363,5595.13229225,2.232658426897058,0.2134121145024817,0.1976498487918819,-0.5478280186653137,-0.8763788342475891,-0.0145394131541252,-0.3477632403373718,-0.3318323493003845,-0.921214997768402,XArbitraryZVertical,-0.0521605234940756,0.1346702799297415,0.893638613327596,0.4249156434692621,0.2076723277568817,-0.1963654756546021,-0.9582864046096802,0,0,0,-1,-1,5593.747569291667,walking,2,2022-06-30T10:02:26.729+02:00,2022-06-30T08:20:05.567+02:00,1524,1.460561,0,0,1205.903,0,0,2022-06-30T10:02:26.728+02:00
222,2022-06-30T10:02:28.129+02:00,5595.14721925,-2.852019195556641,-3.1621742248535156,-13.805341644287115,5595.142244250001,2.233912253287896,0.20546531939506,0.193162076828125,-0.4165922105312347,-0.6990280151367188,0.1159839779138565,-0.5086084008216858,-0.2374645620584488,-0.6821086406707764,XArbitraryZVertical,-0.0496867790801109,0.1309636645067521,0.8942006576539001,0.4251882711915516,0.2002283334732056,-0.1919631212949753,-0.960759460926056,0,0,0,-1,-1,5593.747569291667,walking,2,2022-06-30T10:02:26.729+02:00,2022-06-30T08:20:05.567+02:00,1524,1.460561,0,0,1205.903,0,0,2022-06-30T10:02:26.728+02:00
223,2022-06-30T10:02:28.139+02:00,5595.15717125,-1.6862434387207033,-2.4034020996093752,-12.321177978515626,5595.152195250001,2.237656204666338,0.1974545451540739,0.1894049710630225,-0.4858837425708771,-0.8013580441474915,0.4505820870399475,-0.4833913445472717,-0.1340669691562653,-0.4442393779754639,XArbitraryZVertical,-0.0471752837183878,0.1275067590982497,0.8952679110216809,0.4242780956635802,0.1926656812429428,-0.188274547457695,-0.9630330204963684,0,0,0,-1,-1,5593.747569291667,walking,2,2022-06-30T10:02:26.729+02:00,2022-06-30T08:20:05.567+02:00,1524,1.460561,0,0,1205.903,0,0,2022-06-30T10:02:26.728+02:00
224,2022-06-30T10:02:28.149+02:00,5595.16712225,-0.9919871520996094,-2.9940737915039066,-11.820768585205075,5595.162146250001,2.243819818313174,0.187114988550862,0.1853534355644511,-0.5380560755729675,-1.054876804351807,0.5470879077911377,-0.3547288179397583,-0.06070077419281,-0.2902663350105286,XArbitraryZVertical,-0.0438196868135898,0.1233784788226896,0.8968933977665592,0.4224215437939764,0.1828386336565018,-0.1842939257621765,-0.9657151699066162,0,0,0,-1,-1,5593.747569291667,walking,2,2022-06-30T10:02:26.729+02:00,2022-06-30T08:20:05.567+02:00,1524,1.460561,0,0,1205.903,0,0,2022-06-30T10:02:26.728+02:00
225,2022-06-30T10:02:28.159+02:00,5595.17707325,-0.8056246948242188,-4.11509262084961,-12.067156219482428,5595.17209825,2.24959944870196,0.1741101418639183,0.1805216033592478,-0.6483733057975769,-1.348611950874329,0.3949298858642578,-0.2715367674827576,-0.1256631463766098,-0.2360944151878357,XArbitraryZVertical,-0.039386407878732,0.1183648639966277,0.8984867235213733,0.420903989816186,0.1704168170690536,-0.1795427203178406,-0.9688769578933716,0,0,0,-1,-1,5593.747569291667,walking,2,2022-06-30T10:02:26.729+02:00,2022-06-30T08:20:05.567+02:00,1524,1.460561,0,0,1205.903,0,0,2022-06-30T10:02:26.728+02:00
