,loggingTime(txt),accelerometerTimestamp_sinceReboot(s),accelerometerAccelerationX(G),accelerometerAccelerationY(G),accelerometerAccelerationZ(G),motionTimestamp_sinceReboot(s),motionYaw(rad),motionRoll(rad),motionPitch(rad),motionRotationRateX(rad/s),motionRotationRateY(rad/s),motionRotationRateZ(rad/s),motionUserAccelerationX(G),motionUserAccelerationY(G),motionUserAccelerationZ(G),motionAttitudeReferenceFrame(txt),motionQuaternionX(R),motionQuaternionY(R),motionQuaternionZ(R),motionQuaternionW(R),motionGravityX(G),motionGravityY(G),motionGravityZ(G),motionMagneticFieldX(µT),motionMagneticFieldY(µT),motionMagneticFieldZ(µT),motionHeading(°),motionMagneticFieldCalibrationAccuracy(Z),activityTimestamp_sinceReboot(s),activity(txt),activityActivityConfidence(Z),activityActivityStartDate(txt),pedometerStartDate(txt),pedometerNumberofSteps(N),pedometerAverageActivePace(s/m),pedometerCurrentPace(s/m),pedometerCurrentCadence(steps/s),pedometerDistance(m),pedometerFloorAscended(N),pedometerFloorDescended(N),pedometerEndDate(txt)
254,2022-06-30T10:05:13.218+02:00,5745.820482791667,12.106224975585938,-0.3945794677734375,4.2010139465332035,5745.810531791667,-1.778396949886269,1.292354686812935,-0.2710114234581064,-0.50807785987854,7.904398918151855,0.1270434111356735,0.1064152121543884,-0.2616791427135468,0.402399092912674,XArbitraryZVertical,0.3953618106017698,0.459647996111072,-0.6655703340947529,0.4352343231710776,0.9263913631439208,0.2677060663700104,-0.2648255228996277,0,0,0,-1,-1,5745.086017250001,unknown,2,2022-06-30T10:05:12.483+02:00,2022-06-30T08:20:05.567+02:00,1540,1.498269,0,0,1217.191,0,0,2022-06-30T10:05:12.482+02:00
255,2022-06-30T10:05:13.228+02:00,5745.830434791667,11.97674423217774,-1.4581178283691407,5.366640014648437,5745.820482791667,-1.770215389302482,1.375368643834855,-0.2698439144565357,-0.9277700185775756,8.33407974243164,0.4609821140766144,0.1874686479568481,-0.2581584453582764,0.4963787198066711,XArbitraryZVertical,0.4210047230451981,0.4787228030345311,-0.6466998021039175,0.4187588190027439,0.945466160774231,0.2665809988975525,-0.18715900182724,0,0,0,-1,-1,5745.086017250001,unknown,2,2022-06-30T10:05:12.483+02:00,2022-06-30T08:20:05.567+02:00,1540,1.498269,0,0,1217.191,0,0,2022-06-30T10:05:12.482+02:00
256,2022-06-30T10:05:13.238+02:00,5745.840385791667,10.389445037841801,-1.6642391967773438,6.873556365966797,5745.830434791667,-1.758923782337377,1.463136917958387,-0.2651031442757542,-1.121359944343567,8.710004806518555,0.807508647441864,0.274591863155365,-0.3022313117980957,0.5319360494613647,XArbitraryZVertical,0.4474363386929768,0.4979476145531497,-0.624534917763777,0.4022500000106676,0.9594780802726746,0.2620088160037994,-0.1036977916955948,0,0,0,-1,-1,5745.086017250001,unknown,2,2022-06-30T10:05:12.483+02:00,2022-06-30T08:20:05.567+02:00,1540,1.498269,0,0,1217.191,0,0,2022-06-30T10:05:12.482+02:00
257,2022-06-30T10:05:13.248+02:00,5745.850336791667,7.470814361572266,-1.581760711669922,8.745413818359376,5745.840385791667,-1.745495685503712,1.555118961336005,-0.2558719232287725,-1.355804920196533,9.095950126647947,1.172502875328064,0.2535468935966492,-0.4017252624034882,0.5622247457504272,XArbitraryZVertical,0.4746198654896863,0.5168682767609843,-0.5990096987882233,0.3857078131632791,0.9673240780830384,0.253089040517807,-0.0151663357391953,0,0,0,-1,-1,5745.086017250001,unknown,2,2022-06-30T10:05:12.483+02:00,2022-06-30T08:20:05.567+02:00,1540,1.498269,0,0,1217.191,0,0,2022-06-30T10:05:12.482+02:00
258,2022-06-30T10:05:13.258+02:00,5745.860288791667,5.231920166015625,-0.24189697265625001,10.999127197265626,5745.850336791667,-1.732200414799216,1.651308372930999,-0.2426667338241298,-1.266063094139099,9.590243339538574,1.37506103515625,0.0915105938911438,-0.4099396467208862,0.6226000785827637,XArbitraryZVertical,0.502640117007228,0.5351516211278627,-0.57039525835433,0.3682593210087679,0.9675562381744384,0.2402920722961426,0.0780686885118484,0,0,0,-1,-1,5745.086017250001,unknown,2,2022-06-30T10:05:12.483+02:00,2022-06-30T08:20:05.567+02:00,1540,1.498269,0,0,1217.191,0,0,2022-06-30T10:05:12.482+02:00
259,2022-06-30T10:05:13.268+02:00,5745.870239791667,3.137625274658203,0.6102809143066407,13.293406219482426,5745.860288791667,-1.723596173395835,1.751168373843155,-0.227195050629047,-0.7631544470787048,10.07684516906738,1.449895858764648,-0.1969450712203979,-0.3864854574203491,0.7166943550109863,XArbitraryZVertical,0.5318306654792949,0.5518594969162194,-0.5397253356894692,0.3482871364501065,0.95849609375,0.2252455502748489,0.1747855246067047,0,0,0,-1,-1,5745.086017250001,unknown,2,2022-06-30T10:05:12.483+02:00,2022-06-30T08:20:05.567+02:00,1540,1.498269,0,0,1217.191,0,0,2022-06-30T10:05:12.482+02:00
260,2022-06-30T10:05:13.278+02:00,5745.880190791667,0.9078620910644531,0.8611592102050781,15.191459197998052,5745.870239791667,-1.72342952077415,1.853750787706233,-0.2130792216110185,0.1125128492712975,10.52361392974854,1.260979533195496,-0.4051933288574219,-0.2361289858818054,0.8483364582061768,XArbitraryZVertical,0.5619676797206999,0.566243948452683,-0.5084227657953739,0.3241397692177908,0.9385187029838562,0.2114704847335815,0.2728797495365143,0,0,0,-1,-1,5745.086017250001,unknown,2,2022-06-30T10:05:12.483+02:00,2022-06-30T08:20:05.567+02:00,1540,1.498269,0,0,1217.191,0,0,2022-06-30T10:05:12.482+02:00
261,2022-06-30T10:05:13.288+02:00,5745.890142791667,-2.1356089782714847,2.123035125732422,17.6179133605957,5745.880190791667,-1.732053078773359,1.958526096543503,-0.2051528823161756,0.9030233025550842,10.88733863830566,0.7590835690498352,-0.5865169167518616,-0.141507089138031,0.9849285483360292,XArbitraryZVertical,0.5920110135505074,0.578448370512949,-0.4776179198000271,0.2946210190786099,0.9063562154769896,0.2037168443202972,0.3701591193675995,0,0,0,-1,-1,5745.086017250001,unknown,2,2022-06-30T10:05:12.483+02:00,2022-06-30T08:20:05.567+02:00,1540,1.498269,0,0,1217.191,0,0,2022-06-30T10:05:12.482+02:00
262,2022-06-30T10:05:13.298+02:00,5745.900093791667,-6.058501281738281,4.277804260253906,22.385199737548824,5745.890142791667,-1.742723347792327,2.066150528341963,-0.206134387915646,0.9666438102722168,11.18417358398438,-0.096910186111927,-0.7686300873756409,-0.1168941408395767,1.08328902721405,XArbitraryZVertical,0.619806622180124,0.5903217969717044,-0.4467319815903864,0.2603663603187484,0.8611747622489929,0.2046776562929153,0.465280145406723,0,0,0,-1,-1,5745.086017250001,unknown,2,2022-06-30T10:05:12.483+02:00,2022-06-30T08:20:05.567+02:00,1540,1.498269,0,0,1217.191,0,0,2022-06-30T10:05:12.482+02:00
263,2022-06-30T10:05:13.308+02:00,5745.910044791667,-9.75296859741211,7.061116333007813,28.966414031982428,5745.900093791667,-1.744014718910095,2.17901202412295,-0.2136668446357453,-0.0646162554621696,11.56981945037842,-1.067378163337708,-1.019704103469849,0.0043703615665435,1.23750376701355,XArbitraryZVertical,0.6430228244805556,0.6047535589506977,-0.4132054374210741,0.2237324469581492,0.8020070195198059,0.2120447754859924,0.5584104657173157,0,0,0,-1,-1,5745.086017250001,unknown,2,2022-06-30T10:05:12.483+02:00,2022-06-30T08:20:05.567+02:00,1540,1.498269,0,0,1217.191,0,0,2022-06-30T10:05:12.482+02:00
264,2022-06-30T10:05:13.317+02:00,5745.919996791667,-12.204420776367188,12.125684509277344,38.47883285522462,5745.910044791667,-1.72603324773776,2.299014414162753,-0.2192803671417765,-2.088403463363647,11.76384735107422,-2.068033456802368,-1.346073746681213,0.2185381054878235,1.632272005081177,XArbitraryZVertical,0.6601166569504647,0.6237371095021266,-0.3737671981314287,0.1884043238389531,0.7284894585609436,0.2175272852182388,0.6496039628982544,0,0,0,-1,-1,5745.086017250001,unknown,2,2022-06-30T10:05:12.483+02:00,2022-06-30T08:20:05.567+02:00,1540,1.498269,0,0,1217.191,0,0,2022-06-30T10:05:12.482+02:00
265,2022-06-30T10:05:13.328+02:00,5745.929947791667,-16.7603466796875,14.684762878417969,47.56463882446288,5745.919996791667,-1.683391930638789,2.425970267532596,-0.2099356268072202,-5.324291706085205,11.78754043579102,-2.552921533584595,-1.635869026184082,0.5113903284072876,2.214628219604492,XArbitraryZVertical,0.6702500260105804,0.6479371833020441,-0.325131322103668,0.1588455034608784,0.6416823863983154,0.2083969414234161,0.7381153702735901,0,0,0,-1,-1,5745.086017250001,unknown,2,2022-06-30T10:05:12.483+02:00,2022-06-30T08:20:05.567+02:00,1540,1.498269,0,0,1217.191,0,0,2022-06-30T10:05:12.482+02:00
266,2022-06-30T10:05:13.337+02:00,5745.939898791667,-17.770745544433595,15.536641387939449,53.11180343627931,5745.929947791667,-1.617164574918261,2.55509643163624,-0.171350905215073,-8.721659660339355,11.6878662109375,-3.110794544219971,-1.789421081542969,1.065539479255676,3.10172176361084,XArbitraryZVertical,0.6728107668976544,0.6765127597549784,-0.2648812715114583,0.1396213492333213,0.5453411936759949,0.1705136299133301,0.8206877112388611,0,0,0,-1,-1,5745.086017250001,unknown,2,2022-06-30T10:05:12.483+02:00,2022-06-30T08:20:05.567+02:00,1540,1.498269,0,0,1217.191,0,0,2022-06-30T10:05:12.482+02:00
267,2022-06-30T10:05:13.347+02:00,5745.949850791667,-16.017291870117187,14.411131896972657,54.290003356933596,5745.939898791667,-1.539217467522417,2.682076911264925,-0.0995402639768325,-11.27572536468506,11.65573787689209,-3.182198286056519,-2.149815082550049,1.397541403770447,3.956756353378296,XArbitraryZVertical,0.6685922589088593,0.7063283758554765,-0.1930692405237755,0.1296489729045338,0.441318690776825,0.0993759632110595,0.8918307423591614,0,0,0,-1,-1,5745.086017250001,unknown,2,2022-06-30T10:05:12.483+02:00,2022-06-30T08:20:05.567+02:00,1540,1.498269,0,0,1217.191,0,0,2022-06-30T10:05:12.482+02:00
268,2022-06-30T10:05:13.357+02:00,5745.959801791667,-18.70764724731445,10.22598495483399,57.61324264526368,5745.949850791667,-1.464850788287413,2.79955120340582,-0.0032636505516085,-12.1859884262085,11.08979034423828,-3.027206897735596,-2.146902322769165,1.580491423606873,4.471980571746826,XArbitraryZVertical,0.6587127098209037,0.7328922928074885,-0.1149961553247057,0.125468921927299,0.3354092836380005,0.0032636448740959,0.9420670866966248,0,0,0,-1,-1,5745.086017250001,unknown,2,2022-06-30T10:05:12.483+02:00,2022-06-30T08:20:05.567+02:00,1540,1.498269,0,0,1217.191,0,0,2022-06-30T10:05:12.482+02:00
269,2022-06-30T10:05:13.367+02:00,5745.969752791667,-23.21088272094726,5.415588226318359,64.40312301635744,5745.959801791667,-1.402196984770687,2.902796408290047,0.1041305859282898,-11.96048641204834,10.268235206604,-2.870435953140259,-1.868003606796265,1.572966814041138,4.567788600921631,XArbitraryZVertical,0.6443339168967738,0.7536670846308241,-0.0372479002434595,0.1242271530885003,0.2352520078420639,-0.1039425060153008,0.966360569000244,0,0,0,-1,-1,5745.086017250001,unknown,2,2022-06-30T10:05:12.483+02:00,2022-06-30T08:20:05.567+02:00,1540,1.498269,0,0,1217.191,0,0,2022-06-30T10:05:12.482+02:00
270,2022-06-30T10:05:13.377+02:00,5745.979703791667,-25.714426574707034,3.3808694458007813,71.75433609008789,5745.969752791667,-1.352097040705327,2.992506088698554,0.2096318287186761,-10.59067630767822,9.286189079284668,-2.868928194046021,-2.052280902862549,1.250503540039062,4.905652046203613,XArbitraryZVertical,0.626631412406857,0.7687405508461531,0.035041551478456,0.1230580502390843,0.1452831476926804,-0.2080997973680496,0.9672579169273376,0,0,0,-1,-1,5745.086017250001,unknown,2,2022-06-30T10:05:12.483+02:00,2022-06-30T08:20:05.567+02:00,1540,1.498269,0,0,1217.191,0,0,2022-06-30T10:05:12.482+02:00
271,2022-06-30T10:05:13.387+02:00,5745.989655791667,-26.76434326171875,4.073329467773438,78.49257385253907,5745.979703791667,-1.308476502758528,3.067204349051251,0.3003775732001879,-8.406046867370605,7.910782814025879,-3.62974739074707,-2.437035322189331,0.8479281663894653,5.612464904785156,XArbitraryZVertical,0.6057032045916168,0.7806506484590592,0.0962721817823965,0.1201669494777358,0.070992074906826,-0.2958808839321136,0.9525836110115052,0,0,0,-1,-1,5745.086017250001,unknown,2,2022-06-30T10:05:12.483+02:00,2022-06-30T08:20:05.567+02:00,1540,1.498269,0,0,1217.191,0,0,2022-06-30T10:05:12.482+02:00
272,2022-06-30T10:05:13.397+02:00,5745.999606791667,-27.109076385498053,6.283932495117188,81.57256896972656,5745.989655791667,-1.260057871869156,3.12152631588397,0.3726009638666525,-6.574348926544189,6.234007358551025,-4.886209487915039,-2.639934778213501,0.7086737155914307,6.383211135864258,XArbitraryZVertical,0.5804457089174478,0.7928940761510517,0.1438470926214183,0.1170894525468511,0.0186882112175226,-0.3640391528606415,0.9311964511871338,0,0,0,-1,-1,5745.086017250001,unknown,2,2022-06-30T10:05:12.483+02:00,2022-06-30T08:20:05.567+02:00,1540,1.498269,0,0,1217.191,0,0,2022-06-30T10:05:12.482+02:00
273,2022-06-30T10:05:13.407+02:00,5746.009557791667,-27.912904815673826,4.50024169921875,79.70415435791016,5745.999606791667,-1.19809319221404,-3.134301410644006,0.4358080642448522,-5.612039089202881,4.47083854675293,-6.412117481231689,-2.721661806106567,0.8373647332191467,7.094776153564453,XArbitraryZVertical,0.5498671172593123,0.8067830693127769,0.1805461969577876,0.1189558704132324,-0.0066096694208681,-0.4221430718898773,0.906505525112152,0,0,0,-1,-1,5745.086017250001,unknown,2,2022-06-30T10:05:12.483+02:00,2022-06-30T08:20:05.567+02:00,1540,1.498269,0,0,1217.191,0,0,2022-06-30T10:05:12.482+02:00
274,2022-06-30T10:05:13.417+02:00,5746.019509791667,-30.566586456298825,3.1558872985839845,76.04336700439454,5746.009557791667,-1.115763815144716,-3.136718484818541,0.4886151579107199,-4.769052505493164,2.4234299659729,-8.539388656616211,-2.759108781814575,1.109966993331909,7.432272911071777,XArbitraryZVertical,0.5131685480798353,0.8234955558350386,0.2064608182863944,0.1260447600115093,-0.004303797148168,-0.4694035351276398,0.8829737901687622,0,0,0,-1,-1,5745.086017250001,unknown,2,2022-06-30T10:05:12.483+02:00,2022-06-30T08:20:05.567+02:00,1540,1.498269,0,0,1217.191,0,0,2022-06-30T10:05:12.482+02:00
275,2022-06-30T10:05:13.427+02:00,5746.029460791667,-37.222046356201176,4.194727020263672,74.95213623046875,5746.019509791667,-1.004328632378823,3.10496003571284,0.5276634058433491,-3.244474411010742,0.1350344121456146,-10.92416858673096,-2.876995086669922,0.962255835533142,7.261379718780518,XArbitraryZVertical,0.4687776166075778,0.843771685617746,0.220037348318499,0.1409979484889048,0.031642984598875,-0.5035159587860107,0.863406240940094,0,0,0,-1,-1,5745.086017250001,unknown,2,2022-06-30T10:05:12.483+02:00,2022-06-30T08:20:05.567+02:00,1540,1.498269,0,0,1217.191,0,0,2022-06-30T10:05:12.482+02:00
276,2022-06-30T10:05:13.437+02:00,5746.039411791667,-44.445724639892575,8.76816650390625,75.8499691772461,5746.029460791667,-0.8612954016249984,3.019391675255403,0.5406535249661581,-1.195184350013733,-2.73689603805542,-13.51250076293945,-3.220371246337891,0.836397111415863,6.900638580322266,XArbitraryZVertical,0.4163658063458107,0.8672536853638083,0.2176456361382515,0.1647451035584249,0.1045111939311028,-0.5146964192390442,0.8509788513183594,0,0,0,-1,-1,5745.086017250001,unknown,2,2022-06-30T10:05:12.483+02:00,2022-06-30T08:20:05.567+02:00,1540,1.498269,0,0,1217.191,0,0,2022-06-30T10:05:12.482+02:00
277,2022-06-30T10:05:13.447+02:00,5746.049363791667,-55.49619506835938,22.3408918762207,73.09255325317382,5746.039411791667,-0.6978291441996507,2.888554716293172,0.5163184678648909,0.5416386723518372,-7.129923343658447,-15.12193775177002,-4.012008190155029,0.9212785959243774,6.798430919647217,XArbitraryZVertical,0.3581799087690682,0.890326962074865,0.1962910593105717,0.2012332699631686,0.2177117913961411,-0.4936818778514862,0.8419498801231384,0,0,0,-1,-1,5745.086017250001,unknown,2,2022-06-30T10:05:12.483+02:00,2022-06-30T08:20:05.567+02:00,1540,1.498269,0,0,1217.191,0,0,2022-06-30T10:05:12.482+02:00
278,2022-06-30T10:05:13.457+02:00,5746.059314791667,-71.969588470459,31.781609802246095,54.775443878173824,5746.049363791667,-0.5337369820500896,2.71114659393686,0.4596426323553212,0.1935722827911377,-13.14065265655518,-16.06386184692383,-4.904622554779053,1.33742618560791,6.917444229125977,XArbitraryZVertical,0.29778288417214,0.9047401428695474,0.1598309972885209,0.2592775273817559,0.373967707157135,-0.4436278641223907,0.8144587278366089,0,0,0,-1,-1,5745.086017250001,unknown,2,2022-06-30T10:05:12.483+02:00,2022-06-30T08:20:05.567+02:00,1540,1.498269,0,0,1217.191,0,0,2022-06-30T10:05:12.482+02:00
279,2022-06-30T10:05:13.467+02:00,5746.069265791667,-93.88296936035157,39.729781494140624,15.304324493408199,5746.059314791667,-0.3805695385236653,2.485910541263461,0.3796354651657023,-0.6023233532905579,-19.44291114807129,-16.26099014282227,-6.223393440246582,2.647940635681152,6.714623928070068,XArbitraryZVertical,0.2355070115820521,0.901462551923105,0.1155978764314096,0.3442946341757407,0.5662892460823059,-0.3705819249153137,0.7361965775489807,0,0,0,-1,-1,5745.086017250001,unknown,2,2022-06-30T10:05:12.483+02:00,2022-06-30T08:20:05.567+02:00,1540,1.498269,0,0,1217.191,0,0,2022-06-30T10:05:12.482+02:00
280,2022-06-30T10:05:13.477+02:00,5746.079217791667,-133.43881256103512,81.83557205200195,-16.942068786621096,5746.069265791667,-0.27465079907257,2.227916860235508,0.2577409025482882,5.033543109893799,-25.63277626037598,-15.06717872619629,-8.101950645446777,3.494611978530884,4.99297046661377,XArbitraryZVertical,0.1779926248695038,0.8738706712197518,0.0543643454199517,0.4491251103143074,0.765601634979248,-0.2548967301845551,0.5906626582145691,0,0,0,-1,-1,5745.086017250001,unknown,2,2022-06-30T10:05:12.483+02:00,2022-06-30T08:20:05.567+02:00,1540,1.498269,0,0,1217.191,0,0,2022-06-30T10:05:12.482+02:00
281,2022-06-30T10:05:13.487+02:00,5746.089168791667,-132.1017929077149,140.66473617553714,-25.718168792724615,5746.079217791667,-0.3102629554560819,1.946400185097102,0.0962929448257999,18.25672721862793,-31.20444679260254,-10.11846733093262,-10.49610614776611,4.14607048034668,1.194938659667969,XArbitraryZVertical,0.1543382103366611,0.8116324451642405,-0.0475263199686412,0.5614034592659108,0.9259767532348632,-0.0961442068219184,0.3651350140571594,0,0,0,-1,-1,5745.086017250001,unknown,2,2022-06-30T10:05:12.483+02:00,2022-06-30T08:20:05.567+02:00,1540,1.498269,0,0,1217.191,0,0,2022-06-30T10:05:12.482+02:00
282,2022-06-30T10:05:13.497+02:00,5746.099119791667,-158.22157653808594,154.139415435791,-5.379962310791016,5746.089168791667,-0.5498039313703673,1.619565693176713,-0.0125677143749751,33.75541305541992,-34.82572937011719,0.092615470290184,-14.60105800628662,8.329488754272461,-1.775766611099243,XArbitraryZVertical,0.1923941482052539,0.6981100091336485,-0.1915846148741775,0.662512070454272,0.9987321496009828,0.012567383237183,0.0487461872398853,0,0,0,-1,-1,5745.086017250001,unknown,2,2022-06-30T10:05:12.483+02:00,2022-06-30T08:20:05.567+02:00,1540,1.498269,0,0,1217.191,0,0,2022-06-30T10:05:12.482+02:00
283,2022-06-30T10:05:13.507+02:00,5746.109071791667,-223.48885253906252,153.63691040039063,95.0203042602539,5746.099119791667,-0.878198358100012,1.292439015798561,0.1016964573492924,34.83586502075195,-30.32496452331543,14.43204784393311,-14.42257404327393,14.44043350219727,-2.348270893096924,XArbitraryZVertical,0.2923958622965629,0.5270922321109305,-0.3112633334384527,0.7347064033762758,0.9565402865409852,-0.1015212535858154,-0.2733568847179413,0,0,0,-1,-1,5745.086017250001,unknown,2,2022-06-30T10:05:12.483+02:00,2022-06-30T08:20:05.567+02:00,1540,1.498269,0,0,1217.191,0,0,2022-06-30T10:05:12.482+02:00
284,2022-06-30T10:05:13.516+02:00,5746.119022791667,-285.3490635681153,-125.76067932128908,53.97670486450195,5746.109071791667,-1.121798610792701,1.09767856060205,0.3686893390462477,26.31270027160645,-17.04145050048828,14.71663379669189,-16.95893478393555,16.07287216186523,-0.1233725547790527,XArbitraryZVertical,0.4052334236148183,0.3510899446794048,-0.3651559214488661,0.7610407548434506,0.8303343057632446,-0.3603931665420532,-0.4250434339046478,0,0,0,-1,-1,5745.086017250001,unknown,2,2022-06-30T10:05:12.483+02:00,2022-06-30T08:20:05.567+02:00,1540,1.498269,0,0,1217.191,0,0,2022-06-30T10:05:12.482+02:00
285,2022-06-30T10:05:13.527+02:00,5746.128973791667,-89.95109573364259,-211.03564910888676,5.500012664794922,5746.119022791667,-1.234295694530088,1.097832929850614,0.5516604352972687,6.948890686035156,5.979798793792725,9.233431816101074,-23.53990173339844,16.18535614013672,10.07401752471924,XArbitraryZVertical,0.4800136662566188,0.274974754201147,-0.3591441410591463,0.7516590298364925,0.7581626772880554,-0.5241020917892456,-0.387951523065567,0,0,0,-1,-1,5745.086017250001,unknown,2,2022-06-30T10:05:12.483+02:00,2022-06-30T08:20:05.567+02:00,1540,1.498269,0,0,1217.191,0,0,2022-06-30T10:05:12.482+02:00
286,2022-06-30T10:05:13.536+02:00,5746.138925791667,14.267730102539064,-119.10087844848631,44.90691558837891,5746.128973791667,-1.159690636941903,1.133800800269061,0.5958331528628223,-10.43589782714844,5.274029731750488,4.502701282501221,-29.83747291564941,-12.25844287872314,5.852503299713135,XArbitraryZVertical,0.4884088726117268,0.2937881069135574,-0.3099620625750649,0.7609657717291297,0.7499018311500549,-0.5611985325813293,-0.3502906560897827,0,0,0,-1,-1,5745.086017250001,unknown,2,2022-06-30T10:05:12.483+02:00,2022-06-30T08:20:05.567+02:00,1540,1.498269,0,0,1217.191,0,0,2022-06-30T10:05:12.482+02:00
287,2022-06-30T10:05:13.546+02:00,5746.148876791667,-34.22737380981445,4.817881164550782,56.67080245971681,5746.138925791667,-0.9336560394905152,1.025269152181053,0.547538003677753,-26.43044281005859,-1.20945930480957,4.365725994110107,-9.899209022521973,-20.99171257019043,1.003668665885925,XArbitraryZVertical,0.4229187979995704,0.3156458163953272,-0.259180556445836,0.8089085358721145,0.7298818230628967,-0.5205867290496826,-0.4430148303508759,0,0,0,-1,-1,5745.086017250001,unknown,2,2022-06-30T10:05:12.483+02:00,2022-06-30T08:20:05.567+02:00,1540,1.498269,0,0,1217.191,0,0,2022-06-30T10:05:12.482+02:00
288,2022-06-30T10:05:13.557+02:00,5746.158827791667,-59.690173645019534,49.03413299560547,11.395951995849614,5746.148876791667,-0.6679875797691396,0.8864912713689718,0.4112050860556714,-27.83713912963867,-1.03218412399292,1.290819406509399,0.7441403865814209,-11.74104881286621,5.157107353210449,XArbitraryZVertical,0.3118684975469622,0.3361816750512874,-0.2071833255572396,0.8641730839952774,0.7102662324905396,-0.3997142612934113,-0.5794398188591003,0,0,0,-1,-1,5745.086017250001,unknown,2,2022-06-30T10:05:12.483+02:00,2022-06-30T08:20:05.567+02:00,1540,1.498269,0,0,1217.191,0,0,2022-06-30T10:05:12.482+02:00
289,2022-06-30T10:05:13.566+02:00,5746.168779791667,-15.735128631591802,37.742064971923824,-35.26247131347657,5746.158827791667,-0.4681726439158209,0.8204192732715594,0.2447240056077719,-22.27097511291504,-1.360270380973816,-1.92310643196106,-4.198667526245117,0.7334075570106506,6.438436508178711,XArbitraryZVertical,0.2006901032978217,0.3590616535765569,-0.163771426073811,0.89664770531236,0.709638237953186,-0.2422885596752167,-0.661596417427063,0,0,0,-1,-1,5745.086017250001,unknown,2,2022-06-30T10:05:12.483+02:00,2022-06-30T08:20:05.567+02:00,1540,1.498269,0,0,1217.191,0,0,2022-06-30T10:05:12.482+02:00
290,2022-06-30T10:05:13.576+02:00,5746.178730791667,-17.97372344970703,37.88861022949219,-24.70312957763672,5746.168779791667,-0.3480205273919313,0.7502991995434973,0.1232926004364886,-12.51710796356201,-7.623791694641113,1.172299027442932,-6.761307239532471,5.121362686157227,1.887598991394043,XArbitraryZVertical,0.119774595734976,0.3502683421606679,-0.138553763181675,0.9185690301310984,0.6766817569732666,-0.1229804754257202,-0.725932240486145,0,0,0,-1,-1,5745.086017250001,unknown,2,2022-06-30T10:05:12.483+02:00,2022-06-30T08:20:05.567+02:00,1540,1.498269,0,0,1217.191,0,0,2022-06-30T10:05:12.482+02:00
291,2022-06-30T10:05:13.586+02:00,5746.188681791667,-29.773984680175783,34.40116241455078,-21.78674423217774,5746.178730791667,-0.2844409199624535,0.6566846123310938,0.0611270547532425,-5.033029556274414,-9.965330123901367,0.511778712272644,-2.213343143463135,3.908393859863281,-2.804002285003662,XArbitraryZVertical,0.0743208551209429,0.3149693843147388,-0.1243518259705655,0.937980535353251,0.6093541979789734,-0.0610889941453933,-0.790541410446167,0,0,0,-1,-1,5745.086017250001,unknown,2,2022-06-30T10:05:12.483+02:00,2022-06-30T08:20:05.567+02:00,1540,1.498269,0,0,1217.191,0,0,2022-06-30T10:05:12.482+02:00
292,2022-06-30T10:05:13.596+02:00,5746.198633791667,-48.766639251708995,16.97350341796875,-25.993596038818364,5746.188681791667,-0.2699369790492032,0.5488701072699201,0.0582624591986393,2.818904876708984,-11.2956600189209,1.492668628692627,-2.353022575378418,3.920472860336304,-1.666491031646729,XArbitraryZVertical,0.0642326007021131,0.2646519464213994,-0.1216469621571051,0.9544819293547406,0.5208383798599243,-0.0582295022904872,-0.851667046546936,0,0,0,-1,-1,5745.086017250001,unknown,2,2022-06-30T10:05:12.483+02:00,2022-06-30T08:20:05.567+02:00,1540,1.498269,0,0,1217.191,0,0,2022-06-30T10:05:12.482+02:00
293,2022-06-30T10:05:13.606+02:00,5746.208584791667,-50.490753936767575,-7.1861064147949225,-31.097532348632814,5746.198633791667,-0.2792446035329991,0.4409679017460907,0.1144487704845459,7.261453628540039,-10.36582851409912,2.203366994857788,-3.459087610244751,3.620943069458008,-1.322448372840881,XArbitraryZVertical,0.0856522376308566,0.2084522742533008,-0.1231912396009133,0.966455023054812,0.4240227043628693,-0.1141990795731544,-0.8984226584434509,0,0,0,-1,-1,5745.086017250001,unknown,2,2022-06-30T10:05:12.483+02:00,2022-06-30T08:20:05.567+02:00,1540,1.498269,0,0,1217.191,0,0,2022-06-30T10:05:12.482+02:00
294,2022-06-30T10:05:13.616+02:00,5746.218535791667,-44.692261962890626,-22.030138092041014,-32.71177551269531,5746.208584791667,-0.2845798632628561,0.3477910844784809,0.189399690026346,6.534812927246094,-8.449751853942871,2.544772863388062,-5.305842399597168,1.918493628501892,-1.726387977600098,XArbitraryZVertical,0.1166171721563061,0.1572973379520879,-0.1228505060172635,0.9729161879636464,0.3347271978855133,-0.1882693469524384,-0.9233159422874452,0,0,0,-1,-1,5745.086017250001,unknown,2,2022-06-30T10:05:12.483+02:00,2022-06-30T08:20:05.567+02:00,1540,1.498269,0,0,1217.191,0,0,2022-06-30T10:05:12.482+02:00
295,2022-06-30T10:05:13.626+02:00,5746.228487791667,-35.892960205078126,-25.02585845947266,-29.65273681640625,5746.218535791667,-0.2747523213103872,0.2709226619990939,0.2433126591397894,3.034781455993652,-6.634599208831787,2.592015266418457,-5.406603813171387,-0.4916099905967712,-2.234838962554932,XArbitraryZVertical,0.1374691840000849,0.1163195286856495,-0.1184525815047572,0.976494211342283,0.2597378492355347,-0.2409190237522125,-0.9351440072059632,0,0,0,-1,-1,5745.086017250001,unknown,2,2022-06-30T10:05:12.483+02:00,2022-06-30T08:20:05.567+02:00,1540,1.498269,0,0,1217.191,0,0,2022-06-30T10:05:12.482+02:00
296,2022-06-30T10:05:13.636+02:00,5746.238438791667,-26.795478515625,-15.00973709106445,-25.13737655639649,5746.228487791667,-0.2529785204689222,0.2034958276245777,0.259499311501044,-0.8392356634140015,-5.977845668792725,2.352190732955933,-4.751114368438721,-1.98908543586731,-2.38795804977417,XArbitraryZVertical,0.140394283931771,0.0836760992511967,-0.1114078277659686,0.980242914953564,0.1953278481960297,-0.2565966546535492,-0.9465755224227904,0,0,0,-1,-1,5745.086017250001,unknown,2,2022-06-30T10:05:12.483+02:00,2022-06-30T08:20:05.567+02:00,1540,1.498269,0,0,1217.191,0,0,2022-06-30T10:05:12.482+02:00
297,2022-06-30T10:05:13.646+02:00,5746.248389791667,-21.920565948486324,-3.896547088623047,-26.36287811279297,5746.238438791667,-0.2250900841878811,0.1368507629722088,0.2423042815126375,-3.18640923500061,-6.050803661346436,2.388001918792725,-3.791252613067627,-2.311115980148315,-2.060993671417236,XArbitraryZVertical,0.1274327694368232,0.0539001665593908,-0.1030126198370672,0.9850096853486068,0.1324387341737747,-0.2399402260780334,-0.9617113471031188,0,0,0,-1,-1,5745.086017250001,unknown,2,2022-06-30T10:05:12.483+02:00,2022-06-30T08:20:05.567+02:00,1540,1.498269,0,0,1217.191,0,0,2022-06-30T10:05:12.482+02:00
298,2022-06-30T10:05:13.656+02:00,5746.258341791667,-21.229303436279302,-1.8693127441406252,-32.53110122680664,5746.248389791667,-0.1981213385492444,0.0680839492017705,0.2090236340992983,-3.787742376327515,-6.567170143127441,2.205135107040405,-2.797996282577515,-1.322540044784546,-1.586456060409546,XArbitraryZVertical,0.107097771412516,0.0233724387246288,-0.0947688950070148,0.9894456354662592,0.0665505900979042,-0.2075048834085464,-0.9759675860404968,0,0,0,-1,-1,5745.086017250001,unknown,2,2022-06-30T10:05:12.483+02:00,2022-06-30T08:20:05.567+02:00,1540,1.498269,0,0,1217.191,0,0,2022-06-30T10:05:12.482+02:00
299,2022-06-30T10:05:13.666+02:00,5746.268292791667,-22.989493103027346,-4.919968872070313,-35.72291381835937,5746.258341791667,-0.1742023784499435,-0.0030616330247079,0.1759481430369954,-2.957333564758301,-6.724645137786865,2.310011148452759,-2.231498241424561,-0.2221601158380508,-1.702790975570679,XArbitraryZVertical,0.0873948123379606,-0.0091621999872594,-0.0867885721343474,0.9923436394926706,-0.0030143598560243,-0.1750417202711105,-0.9845563769340516,0,0,0,-1,-1,5745.086017250001,unknown,2,2022-06-30T10:05:12.483+02:00,2022-06-30T08:20:05.567+02:00,1540,1.498269,0,0,1217.191,0,0,2022-06-30T10:05:12.482+02:00
300,2022-06-30T10:05:13.676+02:00,5746.278243791667,-23.818020172119137,-13.192965087890625,-34.10582656860351,5746.268292791667,-0.1532866309578717,-0.0717926961576168,0.1489000185778503,-2.397700548171997,-6.351139545440674,1.906893372535706,-2.093110322952271,-0.0422016531229019,-2.329728841781616,XArbitraryZVertical,0.0713747969591903,-0.0413757356580636,-0.0789686138193274,0.9934574214563132,-0.0709373280405998,-0.1483504176139832,-0.9863873720169068,0,0,0,-1,-1,5745.086017250001,unknown,2,2022-06-30T10:05:12.483+02:00,2022-06-30T08:20:05.567+02:00,1540,1.498269,0,0,1217.191,0,0,2022-06-30T10:05:12.482+02:00
301,2022-06-30T10:05:13.686+02:00,5746.288195791667,-23.598576507568364,-16.92395645141601,-28.798163909912116,5746.278243791667,-0.1406626032862719,-0.1334226375650492,0.122790713970502,-2.729503870010376,-5.663488864898682,1.166605114936829,-2.211450099945068,-0.3790438175201416,-2.657829284667969,XArbitraryZVertical,0.0563932397362255,-0.0706739146672923,-0.0740649592281053,0.993146179984469,-0.1320255249738693,-0.1224823817610741,-0.9836500287055968,0,0,0,-1,-1,5745.086017250001,unknown,2,2022-06-30T10:05:12.483+02:00,2022-06-30T08:20:05.567+02:00,1540,1.498269,0,0,1217.191,0,0,2022-06-30T10:05:12.482+02:00
302,2022-06-30T10:05:13.696+02:00,5746.298146791667,-21.74273574829101,-13.82180740356445,-24.01995025634766,5746.288195791667,-0.1382295839915474,-0.186882487347991,0.0877318320733282,-4.222362041473389,-5.055730819702148,0.421888142824173,-2.24285101890564,-1.257229566574097,-2.497829437255859,XArbitraryZVertical,0.0371188605015612,-0.0960082009444545,-0.0727742034014336,0.9920225218795854,-0.1850820034742355,-0.0876193344593048,-0.9788092374801636,0,0,0,-1,-1,5745.086017250001,unknown,2,2022-06-30T10:05:12.483+02:00,2022-06-30T08:20:05.567+02:00,1540,1.498269,0,0,1217.191,0,0,2022-06-30T10:05:12.482+02:00
303,2022-06-30T10:05:13.706+02:00,5746.308097791667,-17.981207885742187,-5.510341186523438,-21.10581024169922,5746.298146791667,-0.1468685023141434,-0.2354120137131496,0.0397349911934715,-5.472492218017578,-4.859644412994385,-0.0129904523491859,-2.172504186630249,-1.685449719429016,-1.963941812515259,XArbitraryZVertical,0.0110612989387893,-0.1185422471066332,-0.0751729116346985,0.9900376233169432,-0.2330595552921295,-0.0397245362401008,-0.971650779247284,0,0,0,-1,-1,5745.086017250001,unknown,2,2022-06-30T10:05:12.483+02:00,2022-06-30T08:20:05.567+02:00,1540,1.498269,0,0,1217.191,0,0,2022-06-30T10:05:12.482+02:00
304,2022-06-30T10:05:13.715+02:00,5746.318049791667,-14.181659088134762,2.5638684082031253,-21.554277648925783,5746.308097791667,-0.1617755980652698,-0.2840391066167912,-0.0135454881324982,-5.473593711853027,-4.988819122314453,-0.1043051853775978,-1.93617570400238,-1.422496199607849,-1.488673448562622,XArbitraryZVertical,-0.0181189102930656,-0.1405348647526274,-0.0790288152511406,0.9867503360329944,-0.280209481716156,0.0135450735688209,-0.9598433375358582,0,0,0,-1,-1,5745.086017250001,unknown,2,2022-06-30T10:05:12.483+02:00,2022-06-30T08:20:05.567+02:00,1540,1.498269,0,0,1217.191,0,0,2022-06-30T10:05:12.482+02:00
305,2022-06-30T10:05:13.726+02:00,5746.328000791667,-12.707374877929688,4.292174377441406,-26.076373901367187,5746.318049791667,-0.1775840968601255,-0.3359635296800118,-0.0613331148276316,-4.539509773254395,-5.313103675842285,-0.0098729562014341,-1.503888010978699,-0.6230015158653259,-1.209140777587891,XArbitraryZVertical,-0.0449299925401527,-0.1637752313785014,-0.0822799002226063,0.9820331937159196,-0.3290590941905975,0.0612946674227714,-0.9423179626464844,0,0,0,-1,-1,5745.086017250001,unknown,2,2022-06-30T10:05:12.483+02:00,2022-06-30T08:20:05.567+02:00,1540,1.498269,0,0,1217.191,0,0,2022-06-30T10:05:12.482+02:00
306,2022-06-30T10:05:13.735+02:00,5746.337951791667,-13.539344787597656,3.855532379150391,-28.67092849731445,5746.328000791667,-0.1912833606148854,-0.3898822701479333,-0.094939392375951,-2.664049386978149,-5.228031635284424,-0.200089231133461,-1.067265391349792,0.1665554046630859,-1.276385545730591,XArbitraryZVertical,-0.0648178872831284,-0.1881606454370537,-0.0844317773412037,0.9763532480592396,-0.3783679008483887,0.0947968363761901,-0.9207884073257446,0,0,0,-1,-1,5745.086017250001,unknown,2,2022-06-30T10:05:12.483+02:00,2022-06-30T08:20:05.567+02:00,1540,1.498269,0,0,1217.191,0,0,2022-06-30T10:05:12.482+02:00
307,2022-06-30T10:05:13.745+02:00,5746.347903791667,-16.0898908996582,1.7988093566894532,-28.94860107421875,5746.337951791667,-0.2009824725472681,-0.4401102173233781,-0.110031908536158,-1.062323093414307,-4.649751663208008,-0.3906198143959045,-0.871886670589447,0.3277201950550079,-1.75890839099884,XArbitraryZVertical,-0.0752569886266176,-0.2114700454725372,-0.0858123708963329,0.9706972806297424,-0.4234627485275269,0.1098100170493126,-0.8992336392402649,0,0,0,-1,-1,5745.086017250001,unknown,2,2022-06-30T10:05:12.483+02:00,2022-06-30T08:20:05.567+02:00,1540,1.498269,0,0,1217.191,0,0,2022-06-30T10:05:12.482+02:00
308,2022-06-30T10:05:13.755+02:00,5746.357854791667,-16.707955627441407,-1.6875906372070313,-26.85700057983399,5746.347903791667,-0.2090483887944883,-0.4838500525698136,-0.112806597177193,-0.1807621717453003,-3.969529151916504,-0.7673479318618774,-0.9179237484931946,0.2804528176784515,-2.043038368225098,XArbitraryZVertical,-0.079388761620194,-0.2321752390225506,-0.0877027509183158,0.965453487238638,-0.4622340202331543,0.1125674992799759,-0.8795841932296753,0,0,0,-1,-1,5745.086017250001,unknown,2,2022-06-30T10:05:12.483+02:00,2022-06-30T08:20:05.567+02:00,1540,1.498269,0,0,1217.191,0,0,2022-06-30T10:05:12.482+02:00
309,2022-06-30T10:05:13.765+02:00,5746.367805791667,-15.518379364013677,-3.7050952148437504,-23.593786468505865,5746.357854791667,-0.2155065519991611,-0.5210764619612127,-0.1086122289812747,0.2131111025810242,-3.371286392211914,-0.7559301257133484,-1.1452716588974,0.0749657452106475,-2.088754177093506,XArbitraryZVertical,-0.0798061757815604,-0.2500885975594976,-0.0898608822407214,0.9607350222597734,-0.4948806464672089,0.1083988100290298,-0.862173318862915,0,0,0,-1,-1,5745.086017250001,unknown,2,2022-06-30T10:05:12.483+02:00,2022-06-30T08:20:05.567+02:00,1540,1.498269,0,0,1217.191,0,0,2022-06-30T10:05:12.482+02:00
310,2022-06-30T10:05:13.775+02:00,5746.377757791667,-12.402159576416011,-5.074896697998047,-21.0619514465332,5746.367805791667,-0.2209277501177193,-0.5525427524165559,-0.1030670321775089,0.1575362533330917,-2.865233182907104,-0.7443224787712097,-1.181087732315063,-0.274912565946579,-1.891040802001953,XArbitraryZVertical,-0.0792854294284937,-0.26528470471229,-0.0919532353944367,0.9564949511834644,-0.5220680832862854,0.1028846502304077,-0.8466756939888,0,0,0,-1,-1,5745.086017250001,unknown,2,2022-06-30T10:05:12.483+02:00,2022-06-30T08:20:05.567+02:00,1540,1.498269,0,0,1217.191,0,0,2022-06-30T10:05:12.482+02:00
311,2022-06-30T10:05:13.785+02:00,5746.387708791667,-10.282118225097657,-5.33894760131836,-19.535276184082033,5746.377757791667,-0.227202813346034,-0.580239054566006,-0.0991125989136581,-0.1739678531885147,-2.597821235656738,-0.7422001957893372,-1.036360740661621,-0.4766362905502319,-1.572847723960876,XArbitraryZVertical,-0.0795478516141889,-0.2784933053750707,-0.0944073657334235,0.9524710301526904,-0.5455334186553955,0.098950408399105,-0.8322272300720215,0,0,0,-1,-1,5745.086017250001,unknown,2,2022-06-30T10:05:12.483+02:00,2022-06-30T08:20:05.567+02:00,1540,1.498269,0,0,1217.191,0,0,2022-06-30T10:05:12.482+02:00
312,2022-06-30T10:05:13.795+02:00,5746.397659791667,-9.890532531738282,-4.417912902832032,-18.686990203857427,5746.387708791667,-0.2352681192690867,-0.6060898888366024,-0.0979918045196169,-0.546023428440094,-2.441735982894897,-0.7183425426483154,-0.6973114013671875,-0.6151540875434875,-1.329048871994019,XArbitraryZVertical,-0.0814038416369191,-0.2905236296910657,-0.0973656736997967,0.9484141569484044,-0.5669253468513489,0.0978350564837455,-0.8179388642311096,0,0,0,-1,-1,5745.086017250001,unknown,2,2022-06-30T10:05:12.483+02:00,2022-06-30T08:20:05.567+02:00,1540,1.498269,0,0,1217.191,0,0,2022-06-30T10:05:12.482+02:00
313,2022-06-30T10:05:13.805+02:00,5746.407611791667,-10.219548339843751,-3.2124696350097657,-17.980160064697262,5746.397659791667,-0.2451123891464788,-0.6306752478885704,-0.0995100163884011,-0.8080297112464905,-2.314220905303955,-0.7060820460319519,-0.4613534808158875,-0.6435813903808594,-1.187729239463806,XArbitraryZVertical,-0.0847947911038707,-0.3016501033610097,-0.1007690492755812,0.9442788591262138,-0.5867730379104614,0.0993458703160285,-0.8036341071128845,0,0,0,-1,-1,5745.086017250001,unknown,2,2022-06-30T10:05:12.483+02:00,2022-06-30T08:20:05.567+02:00,1540,1.498269,0,0,1217.191,0,0,2022-06-30T10:05:12.482+02:00
