,loggingTime(txt),accelerometerTimestamp_sinceReboot(s),accelerometerAccelerationX(G),accelerometerAccelerationY(G),accelerometerAccelerationZ(G),motionTimestamp_sinceReboot(s),motionYaw(rad),motionRoll(rad),motionPitch(rad),motionRotationRateX(rad/s),motionRotationRateY(rad/s),motionRotationRateZ(rad/s),motionUserAccelerationX(G),motionUserAccelerationY(G),motionUserAccelerationZ(G),motionAttitudeReferenceFrame(txt),motionQuaternionX(R),motionQuaternionY(R),motionQuaternionZ(R),motionQuaternionW(R),motionGravityX(G),motionGravityY(G),motionGravityZ(G),motionMagneticFieldX(µT),motionMagneticFieldY(µT),motionMagneticFieldZ(µT),motionHeading(°),motionMagneticFieldCalibrationAccuracy(Z),activityTimestamp_sinceReboot(s),activity(txt),activityActivityConfidence(Z),activityActivityStartDate(txt),pedometerStartDate(txt),pedometerNumberofSteps(N),pedometerAverageActivePace(s/m),pedometerCurrentPace(s/m),pedometerCurrentCadence(steps/s),pedometerDistance(m),pedometerFloorAscended(N),pedometerFloorDescended(N),pedometerEndDate(txt)
220,2022-06-30T10:06:15.633+02:00,5808.235470541667,24.04449920654297,1.5893948364257813,-0.7670050048828125,5808.225518541667,-1.380937177980505,1.00929196395498,-0.3379458012392457,-0.087915189564228,4.987399578094482,2.833292007446289,1.391165614128113,-0.1569590866565704,-0.1536016464233398,XArbitraryZVertical,0.1900644277911071,0.4611984341078588,-0.6122519514445904,0.6134485575688047,0.7985776662826538,0.3315497934818268,-0.5023430585861206,0,0,0,-1,-1,5803.677212000001,unknown,2,2022-06-30T10:06:11.074+02:00,2022-06-30T08:20:05.567+02:00,1540,1.509928,0,0,1217.191,0,0,2022-06-30T10:06:13.625+02:00
221,2022-06-30T10:06:15.643+02:00,5808.245421541667,23.135589294433593,2.7901977539062504,1.3784834289550782,5808.235470541667,-1.36073482609731,1.073479126694945,-0.3177238603437469,-1.226681709289551,6.611752033233643,2.596428155899048,1.55089545249939,-0.138577401638031,0.0765438079833984,XArbitraryZVertical,0.211941455590624,0.4780010427362313,-0.596690127358122,0.6087337896385991,0.8348774909973145,0.3124051690101624,-0.4531916379928589,0,0,0,-1,-1,5803.677212000001,unknown,2,2022-06-30T10:06:11.074+02:00,2022-06-30T08:20:05.567+02:00,1540,1.509928,0,0,1217.191,0,0,2022-06-30T10:06:13.625+02:00
222,2022-06-30T10:06:15.653+02:00,5808.255373541667,20.998932495117188,4.569846954345703,2.2995181274414063,5808.245421541667,-1.330993303382543,1.156208460918023,-0.3042056192169033,-2.707167863845825,8.193000793457031,2.320800065994263,1.577762007713318,-0.1375179290771484,0.3061318397521973,XArbitraryZVertical,0.2336849072169823,0.503222135852033,-0.5762710780150645,0.600058784081824,0.8732574582099915,0.2995353639125824,-0.3843176960945129,0,0,0,-1,-1,5803.677212000001,unknown,2,2022-06-30T10:06:11.074+02:00,2022-06-30T08:20:05.567+02:00,1540,1.509928,0,0,1217.191,0,0,2022-06-30T10:06:13.625+02:00
223,2022-06-30T10:06:15.663+02:00,5808.265324541667,19.478993225097657,6.925648040771485,2.2543121337890626,5808.255373541667,-1.290159495163983,1.257035434198293,-0.2962905338901572,-3.993446588516235,9.596407890319824,1.951631188392639,1.448635101318359,-0.0075509250164031,0.4357078671455383,XArbitraryZVertical,0.2542334944252146,0.5364425017257792,-0.5503778623171812,0.587093691422018,0.90973299741745,0.2919743955135345,-0.2951895594596863,0,0,0,-1,-1,5803.677212000001,unknown,2,2022-06-30T10:06:11.074+02:00,2022-06-30T08:20:05.567+02:00,1540,1.509928,0,0,1217.191,0,0,2022-06-30T10:06:13.625+02:00
224,2022-06-30T10:06:15.673+02:00,5808.275275541667,16.567098541259764,10.300230560302738,4.0109092712402346,5808.265324541667,-1.240824663088909,1.372573049360125,-0.2900078514825064,-4.801515102386475,10.77692127227783,1.681998372077942,1.201086759567261,0.1798754334449768,0.4231100380420685,XArbitraryZVertical,0.2735793052689905,0.5751540671328035,-0.5195300299342541,0.5695969408050574,0.9394773244857788,0.2859597504138947,-0.188704326748848,0,0,0,-1,-1,5803.677212000001,unknown,2,2022-06-30T10:06:11.074+02:00,2022-06-30T08:20:05.567+02:00,1540,1.509928,0,0,1217.191,0,0,2022-06-30T10:06:13.625+02:00
225,2022-06-30T10:06:15.683+02:00,5808.285227541667,13.688584442138676,14.479389953613282,9.814490661621095,5808.275275541667,-1.186290915834242,1.501906747529473,-0.2804409256544426,-5.415245056152344,12.13885021209717,1.628841876983643,1.026972055435181,0.4291985929012299,0.2959434390068054,XArbitraryZVertical,0.2929444490109376,0.6173415354957298,-0.4836942553349743,0.5469121090964499,0.9586542248725892,0.2767793834209442,-0.0661459565162658,0,0,0,-1,-1,5803.677212000001,unknown,2,2022-06-30T10:06:11.074+02:00,2022-06-30T08:20:05.567+02:00,1540,1.509928,0,0,1217.191,0,0,2022-06-30T10:06:13.625+02:00
226,2022-06-30T10:06:15.693+02:00,5808.295178541667,11.426488494873052,17.31853591918945,15.99154541015625,5808.285227541667,-1.12416795513546,1.646942836305822,-0.2643736184733033,-6.703854560852051,13.65000438690186,1.537105083465576,0.726337730884552,0.7886673808097839,0.3354295492172241,XArbitraryZVertical,0.3117135946885215,0.6629853587489689,-0.4408791592918725,0.518566016995145,0.96245938539505,0.2613047063350677,0.0734299048781395,0,0,0,-1,-1,5803.677212000001,unknown,2,2022-06-30T10:06:11.074+02:00,2022-06-30T08:20:05.567+02:00,1540,1.509928,0,0,1217.191,0,0,2022-06-30T10:06:13.625+02:00
227,2022-06-30T10:06:15.703+02:00,5808.305130541667,7.47051498413086,19.41193267822266,19.955751800537115,5808.295178541667,-1.049894884937962,1.808718905342037,-0.2381032966088319,-8.466447830200195,15.13154602050781,1.378032684326172,0.4509590268135071,1.240122318267822,0.7714229822158813,XArbitraryZVertical,0.3276076477500382,0.712173206341887,-0.3884100546837029,0.4843760673527352,0.9444115161895752,0.2358598560094833,0.2290349006652832,0,0,0,-1,-1,5803.677212000001,unknown,2,2022-06-30T10:06:11.074+02:00,2022-06-30T08:20:05.567+02:00,1540,1.509928,0,0,1217.191,0,0,2022-06-30T10:06:13.625+02:00
228,2022-06-30T10:06:15.713+02:00,5808.315081541667,0.6453080749511719,21.944366455078125,22.989493103027346,5808.305130541667,-0.9641478820836326,1.985269004125263,-0.1964021272529999,-10.07496070861816,16.60281562805176,1.141752481460571,0.2670480012893677,1.570253849029541,1.235161781311035,XArbitraryZVertical,0.3389215735752011,0.7632921099040316,-0.3248904702875884,0.4438058696244462,0.8977318406105042,0.1951418966054916,0.3949653506278992,0,0,0,-1,-1,5803.677212000001,unknown,2,2022-06-30T10:06:11.074+02:00,2022-06-30T08:20:05.567+02:00,1540,1.509928,0,0,1217.191,0,0,2022-06-30T10:06:13.625+02:00
229,2022-06-30T10:06:15.723+02:00,5808.325033541667,-8.776100006103515,23.33063369750976,29.61606307983399,5808.315081541667,-0.8769315839801116,2.170909007534245,-0.137087535398459,-10.67492485046387,17.69691848754883,0.8510609865188599,-0.0560090541839599,1.84213125705719,1.474788188934326,XArbitraryZVertical,0.3457111355656282,0.8125284397820604,-0.2524423614558822,0.3956694045716075,0.817529559135437,0.136658564209938,0.5594373345375061,0,0,0,-1,-1,5803.677212000001,unknown,2,2022-06-30T10:06:11.074+02:00,2022-06-30T08:20:05.567+02:00,1540,1.509928,0,0,1217.191,0,0,2022-06-30T10:06:13.625+02:00
230,2022-06-30T10:06:15.732+02:00,5808.334984541667,-22.113814086914065,21.6032258605957,43.61091064453125,5808.325033541667,-0.8013769679388676,2.358247174541229,-0.066690232681219,-9.816935539245604,18.36230278015137,0.3459871411323547,-0.6383045315742493,2.170297145843506,1.636493682861328,XArbitraryZVertical,0.3485953993336885,0.8555537046140484,-0.1771874146871443,0.3392842963151051,0.7040852904319763,0.0666408091783523,0.7069817781448364,0,0,0,-1,-1,5803.677212000001,unknown,2,2022-06-30T10:06:11.074+02:00,2022-06-30T08:20:05.567+02:00,1540,1.509928,0,0,1217.191,0,0,2022-06-30T10:06:13.625+02:00
231,2022-06-30T10:06:15.742+02:00,5808.344935541667,-43.28129608154297,19.670744476318365,73.28041259765625,5808.334984541667,-0.7449002823311037,2.547204130662073,0.0007223142436253,-7.728451251983643,19.37327194213867,-0.4525367021560669,-1.454609632492065,2.378972053527832,2.190475702285767,XArbitraryZVertical,0.3480445247400091,0.8905674998579153,-0.1062419342437726,0.2728868409031905,0.5600021481513977,-0.00072231417289,0.8284909129142761,0,0,0,-1,-1,5803.677212000001,unknown,2,2022-06-30T10:06:11.074+02:00,2022-06-30T08:20:05.567+02:00,1540,1.509928,0,0,1217.191,0,0,2022-06-30T10:06:13.625+02:00
232,2022-06-30T10:06:15.752+02:00,5808.354887541667,-66.37856506347657,12.36159393310547,109.6104638671875,5808.344935541667,-0.7041661116603778,2.750807749202387,0.0557788647603291,-6.285179138183594,21.71869850158691,-1.707854151725769,-2.634533166885376,2.257913112640381,3.522384166717529,XArbitraryZVertical,0.3432421776578142,0.9185701344683744,-0.0412507407455698,0.1916042823517931,0.3803219199180603,-0.0557499453425407,0.9231725931167604,0,0,0,-1,-1,5803.677212000001,unknown,2,2022-06-30T10:06:11.074+02:00,2022-06-30T08:20:05.567+02:00,1540,1.509928,0,0,1217.191,0,0,2022-06-30T10:06:13.625+02:00
233,2022-06-30T10:06:15.762+02:00,5808.364838541667,-74.52761901855469,8.457712097167969,133.97484786987306,5808.354887541667,-0.6487079009913559,2.961860747844089,0.1099856885830978,-7.498040199279785,20.79964447021484,-6.302644729614258,-4.589642524719238,2.114936351776123,6.492023944854736,XArbitraryZVertical,0.3216062633271453,0.941032844566117,0.0233306458157194,0.1023833728072986,0.1776856631040573,-0.109764076769352,0.9779468178749084,0,0,0,-1,-1,5803.677212000001,unknown,2,2022-06-30T10:06:11.074+02:00,2022-06-30T08:20:05.567+02:00,1540,1.509928,0,0,1217.191,0,0,2022-06-30T10:06:13.625+02:00
234,2022-06-30T10:06:15.772+02:00,5808.374790541667,-64.78003921508788,7.876470794677735,160.2768026733399,5808.364838541667,-0.5506607029367135,3.125858131995963,0.1896973328012956,-10.19697570800781,14.68444728851318,-11.60866641998291,-6.781869888305664,1.448662638664246,10.19139957427979,XArbitraryZVertical,0.2713515276569347,0.9577777604590256,0.0890074204060429,0.0332834136850846,0.0154516277834773,-0.1885616630315781,0.9819397926330566,0,0,0,-1,-1,5803.677212000001,unknown,2,2022-06-30T10:06:11.074+02:00,2022-06-30T08:20:05.567+02:00,1540,1.509928,0,0,1217.191,0,0,2022-06-30T10:06:13.625+02:00
235,2022-06-30T10:06:15.782+02:00,5808.384741541667,-50.11847808837891,3.5149905395507814,163.7681423950195,5808.374790541667,-0.411029945413074,-3.086131493890015,0.299378244814056,-10.62425899505615,6.350482940673828,-16.14982223510742,-7.544139385223389,1.15707790851593,12.70291614532471,XArbitraryZVertical,0.1976637689149683,0.9684805243998432,0.1515313182053729,0.0035815949803093,-0.0529670938849449,-0.2949261665344238,0.9540509581565856,0,0,0,-1,-1,5803.677212000001,unknown,2,2022-06-30T10:06:11.074+02:00,2022-06-30T08:20:05.567+02:00,1540,1.509928,0,0,1217.191,0,0,2022-06-30T10:06:13.625+02:00
236,2022-06-30T10:06:15.792+02:00,5808.394692541667,-80.43493469238281,2.3041584777832034,135.2386697387695,5808.384741541667,-0.2268444023044171,-3.125858416930495,0.4141256108908877,-11.22540283203125,-1.57455313205719,-19.01752471923828,-6.589066028594971,1.205291509628296,15.42274856567383,XArbitraryZVertical,0.1091511539512086,0.97250381056146,0.2051304024808867,0.0156178489183505,-0.014403604902327,-0.4023896157741547,0.9153552651405334,0,0,0,-1,-1,5803.677212000001,unknown,2,2022-06-30T10:06:11.074+02:00,2022-06-30T08:20:05.567+02:00,1540,1.509928,0,0,1217.191,0,0,2022-06-30T10:06:13.625+02:00
237,2022-06-30T10:06:15.802+02:00,5808.404644541667,-118.52487625122069,24.082669830322263,75.42515258789062,5808.394692541667,0.0042830544738516,2.98552472909773,0.5115104109071895,-10.49516868591309,-11.92952632904053,-21.55942726135254,-5.244457244873047,0.8478014469146729,15.83259201049805,XArbitraryZVertical,0.0176550947398614,0.964568492144346,0.2523672034388491,0.0748788556361307,0.1355404406785965,-0.4894948899745941,0.8614081740379333,0,0,0,-1,-1,5803.677212000001,unknown,2,2022-06-30T10:06:11.074+02:00,2022-06-30T08:20:05.567+02:00,1540,1.509928,0,0,1217.191,0,0,2022-06-30T10:06:13.625+02:00
238,2022-06-30T10:06:15.812+02:00,5808.414595541667,-175.056767578125,83.20477478027344,5.242248687744141,5808.404644541667,0.2821856726359131,2.679154678676594,0.5162625047050448,-3.755619287490845,-21.9837760925293,-24.8333740234375,-8.58726692199707,0.7285115122795105,13.00747013092041,XArbitraryZVertical,-0.0744293142978557,0.94001259013707,0.277170121883233,0.1844273573409216,0.3879872262477875,-0.4936332106590271,0.7783268094062805,0,0,0,-1,-1,5803.677212000001,unknown,2,2022-06-30T10:06:11.074+02:00,2022-06-30T08:20:05.567+02:00,1540,1.509928,0,0,1217.191,0,0,2022-06-30T10:06:13.625+02:00
239,2022-06-30T10:06:15.822+02:00,5808.424547541667,-179.87539718627934,166.18636367797848,-54.78547302246094,5808.414595541667,0.4807024877621339,2.319687286866364,0.3357418746433221,12.3127908706665,-31.83692169189453,-24.48178863525391,-12.77359580993652,2.784379959106445,7.045784473419189,XArbitraryZVertical,-0.1503284350780722,0.8937606916879683,0.2425269497769528,0.346083544738612,0.6915491223335266,-0.3294697105884552,0.6428136229515076,0,0,0,-1,-1,5803.677212000001,unknown,2,2022-06-30T10:06:11.074+02:00,2022-06-30T08:20:05.567+02:00,1540,1.509928,0,0,1217.191,0,0,2022-06-30T10:06:13.625+02:00
240,2022-06-30T10:06:15.832+02:00,5808.434498541667,-156.0600714111328,286.9287286376953,4.283642120361328,5808.424547541667,0.4208125460570083,1.987839077242745,0.0676333205548472,29.0037727355957,-34.85116958618164,-15.0788049697876,-18.75692749023438,8.549210548400879,0.1302452683448792,XArbitraryZVertical,-0.1569240835344891,0.8230680793228851,0.1415611848801647,0.5271568619445716,0.912200689315796,-0.0675817728042602,0.4041324555873871,0,0,0,-1,-1,5803.677212000001,unknown,2,2022-06-30T10:06:11.074+02:00,2022-06-30T08:20:05.567+02:00,1540,1.509928,0,0,1217.191,0,0,2022-06-30T10:06:13.625+02:00
241,2022-06-30T10:06:15.842+02:00,5808.444449541667,-194.87914672851562,306.4812190246582,113.01633132934569,5808.434498541667,0.1250832198659208,1.630093864494353,-0.0966628780321514,34.88764953613281,-34.86246490478516,-0.7570445537567139,-19.32950401306152,16.843994140625,-5.643642425537109,XArbitraryZVertical,-0.0785020358247577,0.7234158554968564,0.0077240155857788,0.6858915581933674,0.9935823678970336,0.0965124145150184,0.0589861385524272,0,0,0,-1,-1,5803.677212000001,unknown,2,2022-06-30T10:06:11.074+02:00,2022-06-30T08:20:05.567+02:00,1540,1.509928,0,0,1217.191,0,0,2022-06-30T10:06:13.625+02:00
242,2022-06-30T10:06:15.852+02:00,5808.454401541667,-315.3655439758301,38.71489196777344,241.70297607421875,5808.444449541667,-0.2002870746194296,1.267483239156202,0.0497197217860698,34.85089492797852,-34.72371673583984,19.36220169067383,-16.86143684387207,29.29829597473145,0.7349750995635986,XArbitraryZVertical,0.0791141179518919,0.5870124836571435,-0.0658918582477409,0.8030041248450902,0.9531728625297546,-0.0496992394328117,-0.2983146011829376,0,0,0,-1,-1,5803.677212000001,unknown,2,2022-06-30T10:06:11.074+02:00,2022-06-30T08:20:05.567+02:00,1540,1.509928,0,0,1217.191,0,0,2022-06-30T10:06:13.625+02:00
243,2022-06-30T10:06:15.862+02:00,5808.464352541667,-270.4333309936524,-239.83156768798827,42.44498519897462,5808.454401541667,-0.4274210399687341,1.091746822426918,0.3503527432368719,26.40486526489258,-9.64871883392334,18.95974731445312,-20.69887924194336,31.5849437713623,11.95345783233643,XArbitraryZVertical,0.2539887505806888,0.4679981684597816,-0.0900689663882735,0.8416383897299107,0.8335234522819519,-0.3432291448116302,-0.4329348504543304,0,0,0,-1,-1,5803.677212000001,unknown,2,2022-06-30T10:06:11.074+02:00,2022-06-30T08:20:05.567+02:00,1540,1.509928,0,0,1217.191,0,0,2022-06-30T10:06:13.625+02:00
244,2022-06-30T10:06:15.872+02:00,5808.474304541667,-96.87749221801758,-156.2962802124024,19.00462966918945,5808.464352541667,-0.490202608489028,1.103130781140422,0.536744091644902,1.986354112625122,5.124654769897461,6.358907222747803,-32.91445541381836,4.457812309265137,25.02583885192871,XArbitraryZVertical,0.3416946759787612,0.4353611468567758,-0.0644745018154604,0.8303905161044471,0.7671007513999939,-0.5113406777381897,-0.3874108493328094,0,0,0,-1,-1,5803.677212000001,unknown,2,2022-06-30T10:06:11.074+02:00,2022-06-30T08:20:05.567+02:00,1540,1.509928,0,0,1217.191,0,0,2022-06-30T10:06:13.625+02:00
245,2022-06-30T10:06:15.882+02:00,5808.484255541667,-36.710859375000005,-106.02467056274413,37.94309692382813,5808.474304541667,-0.4109845805207975,1.159343527707488,0.5347285923607563,-12.30676460266113,12.77685737609863,2.430155515670776,-28.3557071685791,-23.93805503845215,4.670818328857422,XArbitraryZVertical,0.3241791908999909,0.4720717422724328,-0.0229852348393004,0.8194679236119764,0.7885979413986206,-0.5096075534820557,-0.3441122472286224,0,0,0,-1,-1,5803.677212000001,unknown,2,2022-06-30T10:06:11.074+02:00,2022-06-30T08:20:05.567+02:00,1540,1.509928,0,0,1217.191,0,0,2022-06-30T10:06:13.625+02:00
246,2022-06-30T10:06:15.892+02:00,5808.494207541667,-61.95661056518556,-21.193976898193366,47.57137481689453,5808.484255541667,-0.244778769232342,1.166206165411899,0.5123118447133296,-18.09503555297852,5.118195533752441,4.08160400390625,-10.6766242980957,-15.44214916229248,2.280374765396118,XArbitraryZVertical,0.2749435979322598,0.5028460467531716,0.0398774261717173,0.8185118356538867,0.8012427687644958,-0.4901935756206512,-0.3431037366390228,0,0,0,-1,-1,5803.677212000001,unknown,2,2022-06-30T10:06:11.074+02:00,2022-06-30T08:20:05.567+02:00,1540,1.509928,0,0,1217.191,0,0,2022-06-30T10:06:13.625+02:00
247,2022-06-30T10:06:15.902+02:00,5808.504158541667,-24.044948272705074,14.792688446044927,-4.21568344116211,5808.494207541667,0.0119680885096853,1.101489613556352,0.4417250361265982,-26.51951217651367,5.824885845184326,1.826937437057495,-4.548462867736816,-10.38031578063965,4.276655197143555,XArbitraryZVertical,0.1836194613032394,0.5117179146018338,0.1196181063476443,0.8307346667645792,0.8062751889228821,-0.4274995625019073,-0.4088573455810547,0,0,0,-1,-1,5803.677212000001,unknown,2,2022-06-30T10:06:11.074+02:00,2022-06-30T08:20:05.567+02:00,1540,1.509928,0,0,1217.191,0,0,2022-06-30T10:06:13.625+02:00
248,2022-06-30T10:06:15.912+02:00,5808.514109541667,-18.284776611328127,54.21171615600587,-26.008714599609377,5808.504158541667,0.2542540130368507,1.040339676564757,0.3725767069222614,-20.27430534362793,0.6532068252563477,7.403285026550293,-7.11905574798584,-1.796429753303528,5.32049036026001,XArbitraryZVertical,0.0974933049694974,0.5048629912547992,0.1994251768980285,0.834168974704384,0.8033968210220337,-0.3640165627002716,-0.4712168276309967,0,0,0,-1,-1,5803.677212000001,unknown,2,2022-06-30T10:06:11.074+02:00,2022-06-30T08:20:05.567+02:00,1540,1.509928,0,0,1217.191,0,0,2022-06-30T10:06:13.625+02:00
249,2022-06-30T10:06:15.922+02:00,5808.524061541667,-24.10736846923828,30.403575439453128,-27.166407165527346,5808.514109541667,0.4263434099836345,0.9562387786261064,0.3361130308195104,-9.726542472839355,-5.233528137207031,3.471816539764404,-3.222376108169556,1.83773934841156,0.114599347114563,XArbitraryZVertical,0.0491780992881879,0.4747789503545335,0.2604095332463517,0.8392576703117971,0.7713108658790588,-0.3298201262950897,-0.5443329215049744,0,0,0,-1,-1,5803.677212000001,unknown,2,2022-06-30T10:06:11.074+02:00,2022-06-30T08:20:05.567+02:00,1540,1.509928,0,0,1217.191,0,0,2022-06-30T10:06:13.625+02:00
250,2022-06-30T10:06:15.931+02:00,5808.534012541667,-38.23139739990235,-10.346035308837887,-10.2125129699707,5808.524061541667,0.4691529343162772,0.8760118373825887,0.3392056649909299,2.558323383331299,-7.447113990783691,2.587933540344238,-2.588311433792114,5.858906745910645,-2.047505617141724,XArbitraryZVertical,0.0515030237283189,0.442128478266015,0.277098667560346,0.8515199029925874,0.7244195342063904,-0.3327381312847137,-0.6037396788597107,0,0,0,-1,-1,5803.677212000001,unknown,2,2022-06-30T10:06:11.074+02:00,2022-06-30T08:20:05.567+02:00,1540,1.509928,0,0,1217.191,0,0,2022-06-30T10:06:13.625+02:00
251,2022-06-30T10:06:15.941+02:00,5808.543964541667,-47.417794189453126,-30.806687164306638,-11.47618515014649,5808.534012541667,0.4581521164784762,0.8017444507596774,0.3898515270075438,4.334986686706543,-8.335586547851562,3.427556037902832,-3.12208104133606,3.479294300079346,-2.125985622406006,XArbitraryZVertical,0.0867465211475874,0.4133272662425189,0.2787247977914529,0.8625243267821837,0.6646528244018555,-0.3800510764122009,-0.6432712078094482,0,0,0,-1,-1,5803.677212000001,unknown,2,2022-06-30T10:06:11.074+02:00,2022-06-30T08:20:05.567+02:00,1540,1.509928,0,0,1217.191,0,0,2022-06-30T10:06:13.625+02:00
252,2022-06-30T10:06:15.952+02:00,5808.553915541667,-34.38709167480469,-28.908484497070315,-24.52440124511719,5808.543964541667,0.4725849000443011,0.7207573818323721,0.4301572497998691,-0.5555715560913086,-6.567705631256104,4.236133575439453,-4.497018814086914,-0.6376280784606934,-0.3581688404083252,XArbitraryZVertical,0.1135167698383908,0.381684153674407,0.2871828685297739,0.8711815531273092,0.5998322367668152,-0.4170137345790863,-0.6828622817993164,0,0,0,-1,-1,5803.677212000001,unknown,2,2022-06-30T10:06:11.074+02:00,2022-06-30T08:20:05.567+02:00,1540,1.509928,0,0,1217.191,0,0,2022-06-30T10:06:13.625+02:00
253,2022-06-30T10:06:15.961+02:00,5808.563866541667,-28.98707107543945,-12.251123657226563,-29.55858261108399,5808.553915541667,0.5299568213825608,0.6328051824347014,0.4316037584699745,-5.620171546936035,-6.498153686523438,3.956695795059204,-5.370792865753174,-2.722007036209106,-0.4374215602874756,XArbitraryZVertical,0.1168025075378363,0.3466194777932601,0.3074168647315532,0.8784686446790257,0.5371745824813843,-0.4183280169963837,-0.7324241995811462,0,0,0,-1,-1,5803.677212000001,unknown,2,2022-06-30T10:06:11.074+02:00,2022-06-30T08:20:05.567+02:00,1540,1.509928,0,0,1217.191,0,0,2022-06-30T10:06:13.625+02:00
254,2022-06-30T10:06:15.971+02:00,5808.573818541667,-29.069399871826178,3.779191131591797,-29.848529663085937,5808.563866541667,0.6038234530288895,0.5381587260628025,0.3921192273403156,-8.081339836120605,-6.479281425476074,3.067250967025757,-3.978963851928711,-2.564690828323364,-1.706455945968628,XArbitraryZVertical,0.1017687684765708,0.3047975107048179,0.3306002884791966,0.8873810956776172,0.4736535251140594,-0.3821476399898529,-0.7934831976890564,0,0,0,-1,-1,5803.677212000001,unknown,2,2022-06-30T10:06:11.074+02:00,2022-06-30T08:20:05.567+02:00,1540,1.509928,0,0,1217.191,0,0,2022-06-30T10:06:13.625+02:00
255,2022-06-30T10:06:15.981+02:00,5808.583769541667,-26.594745941162117,11.558214569091803,-30.960716857910157,5808.573818541667,0.672675616903477,0.4498323137765891,0.3358374732130275,-7.714657783508301,-6.316226482391357,2.985143661499023,-3.365373134613037,-0.9192803502082824,-2.162895202636719,XArbitraryZVertical,0.0812225818554213,0.261336584472071,0.3523804253135146,0.8949492612237017,0.4105234742164612,-0.3295599818229675,-0.8502121567726135,0,0,0,-1,-1,5803.677212000001,unknown,2,2022-06-30T10:06:11.074+02:00,2022-06-30T08:20:05.567+02:00,1540,1.509928,0,0,1217.191,0,0,2022-06-30T10:06:13.625+02:00
256,2022-06-30T10:06:15.991+02:00,5808.593721541667,-26.43338150024414,11.701766052246095,-31.433733215332033,5808.583769541667,0.7284739471297986,0.3703634558083947,0.2842696986438383,-6.007046222686768,-6.241730690002441,2.612378358840942,-3.310669898986816,0.6656951904296875,-2.147880077362061,XArbitraryZVertical,0.0651698001201853,0.2199113456199885,0.3709862868589329,0.899867322434716,0.3474278748035431,-0.28045654296875,-0.8947837948799133,0,0,0,-1,-1,5803.677212000001,unknown,2,2022-06-30T10:06:11.074+02:00,2022-06-30T08:20:05.567+02:00,1540,1.509928,0,0,1217.191,0,0,2022-06-30T10:06:13.625+02:00
257,2022-06-30T10:06:16.001+02:00,5808.603672541667,-27.01192840576172,8.022117919921875,-33.33298370361328,5808.593721541667,0.7693302278091303,0.2976872977649776,0.2428741643361649,-4.542222023010254,-6.219953060150146,2.156676292419434,-2.995685338973999,1.418700933456421,-2.228077411651611,XArbitraryZVertical,0.0558074053688905,0.1814001898743623,0.3850182508539496,0.9031835242475504,0.2847015857696533,-0.240493431687355,-0.9279590249061584,0,0,0,-1,-1,5803.677212000001,unknown,2,2022-06-30T10:06:11.074+02:00,2022-06-30T08:20:05.567+02:00,1540,1.509928,0,0,1217.191,0,0,2022-06-30T10:06:13.625+02:00
258,2022-06-30T10:06:16.011+02:00,5808.613623541667,-24.742348022460938,1.239422607421875,-35.615736694335936,5808.603672541667,0.7992599086510371,0.2294683418706834,0.2074593549033457,-3.90310001373291,-6.104293346405029,1.615185260772705,-2.917117118835449,1.398815035820007,-2.251347303390503,XArbitraryZVertical,0.0504547158544689,0.1449167531841746,0.3953617308188489,0.9056172649623776,0.2225825041532516,-0.2059744000434875,-0.9529069066047668,0,0,0,-1,-1,5803.677212000001,unknown,2,2022-06-30T10:06:11.074+02:00,2022-06-30T08:20:05.567+02:00,1540,1.509928,0,0,1217.191,0,0,2022-06-30T10:06:13.625+02:00
259,2022-06-30T10:06:16.021+02:00,5808.623575541667,-21.646036834716803,-2.4517515563964847,-33.12731140136719,5808.613623541667,0.8197882910865785,0.1657255634311557,0.1746884758465482,-3.388455390930176,-5.942735195159912,1.074650287628174,-2.915967226028442,0.9915504455566406,-2.42656946182251,XArbitraryZVertical,0.0468742504094673,0.110266577291929,0.4022529501560361,0.907654525319316,0.1624573022127151,-0.1738013625144958,-0.9712881445884703,0,0,0,-1,-1,5803.677212000001,unknown,2,2022-06-30T10:06:11.074+02:00,2022-06-30T08:20:05.567+02:00,1540,1.509928,0,0,1217.191,0,0,2022-06-30T10:06:13.625+02:00
260,2022-06-30T10:06:16.031+02:00,5808.633526541667,-20.716320190429688,-1.834435272216797,-29.03422302246094,5808.623575541667,0.8330747673768106,0.1046915349700622,0.1432556416988673,-3.298286914825439,-5.903923988342285,0.7001230120658875,-2.625586032867432,0.2691090106964111,-2.646216869354248,XArbitraryZVertical,0.0442427164779728,0.0766413272522543,0.4064304308396485,0.909386097989438,0.1034299433231354,-0.1427661627531052,-0.9843373894691468,0,0,0,-1,-1,5803.677212000001,unknown,2,2022-06-30T10:06:11.074+02:00,2022-06-30T08:20:05.567+02:00,1540,1.509928,0,0,1217.191,0,0,2022-06-30T10:06:13.625+02:00
261,2022-06-30T10:06:16.041+02:00,5808.643478541667,-20.64267333984375,1.3880635070800782,-26.399102783203126,5808.633526541667,0.8413758471971156,0.0446673783789107,0.1091091791227739,-3.694466829299927,-5.95219087600708,0.4765440821647644,-2.250915050506592,-0.1410307884216309,-2.383830070495605,XArbitraryZVertical,0.0406542719746486,0.0426172177138132,0.4087907541520911,0.910725586984241,0.0443870015442371,-0.1088928207755089,-0.9930620193481444,0,0,0,-1,-1,5803.677212000001,unknown,2,2022-06-30T10:06:11.074+02:00,2022-06-30T08:20:05.567+02:00,1540,1.509928,0,0,1217.191,0,0,2022-06-30T10:06:13.625+02:00
262,2022-06-30T10:06:16.051+02:00,5808.653429541667,-19.611767120361325,6.022575988769532,-28.351043701171875,5808.643478541667,0.8472375919003774,-0.0152240989035051,0.0708264998009749,-3.972674369812012,-5.976179599761963,0.631607174873352,-2.096570491790771,-0.1162290647625923,-1.962278485298157,XArbitraryZVertical,0.0354023274729965,0.0076187941443022,0.4105467215528236,0.9111202814382858,-0.0151853431016206,-0.0707672983407974,-0.9973772764205932,0,0,0,-1,-1,5803.677212000001,unknown,2,2022-06-30T10:06:11.074+02:00,2022-06-30T08:20:05.567+02:00,1540,1.509928,0,0,1217.191,0,0,2022-06-30T10:06:13.625+02:00
263,2022-06-30T10:06:16.061+02:00,5808.663380541667,-16.25903915405274,7.079378356933594,-32.57076873779297,5808.653429541667,0.8542025349011081,-0.0745909026085275,0.0319098707818567,-3.707764387130737,-5.857809543609619,1.140006303787231,-2.029764652252197,0.1733993142843246,-1.694328308105469,XArbitraryZVertical,0.0299544970004138,-0.027328820728064,0.4133520062787592,0.9096681125063356,-0.0744838193058967,-0.0319044552743434,-0.9967117309570312,0,0,0,-1,-1,5803.677212000001,unknown,2,2022-06-30T10:06:11.074+02:00,2022-06-30T08:20:05.567+02:00,1540,1.509928,0,0,1217.191,0,0,2022-06-30T10:06:13.625+02:00
264,2022-06-30T10:06:16.071+02:00,5808.673332541667,-12.726085968017575,2.3144869995117188,-35.642530975341806,5808.663380541667,0.8643702607664534,-0.1314508039956712,-0.0029120483559974,-3.005103349685669,-5.533250331878662,1.57518208026886,-1.868089199066162,0.6110101938247681,-1.898645997047424,XArbitraryZVertical,0.0261903421996975,-0.0602476499397751,0.4180380363907991,0.90605105412147,-0.1310720145702362,0.0029120442923158,-0.9913685917854308,0,0,0,-1,-1,5803.677212000001,unknown,2,2022-06-30T10:06:11.074+02:00,2022-06-30T08:20:05.567+02:00,1540,1.509928,0,0,1217.191,0,0,2022-06-30T10:06:13.625+02:00
265,2022-06-30T10:06:16.081+02:00,5808.683283541667,-12.168196105957032,-3.7401223754882813,-34.18052124023438,5808.673332541667,0.8763659240800118,-0.1845824836724094,-0.0316760654943856,-2.372159004211426,-5.178874015808105,1.664910197257996,-1.473950743675232,0.6899785399436951,-2.337640047073364,XArbitraryZVertical,0.0248181328765481,-0.0901340040216403,0.4237577626846888,0.9009380235511456,-0.1834440529346466,0.0316707678139209,-0.9825198650360109,0,0,0,-1,-1,5803.677212000001,unknown,2,2022-06-30T10:06:11.074+02:00,2022-06-30T08:20:05.567+02:00,1540,1.509928,0,0,1217.191,0,0,2022-06-30T10:06:13.625+02:00
266,2022-06-30T10:06:16.091+02:00,5808.693235541667,-13.7954621887207,-6.800208892822266,-29.632079772949222,5808.683283541667,0.8867695504194579,-0.2330308664193437,-0.0573799745646278,-2.351846218109131,-4.60273265838623,1.41112208366394,-1.066709399223328,0.178583025932312,-2.66191577911377,XArbitraryZVertical,0.0241149506213911,-0.1171906128283831,0.428927681412079,0.8953802873258607,-0.2305474728345871,0.0573484934866428,-0.9713696837425232,0,0,0,-1,-1,5803.677212000001,unknown,2,2022-06-30T10:06:11.074+02:00,2022-06-30T08:20:05.567+02:00,1540,1.509928,0,0,1217.191,0,0,2022-06-30T10:06:13.625+02:00
267,2022-06-30T10:06:16.100+02:00,5808.703186541667,-14.654675445556636,-5.704038391113282,-24.924519195556638,5808.693235541667,0.8919769697961318,-0.2744375876895276,-0.0856430469025688,-2.972788095474243,-3.776431560516357,1.034359693527222,-0.9703750610351562,-0.4667943716049194,-2.525202989578247,XArbitraryZVertical,0.020691557886789,-0.1415872836488712,0.4321865314848603,0.8903593375502838,-0.2700123488903046,0.0855383872985839,-0.9590498208999634,0,0,0,-1,-1,5803.677212000001,unknown,2,2022-06-30T10:06:11.074+02:00,2022-06-30T08:20:05.567+02:00,1540,1.509928,0,0,1217.191,0,0,2022-06-30T10:06:13.625+02:00
268,2022-06-30T10:06:16.110+02:00,5808.713138541667,-12.65303787231445,-4.154610443115234,-23.282284240722657,5808.703186541667,0.8901770673673918,-0.3082469555263536,-0.1211314350845573,-3.938409090042114,-2.987807273864746,0.6751610040664673,-1.105100035667419,-0.8140268325805664,-2.074714422225952,XArbitraryZVertical,0.0119884380849516,-0.1640544816561552,0.4330410473160757,0.8862380573838319,-0.3011656105518341,0.1208354309201241,-0.9458848237991332,0,0,0,-1,-1,5803.677212000001,unknown,2,2022-06-30T10:06:11.074+02:00,2022-06-30T08:20:05.567+02:00,1540,1.509928,0,0,1217.191,0,0,2022-06-30T10:06:13.625+02:00
269,2022-06-30T10:06:16.120+02:00,5808.723089541667,-7.978109436035156,-2.2141955566406253,-23.96082321166993,5808.713138541667,0.8818020953701612,-0.336161646383745,-0.1622030054331599,-4.306770324707031,-2.414259195327759,0.3871031105518341,-1.168314933776855,-0.7429440021514893,-1.609089136123657,XArbitraryZVertical,-0.00107537516695,-0.1848801303238678,0.4316141745064028,0.8829084554325979,-0.3255361616611481,0.1614926904439926,-0.9316363334655762,0,0,0,-1,-1,5803.677212000001,unknown,2,2022-06-30T10:06:11.074+02:00,2022-06-30T08:20:05.567+02:00,1540,1.509928,0,0,1217.191,0,0,2022-06-30T10:06:13.625+02:00
270,2022-06-30T10:06:16.131+02:00,5808.733040541667,-4.020040283203125,0.7126679992675782,-25.98207000732422,5808.723089541667,0.8714302142872431,-0.3608909401888761,-0.2014096446278544,-3.67789888381958,-2.225833654403687,0.4186645150184631,-0.943840503692627,-0.6235582232475281,-1.456650972366333,XArbitraryZVertical,-0.0142995816297844,-0.2036181845094562,0.4294595451990537,0.879715692396574,-0.3459700345993042,0.2000506818294525,-0.9166703224182128,0,0,0,-1,-1,5803.677212000001,unknown,2,2022-06-30T10:06:11.074+02:00,2022-06-30T08:20:05.567+02:00,1540,1.509928,0,0,1217.191,0,0,2022-06-30T10:06:13.625+02:00
271,2022-06-30T10:06:16.140+02:00,5808.742992541667,-3.150199127197266,2.891686706542969,-28.968359985351565,5808.733040541667,0.8657196747539709,-0.3847616840282098,-0.2305055859149161,-2.068155765533447,-2.354460716247559,0.6616576910018921,-0.4478524029254913,-0.4541776478290558,-1.540116786956787,XArbitraryZVertical,-0.0227969182144147,-0.2197588914260242,0.4289579072409039,0.8758889620275931,-0.3654109239578247,0.2284697592258453,-0.902372658252716,0,0,0,-1,-1,5803.677212000001,unknown,2,2022-06-30T10:06:11.074+02:00,2022-06-30T08:20:05.567+02:00,1540,1.509928,0,0,1217.191,0,0,2022-06-30T10:06:13.625+02:00
272,2022-06-30T10:06:16.150+02:00,5808.752943541667,-5.975274353027344,1.3162129211425782,-29.601094207763676,5808.742992541667,0.8681140343805359,-0.40885797640162,-0.2426091394473565,-0.0125156408175826,-2.579470634460449,0.642156720161438,-0.0238715410232543,-0.1675889492034912,-1.757825136184692,XArbitraryZVertical,-0.0227511728403343,-0.2326596209518116,0.4310592314366458,0.8715158593455218,-0.3859188854694366,0.2402361780405045,-0.8907037973403931,0,0,0,-1,-1,5803.677212000001,unknown,2,2022-06-30T10:06:11.074+02:00,2022-06-30T08:20:05.567+02:00,1540,1.509928,0,0,1217.191,0,0,2022-06-30T10:06:13.625+02:00
273,2022-06-30T10:06:16.160+02:00,5808.762895541667,-9.453890533447264,-5.13297592163086,-29.688362731933594,5808.752943541667,0.8755598033203309,-0.4324194295360734,-0.2368064431519551,1.563220739364624,-2.429981708526611,0.1681944876909256,0.086251825094223,0.0601700246334075,-2.070326328277588,XArbitraryZVertical,-0.0141873827458863,-0.241849121313931,0.4341124203342894,0.8676717242556887,-0.407373458147049,0.2345993965864182,-0.8826154470443726,0,0,0,-1,-1,5803.677212000001,unknown,2,2022-06-30T10:06:11.074+02:00,2022-06-30T08:20:05.567+02:00,1540,1.509928,0,0,1217.191,0,0,2022-06-30T10:06:13.625+02:00
274,2022-06-30T10:06:16.170+02:00,5808.772846541667,-11.065588989257813,-10.094408569335938,-26.77586929321289,5808.762895541667,0.8834017942436322,-0.4522847294012595,-0.2199257351809231,1.969197630882263,-1.882403373718262,-0.1891625821590424,-0.1826053261756897,-0.0839864909648895,-2.139654159545898,XArbitraryZVertical,-0.0014130002752654,-0.2471937716621864,0.436322039770574,0.8651683704428456,-0.4264954328536987,0.2181571424007416,-0.8777864575386047,0,0,0,-1,-1,5803.677212000001,unknown,2,2022-06-30T10:06:11.074+02:00,2022-06-30T08:20:05.567+02:00,1540,1.509928,0,0,1217.191,0,0,2022-06-30T10:06:13.625+02:00
275,2022-06-30T10:06:16.180+02:00,5808.782797541667,-11.272608489990239,-11.869118041992188,-22.513782348632812,5808.772846541667,0.8878408998154866,-0.4659708497810086,-0.204344169836224,1.110136985778809,-1.014400005340576,-0.4456623792648315,-0.5237572193145752,-0.7261639833450317,-2.151538133621216,XArbitraryZVertical,0.0090234299834177,-0.2500388890422828,0.4369662788202028,0.8639789632334018,-0.4399425387382507,0.2029250115156174,-0.8747982382774353,0,0,0,-1,-1,5808.772386541667,running,2,2022-06-30T10:06:16.169+02:00,2022-06-30T08:20:05.567+02:00,1540,1.511563,0,0,1217.191,0,0,2022-06-30T10:06:16.169+02:00
276,2022-06-30T10:06:16.190+02:00,5808.792749541667,-9.863588562011719,-10.146051177978512,-17.785864105224615,5808.782797541667,0.8835662792927027,-0.4720997671306319,-0.1976312328063134,-0.3229998052120209,-0.0860281810164451,-0.9233394861221312,-0.6820858716964722,-1.225338816642761,-1.856167078018188,XArbitraryZVertical,0.0127912309649525,-0.2513898801702658,0.4345246144139298,0.8647703853180241,-0.4459052681922913,0.1963472217321396,-0.8732790350914001,0,0,0,-1,-1,5808.772386541667,running,2,2022-06-30T10:06:16.169+02:00,2022-06-30T08:20:05.567+02:00,1540,1.511563,0,0,1217.191,0,0,2022-06-30T10:06:16.169+02:00
277,2022-06-30T10:06:16.200+02:00,5808.802700541667,-10.7442073059082,-6.071673889160157,-14.356794891357428,5808.792749541667,0.8681476042053751,-0.472693520314601,-0.2020517961009424,-1.822546124458313,0.5681521892547607,-1.373745322227478,-0.703069806098938,-1.410579562187195,-1.422749876976013,XArbitraryZVertical,0.0090182815933666,-0.2525910994649605,0.4282187518709801,0.8676088980809745,-0.4460241794586182,0.2006798088550568,-0.8722327947616577,0,0,0,-1,-1,5808.772386541667,running,2,2022-06-30T10:06:16.169+02:00,2022-06-30T08:20:05.567+02:00,1540,1.511563,0,0,1217.191,0,0,2022-06-30T10:06:16.169+02:00
278,2022-06-30T10:06:16.210+02:00,5808.812652541667,-11.5537239074707,-2.2185365295410158,-12.06371337890625,5808.802700541667,0.842417338332492,-0.4687688153648558,-0.2157340991408229,-2.815775156021118,1.324437499046326,-1.894155502319336,-0.5641474723815918,-1.248320460319519,-0.9415885210037231,XArbitraryZVertical,-0.0011574495382741,-0.2535271478032116,0.4181906634233387,0.8722609251014063,-0.4413155913352966,0.2140645682811737,-0.8714452981948853,0,0,0,-1,-1,5808.772386541667,running,2,2022-06-30T10:06:16.169+02:00,2022-06-30T08:20:05.567+02:00,1540,1.511563,0,0,1217.191,0,0,2022-06-30T10:06:16.169+02:00
279,2022-06-30T10:06:16.220+02:00,5808.822603541667,-10.978320465087887,1.563798065185547,-10.424621887207032,5808.812652541667,0.8099839426356575,-0.4588699623786474,-0.2325176034752874,-2.965433597564697,2.084382295608521,-2.227729797363281,-0.6642149090766907,-0.8493549823760986,-0.5910587310791016,XArbitraryZVertical,-0.0148157071207885,-0.2521251806100541,0.4053431063642942,0.8785843407027171,-0.4310155808925629,0.2304280996322632,-0.8724267482757568,0,0,0,-1,-1,5808.772386541667,running,2,2022-06-30T10:06:16.169+02:00,2022-06-30T08:20:05.567+02:00,1540,1.511563,0,0,1217.191,0,0,2022-06-30T10:06:16.169+02:00
