,loggingTime(txt),accelerometerTimestamp_sinceReboot(s),accelerometerAccelerationX(G),accelerometerAccelerationY(G),accelerometerAccelerationZ(G),motionTimestamp_sinceReboot(s),motionYaw(rad),motionRoll(rad),motionPitch(rad),motionRotationRateX(rad/s),motionRotationRateY(rad/s),motionRotationRateZ(rad/s),motionUserAccelerationX(G),motionUserAccelerationY(G),motionUserAccelerationZ(G),motionAttitudeReferenceFrame(txt),motionQuaternionX(R),motionQuaternionY(R),motionQuaternionZ(R),motionQuaternionW(R),motionGravityX(G),motionGravityY(G),motionGravityZ(G),motionMagneticFieldX(µT),motionMagneticFieldY(µT),motionMagneticFieldZ(µT),motionHeading(°),motionMagneticFieldCalibrationAccuracy(Z),activityTimestamp_sinceReboot(s),activity(txt),activityActivityConfidence(Z),activityActivityStartDate(txt),pedometerStartDate(txt),pedometerNumberofSteps(N),pedometerAverageActivePace(s/m),pedometerCurrentPace(s/m),pedometerCurrentCadence(steps/s),pedometerDistance(m),pedometerFloorAscended(N),pedometerFloorDescended(N),pedometerEndDate(txt)
220,2022-06-30T10:06:29.615+02:00,5822.217205541667,20.631895751953127,4.9072453308105475,-3.573219451904297,5822.207254541667,-1.170167859893521,0.8944093338305352,-0.4017522534505208,-0.4148793816566467,4.225851058959961,3.254272222518921,1.000256061553955,0.2004291117191315,-0.1740610003471375,XArbitraryZVertical,0.0840431314701174,0.4526235580748803,-0.5598790151921974,0.6889152386141452,0.7177464962005615,0.3910316824913025,-0.5761373043060303,0,0,0,-1,-1,5821.512441000001,unknown,2,2022-06-30T10:06:28.909+02:00,2022-06-30T08:20:05.567+02:00,1545,1.51807,0,0,1220.719,0,0,2022-06-30T10:06:28.909+02:00
221,2022-06-30T10:06:29.625+02:00,5822.227157541667,21.970112915039063,4.901407470703125,-2.760110321044922,5822.217205541667,-1.14543132108522,0.9527821770773356,-0.379818266195558,-0.6148694753646851,5.614138603210449,3.002113580703735,1.156614065170288,0.17500901222229,-0.0161364078521728,XArbitraryZVertical,0.1030578952584711,0.4693795163076209,-0.5456710466353305,0.6865166903478385,0.7569451928138733,0.370751678943634,-0.5381239056587219,0,0,0,-1,-1,5821.512441000001,unknown,2,2022-06-30T10:06:28.909+02:00,2022-06-30T08:20:05.567+02:00,1545,1.51807,0,0,1220.719,0,0,2022-06-30T10:06:28.909+02:00
222,2022-06-30T10:06:29.635+02:00,5822.237108541667,21.693787536621095,6.173162841796875,-2.5909620666503907,5822.227157541667,-1.122329524826149,1.024001419596119,-0.3604561695277075,-0.875738263130188,7.013867855072021,2.601507663726807,1.303848147392273,0.1475273370742798,0.1222954392433167,XArbitraryZVertical,0.1241985840326117,0.4912287761150522,-0.5307677283068961,0.6793782725050058,0.7993015050888062,0.3527011275291443,-0.4865379929542542,0,0,0,-1,-1,5821.512441000001,unknown,2,2022-06-30T10:06:28.909+02:00,2022-06-30T08:20:05.567+02:00,1545,1.51807,0,0,1220.719,0,0,2022-06-30T10:06:28.909+02:00
223,2022-06-30T10:06:29.645+02:00,5822.247059541667,20.012334136962888,8.55261474609375,-2.0077748107910156,5822.237108541667,-1.100097391291669,1.108168748607854,-0.3452222118413114,-1.336505889892578,8.33792781829834,2.067951679229736,1.397478103637695,0.1612276136875153,0.1386125981807709,XArbitraryZVertical,0.1464402801425152,0.5182379298678584,-0.514955380633993,0.6669375177123467,0.842085063457489,0.3384057879447937,-0.419969379901886,0,0,0,-1,-1,5821.512441000001,unknown,2,2022-06-30T10:06:28.909+02:00,2022-06-30T08:20:05.567+02:00,1545,1.51807,0,0,1220.719,0,0,2022-06-30T10:06:28.909+02:00
224,2022-06-30T10:06:29.654+02:00,5822.257011541667,16.930093688964845,11.616892547607426,-1.1919712829589844,5822.247059541667,-1.076907271058084,1.205033964752006,-0.3357570394122422,-1.941777944564819,9.570847511291504,1.410272717475891,1.329689264297485,0.2997880280017853,0.0735756456851959,XArbitraryZVertical,0.1683438469494641,0.5502866318580609,-0.4978642094121489,0.6488268219409545,0.881706178188324,0.3294840455055237,-0.3376899361610413,0,0,0,-1,-1,5821.512441000001,unknown,2,2022-06-30T10:06:28.909+02:00,2022-06-30T08:20:05.567+02:00,1545,1.51807,0,0,1220.719,0,0,2022-06-30T10:06:28.909+02:00
225,2022-06-30T10:06:29.664+02:00,5822.266962541667,13.250744934082032,15.481855316162115,2.8481272888183593,5822.257011541667,-1.048798128057622,1.31654626458365,-0.3327582473309425,-3.041686773300171,11.01269245147705,0.7678584456443787,1.125232815742493,0.5451745986938477,0.0330564379692077,XArbitraryZVertical,0.1886663868699553,0.5878296715537148,-0.4783033553392463,0.6245696471062331,0.9147606492042542,0.3266512155532837,-0.2377225458621979,0,0,0,-1,-1,5821.512441000001,unknown,2,2022-06-30T10:06:28.909+02:00,2022-06-30T08:20:05.567+02:00,1545,1.51807,0,0,1220.719,0,0,2022-06-30T10:06:28.909+02:00
226,2022-06-30T10:06:29.674+02:00,5822.276914541667,10.912307739257812,19.32631072998047,9.284293212890626,5822.266962541667,-1.006705602688007,1.448297527546106,-0.3354501345066613,-5.040947437286377,12.69314098358154,0.1729032844305038,0.7886134386062622,0.8549942374229431,-0.00612373650074,XArbitraryZVertical,0.2055427666398758,0.6325039206681208,-0.453131745767789,0.5936014371198846,0.937186360359192,0.3291942477226257,-0.1153819262981415,0,0,0,-1,-1,5821.512441000001,unknown,2,2022-06-30T10:06:28.909+02:00,2022-06-30T08:20:05.567+02:00,1545,1.51807,0,0,1220.719,0,0,2022-06-30T10:06:28.909+02:00
227,2022-06-30T10:06:29.684+02:00,5822.286865541667,9.674980773925782,22.537582855224613,15.017520904541012,5822.276914541667,-0.9389369764028184,1.605438785860836,-0.3387480389289139,-7.892838954925537,14.3688440322876,-0.3203170895576477,0.4081331491470337,1.245863914489746,0.2576618194580078,XArbitraryZVertical,0.2162994677032508,0.6852358447586195,-0.4179404797539671,0.5558706616479978,0.9426056146621704,0.3323065340518951,0.0326672457158565,0,0,0,-1,-1,5821.512441000001,unknown,2,2022-06-30T10:06:28.909+02:00,2022-06-30T08:20:05.567+02:00,1545,1.51807,0,0,1220.719,0,0,2022-06-30T10:06:28.909+02:00
228,2022-06-30T10:06:29.694+02:00,5822.296817541667,6.690187683105469,25.14246597290039,18.232834625244138,5822.286865541667,-0.8413263638646543,1.788618882620471,-0.3324441931825325,-10.57540035247803,15.94648265838623,-0.8042529821395874,0.1894543170928955,1.643707513809204,0.7421392202377319,XArbitraryZVertical,0.2194900370960514,0.7442849548597538,-0.3699086316252677,0.5109126886584218,0.9229117631912231,0.3263543546199799,0.2042719423770905,0,0,0,-1,-1,5821.512441000001,unknown,2,2022-06-30T10:06:28.909+02:00,2022-06-30T08:20:05.567+02:00,1545,1.51807,0,0,1220.719,0,0,2022-06-30T10:06:28.909+02:00
229,2022-06-30T10:06:29.704+02:00,5822.306768541667,0.42766067504882815,25.965903625488284,22.642963714599613,5822.296817541667,-0.7229812646677364,1.992311383452273,-0.3049222771998233,-12.46746349334717,17.48757743835449,-1.046025037765503,0.1158585548400879,1.997189521789551,1.140568256378174,XArbitraryZVertical,0.2162097259043867,0.8052255554119596,-0.3092409015402838,0.4574223336256842,0.8703780770301819,0.3002190291881561,0.3902696669101715,0,0,0,-1,-1,5821.512441000001,unknown,2,2022-06-30T10:06:28.909+02:00,2022-06-30T08:20:05.567+02:00,1545,1.51807,0,0,1220.719,0,0,2022-06-30T10:06:28.909+02:00
230,2022-06-30T10:06:29.714+02:00,5822.316719541667,-8.071365509033203,23.94570465087891,31.07403121948243,5822.306768541667,-0.6025100239960295,2.205334356127973,-0.2496100822600646,-13.16904926300049,18.50550079345703,-1.119556427001953,-0.0984105467796325,2.315916061401367,1.284162998199463,XArbitraryZVertical,0.2090979295378728,0.8622615442389753,-0.2389293607173069,0.3945831867433481,0.7803871035575867,0.2470261454582214,0.5744338035583496,0,0,0,-1,-1,5821.512441000001,unknown,2,2022-06-30T10:06:28.909+02:00,2022-06-30T08:20:05.567+02:00,1545,1.51807,0,0,1220.719,0,0,2022-06-30T10:06:28.909+02:00
231,2022-06-30T10:06:29.724+02:00,5822.326671541667,-22.429956665039064,20.472926330566406,49.08143463134766,5822.316719541667,-0.497247822429036,2.413008458607059,-0.1714954789865858,-12.43897151947021,18.69874382019043,-1.241153120994568,-0.6124523878097534,2.476224660873413,1.572978496551514,XArbitraryZVertical,0.1995023304954037,0.9098270827696816,-0.1649117705500483,0.3243729265342017,0.6560471057891846,0.1706560850143433,0.7351729869842529,0,0,0,-1,-1,5821.512441000001,unknown,2,2022-06-30T10:06:28.909+02:00,2022-06-30T08:20:05.567+02:00,1545,1.51807,0,0,1220.719,0,0,2022-06-30T10:06:28.909+02:00
232,2022-06-30T10:06:29.734+02:00,5822.336622541667,-49.28650817871094,16.213384094238283,82.91407928466798,5822.326671541667,-0.4188595963220312,2.611475068684824,-0.089566002513681,-9.911930084228516,19.32343864440918,-1.698456883430481,-1.326377034187317,2.351501703262329,2.308297872543335,XArbitraryZVertical,0.1889690376674222,0.945481563640126,-0.0966692697981664,0.2470026998001067,0.503607988357544,0.0894462987780571,0.8592893481254578,0,0,0,-1,-1,5821.512441000001,unknown,2,2022-06-30T10:06:28.909+02:00,2022-06-30T08:20:05.567+02:00,1545,1.51807,0,0,1220.719,0,0,2022-06-30T10:06:28.909+02:00
233,2022-06-30T10:06:29.744+02:00,5822.346574541667,-74.12645324707032,8.116122436523439,115.84260406494136,5822.336622541667,-0.3608979801044248,2.819325600943391,-0.0176890788504719,-8.113779067993164,21.75123977661133,-3.140573740005493,-2.603106021881104,2.069256067276001,4.054832935333252,XArbitraryZVertical,0.1757435672999769,0.9712362856149622,-0.0373808458423143,0.1562592367185449,0.3166681826114655,0.0176881570369005,0.9483714699745178,0,0,0,-1,-1,5821.512441000001,unknown,2,2022-06-30T10:06:28.909+02:00,2022-06-30T08:20:05.567+02:00,1545,1.51807,0,0,1220.719,0,0,2022-06-30T10:06:28.909+02:00
234,2022-06-30T10:06:29.754+02:00,5822.356525541667,-84.77590759277344,11.67736679077149,141.61795394897464,5822.346574541667,-0.2940804749233637,3.02607026006245,0.0535802679377033,-9.037764549255373,18.90360260009766,-7.310069561004639,-5.139208793640137,1.706294775009155,7.460086822509766,XArbitraryZVertical,0.147743822783332,0.9869784406405075,0.0179987725578496,0.0610036804165222,0.1151002198457718,-0.0535546354949474,0.991909384727478,0,0,0,-1,-1,5821.512441000001,unknown,2,2022-06-30T10:06:28.909+02:00,2022-06-30T08:20:05.567+02:00,1545,1.51807,0,0,1220.719,0,0,2022-06-30T10:06:28.909+02:00
235,2022-06-30T10:06:29.764+02:00,5822.366477541667,-60.94052352905275,7.039112091064453,160.56420501708988,5822.356525541667,-0.1856468972849217,-3.122113180442569,0.1513594101482463,-10.99079895019531,10.19896602630615,-13.62727546691895,-7.536957740783691,0.9781134128570556,10.82024478912354,XArbitraryZVertical,0.0916873003186143,0.9928661204179596,0.0761786043721243,-0.0026621535653441,-0.0192555449903011,-0.1507821381092072,0.9883793592453004,0,0,0,-1,-1,5821.512441000001,unknown,2,2022-06-30T10:06:28.909+02:00,2022-06-30T08:20:05.567+02:00,1545,1.51807,0,0,1220.719,0,0,2022-06-30T10:06:28.909+02:00
236,2022-06-30T10:06:29.774+02:00,5822.376428541667,-60.732605895996095,0.7864645385742188,142.75768386840818,5822.366477541667,-0.027217389500785,-3.098667184350015,0.2626374260470669,-10.06801605224609,1.496767282485962,-17.86746215820312,-8.600343704223633,1.449981570243835,13.47126197814941,XArbitraryZVertical,0.01067811145514,0.9911082562609608,0.1311888631666484,-0.0194928625795968,-0.0414407737553119,-0.2596284449100494,0.9648191928863524,0,0,0,-1,-1,5821.512441000001,unknown,2,2022-06-30T10:06:28.909+02:00,2022-06-30T08:20:05.567+02:00,1545,1.51807,0,0,1220.719,0,0,2022-06-30T10:06:28.909+02:00
237,2022-06-30T10:06:29.784+02:00,5822.386379541667,-100.36898162841803,7.31483871459961,99.49749389648439,5822.376428541667,0.1665921850623905,3.09580736418902,0.3621454384730444,-9.481123924255373,-7.9155592918396,-19.31950569152832,-6.254882335662842,1.071825742721558,15.43324184417725,XArbitraryZVertical,-0.077710164195676,0.9803268062313224,0.1812868148712319,0.0074592457525347,0.0428006537258625,-0.3542813360691071,0.9341590404510498,0,0,0,-1,-1,5821.512441000001,unknown,2,2022-06-30T10:06:28.909+02:00,2022-06-30T08:20:05.567+02:00,1545,1.51807,0,0,1220.719,0,0,2022-06-30T10:06:28.909+02:00
238,2022-06-30T10:06:29.794+02:00,5822.396331541667,-130.9822709655762,42.843306884765624,35.89131362915039,5822.386379541667,0.4009143994969285,2.874675827539665,0.4108394686141505,-5.898154258728027,-18.13660430908203,-22.43216133117676,-6.432697296142578,0.4795486629009247,13.66794013977051,XArbitraryZVertical,-0.1665992855597173,0.9562454555017256,0.2240540569736314,0.0874021333556028,0.2418102771043777,-0.3993790745735168,0.884321391582489,0,0,0,-1,-1,5821.512441000001,unknown,2,2022-06-30T10:06:28.909+02:00,2022-06-30T08:20:05.567+02:00,1545,1.51807,0,0,1220.719,0,0,2022-06-30T10:06:28.909+02:00
239,2022-06-30T10:06:29.804+02:00,5822.406282541667,-170.33079528808594,121.02078598022463,-28.486062927246095,5822.396331541667,0.6311017711409123,2.560699538301625,0.3179039422719788,6.364635467529297,-27.95865440368652,-25.0800895690918,-10.75256538391113,1.05822741985321,9.348371505737305,XArbitraryZVertical,-0.2505024198510014,0.9133952258567568,0.2319209890109042,0.2217440245111073,0.5212734341621399,-0.3125762045383453,0.7940846085548401,0,0,0,-1,-1,5821.512441000001,unknown,2,2022-06-30T10:06:28.909+02:00,2022-06-30T08:20:05.567+02:00,1545,1.51807,0,0,1220.719,0,0,2022-06-30T10:06:28.909+02:00
240,2022-06-30T10:06:29.814+02:00,5822.416234541667,-147.38186782836914,227.5057493591309,-53.78121139526368,5822.406282541667,0.6899444964977534,2.228105833004441,0.0703268656883007,22.27356910705566,-34.73959732055664,-16.95088768005371,-14.1415958404541,4.437578678131104,3.049166440963745,XArbitraryZVertical,-0.2887268670586582,0.8493387197885282,0.1787439183473583,0.4041178348691742,0.7896822094917297,-0.0702689066529274,0.6094789505004883,0,0,0,-1,-1,5821.512441000001,unknown,2,2022-06-30T10:06:28.909+02:00,2022-06-30T08:20:05.567+02:00,1545,1.51807,0,0,1220.719,0,0,2022-06-30T10:06:28.909+02:00
241,2022-06-30T10:06:29.824+02:00,5822.426185541667,-150.24765838623054,260.5658505249024,74.15654067993164,5822.416234541667,0.4860540757382463,1.865969442313996,-0.1673110698017821,34.68027114868164,-34.84425735473633,-7.089755535125732,-18.30636787414551,12.16993999481201,-3.190621852874756,XArbitraryZVertical,-0.2409473066370904,0.7650921909329423,0.0776285083396575,0.5920744809850138,0.9433918595314026,0.166531577706337,0.286843329668045,0,0,0,-1,-1,5821.512441000001,unknown,2,2022-06-30T10:06:28.909+02:00,2022-06-30T08:20:05.567+02:00,1545,1.51807,0,0,1220.719,0,0,2022-06-30T10:06:28.909+02:00
242,2022-06-30T10:06:29.834+02:00,5822.436136541667,-279.85503845214845,170.48153182983404,188.40016983032223,5822.426185541667,0.1398906462774185,1.451202619506827,-0.1786305598556354,34.87022018432617,-34.90445327758789,12.17385864257812,-16.00069427490234,23.01352500915527,-5.364874362945557,XArbitraryZVertical,-0.1127568398299599,0.6546607493733108,-0.0069697300936793,0.7474334759972923,0.9770589470863342,0.1776820868253708,-0.1174103990197182,0,0,0,-1,-1,5821.512441000001,unknown,2,2022-06-30T10:06:28.909+02:00,2022-06-30T08:20:05.567+02:00,1545,1.51807,0,0,1220.719,0,0,2022-06-30T10:06:28.909+02:00
243,2022-06-30T10:06:29.844+02:00,5822.446088541667,-302.4569874572754,-133.77157058715818,90.86464599609376,5822.436136541667,-0.1119836441451117,1.129626176221519,0.0707778413826549,23.18303489685059,-22.12410163879395,17.435546875,-16.21775436401367,26.63196754455566,7.985208988189697,XArbitraryZVertical,0.0597751933774674,0.532411974874716,-0.0283327844934858,0.8438968102055958,0.9019887447357178,-0.070718765258789,-0.4259288311004639,0,0,0,-1,-1,5821.512441000001,unknown,2,2022-06-30T10:06:28.909+02:00,2022-06-30T08:20:05.567+02:00,1545,1.51807,0,0,1220.719,0,0,2022-06-30T10:06:28.909+02:00
244,2022-06-30T10:06:29.854+02:00,5822.456039541667,-159.49018844604495,-158.37201370239256,-19.850370941162115,5822.446088541667,-0.1596248654345853,0.9991230090613644,0.2860338632698714,5.077062129974365,-5.690643787384033,15.04643726348877,-29.33435440063477,17.66049003601074,19.72396850585938,XArbitraryZVertical,0.1625163168441677,0.4626656635332954,-0.0012096468284081,0.8715087487754712,0.8068275451660156,-0.282149463891983,-0.5190578699111938,0,0,0,-1,-1,5821.512441000001,unknown,2,2022-06-30T10:06:28.909+02:00,2022-06-30T08:20:05.567+02:00,1545,1.51807,0,0,1220.719,0,0,2022-06-30T10:06:28.909+02:00
245,2022-06-30T10:06:29.864+02:00,5822.465991541667,-65.37789596557619,-91.47372940063477,19.77567626953125,5822.456039541667,-0.0773056355623532,0.958118406293882,0.3490560725550267,-10.53422069549561,1.906471490859985,4.866774559020996,-31.60027313232422,-13.29423522949219,9.80283260345459,XArbitraryZVertical,0.1715228155534032,0.4476482521920048,0.0462080248389749,0.8763879926376,0.7687756419181824,-0.3420109450817108,-0.540381908416748,0,0,0,-1,-1,5821.512441000001,unknown,2,2022-06-30T10:06:28.909+02:00,2022-06-30T08:20:05.567+02:00,1545,1.51807,0,0,1220.719,0,0,2022-06-30T10:06:28.909+02:00
246,2022-06-30T10:06:29.873+02:00,5822.475942541667,-75.99486785888672,-50.66723693847656,45.83723098754882,5822.465991541667,0.0792844496128957,0.93167338883685,0.3066511911117585,-17.23888397216797,1.938141822814941,7.786092281341553,-17.02309608459473,-15.84206867218018,-1.454818248748779,XArbitraryZVertical,0.1187522170406036,0.4489601870114621,0.1035394169035401,0.8795524074960592,0.7651769518852234,-0.3018677532672882,-0.5686653256416321,0,0,0,-1,-1,5821.512441000001,unknown,2,2022-06-30T10:06:28.909+02:00,2022-06-30T08:20:05.567+02:00,1545,1.51807,0,0,1220.719,0,0,2022-06-30T10:06:28.909+02:00
247,2022-06-30T10:06:29.883+02:00,5822.485894541667,-57.661292724609375,-17.057927856445314,27.940896606445314,5822.475942541667,0.2916314374442979,0.8962202043516622,0.2454407746739571,-22.96269416809082,3.317564249038696,5.818862438201904,-7.421979904174805,-9.081555366516112,2.621717214584351,XArbitraryZVertical,0.046676215975123,0.4414715922666547,0.1824428764962144,0.8772906832282252,0.7575663328170776,-0.2429839074611664,-0.6058483123779297,0,0,0,-1,-1,5821.512441000001,unknown,2,2022-06-30T10:06:28.909+02:00,2022-06-30T08:20:05.567+02:00,1545,1.51807,0,0,1220.719,0,0,2022-06-30T10:06:28.909+02:00
248,2022-06-30T10:06:29.893+02:00,5822.495845541667,-32.591874847412114,15.429015197753907,-5.792504425048828,5822.485894541667,0.504661976626312,0.8913388670522574,0.1351751120769775,-22.4792537689209,2.695185899734497,4.247874736785889,-8.517491340637207,-5.030092239379883,5.295139312744141,XArbitraryZVertical,-0.0483644401863677,0.4316728338357261,0.2529514391688342,0.8644853644780512,0.7708173990249634,-0.1347638219594955,-0.6226388812065125,0,0,0,-1,-1,5821.512441000001,unknown,2,2022-06-30T10:06:28.909+02:00,2022-06-30T08:20:05.567+02:00,1545,1.51807,0,0,1220.719,0,0,2022-06-30T10:06:28.909+02:00
249,2022-06-30T10:06:29.903+02:00,5822.505797541667,-43.54429916381837,26.001828918457033,-17.51492752075195,5822.495845541667,0.6886845905493691,0.8724557856339497,0.0321386200888437,-19.0561695098877,-2.893770694732666,2.365796327590942,-6.643322467803955,-1.706697463989258,3.49082088470459,XArbitraryZVertical,-0.1289071988290905,0.4025855651476078,0.3123154578862418,0.8507449718377599,0.7655147314071655,-0.0321330875158309,-0.6426156163215637,0,0,0,-1,-1,5821.512441000001,unknown,2,2022-06-30T10:06:28.909+02:00,2022-06-30T08:20:05.567+02:00,1545,1.51807,0,0,1220.719,0,0,2022-06-30T10:06:28.909+02:00
250,2022-06-30T10:06:29.913+02:00,5822.515748541667,-38.6888461303711,25.635241241455073,-7.649842071533204,5822.505797541667,0.8154350867840505,0.8305471172386494,-0.0762407441843886,-14.18096351623535,-6.146378517150879,-1.574548840522766,-4.058467388153076,1.496617555618286,0.0820430517196655,XArbitraryZVertical,-0.1918672708615495,0.3562732263431016,0.3484348070398388,0.8454878463605786,0.7361558079719543,0.0761669054627418,-0.6725126504898071,0,0,0,-1,-1,5821.512441000001,unknown,2,2022-06-30T10:06:28.909+02:00,2022-06-30T08:20:05.567+02:00,1545,1.51807,0,0,1220.719,0,0,2022-06-30T10:06:28.909+02:00
251,2022-06-30T10:06:29.923+02:00,5822.525699541667,-46.856760864257815,26.555826873779303,-6.1152333068847655,5822.515748541667,0.8844614650501369,0.7595081827718122,-0.1660160512179082,-8.295028686523438,-9.28024673461914,-1.6899334192276,-5.117864608764648,2.485288858413696,-1.07021164894104,XArbitraryZVertical,-0.2276915952424109,0.30092256494567,0.3683203298054335,0.8496718860593334,0.6790977716445923,0.1652545034885406,-0.7152042984962463,0,0,0,-1,-1,5821.512441000001,unknown,2,2022-06-30T10:06:28.909+02:00,2022-06-30T08:20:05.567+02:00,1545,1.51807,0,0,1220.719,0,0,2022-06-30T10:06:28.909+02:00
252,2022-06-30T10:06:29.933+02:00,5822.535651541667,-43.95758972167969,19.214044189453126,-17.060622253417968,5822.525699541667,0.905538680921676,0.667887343471635,-0.2246530643592935,-3.583099126815796,-9.84584140777588,-2.978231906890869,-4.54758358001709,2.390406370162964,-0.0143979787826538,XArbitraryZVertical,-0.2377102684531361,0.2465613622305707,0.3776484221397828,0.860280835508091,0.6037658452987671,0.2227681577205658,-0.7654026746749878,0,0,0,-1,-1,5821.512441000001,unknown,2,2022-06-30T10:06:28.909+02:00,2022-06-30T08:20:05.567+02:00,1545,1.51807,0,0,1220.719,0,0,2022-06-30T10:06:28.909+02:00
253,2022-06-30T10:06:29.943+02:00,5822.545602541667,-40.85693756103516,9.87002517700195,-21.525986480712888,5822.535651541667,0.8888594289576559,0.5630086491896774,-0.2583652415732512,-0.2448622584342957,-10.38674831390381,-3.502096176147461,-5.292446136474609,2.451515674591064,0.1942175626754761,XArbitraryZVertical,-0.2301745148900335,0.1955177433853975,0.3772676209159532,0.8754779452893343,0.516017735004425,0.2555004060268402,-0.8175849914550781,0,0,0,-1,-1,5821.512441000001,unknown,2,2022-06-30T10:06:28.909+02:00,2022-06-30T08:20:05.567+02:00,1545,1.51807,0,0,1220.719,0,0,2022-06-30T10:06:28.909+02:00
254,2022-06-30T10:06:29.953+02:00,5822.555554541667,-41.93873794555663,10.548115081787115,-20.907622375488284,5822.545602541667,0.8564863962339453,0.4506018504094867,-0.2694223683401819,1.105069637298584,-10.39778900146484,-2.978038549423218,-4.900692939758301,1.692443609237671,-0.8713945746421814,XArbitraryZVertical,-0.2110196807364539,0.1470214099165118,0.3738167493103473,0.891132091078255,0.4197963774204254,0.2661746740341187,-0.8677107691764832,0,0,0,-1,-1,5821.512441000001,unknown,2,2022-06-30T10:06:28.909+02:00,2022-06-30T08:20:05.567+02:00,1545,1.51807,0,0,1220.719,0,0,2022-06-30T10:06:28.909+02:00
255,2022-06-30T10:06:29.963+02:00,5822.565505541667,-43.81508605957031,15.204182739257813,-21.890478515625002,5822.555554541667,0.827780616916398,0.341686872454497,-0.269052862311486,1.026916742324829,-9.9704008102417,-2.183416604995728,-4.487847805023193,0.7403004169464111,-1.285996675491333,XArbitraryZVertical,-0.1887658616626565,0.1010970403119069,0.3718614173008551,0.9032530242357754,0.3230218887329102,0.2658185064792633,-0.9082936644554138,0,0,0,-1,-1,5821.512441000001,unknown,2,2022-06-30T10:06:28.909+02:00,2022-06-30T08:20:05.567+02:00,1545,1.51807,0,0,1220.719,0,0,2022-06-30T10:06:28.909+02:00
256,2022-06-30T10:06:29.973+02:00,5822.575456541667,-45.731999816894536,17.49262390136719,-27.718758544921876,5822.565505541667,0.8046150944538604,0.2377803757921637,-0.2648586353426158,1.180948257446289,-9.68044662475586,-1.927985787391663,-4.502433776855469,0.813468337059021,-1.19328236579895,XArbitraryZVertical,-0.1666769492738685,0.0568494783215883,0.3709634152580568,0.9117967126049936,0.2273324429988861,0.2617728412151337,-0.9379738569259644,0,0,0,-1,-1,5821.512441000001,unknown,2,2022-06-30T10:06:28.909+02:00,2022-06-30T08:20:05.567+02:00,1545,1.51807,0,0,1220.719,0,0,2022-06-30T10:06:28.909+02:00
257,2022-06-30T10:06:29.983+02:00,5822.585408541667,-45.90608779907226,16.285084991455076,-31.08196472167969,5822.575456541667,0.7826038840653405,0.1376105137600623,-0.2527042177452402,2.079193353652954,-9.289855003356934,-1.817516565322876,-4.599189758300781,1.299842596054077,-1.272358655929565,XArbitraryZVertical,-0.1422274561429573,0.0150998027347763,0.3694477701080353,0.9181784783358358,0.1328198611736298,0.25002321600914,-0.9590867161750792,0,0,0,-1,-1,5821.512441000001,unknown,2,2022-06-30T10:06:28.909+02:00,2022-06-30T08:20:05.567+02:00,1545,1.51807,0,0,1220.719,0,0,2022-06-30T10:06:28.909+02:00
258,2022-06-30T10:06:29.993+02:00,5822.595359541667,-44.2457405090332,10.044113159179688,-33.03091186523438,5822.585408541667,0.7621834802777012,0.0428023085326733,-0.2292482967882742,2.874847888946533,-8.740880012512207,-1.787241101264954,-4.703444004058838,1.555896639823914,-1.85261595249176,XArbitraryZVertical,-0.1140507344257463,-0.0227956398547606,0.3671368429826491,0.9228669749363834,0.0416697673499584,0.2272455543279648,-0.9729455709457396,0,0,0,-1,-1,5821.512441000001,unknown,2,2022-06-30T10:06:28.909+02:00,2022-06-30T08:20:05.567+02:00,1545,1.51807,0,0,1220.719,0,0,2022-06-30T10:06:28.909+02:00
259,2022-06-30T10:06:30.003+02:00,5822.605311541667,-38.713095703125,3.2251931762695314,-32.05075012207031,5822.595359541667,0.7434498382876585,-0.0439670737886172,-0.2013941824537692,2.61031436920166,-7.878047466278076,-1.866264224052429,-4.636455535888672,1.46001398563385,-2.189554214477539,XArbitraryZVertical,-0.0856947551010235,-0.0568816105997336,0.3633546176799184,0.925955952412173,-0.0430645607411861,0.2000355273485184,-0.9788417816162108,0,0,0,-1,-1,5821.512441000001,unknown,2,2022-06-30T10:06:28.909+02:00,2022-06-30T08:20:05.567+02:00,1545,1.51807,0,0,1220.719,0,0,2022-06-30T10:06:28.909+02:00
260,2022-06-30T10:06:30.013+02:00,5822.615262541667,-33.09003890991212,1.8209632873535158,-29.01730819702149,5822.605311541667,0.7270727491358135,-0.1212267716904516,-0.1797692548979733,1.384238362312317,-7.070422649383545,-1.685827136039734,-4.391288280487061,0.845062255859375,-2.390401124954224,XArbitraryZVertical,-0.0622902248224909,-0.0882484486518295,0.3585780414999387,0.9272292732264688,-0.1189812794327736,0.1788025498390198,-0.9766643047332764,0,0,0,-1,-1,5821.512441000001,unknown,2,2022-06-30T10:06:28.909+02:00,2022-06-30T08:20:05.567+02:00,1545,1.51807,0,0,1220.719,0,0,2022-06-30T10:06:28.909+02:00
261,2022-06-30T10:06:30.023+02:00,5822.625214541667,-30.436956024169927,4.89302490234375,-27.2791227722168,5822.615262541667,0.7136996284888412,-0.1911851254993995,-0.1701294176350143,0.0768980011343956,-6.568465232849121,-1.152766466140747,-3.759010314941406,0.1594560295343399,-2.299545288085938,XArbitraryZVertical,-0.0460248414234795,-0.1186545147055783,0.3540705704787993,0.9265187411659556,-0.1872791796922684,0.1693098992109299,-0.9676056504249572,0,0,0,-1,-1,5821.512441000001,unknown,2,2022-06-30T10:06:28.909+02:00,2022-06-30T08:20:05.567+02:00,1545,1.51807,0,0,1220.719,0,0,2022-06-30T10:06:28.909+02:00
262,2022-06-30T10:06:30.033+02:00,5822.635165541667,-29.702882537841802,11.025622100830075,-28.347451171875,5822.625214541667,0.7044322031821302,-0.2576688233344423,-0.1700270646802395,-0.241307869553566,-6.48707914352417,-0.6142198443412781,-3.121940612792969,0.0164141803979873,-2.004888534545898,XArbitraryZVertical,-0.0348757870331963,-0.1492053511730249,0.3511236110071393,0.9237064687507456,-0.2511524856090546,0.1692090183496475,-0.9530428647994996,0,0,0,-1,-1,5821.512441000001,unknown,2,2022-06-30T10:06:28.909+02:00,2022-06-30T08:20:05.567+02:00,1545,1.51807,0,0,1220.719,0,0,2022-06-30T10:06:28.909+02:00
263,2022-06-30T10:06:30.043+02:00,5822.645117541667,-30.934820709228514,13.98302215576172,-32.36240203857422,5822.635165541667,0.7028494756458065,-0.3231466020491029,-0.1684112141701972,0.5979154109954834,-6.601482391357422,0.200811579823494,-2.789587020874023,0.3311631083488464,-1.84592080116272,XArbitraryZVertical,-0.0227559141706152,-0.1790793778636824,0.3512518157151149,0.9187136914963135,-0.3130592405796051,0.1676162481307983,-0.9348254799842834,0,0,0,-1,-1,5821.512441000001,unknown,2,2022-06-30T10:06:28.909+02:00,2022-06-30T08:20:05.567+02:00,1545,1.51807,0,0,1220.719,0,0,2022-06-30T10:06:28.909+02:00
264,2022-06-30T10:06:30.053+02:00,5822.655068541667,-28.1033088684082,8.023016052246094,-35.92798736572266,5822.645117541667,0.712352444722264,-0.3866784739028936,-0.157670021257675,2.090454578399658,-6.464131355285645,0.7780971527099609,-2.655380725860596,0.9668990969657898,-1.974969863891602,XArbitraryZVertical,-0.0056466108383777,-0.2064676934742201,0.355315121401501,0.911641585393264,-0.3724364042282104,0.1570175588130951,-0.914678394794464,0,0,0,-1,-1,5821.512441000001,unknown,2,2022-06-30T10:06:28.909+02:00,2022-06-30T08:20:05.567+02:00,1545,1.51807,0,0,1220.719,0,0,2022-06-30T10:06:28.909+02:00
265,2022-06-30T10:06:30.063+02:00,5822.665019541667,-23.960224456787113,-2.0600161743164063,-36.00702301025391,5822.655068541667,0.7326310752197804,-0.4471976664109094,-0.1378200438742063,3.071726560592651,-6.266911506652832,1.286147713661194,-2.725056886672974,1.288000464439392,-2.405806541442871,XArbitraryZVertical,0.0165471877843678,-0.2305857912007603,0.3626874414240874,0.9027813157671346,-0.4283399879932404,0.1373841613531113,-0.8931127786636353,0,0,0,-1,-1,5821.512441000001,unknown,2,2022-06-30T10:06:28.909+02:00,2022-06-30T08:20:05.567+02:00,1545,1.51807,0,0,1220.719,0,0,2022-06-30T10:06:28.909+02:00
266,2022-06-30T10:06:30.072+02:00,5822.674971541667,-21.61355438232422,-8.962013397216799,-31.67742645263672,5822.665019541667,0.7601740768442226,-0.5032837052861624,-0.1179552310873215,2.797860622406006,-5.64588451385498,1.745683550834656,-2.38580846786499,0.7001587748527527,-2.792467355728149,XArbitraryZVertical,0.0392038014284141,-0.2520016099052583,0.3723209900558206,0.8923762624559652,-0.4789533019065857,0.1176818907260895,-0.8699164986610413,0,0,0,-1,-1,5821.512441000001,unknown,2,2022-06-30T10:06:28.909+02:00,2022-06-30T08:20:05.567+02:00,1545,1.51807,0,0,1220.719,0,0,2022-06-30T10:06:28.909+02:00
267,2022-06-30T10:06:30.082+02:00,5822.684922541667,-19.008222198486326,-12.511132965087887,-27.920988006591802,5822.674971541667,0.7858079604497038,-0.5518978011589115,-0.1094062736338892,1.177825212478638,-4.674463272094727,1.748141407966614,-1.921259522438049,-0.319179505109787,-2.824000597000122,XArbitraryZVertical,0.0555627756986132,-0.2714642945182537,0.3815983260714376,0.8818178712263279,-0.5211694836616516,0.1091881468892097,-0.8464398384094238,0,0,0,-1,-1,5821.512441000001,unknown,2,2022-06-30T10:06:28.909+02:00,2022-06-30T08:20:05.567+02:00,1545,1.51807,0,0,1220.719,0,0,2022-06-30T10:06:28.909+02:00
268,2022-06-30T10:06:30.092+02:00,5822.694874541667,-16.782500610351562,-10.956316223144531,-25.337510375976564,5822.684922541667,0.8007651307538605,-0.5909166396613887,-0.116061445240431,-0.6780852675437927,-3.526698350906372,1.497713565826416,-1.649842500686646,-1.029359936714172,-2.404251575469971,XArbitraryZVertical,0.0622048982310585,-0.2893246611557949,0.387805940978585,0.872942407296537,-0.5533744096755981,0.1158010587096214,-0.8248435854911804,0,0,0,-1,-1,5821.512441000001,unknown,2,2022-06-30T10:06:28.909+02:00,2022-06-30T08:20:05.567+02:00,1545,1.51807,0,0,1220.719,0,0,2022-06-30T10:06:28.909+02:00
269,2022-06-30T10:06:30.102+02:00,5822.704825541667,-15.831378479003908,-6.204447784423828,-24.794439697265627,5822.694874541667,0.8037441721575204,-0.6213010214159315,-0.1354344558754688,-2.093747138977051,-2.693656206130981,1.217343688011169,-1.36087441444397,-1.410365581512451,-2.040499925613403,XArbitraryZVertical,0.059995639625876,-0.3058799858618525,0.3906023165066101,0.8661801220250906,-0.5767632126808167,0.1350208073854446,-0.8056759238243103,0,0,0,-1,-1,5821.512441000001,unknown,2,2022-06-30T10:06:28.909+02:00,2022-06-30T08:20:05.567+02:00,1545,1.51807,0,0,1220.719,0,0,2022-06-30T10:06:28.909+02:00
270,2022-06-30T10:06:30.112+02:00,5822.714776541667,-14.961088256835938,-1.6798068237304689,-26.070985107421876,5822.704825541667,0.798743750590346,-0.6460512596325096,-0.16112078628926,-2.511612176895142,-2.156684875488281,1.067812085151672,-1.116514205932617,-1.277276277542114,-1.794698715209961,XArbitraryZVertical,0.0527259804286523,-0.321180867699619,0.3910677331269868,0.8608884069161781,-0.5942406058311462,0.1604245752096176,-0.7881256341934204,0,0,0,-1,-1,5821.512441000001,unknown,2,2022-06-30T10:06:28.909+02:00,2022-06-30T08:20:05.567+02:00,1545,1.51807,0,0,1220.719,0,0,2022-06-30T10:06:28.909+02:00
271,2022-06-30T10:06:30.123+02:00,5822.724728541667,-13.560301208496094,-0.7364685058593751,-28.2182698059082,5822.714776541667,0.7928499734197476,-0.6666745248223931,-0.1857644339803895,-2.053765535354614,-1.801776885986328,1.023845672607422,-1.006063342094421,-0.8171592950820923,-1.755103945732117,XArbitraryZVertical,0.0449478278417682,-0.3343634386193894,0.3912901408969032,0.856196707739644,-0.6077370047569275,0.1846978664398193,-0.7723615765571594,0,0,0,-1,-1,5821.512441000001,unknown,2,2022-06-30T10:06:28.909+02:00,2022-06-30T08:20:05.567+02:00,1545,1.51807,0,0,1220.719,0,0,2022-06-30T10:06:28.909+02:00
272,2022-06-30T10:06:30.132+02:00,5822.734679541667,-11.76119247436524,-3.0722113037109375,-28.81447998046875,5822.724728541667,0.7898041775655056,-0.6841150679693981,-0.2046781768402722,-1.280897855758667,-1.590674161911011,0.8783848285675049,-0.9062901735305786,-0.374486118555069,-1.89879035949707,XArbitraryZVertical,0.0395345359562621,-0.3450159115900431,0.39216339971022,0.8518268798220597,-0.61879563331604,0.2032520622014999,-0.758802056312561,0,0,0,-1,-1,5821.512441000001,unknown,2,2022-06-30T10:06:28.909+02:00,2022-06-30T08:20:05.567+02:00,1545,1.51807,0,0,1220.719,0,0,2022-06-30T10:06:28.909+02:00
273,2022-06-30T10:06:30.142+02:00,5822.744631541667,-10.539133758544926,-5.769302673339844,-28.408524169921876,5822.734679541667,0.7892666131551488,-0.6990404031742735,-0.2177288038386164,-0.8762916922569275,-1.367539644241333,0.7035509347915649,-0.7540028691291809,-0.2910857796669006,-2.129091739654541,XArbitraryZVertical,0.0366469970823887,-0.3535010864993689,0.3934320633674849,0.8478827882279081,-0.6282911896705627,0.2160126119852066,-0.7473879456520081,0,0,0,-1,-1,5821.512441000001,unknown,2,2022-06-30T10:06:28.909+02:00,2022-06-30T08:20:05.567+02:00,1545,1.51807,0,0,1220.719,0,0,2022-06-30T10:06:28.909+02:00
274,2022-06-30T10:06:30.152+02:00,5822.754582541667,-9.335486755371095,-5.787564697265625,-27.782975006103513,5822.744631541667,0.7885531376429076,-0.7107220539907606,-0.2278824165539246,-0.7911655306816101,-0.9333754777908324,0.522506058216095,-0.5633834600448608,-0.5390864610671997,-2.198958396911621,XArbitraryZVertical,0.0343738262807786,-0.3600969455465047,0.3943270107398905,0.8447809920986477,-0.6355151534080505,0.2259151935577393,-0.7382972836494446,0,0,0,-1,-1,5821.512441000001,unknown,2,2022-06-30T10:06:28.909+02:00,2022-06-30T08:20:05.567+02:00,1545,1.51807,0,0,1220.719,0,0,2022-06-30T10:06:28.909+02:00
275,2022-06-30T10:06:30.162+02:00,5822.764534541667,-9.014554138183595,-4.186494140625,-25.783433074951176,5822.754582541667,0.7862105421456929,-0.7181463682444202,-0.2369661260305953,-0.8907145261764526,-0.4556001126766205,0.3062437772750854,-0.4347236752510071,-0.8228588104248047,-2.163890600204468,XArbitraryZVertical,0.0314396752658666,-0.3647190494154937,0.3944839956205041,0.8428368826834229,-0.6396022439002991,0.2347546219825745,-0.7319831252098083,0,0,0,-1,-1,5821.512441000001,unknown,2,2022-06-30T10:06:28.909+02:00,2022-06-30T08:20:05.567+02:00,1545,1.51807,0,0,1220.719,0,0,2022-06-30T10:06:28.909+02:00
276,2022-06-30T10:06:30.172+02:00,5822.774485541667,-9.623038787841798,-3.2813264465332033,-23.471041717529303,5822.764534541667,0.7810535831107837,-0.7217499120723323,-0.2448513993323567,-0.972176432609558,-0.0181377194821834,-0.0291088335216045,-0.3106371164321899,-0.8323779106140137,-2.103845834732056,XArbitraryZVertical,0.0277560288055804,-0.3675580644193597,0.3933630982960039,0.8422566376127305,-0.6409928202629089,0.2424121648073196,-0.7282613515853882,0,0,0,-1,-1,5821.512441000001,unknown,2,2022-06-30T10:06:28.909+02:00,2022-06-30T08:20:05.567+02:00,1545,1.51807,0,0,1220.719,0,0,2022-06-30T10:06:28.909+02:00
277,2022-06-30T10:06:30.182+02:00,5822.784436541667,-9.597442016601564,-3.8104760742187502,-20.73757598876953,5822.774485541667,0.7723909833799765,-0.7213112737282054,-0.2505979975429605,-0.99040949344635,0.5558075904846191,-0.4765441119670868,-0.2791723012924194,-0.6747410297393799,-1.900795936584473,XArbitraryZVertical,0.0235597498119083,-0.3683785760797506,0.3905240480520475,0.8433464611959051,-0.6397428512573242,0.2479833215475082,-0.7274843454360962,0,0,0,-1,-1,5821.512441000001,unknown,2,2022-06-30T10:06:28.909+02:00,2022-06-30T08:20:05.567+02:00,1545,1.51807,0,0,1220.719,0,0,2022-06-30T10:06:28.909+02:00
278,2022-06-30T10:06:30.192+02:00,5822.794388541667,-9.822573852539064,-3.2876133728027344,-17.22108856201172,5822.784436541667,0.760990665973765,-0.7155795142991422,-0.2538044045005257,-0.9701300263404846,1.156050086021423,-0.7311856150627136,-0.3459044694900513,-0.5855761170387268,-1.66202712059021,XArbitraryZVertical,0.0189446299918658,-0.3665697952862245,0.3862174403279262,0.8462292835739522,-0.6350376605987549,0.2510882914066315,-0.7305353879928589,0,0,0,-1,-1,5821.512441000001,unknown,2,2022-06-30T10:06:28.909+02:00,2022-06-30T08:20:05.567+02:00,1545,1.51807,0,0,1220.719,0,0,2022-06-30T10:06:28.909+02:00
279,2022-06-30T10:06:30.202+02:00,5822.804339541667,-10.542426910400387,-2.385289764404297,-13.825399932861325,5822.794388541667,0.7479078822573895,-0.7047895838599914,-0.2564442066464839,-1.108165621757507,1.668423891067505,-0.8530420064926147,-0.3516460657119751,-0.6420702934265137,-1.377084612846375,XArbitraryZVertical,0.0133274688970188,-0.3624965926933786,0.3811205249382502,0.8503915001737272,-0.6266868114471436,0.2536426484584808,-0.7368372082710266,0,0,0,-1,-1,5821.512441000001,unknown,2,2022-06-30T10:06:28.909+02:00,2022-06-30T08:20:05.567+02:00,1545,1.51807,0,0,1220.719,0,0,2022-06-30T10:06:28.909+02:00
