,loggingTime(txt),accelerometerTimestamp_sinceReboot(s),accelerometerAccelerationX(G),accelerometerAccelerationY(G),accelerometerAccelerationZ(G),motionTimestamp_sinceReboot(s),motionYaw(rad),motionRoll(rad),motionPitch(rad),motionRotationRateX(rad/s),motionRotationRateY(rad/s),motionRotationRateZ(rad/s),motionUserAccelerationX(G),motionUserAccelerationY(G),motionUserAccelerationZ(G),motionAttitudeReferenceFrame(txt),motionQuaternionX(R),motionQuaternionY(R),motionQuaternionZ(R),motionQuaternionW(R),motionGravityX(G),motionGravityY(G),motionGravityZ(G),motionMagneticFieldX(µT),motionMagneticFieldY(µT),motionMagneticFieldZ(µT),motionHeading(°),motionMagneticFieldCalibrationAccuracy(Z),activityTimestamp_sinceReboot(s),activity(txt),activityActivityConfidence(Z),activityActivityStartDate(txt),pedometerStartDate(txt),pedometerNumberofSteps(N),pedometerAverageActivePace(s/m),pedometerCurrentPace(s/m),pedometerCurrentCadence(steps/s),pedometerDistance(m),pedometerFloorAscended(N),pedometerFloorDescended(N),pedometerEndDate(txt)
281,2022-06-30T09:45:18.255+02:00,4617.971813,-0.920885009765625,0.7551795959472657,26.945466613769533,4617.961861000001,-1.327294714671114,2.881110536224257,0.1526387153794287,-1.733438372612,1.505814671516418,1.653424024581909,-0.4179891049861908,0.2556839883327484,1.692505717277527,XArbitraryZVertical,0.6167996215789027,0.7727056107766143,-0.0202146416490571,0.1485787460568197,0.254552036523819,-0.1520466953516006,0.9550314545631408,0,0,0,-1,-1,4606.70555775,unknown,2,2022-06-30T09:45:06.990+02:00,2022-06-30T08:20:05.567+02:00,1379,1.385177,0,0,1089.191,0,0,2022-06-30T09:44:05.799+02:00
282,2022-06-30T09:45:18.265+02:00,4617.981764,-0.8725355529785157,-0.1279838562011719,26.899811553955075,4617.971813,-1.337991363531629,2.898048644708076,0.175091742172035,-2.124111652374268,1.538874864578247,1.538432478904724,-0.3683314323425293,0.2624549269676208,1.750006675720215,XArbitraryZVertical,0.621579664321045,0.7690671576500754,-0.0069684507636226,0.1487475392702081,0.2374565899372101,-0.1741984784603119,0.9556511640548706,0,0,0,-1,-1,4606.70555775,unknown,2,2022-06-30T09:45:06.990+02:00,2022-06-30T08:20:05.567+02:00,1379,1.385177,0,0,1089.191,0,0,2022-06-30T09:44:05.799+02:00
283,2022-06-30T09:45:18.274+02:00,4617.991716,-0.7354206848144531,-1.7226177978515627,26.879154510498054,4617.981764,-1.347314959150235,2.915947310054066,0.1992234014092021,-2.418325424194336,1.599849939346313,1.413585186004639,-0.3131822943687439,0.2748883664608002,1.791362643241882,XArbitraryZVertical,0.6255597845271436,0.7657420669955484,0.0073413444013076,0.1491983698307842,0.2193100303411484,-0.1979081481695175,0.955371916294098,0,0,0,-1,-1,4606.70555775,unknown,2,2022-06-30T09:45:06.990+02:00,2022-06-30T08:20:05.567+02:00,1379,1.385177,0,0,1089.191,0,0,2022-06-30T09:44:05.799+02:00
284,2022-06-30T09:45:18.284+02:00,4618.001667,-0.8815168762207032,-2.705024871826172,26.840834197998053,4617.991716,-1.355118557470766,2.934166033430162,0.2266263562539659,-2.657201290130615,1.725609421730042,1.271238446235657,-0.2896201014518738,0.2116447985172272,1.788538455963135,XArbitraryZVertical,0.6286462120365548,0.7626106619522605,0.0231362384060693,0.1506439878781624,0.2006764113903046,-0.2246914356946945,0.953542172908783,0,0,0,-1,-1,4606.70555775,unknown,2,2022-06-30T09:45:06.990+02:00,2022-06-30T08:20:05.567+02:00,1379,1.385177,0,0,1089.191,0,0,2022-06-30T09:44:05.799+02:00
285,2022-06-30T09:45:18.295+02:00,4618.011619,-1.6429833984375002,-2.938389587402344,26.743087463378906,4618.001667,-1.361561627520929,2.953729872259962,0.256340250716434,-2.970386266708374,1.895097136497498,1.132906317710876,-0.25562384724617,0.0779435634613037,1.789669990539551,XArbitraryZVertical,0.6308015838731597,0.7597643203471619,0.0403390129748439,0.1523821535036116,0.180657222867012,-0.2535420954227448,0.950304925441742,0,0,0,-1,-1,4606.70555775,unknown,2,2022-06-30T09:45:06.990+02:00,2022-06-30T08:20:05.567+02:00,1379,1.385177,0,0,1089.191,0,0,2022-06-30T09:44:05.799+02:00
286,2022-06-30T09:45:18.304+02:00,4618.02157,-2.0423529052734377,-3.2949481201171875,26.44924850463868,4618.011619,-1.366184857287883,2.974950022414744,0.2886312418765652,-3.2487473487854,2.123784780502319,0.8752755522727966,-0.2488702237606049,0.008898377418518,1.790714025497437,XArbitraryZVertical,0.6317495274459075,0.7573439754087335,0.0591745618168101,0.1543407231103011,0.159011036157608,-0.2846403419971466,0.945354700088501,0,0,0,-1,-1,4606.70555775,unknown,2,2022-06-30T09:45:06.990+02:00,2022-06-30T08:20:05.567+02:00,1379,1.385177,0,0,1089.191,0,0,2022-06-30T09:44:05.799+02:00
287,2022-06-30T09:45:18.314+02:00,4618.031522,-2.1906944274902345,-4.2397833251953125,26.322462158203127,4618.02157,-1.367986148786685,2.997888377598273,0.3222199659728241,-3.352298259735107,2.378973484039307,0.4993856847286224,-0.3033204972743988,0.0171425342559814,1.787347078323364,XArbitraryZVertical,0.631026122348651,0.755767800638683,0.0792325773814698,0.1560238044162241,0.1358398795127869,-0.3166730403900146,0.9387578964233398,0,0,0,-1,-1,4606.70555775,unknown,2,2022-06-30T09:45:06.990+02:00,2022-06-30T08:20:05.567+02:00,1379,1.385177,0,0,1089.191,0,0,2022-06-30T09:44:05.799+02:00
288,2022-06-30T09:45:18.324+02:00,4618.041474000001,-2.7607090759277346,-5.874234466552735,26.341173248291014,4618.031522,-1.366390195877835,3.022605173195032,0.3556707975694474,-3.340258598327637,2.705818653106689,0.0735430419445037,-0.3194685280323029,0.0123423933982849,1.765366554260254,XArbitraryZVertical,0.6283765891943833,0.7553379578396404,0.1000106574336502,0.1568610049017591,0.1112774312496185,-0.348219245672226,0.9307851195335388,0,0,0,-1,-1,4606.70555775,unknown,2,2022-06-30T09:45:06.990+02:00,2022-06-30T08:20:05.567+02:00,1379,1.385177,0,0,1089.191,0,0,2022-06-30T09:44:05.799+02:00
289,2022-06-30T09:45:18.334+02:00,4618.051425000001,-3.976630554199219,-7.1967343139648445,26.79802322387695,4618.041474000001,-1.360695129740841,3.049311704946596,0.3880288550932661,-3.230839729309082,3.080737113952637,-0.4618538618087769,-0.3086118400096893,-0.0538257360458374,1.761509299278259,XArbitraryZVertical,0.6235167045735149,0.7563636450911502,0.1212434121524418,0.1563360918635226,0.0852992907166481,-0.3783645331859589,0.9217180609703064,0,0,0,-1,-1,4606.70555775,unknown,2,2022-06-30T09:45:06.990+02:00,2022-06-30T08:20:05.567+02:00,1379,1.385177,0,0,1089.191,0,0,2022-06-30T09:44:05.799+02:00
290,2022-06-30T09:45:18.344+02:00,4618.061377,-5.735473022460938,-7.319329376220703,28.355833740234377,4618.051425000001,-1.349867978440559,3.077753227735397,0.4188797411856902,-3.122178554534912,3.499152660369873,-1.049065709114075,-0.3396986126899719,-0.1920638084411621,1.773450493812561,XArbitraryZVertical,0.61606055935614,0.7591519248942323,0.1427385204710511,0.1542192999083014,0.0582806095480918,-0.4067372977733612,0.911684513092041,0,0,0,-1,-1,4606.70555775,unknown,2,2022-06-30T09:45:06.990+02:00,2022-06-30T08:20:05.567+02:00,1379,1.385177,0,0,1089.191,0,0,2022-06-30T09:44:05.799+02:00
291,2022-06-30T09:45:18.354+02:00,4618.071328,-7.084318084716797,-6.281088409423829,30.52617050170899,4618.061377,-1.333214398724259,3.107830531684692,0.4490258624531137,-3.084174633026123,3.947575807571411,-1.705889463424683,-0.4357746839523315,-0.2995243072509766,1.831347465515137,XArbitraryZVertical,0.6056724665672488,0.7637666676173781,0.1647710441216809,0.1505722284158633,0.0304095279425382,-0.4340881705284119,0.9003573060035706,0,0,0,-1,-1,4606.70555775,unknown,2,2022-06-30T09:45:06.990+02:00,2022-06-30T08:20:05.567+02:00,1379,1.385177,0,0,1089.191,0,0,2022-06-30T09:44:05.799+02:00
292,2022-06-30T09:45:18.364+02:00,4618.08128,-8.971593475341798,-4.59125244140625,33.13554428100586,4618.071328,-1.309535637190243,3.138335105996957,0.4791209612793391,-3.035612106323242,4.302803993225098,-2.435662746429443,-0.5875466465950012,-0.2851100564002991,2.003107070922852,XArbitraryZVertical,0.5918899632341222,0.7703013203063553,0.1872407369405213,0.1457498279289058,0.0028907440137118,-0.4609992802143097,0.8873956799507141,0,0,0,-1,-1,4606.70555775,unknown,2,2022-06-30T09:45:06.990+02:00,2022-06-30T08:20:05.567+02:00,1379,1.385177,0,0,1089.191,0,0,2022-06-30T09:44:05.799+02:00
293,2022-06-30T09:45:18.374+02:00,4618.091231,-11.19282440185547,-3.6106416320800783,35.80359603881836,4618.08128,-1.277927200684587,-3.115440658040915,0.5091658529888604,-2.929518222808838,4.609076023101807,-3.254210233688354,-0.6993207931518555,-0.1528252363204956,2.238887071609497,XArbitraryZVertical,0.5744494164053221,0.7787388626153617,0.2096862171238246,0.1400188274678987,-0.0228320453315973,-0.4874490797519684,0.8728526830673218,0,0,0,-1,-1,4606.70555775,unknown,2,2022-06-30T09:45:06.990+02:00,2022-06-30T08:20:05.567+02:00,1379,1.385177,0,0,1089.191,0,0,2022-06-30T09:44:05.799+02:00
294,2022-06-30T09:45:18.384+02:00,4618.101183000001,-12.164304199218751,-1.7103433227539064,38.68645111083985,4618.091231,-1.235761330120164,-3.089696979814934,0.5386415697883534,-2.69137716293335,4.7836012840271,-4.328043937683105,-0.8700080513954163,0.044952392578125,2.520480394363403,XArbitraryZVertical,0.5526109921271382,0.7894596468083794,0.2312966201181308,0.1337031712202627,-0.044527594000101,-0.5129703879356384,0.8572508692741394,0,0,0,-1,-1,4606.70555775,unknown,2,2022-06-30T09:45:06.990+02:00,2022-06-30T08:20:05.567+02:00,1379,1.385177,0,0,1089.191,0,0,2022-06-30T09:44:05.799+02:00
295,2022-06-30T09:45:18.394+02:00,4618.111135,-12.963342590332031,1.0160870361328125,41.22951278686524,4618.101183000001,-1.180890428785032,-3.070441920258353,0.5682018693201478,-2.728553533554077,4.863031387329102,-5.414280891418457,-1.081040501594543,0.1700596213340759,2.808966159820557,XArbitraryZVertical,0.5257940792851371,0.8024397106420074,0.2516993078030675,0.1275882470242626,-0.0599202588200569,-0.5381173491477966,0.8407378196716309,0,0,0,-1,-1,4606.70555775,unknown,2,2022-06-30T09:45:06.990+02:00,2022-06-30T08:20:05.567+02:00,1379,1.385177,0,0,1089.191,0,0,2022-06-30T09:44:05.799+02:00
296,2022-06-30T09:45:18.404+02:00,4618.121086,-14.405443725585938,2.1671932983398436,43.097478332519536,4618.111135,-1.111752159015156,-3.060977299842548,0.6013136303249584,-3.035239934921265,4.641921043395996,-6.646320819854736,-1.173587441444397,0.3913789391517639,3.121657609939575,XArbitraryZVertical,0.4934703605872744,0.81697279188676,0.2716651017475821,0.1234523775490551,-0.0664028823375701,-0.5657261610031128,0.8219150900840759,0,0,0,-1,-1,4606.70555775,unknown,2,2022-06-30T09:45:06.990+02:00,2022-06-30T08:20:05.567+02:00,1379,1.385177,0,0,1089.191,0,0,2022-06-30T09:44:05.799+02:00
297,2022-06-30T09:45:18.414+02:00,4618.131038,-16.587456207275387,-0.27033782958984376,44.48943374633789,4618.121086,-1.026172794169025,-3.06835443175492,0.6394223152170125,-3.532048225402832,3.784971714019775,-7.92296028137207,-1.262724876403809,0.7003082633018494,3.402514696121216,XArbitraryZVertical,0.4556570926827425,0.8321787661782181,0.29069899171063,0.1238924275924718,-0.0587168186902999,-0.596731960773468,0.8002897500991821,0,0,0,-1,-1,4606.70555775,unknown,2,2022-06-30T09:45:06.990+02:00,2022-06-30T08:20:05.567+02:00,1379,1.385177,0,0,1089.191,0,0,2022-06-30T09:44:05.799+02:00
298,2022-06-30T09:45:18.424+02:00,4618.140989,-20.886965332031252,-1.2534933471679688,44.02824279785156,4618.131038,-0.919407417705706,-3.104198228874286,0.6811079248937583,-3.765203952789307,2.057307004928589,-9.50539779663086,-1.439400792121887,0.8505703210830688,3.616886138916016,XArbitraryZVertical,0.4125323025670612,0.847339081135962,0.3071001970102195,0.1323752490542718,-0.0290440581738948,-0.6296541094779968,0.7763328552246094,0,0,0,-1,-1,4606.70555775,unknown,2,2022-06-30T09:45:06.990+02:00,2022-06-30T08:20:05.567+02:00,1379,1.385177,0,0,1089.191,0,0,2022-06-30T09:44:05.799+02:00
299,2022-06-30T09:45:18.434+02:00,4618.150941,-26.678571624755865,4.8044091796875,43.559417724609375,4618.140989,-0.7851849933362992,3.10042246975349,0.7167261193915966,-3.286854982376099,-0.582209050655365,-11.13607597351074,-1.721904039382935,0.6293620467185974,3.781788349151611,XArbitraryZVertical,0.3648745298245584,0.8622804471520956,0.316614037368166,0.1519695456058855,0.0310319401323795,-0.6569198369979858,0.7533220052719116,0,0,0,-1,-1,4606.70555775,unknown,2,2022-06-30T09:45:06.990+02:00,2022-06-30T08:20:05.567+02:00,1379,1.385177,0,0,1089.191,0,0,2022-06-30T09:44:05.799+02:00
300,2022-06-30T09:45:18.444+02:00,4618.160892,-32.78961364746094,13.159584503173825,44.157723541259756,4618.150941,-0.6233053553846946,2.970216262768519,0.7334826489088706,-2.696511507034302,-4.035356521606445,-12.69655132293701,-2.255834579467773,0.5416834354400635,3.75613260269165,XArbitraryZVertical,0.3144009001941784,0.8758622753627947,0.3155523901579481,0.1855909086938951,0.126684233546257,-0.6694607734680176,0.7319653034210205,0,0,0,-1,-1,4606.70555775,unknown,2,2022-06-30T09:45:06.990+02:00,2022-06-30T08:20:05.567+02:00,1379,1.385177,0,0,1089.191,0,0,2022-06-30T09:44:05.799+02:00
301,2022-06-30T09:45:18.454+02:00,4618.170844,-38.71713729858399,22.53399032592774,49.983907928466806,4618.160892,-0.4398459436982419,2.789279296010295,0.7247773688044872,-2.788018703460693,-7.71879243850708,-14.3840913772583,-2.977863788604736,1.152714490890503,3.73764443397522,XArbitraryZVertical,0.2614593583887668,0.8848562231837047,0.3048681683066183,0.2360592401755514,0.2583357095718384,-0.6629688143730164,0.7026630640029907,0,0,0,-1,-1,4606.70555775,unknown,2,2022-06-30T09:45:06.990+02:00,2022-06-30T08:20:05.567+02:00,1379,1.385177,0,0,1089.191,0,0,2022-06-30T09:44:05.799+02:00
302,2022-06-30T09:45:18.464+02:00,4618.180795,-51.950967407226564,32.16316635131837,57.10564819335938,4618.170844,-0.2443769152933059,2.571669695078225,0.6876449018227012,-3.939146041870117,-10.27898788452148,-15.59570693969727,-3.759414911270142,1.976164698600769,3.850691318511963,XArbitraryZVertical,0.2041793703627514,0.8852194360631405,0.2888235571889604,0.3021230927802152,0.4169468581676483,-0.6347190737724304,0.650605320930481,0,0,0,-1,-1,4606.70555775,unknown,2,2022-06-30T09:45:06.990+02:00,2022-06-30T08:20:05.567+02:00,1379,1.385177,0,0,1089.191,0,0,2022-06-30T09:44:05.799+02:00
303,2022-06-30T09:45:18.473+02:00,4618.190747000001,-69.92753494262695,31.14827682495118,53.32960052490235,4618.180795,-0.0494960036883655,2.336255008676473,0.621553054249448,-5.435808181762695,-13.29481792449951,-16.90527153015137,-4.53290843963623,2.879341125488281,4.531914710998535,XArbitraryZVertical,0.1414736614594693,0.8727127028214393,0.2720210469117088,0.3799506192346617,0.5862078070640564,-0.5822984576225281,0.5632845163345337,0,0,0,-1,-1,4606.70555775,unknown,2,2022-06-30T09:45:06.990+02:00,2022-06-30T08:20:05.567+02:00,1379,1.385177,0,0,1089.191,0,0,2022-06-30T09:44:05.799+02:00
304,2022-06-30T09:45:18.483+02:00,4618.200698000001,-77.58067016601562,23.533312225341803,36.50084609985351,4618.190747000001,0.1274102926424257,2.090291501478931,0.5116094619822045,-4.956827640533447,-16.56883430480957,-18.71099853515625,-6.052635669708252,3.768191337585449,5.388290405273438,XArbitraryZVertical,0.0734281791106438,0.8432357519964744,0.2493258503689811,0.4705299932761805,0.756920337677002,-0.4895812571048737,0.4328764677047729,0,0,0,-1,-1,4606.70555775,unknown,2,2022-06-30T09:45:06.990+02:00,2022-06-30T08:20:05.567+02:00,1379,1.385177,0,0,1089.191,0,0,2022-06-30T09:44:05.799+02:00
305,2022-06-30T09:45:18.493+02:00,4618.21065,-89.34186264038087,35.44494186401368,31.722632446289065,4618.200698000001,0.2389396360626398,1.868542687260775,0.3578570016545827,-1.256183743476868,-18.44252014160156,-17.32614326477051,-8.023626327514648,3.525423288345337,5.1614670753479,XArbitraryZVertical,0.0107202329143775,0.7982956270500239,0.2118150619712152,0.5636876191518605,0.8954373002052307,-0.3502677977085114,0.2747816741466522,0,0,0,-1,-1,4606.70555775,unknown,2,2022-06-30T09:45:06.990+02:00,2022-06-30T08:20:05.567+02:00,1379,1.385177,0,0,1089.191,0,0,2022-06-30T09:44:05.799+02:00
306,2022-06-30T09:45:18.503+02:00,4618.220602,-96.01678207397461,39.91419799804688,31.41951278686524,4618.21065,0.26541185532262,1.66488631529587,0.1982173300186135,2.585555553436279,-20.74838447570801,-15.52883625030518,-8.884407997131348,2.595832347869873,3.628667593002319,XArbitraryZVertical,-0.0313658953780052,0.7382899007850454,0.161156740843664,0.6541963356449932,0.9760827422142028,-0.1969218850135803,0.0921115949749946,0,0,0,-1,-1,4606.70555775,unknown,2,2022-06-30T09:45:06.990+02:00,2022-06-30T08:20:05.567+02:00,1379,1.385177,0,0,1089.191,0,0,2022-06-30T09:44:05.799+02:00
307,2022-06-30T09:45:18.513+02:00,4618.230553,-110.12703964233401,31.463970336914063,38.09428253173828,4618.220602,0.2233318324003219,1.44878261923449,0.0552387427774316,5.006958961486816,-24.08310127258301,-13.07771778106689,-10.09827518463135,3.668354511260986,3.355228900909424,XArbitraryZVertical,-0.053264095582202,0.6606059063445945,0.1016079093387702,0.7419154872433497,0.9910516142845154,-0.0552106536924839,-0.1215255483984947,0,0,0,-1,-1,4606.70555775,unknown,2,2022-06-30T09:45:06.990+02:00,2022-06-30T08:20:05.567+02:00,1379,1.385177,0,0,1089.191,0,0,2022-06-30T09:44:05.799+02:00
308,2022-06-30T09:45:18.524+02:00,4618.240505000001,-146.071492767334,40.995549316406255,50.704060363769536,4618.230553,0.1503700264622381,1.18462311214776,-0.0416381916760264,4.654621124267578,-29.01760292053223,-9.537276268005373,-10.71319770812988,4.027099132537842,3.579123973846436,XArbitraryZVertical,-0.0591482530407521,0.5552851388568537,0.050715952512455,0.8280023967198142,0.9255543947219848,0.0416261628270149,-0.3763197958469391,0,0,0,-1,-1,4606.70555775,unknown,2,2022-06-30T09:45:06.990+02:00,2022-06-30T08:20:05.567+02:00,1379,1.385177,0,0,1089.191,0,0,2022-06-30T09:44:05.799+02:00
309,2022-06-30T09:45:18.533+02:00,4618.250456000001,-180.17986404418943,39.62634658813476,52.563194274902344,4618.240505000001,0.0529639631437529,0.8734986760356859,-0.0795776621413844,9.296387672424316,-31.57319450378418,-7.850677967071533,-11.99015235900879,3.127842426300049,4.523325443267822,XArbitraryZVertical,-0.047223366249676,0.4215587870844932,0.0071541777046276,0.9055423141134858,0.764154314994812,0.0794937014579772,-0.640116274356842,0,0,0,-1,-1,4606.70555775,unknown,2,2022-06-30T09:45:06.990+02:00,2022-06-30T08:20:05.567+02:00,1379,1.385177,0,0,1089.191,0,0,2022-06-30T09:44:05.799+02:00
310,2022-06-30T09:45:18.543+02:00,4618.260408,-226.8899299621582,-6.377038879394531,30.79950210571289,4618.250456000001,-0.0804357745467165,0.5563056866572401,-0.0091142071786049,18.74014282226562,-30.44002914428711,-2.908596277236938,-15.4180908203125,4.169840812683105,6.017786026000977,XArbitraryZVertical,0.0066615435154601,0.2745312480061244,-0.0399115288748573,0.9607264922305836,0.5280306339263916,0.0091140810400247,-0.8491764068603516,0,0,0,-1,-1,4606.70555775,unknown,2,2022-06-30T09:45:06.990+02:00,2022-06-30T08:20:05.567+02:00,1379,1.385177,0,0,1089.191,0,0,2022-06-30T09:44:05.799+02:00
311,2022-06-30T09:45:18.553+02:00,4618.270359,-213.55805374145504,-68.60922637939453,-27.337950439453127,4618.260408,-0.1620113286262365,0.2914176664032394,0.1639965556104719,17.94150161743164,-22.73686599731445,2.008626937866211,-18.65041351318359,4.202645301818848,6.303109645843506,XArbitraryZVertical,0.0924819196656631,0.1376740230308542,-0.0679373355114332,0.98380767692142,0.2834554612636566,-0.1632624268531799,-0.9449859261512756,0,0,0,-1,-1,4606.70555775,unknown,2,2022-06-30T09:45:06.990+02:00,2022-06-30T08:20:05.567+02:00,1379,1.385177,0,0,1089.191,0,0,2022-06-30T09:44:05.799+02:00
312,2022-06-30T09:45:18.563+02:00,4618.280311,-139.77079513549808,-76.93820617675782,-46.2283676147461,4618.270359,-0.1469202050631952,0.129798046094245,0.2785461618535269,3.296976804733276,-9.18385887145996,5.271510124206543,-23.25287818908691,-0.3750970959663391,4.092971324920654,XArbitraryZVertical,0.1428711690708228,0.053884940868231,-0.0635514834120411,0.9862279269660024,0.1244450137019157,-0.2749581336975098,-0.9533684849739076,0,0,0,-1,-1,4606.70555775,unknown,2,2022-06-30T09:45:06.990+02:00,2022-06-30T08:20:05.567+02:00,1379,1.385177,0,0,1089.191,0,0,2022-06-30T09:44:05.799+02:00
313,2022-06-30T09:45:18.573+02:00,4618.290263,-69.26755737304688,-32.47227355957031,-28.77466278076172,4618.280311,-0.1079021695429049,0.0727951549216525,0.2516880976664582,-8.114662170410156,-0.8603343367576599,0.7981979846954346,-21.83986473083496,-6.744766235351562,-1.820814609527588,XArbitraryZVertical,0.127193305926512,0.0292854978830131,-0.0489023641068622,0.9902387672515564,0.070439375936985,-0.2490392178297043,-0.9659284353256226,0,0,0,-1,-1,4606.70555775,unknown,2,2022-06-30T09:45:06.990+02:00,2022-06-30T08:20:05.567+02:00,1379,1.385177,0,0,1089.191,0,0,2022-06-30T09:44:05.799+02:00
314,2022-06-30T09:45:18.583+02:00,4618.300214,-12.640464019775386,22.31125350952149,-15.813116455078125,4618.290263,-0.1076203101957265,0.0816382627635362,0.1639795508656302,-8.356078147888184,1.844727039337158,-0.3443822860717773,-14.3282413482666,-7.67958927154541,-3.729072093963623,XArbitraryZVertical,0.0838987241394157,0.0362106984557206,-0.0502216254422197,0.9945489509554182,0.0804536864161491,-0.1632456630468369,-0.9832995533943176,0,0,0,-1,-1,4606.70555775,unknown,2,2022-06-30T09:45:06.990+02:00,2022-06-30T08:20:05.567+02:00,1379,1.385177,0,0,1089.191,0,0,2022-06-30T09:44:05.799+02:00
315,2022-06-30T09:45:18.593+02:00,4618.310166,12.605736236572262,31.330447998046875,-18.9255940246582,4618.300214,-0.0801481444746655,0.0872884302800423,0.1115596791790889,-2.435824632644653,-0.4441370069980621,4.6832594871521,-7.147549152374268,-3.19879150390625,-1.943196892738342,XArbitraryZVertical,0.0573983717233977,0.0412960869020887,-0.0375324658532999,0.9967905345013396,0.0866357013583183,-0.1113284230232239,-0.9900001287460328,0,0,0,-1,-1,4606.70555775,unknown,2,2022-06-30T09:45:06.990+02:00,2022-06-30T08:20:05.567+02:00,1379,1.385177,0,0,1089.191,0,0,2022-06-30T09:44:05.799+02:00
316,2022-06-30T09:45:18.603+02:00,4618.320117,-34.45415222167969,-9.579928436279298,-16.985927581787113,4618.310166,-0.0233850259614288,0.0434663228700617,0.1113928594963128,0.7808234691619873,-7.146076679229736,6.300381660461426,-1.331712126731873,2.385500192642212,-0.6190748810768127,XArbitraryZVertical,0.0559043841603597,0.0210455439455064,-0.0104617034225138,0.9981594578477532,0.0431833267211914,-0.1111626327037811,-0.9928635954856871,0,0,0,-1,-1,4606.70555775,unknown,2,2022-06-30T09:45:06.990+02:00,2022-06-30T08:20:05.567+02:00,1379,1.385177,0,0,1089.191,0,0,2022-06-30T09:44:05.799+02:00
317,2022-06-30T09:45:18.613+02:00,4618.330069000001,-49.63677978515625,-37.0937631225586,-27.80063827514649,4618.320117,0.0327685068164209,-0.041671665285061,0.1010714403026587,-3.222613334655762,-7.554428100585938,4.782019138336182,1.326435089111328,3.294624805450439,-0.9351814985275269,XArbitraryZVertical,0.05083736980816,-0.0199775116830536,0.015306763367045,0.998389857444472,-0.0414470024406909,-0.1008994430303574,-0.9940329194068908,0,0,0,-1,-1,4606.70555775,unknown,2,2022-06-30T09:45:06.990+02:00,2022-06-30T08:20:05.567+02:00,1379,1.385177,0,0,1089.191,0,0,2022-06-30T09:44:05.799+02:00
318,2022-06-30T09:45:18.623+02:00,4618.340020000001,-24.617357940673823,-27.227031097412116,-44.93849990844726,4618.330069000001,0.0762369770710697,-0.1075817692173707,0.0432756285684078,-7.610978603363037,-5.474225044250488,4.902173519134521,-3.404872417449951,-0.933285355567932,-0.738203227519989,XArbitraryZVertical,0.0236375989976062,-0.0528899690739901,0.0368828078383773,0.9976390442127464,-0.1072738394141197,-0.0432621240615844,-0.9932878017425536,0,0,0,-1,-1,4606.70555775,unknown,2,2022-06-30T09:45:06.990+02:00,2022-06-30T08:20:05.567+02:00,1379,1.385177,0,0,1089.191,0,0,2022-06-30T09:44:05.799+02:00
319,2022-06-30T09:45:18.633+02:00,4618.349972,-16.810941467285158,-1.5630496215820313,-45.96386764526368,4618.340020000001,0.1068160209003713,-0.1651906678770295,-0.0517679987991694,-10.1384916305542,-6.340281009674072,3.555168867111206,-4.895594596862793,-3.832964658737183,-1.84884238243103,XArbitraryZVertical,-0.0213534321819773,-0.0837331091749642,0.0553149998050559,0.9947226586684796,-0.1642201095819473,0.0517448782920837,-0.9850655794143676,0,0,0,-1,-1,4606.70555775,unknown,2,2022-06-30T09:45:06.990+02:00,2022-06-30T08:20:05.567+02:00,1379,1.385177,0,0,1089.191,0,0,2022-06-30T09:44:05.799+02:00
320,2022-06-30T09:45:18.643+02:00,4618.359924,-26.40928161621094,17.059424743652343,-37.8606184387207,4618.349972,0.1122223770910626,-0.2338644205791417,-0.1533204323752052,-9.256290435791016,-7.322929859161377,1.593363761901855,-2.280395030975342,-2.928157091140747,-3.619519948959351,XArbitraryZVertical,-0.0694188427604745,-0.1204058941468396,0.0644560021942927,0.9881948440211944,-0.2290200442075729,0.1527204513549805,-0.961366891860962,0,0,0,-1,-1,4606.70555775,unknown,2,2022-06-30T09:45:06.990+02:00,2022-06-30T08:20:05.567+02:00,1379,1.385177,0,0,1089.191,0,0,2022-06-30T09:44:05.799+02:00
321,2022-06-30T09:45:18.653+02:00,4618.369875,-28.804600524902344,25.689278869628907,-32.858769836425786,4618.359924,0.1020709870551545,-0.3047509260135001,-0.2265814198727615,-5.251818656921387,-6.237295150756836,0.5876443386077881,-1.421267747879028,-0.3839800953865051,-3.75586986541748,XArbitraryZVertical,-0.1038996768701899,-0.1563172643164023,0.0672359291667053,0.979923010309802,-0.2923861742019653,0.2246476411819458,-0.9295395612716676,0,0,0,-1,-1,4606.70555775,unknown,2,2022-06-30T09:45:06.990+02:00,2022-06-30T08:20:05.567+02:00,1379,1.385177,0,0,1089.191,0,0,2022-06-30T09:44:05.799+02:00
322,2022-06-30T09:45:18.663+02:00,4618.379827000001,-21.282742309570313,26.142087249755864,-33.44689682006837,4618.369875,0.0985855303939774,-0.3580658151682095,-0.2572706778726255,-0.8887243270874023,-4.36600399017334,0.8267980813980103,-2.353149175643921,1.484540939331055,-2.953638315200806,XArbitraryZVertical,-0.117375243981531,-0.1826119257356897,0.0709009079534799,0.9735754221505674,-0.3389289379119873,0.2544420063495636,-0.905751883983612,0,0,0,-1,-1,4606.70555775,unknown,2,2022-06-30T09:45:06.990+02:00,2022-06-30T08:20:05.567+02:00,1379,1.385177,0,0,1089.191,0,0,2022-06-30T09:44:05.799+02:00
323,2022-06-30T09:45:18.673+02:00,4618.389778000001,-16.709602203369137,16.372054138183593,-33.61679351806641,4618.379827000001,0.1107652343012319,-0.3931176807522754,-0.2558525112043449,1.774649500846863,-3.449488878250122,1.29477870464325,-2.565648794174194,2.365612506866455,-2.455867290496826,XArbitraryZVertical,-0.1142070777873826,-0.2003287431732928,0.0787219544046444,0.969859857169082,-0.3706004023551941,0.2530702650547028,-0.8936502933502197,0,0,0,-1,-1,4606.70555775,unknown,2,2022-06-30T09:45:06.990+02:00,2022-06-30T08:20:05.567+02:00,1379,1.385177,0,0,1089.191,0,0,2022-06-30T09:44:05.799+02:00
324,2022-06-30T09:45:18.682+02:00,4618.39973,-16.828604736328124,10.784024505615239,-33.07312408447266,4618.389778000001,0.1360120050874603,-0.4197032586932554,-0.2429326592946865,2.323886632919312,-3.149758577346802,2.198603868484497,-1.77397084236145,2.424290418624878,-2.523074388504028,XArbitraryZVertical,-0.1041842816279907,-0.2143551004039174,0.0911558272435853,0.9668961927590086,-0.395524263381958,0.2405502051115036,-0.8863950371742249,0,0,0,-1,-1,4606.70555775,unknown,2,2022-06-30T09:45:06.990+02:00,2022-06-30T08:20:05.567+02:00,1379,1.385177,0,0,1089.191,0,0,2022-06-30T09:44:05.799+02:00
325,2022-06-30T09:45:18.692+02:00,4618.409681,-15.444283447265626,8.162975006103515,-32.99603439331055,4618.39973,0.1686484563645464,-0.4408296847755762,-0.2339461375551477,1.915766954421997,-2.580428838729858,2.789971113204956,-1.288257122039795,1.43709671497345,-2.547026634216309,XArbitraryZVertical,-0.0951898469609943,-0.225960571211135,0.1070504445533061,0.9635460436017584,-0.4150665998458862,0.2318179607391357,-0.8797613978385925,0,0,0,-1,-1,4606.70555775,unknown,2,2022-06-30T09:45:06.990+02:00,2022-06-30T08:20:05.567+02:00,1379,1.385177,0,0,1089.191,0,0,2022-06-30T09:44:05.799+02:00
326,2022-06-30T09:45:18.702+02:00,4618.419633,-13.421240386962888,0.16780105590820313,-34.112562561035155,4618.409681,0.2015320067297235,-0.4551785234219575,-0.2336318574827829,0.838430643081665,-1.840014219284058,2.918032884597778,-1.28777551651001,0.8677765727043152,-2.497587442398071,XArbitraryZVertical,-0.0904263429078632,-0.2343772587118887,0.1234974354537956,0.9600202963359422,-0.4276790022850037,0.2315122336149216,-0.8737807273864746,0,0,0,-1,-1,4606.70555775,unknown,2,2022-06-30T09:45:06.990+02:00,2022-06-30T08:20:05.567+02:00,1379,1.385177,0,0,1089.191,0,0,2022-06-30T09:44:05.799+02:00
327,2022-06-30T09:45:18.712+02:00,4618.429585,-11.012150115966802,-7.748187561035157,-33.46755386352539,4618.419633,0.2275205192918548,-0.4645036088661264,-0.2463703066466005,-0.9518118500709534,-1.317396998405457,2.766655206680298,-1.139889240264893,0.5882219076156616,-2.496462345123291,XArbitraryZVertical,-0.0928721417050466,-0.2405223417698165,0.1377291390188894,0.9563234405577344,-0.4344519078731537,0.2438854873180389,-0.8670475482940674,0,0,0,-1,-1,4606.70555775,unknown,2,2022-06-30T09:45:06.990+02:00,2022-06-30T08:20:05.567+02:00,1379,1.385177,0,0,1089.191,0,0,2022-06-30T09:44:05.799+02:00
328,2022-06-30T09:45:18.722+02:00,4618.439536,-9.04688690185547,-4.855453033447266,-28.610903320312502,4618.429585,0.2443236017659611,-0.4733183442900472,-0.2755704817977419,-2.7707839012146,-1.398294806480408,2.845048666000366,-0.9294752478599548,-0.2549909651279449,-2.620846509933472,XArbitraryZVertical,-0.1042265880480868,-0.2467741276466188,0.1493013710400005,0.9518133104129014,-0.4386434555053711,0.2720959484577179,-0.8564786911010742,0,0,0,-1,-1,4606.70555775,unknown,2,2022-06-30T09:45:06.990+02:00,2022-06-30T08:20:05.567+02:00,1379,1.385177,0,0,1089.191,0,0,2022-06-30T09:44:05.799+02:00
329,2022-06-30T09:45:18.732+02:00,4618.449488,-8.97892822265625,5.3473301696777344,-25.12150955200195,4618.439536,0.2552970378757193,-0.4856243419456819,-0.3184998151998337,-3.64699387550354,-1.708388686180115,2.948202610015869,-0.6792582273483276,-1.102967739105225,-2.571670293807983,XArbitraryZVertical,-0.122453162926856,-0.2550546096093647,0.1598213951661406,0.9457322538310295,-0.4432854652404785,0.3131421804428101,-0.8399047255516052,0,0,0,-1,-1,4606.70555775,unknown,2,2022-06-30T09:45:06.990+02:00,2022-06-30T08:20:05.567+02:00,1379,1.385177,0,0,1089.191,0,0,2022-06-30T09:44:05.799+02:00
330,2022-06-30T09:45:18.742+02:00,4618.459439,-8.838819580078125,12.674293670654302,-21.438418579101565,4618.449488,0.2650708809565758,-0.4998317415075528,-0.3597239544782186,-2.667402982711792,-1.748841047286987,2.575885534286499,-0.4736098647117615,-0.8469653129577637,-2.095016241073608,XArbitraryZVertical,-0.1396600916082499,-0.2641046752772572,0.1698332414605608,0.9390956304497808,-0.448601245880127,0.352015882730484,-0.821487545967102,0,0,0,-1,-1,4606.70555775,unknown,2,2022-06-30T09:45:06.990+02:00,2022-06-30T08:20:05.567+02:00,1379,1.385177,0,0,1089.191,0,0,2022-06-30T09:44:05.799+02:00
331,2022-06-30T09:45:18.753+02:00,4618.469391000001,-9.320517883300782,13.558804321289063,-19.154168701171876,4618.459439,0.2776033813227606,-0.5121011579356142,-0.3890338142964307,-1.344078540802002,-1.636613488197327,2.365647077560425,-0.4618891477584839,0.1657950282096863,-1.75422739982605,XArbitraryZVertical,-0.1508128266998172,-0.2719671923167797,0.1798043288635192,0.9332523402707036,-0.4533944427967072,0.3792946040630341,-0.8065786957740784,0,0,0,-1,-1,4606.70555775,unknown,2,2022-06-30T09:45:06.990+02:00,2022-06-30T08:20:05.567+02:00,1379,1.385177,0,0,1089.191,0,0,2022-06-30T09:44:05.799+02:00
332,2022-06-30T09:45:18.762+02:00,4618.479342000001,-10.425220642089844,12.41188934326172,-16.618890838623052,4618.469391000001,0.2958870616748225,-0.5208564562859781,-0.4061696956353074,0.0093814693391323,-1.570641040802002,2.275340795516968,-0.4438643753528595,0.8968832492828369,-1.388540506362915,XArbitraryZVertical,-0.1555859395610613,-0.2781753701202033,0.1908739477673482,0.9284280421619518,-0.4571370184421539,0.395093560218811,-0.7968229651451111,0,0,0,-1,-1,4606.70555775,unknown,2,2022-06-30T09:45:06.990+02:00,2022-06-30T08:20:05.567+02:00,1379,1.385177,0,0,1089.191,0,0,2022-06-30T09:44:05.799+02:00
333,2022-06-30T09:45:18.772+02:00,4618.489294,-11.663745117187501,10.683583374023438,-14.33583847045899,4618.479342000001,0.3197513277565184,-0.5273203814785419,-0.4124579894103104,1.040246963500977,-1.64936089515686,2.167551279067993,-0.4890854954719543,0.9812785983085632,-1.160825729370117,XArbitraryZVertical,-0.1545630185027413,-0.2833123515051035,0.2031231342459924,0.9244378506442944,-0.4610186815261841,0.4008623957633972,-0.7916887402534485,0,0,0,-1,-1,4606.70555775,unknown,2,2022-06-30T09:45:06.990+02:00,2022-06-30T08:20:05.567+02:00,1379,1.385177,0,0,1089.191,0,0,2022-06-30T09:44:05.799+02:00
334,2022-06-30T09:45:18.782+02:00,4618.499245,-13.588442687988282,6.258186035156251,-14.92830642700195,4618.489294,0.34715310918443,-0.5330774520666572,-0.4113122738262323,1.644349098205566,-1.678851723670959,2.05809760093689,-0.596912145614624,0.8654156923294067,-0.9046596884727478,XArbitraryZVertical,-0.1495071264989516,-0.2879918864847456,0.2160761343392565,0.9208796845271536,-0.4658019244670868,0.3998124897480011,-0.7894166111946106,0,0,0,-1,-1,4606.70555775,unknown,2,2022-06-30T09:45:06.990+02:00,2022-06-30T08:20:05.567+02:00,1379,1.385177,0,0,1089.191,0,0,2022-06-30T09:44:05.799+02:00
335,2022-06-30T09:45:18.792+02:00,4618.509197,-14.523248748779302,-2.5071363830566407,-16.885486450195312,4618.499245,0.3741881042344716,-0.5372671555732342,-0.4066221373049754,1.672771215438843,-1.254551410675049,1.698292136192322,-0.7189054489135742,0.6935410499572754,-0.6722888946533203,XArbitraryZVertical,-0.1429229248809414,-0.2916210436187245,0.2282950970830663,0.9178298124522334,-0.4700597822666168,0.3955091536045074,-0.7890604138374329,0,0,0,-1,-1,4606.70555775,unknown,2,2022-06-30T09:45:06.990+02:00,2022-06-30T08:20:05.567+02:00,1379,1.385177,0,0,1089.191,0,0,2022-06-30T09:44:05.799+02:00
336,2022-06-30T09:45:18.802+02:00,4618.519149000001,-12.442874908447262,-7.601492614746094,-15.228282623291012,4618.509197,0.3977540934051669,-0.5366165744664179,-0.3991899106311207,1.838221430778503,-0.464288741350174,1.350789546966553,-0.9141266345977784,0.2492673099040985,-0.7298729419708252,XArbitraryZVertical,-0.1360742465405914,-0.292486777122569,0.2382438579065099,0.9160650266141402,-0.4710361063480377,0.3886720836162567,-0.7918705940246582,0,0,0,-1,-1,4606.70555775,unknown,2,2022-06-30T09:45:06.990+02:00,2022-06-30T08:20:05.567+02:00,1379,1.385177,0,0,1089.191,0,0,2022-06-30T09:44:05.799+02:00
337,2022-06-30T09:45:18.812+02:00,4618.529100000001,-10.189909973144532,-8.378975830078126,-12.452005920410157,4618.519149000001,0.419958873763953,-0.5299086395478779,-0.3928376285860241,1.22515082359314,0.0303915739059448,1.574636220932007,-1.013501644134521,-0.6383809447288513,-0.9241254925727844,XArbitraryZVertical,-0.1306774976739605,-0.2904479788771175,0.247280720801578,0.9151042162508716,-0.4669522941112518,0.382811427116394,-0.7971267104148865,0,0,0,-1,-1,4606.70555775,unknown,2,2022-06-30T09:45:06.990+02:00,2022-06-30T08:20:05.567+02:00,1379,1.385177,0,0,1089.191,0,0,2022-06-30T09:44:05.799+02:00
338,2022-06-30T09:45:18.822+02:00,4618.539052,-8.070617065429689,-7.632777557373047,-10.149643707275386,4618.529100000001,0.4387530317729627,-0.5216358961817689,-0.3948295545614866,0.179450735449791,0.1548445522785187,1.578980088233948,-0.8084262013435364,-1.159522771835327,-0.7520225048065186,XArbitraryZVertical,-0.1299316771560401,-0.2880415470171292,0.2555424542488601,0.9137001082470922,-0.4599610567092896,0.384650856256485,-0.8002996444702148,0,0,0,-1,-1,4606.70555775,unknown,2,2022-06-30T09:45:06.990+02:00,2022-06-30T08:20:05.567+02:00,1379,1.385177,0,0,1089.191,0,0,2022-06-30T09:44:05.799+02:00
339,2022-06-30T09:45:18.832+02:00,4618.549003,-6.072122955322266,-5.613476715087891,-8.335416412353515,4618.539052,0.4507002964367687,-0.5158323044718328,-0.4045750633483897,-0.7667592763900757,0.0552918761968612,1.312953114509583,-0.5852891206741333,-1.247754216194153,-0.4696606993675232,XArbitraryZVertical,-0.1335217059368366,-0.2869557849350647,0.2616011588138291,0.911807676025651,-0.4534381031990051,0.3936281502246857,-0.7996566891670227,0,0,0,-1,-1,4606.70555775,unknown,2,2022-06-30T09:45:06.990+02:00,2022-06-30T08:20:05.567+02:00,1379,1.385177,0,0,1089.191,0,0,2022-06-30T09:44:05.799+02:00
340,2022-06-30T09:45:18.842+02:00,4618.558955,-5.253026275634766,-3.2016920471191406,-7.194638671875,4618.549003,0.4562537161362074,-0.5144798788797352,-0.4204663878134648,-1.468416452407837,-0.2521572709083557,1.168883085250854,-0.3734721541404724,-1.186247229576111,-0.2398991584777832,XArbitraryZVertical,-0.1403230607677732,-0.2880069724064364,0.2656136084751693,0.9092914537387664,-0.449221134185791,0.4081862568855286,-0.794722855091095,0,0,0,-1,-1,4606.70555775,unknown,2,2022-06-30T09:45:06.990+02:00,2022-06-30T08:20:05.567+02:00,1379,1.385177,0,0,1089.191,0,0,2022-06-30T09:44:05.799+02:00
