,loggingTime(txt),accelerometerTimestamp_sinceReboot(s),accelerometerAccelerationX(G),accelerometerAccelerationY(G),accelerometerAccelerationZ(G),motionTimestamp_sinceReboot(s),motionYaw(rad),motionRoll(rad),motionPitch(rad),motionRotationRateX(rad/s),motionRotationRateY(rad/s),motionRotationRateZ(rad/s),motionUserAccelerationX(G),motionUserAccelerationY(G),motionUserAccelerationZ(G),motionAttitudeReferenceFrame(txt),motionQuaternionX(R),motionQuaternionY(R),motionQuaternionZ(R),motionQuaternionW(R),motionGravityX(G),motionGravityY(G),motionGravityZ(G),motionMagneticFieldX(µT),motionMagneticFieldY(µT),motionMagneticFieldZ(µT),motionHeading(°),motionMagneticFieldCalibrationAccuracy(Z),activityTimestamp_sinceReboot(s),activity(txt),activityActivityConfidence(Z),activityActivityStartDate(txt),pedometerStartDate(txt),pedometerNumberofSteps(N),pedometerAverageActivePace(s/m),pedometerCurrentPace(s/m),pedometerCurrentCadence(steps/s),pedometerDistance(m),pedometerFloorAscended(N),pedometerFloorDescended(N),pedometerEndDate(txt)
163,2022-06-30T09:47:48.941+02:00,4768.658517,-14.963183898925783,-0.9407936096191407,16.320860595703127,4768.648566,-1.052270750068419,2.163632113528021,0.2376200028661662,3.702211380004883,6.59882116317749,4.824180126190186,-2.411905765533447,0.2684250473976135,0.9021746516227722,XArbitraryZVertical,0.4883655207083808,0.7300732990308536,-0.1437429208803405,0.4558838532120749,0.8060554265975952,-0.2353901714086533,0.5430157780647278,0,0,0,-1,-1,4751.973390625,unknown,2,2022-06-30T09:47:32.258+02:00,2022-06-30T08:20:05.567+02:00,1379,1.385177,0,0,1089.191,0,0,2022-06-30T09:44:05.799+02:00
164,2022-06-30T09:47:48.951+02:00,4768.668469,-14.413826293945313,-1.094374237060547,16.84896240234375,4768.658517,-1.112880438056902,2.243445808985999,0.2525803639934749,4.014016151428223,6.482973098754883,4.582135677337646,-2.338090419769287,0.2230473756790161,0.916590929031372,XArbitraryZVertical,0.5184413837197916,0.7299754999224485,-0.1311186565501038,0.4256316211933724,0.7573559880256653,-0.2499032765626907,0.603291392326355,0,0,0,-1,-1,4751.973390625,unknown,2,2022-06-30T09:47:32.258+02:00,2022-06-30T08:20:05.567+02:00,1379,1.385177,0,0,1089.191,0,0,2022-06-30T09:44:05.799+02:00
165,2022-06-30T09:47:48.961+02:00,4768.678421000001,-14.565311279296875,-0.3950285339355469,17.173637237548824,4768.668469,-1.174467196971103,2.323376624207822,0.2598323950935351,4.056992053985596,6.45682954788208,4.367117881774902,-2.230725526809692,0.1610166430473328,1.003115653991699,XArbitraryZVertical,0.546954094463669,0.7287877493424211,-0.1195947113332198,0.394216719425596,0.7054262757301331,-0.2569185793399811,0.6605807542800903,0,0,0,-1,-1,4751.973390625,unknown,2,2022-06-30T09:47:32.258+02:00,2022-06-30T08:20:05.567+02:00,1379,1.385177,0,0,1089.191,0,0,2022-06-30T09:44:05.799+02:00
166,2022-06-30T09:47:48.971+02:00,4768.688372000001,-14.937138061523438,0.5125341796875,17.780325622558596,4768.678421000001,-1.234798225100377,2.403345580416455,0.2614173698674307,3.941239356994629,6.487157821655273,4.200009346008301,-2.119426727294922,0.1468926668167114,1.003009796142578,XArbitraryZVertical,0.5736609971443261,0.7267549870199435,-0.1079735577847464,0.3620523885011562,0.6501271724700928,-0.2584500312805176,0.7145195007324219,0,0,0,-1,-1,4751.973390625,unknown,2,2022-06-30T09:47:32.258+02:00,2022-06-30T08:20:05.567+02:00,1379,1.385177,0,0,1089.191,0,0,2022-06-30T09:44:05.799+02:00
167,2022-06-30T09:47:48.981+02:00,4768.698324,-15.111974487304689,1.0054591369628907,19.17871765136719,4768.688372000001,-1.292945492907347,2.482772481634965,0.2580187254109191,3.82959508895874,6.459881782531738,4.003973484039307,-2.076660871505737,0.2148970365524292,0.9860852956771852,XArbitraryZVertical,0.5984694735356717,0.7239505955416106,-0.0960695680885002,0.3293940828700915,0.591919481754303,-0.2551653683185577,0.7645403742790222,0,0,0,-1,-1,4751.973390625,unknown,2,2022-06-30T09:47:32.258+02:00,2022-06-30T08:20:05.567+02:00,1379,1.385177,0,0,1089.191,0,0,2022-06-30T09:44:05.799+02:00
168,2022-06-30T09:47:48.991+02:00,4768.708276,-14.515914001464845,0.9243278503417969,20.834125213623054,4768.698324,-1.347822925151017,2.56033223802032,0.2501255194260732,3.678417444229126,6.346790313720703,3.768531799316406,-2.054635524749756,0.2997713088989258,1.002706289291382,XArbitraryZVertical,0.6211372399751961,0.7204651983228052,-0.0840474577489488,0.2967396635905458,0.531991183757782,-0.2475255727767944,0.8097631335258484,0,0,0,-1,-1,4751.973390625,unknown,2,2022-06-30T09:47:32.258+02:00,2022-06-30T08:20:05.567+02:00,1379,1.385177,0,0,1089.191,0,0,2022-06-30T09:44:05.799+02:00
169,2022-06-30T09:47:49.001+02:00,4768.718227,-13.679752807617188,0.7300318908691407,22.34403533935547,4768.708276,-1.399059719090973,2.635072790885076,0.2383899907985675,3.486074924468994,6.170889854431152,3.561247825622559,-2.011883735656738,0.3386313915252686,1.105308532714844,XArbitraryZVertical,0.6416942775926653,0.7162978982251725,-0.0720979186830888,0.2644761244086341,0.4714170396327972,-0.2361384630203247,0.8497084379196167,0,0,0,-1,-1,4751.973390625,unknown,2,2022-06-30T09:47:32.258+02:00,2022-06-30T08:20:05.567+02:00,1379,1.385177,0,0,1089.191,0,0,2022-06-30T09:44:05.799+02:00
170,2022-06-30T09:47:49.011+02:00,4768.728179000001,-12.653486938476563,-0.09505233764648438,23.680755615234375,4768.718227,-1.44570299979864,2.706242835066521,0.2239688348570088,3.27426290512085,5.986126899719238,3.246354579925537,-1.890900373458862,0.3163236975669861,1.239688158035278,XArbitraryZVertical,0.6599677557168577,0.7116744353637381,-0.0601416170376245,0.233120156264616,0.4111943542957306,-0.2221010774374008,0.8840758800506592,0,0,0,-1,-1,4751.973390625,unknown,2,2022-06-30T09:47:32.258+02:00,2022-06-30T08:20:05.567+02:00,1379,1.385177,0,0,1089.191,0,0,2022-06-30T09:44:05.799+02:00
171,2022-06-30T09:47:49.021+02:00,4768.738130541667,-11.781250762939449,-0.3550616455078125,26.003924560546878,4768.728179000001,-1.487946822154284,2.77371614617003,0.2060009906000102,3.281430721282959,5.75955057144165,3.007662296295166,-1.746501445770264,0.2789638042449951,1.364314913749695,XArbitraryZVertical,0.6761012233251074,0.7068022791897877,-0.0488324398275247,0.2023194447050762,0.352031022310257,-0.2045470923185349,0.9133646488189696,0,0,0,-1,-1,4751.973390625,unknown,2,2022-06-30T09:47:32.258+02:00,2022-06-30T08:20:05.567+02:00,1379,1.385177,0,0,1089.191,0,0,2022-06-30T09:44:05.799+02:00
172,2022-06-30T09:47:49.031+02:00,4768.748081541667,-10.872490539550782,-0.944835205078125,28.12097213745118,4768.738130541667,-1.526544712869207,2.837113194986299,0.1857021470616456,3.055862426757812,5.449114799499512,2.826659917831421,-1.584498405456543,0.1749469339847565,1.47633957862854,XArbitraryZVertical,0.6905108737356959,0.7014237167915209,-0.0381632400416182,0.1724620613059852,0.2946422100067139,-0.184636652469635,0.9376009702682496,0,0,0,-1,-1,4751.973390625,unknown,2,2022-06-30T09:47:32.258+02:00,2022-06-30T08:20:05.567+02:00,1379,1.385177,0,0,1089.191,0,0,2022-06-30T09:44:05.799+02:00
173,2022-06-30T09:47:49.041+02:00,4768.758033541667,-10.011930084228512,-0.279019775390625,30.27574127197266,4768.748081541667,-1.561215778409568,2.895518677153941,0.1654551139640865,2.711357593536377,5.072157382965088,2.68089485168457,-1.441214680671692,0.1285070329904556,1.694125652313232,XArbitraryZVertical,0.7032085115882772,0.6955669993478283,-0.0278029722620694,0.1446078249617939,0.2402714341878891,-0.1647012531757355,0.9566313028335572,0,0,0,-1,-1,4751.973390625,unknown,2,2022-06-30T09:47:32.258+02:00,2022-06-30T08:20:05.567+02:00,1379,1.385177,0,0,1089.191,0,0,2022-06-30T09:44:05.799+02:00
174,2022-06-30T09:47:49.051+02:00,4768.767984541667,-9.490564270019531,1.0457254028320313,32.38365783691406,4768.758033541667,-1.5923981894185,2.948583748956784,0.1470631580323829,2.242014646530151,4.599360942840576,2.547581434249878,-1.298049449920654,0.0502197742462158,1.895724177360535,XArbitraryZVertical,0.7144060912046342,0.6892335954527502,-0.0175342727302741,0.1194726987717702,0.1897423714399338,-0.1465336233377457,0.9708380103111268,0,0,0,-1,-1,4751.973390625,unknown,2,2022-06-30T09:47:32.258+02:00,2022-06-30T08:20:05.567+02:00,1379,1.385177,0,0,1089.191,0,0,2022-06-30T09:44:05.799+02:00
175,2022-06-30T09:47:49.061+02:00,4768.777936541667,-9.253157958984376,1.7483642578125,34.65653137207031,4768.767984541667,-1.620289256289378,2.995226564258404,0.1313261683360359,1.825741410255432,3.973845481872559,2.39202618598938,-1.165172576904297,0.1025062650442123,2.105423450469971,XArbitraryZVertical,0.724198520249939,0.6825913421550625,-0.0077372778506186,0.0977023564769311,0.1445882171392441,-0.130949005484581,0.9807888865470886,0,0,0,-1,-1,4751.973390625,unknown,2,2022-06-30T09:47:32.258+02:00,2022-06-30T08:20:05.567+02:00,1379,1.385177,0,0,1089.191,0,0,2022-06-30T09:44:05.799+02:00
176,2022-06-30T09:47:49.071+02:00,4768.787888541667,-8.783584442138672,1.7911752319335938,36.98164627075195,4768.777936541667,-1.645322015875379,3.034297384722626,0.1180001749007397,1.463231801986694,3.249494314193726,2.217000722885132,-1.073782801628113,0.2243240475654602,2.313750982284546,XArbitraryZVertical,0.732781556171072,0.6757951322451478,0.0008209295796342,0.0795714385763156,0.1063448563218117,-0.1177265271544456,0.987335741519928,0,0,0,-1,-1,4751.973390625,unknown,2,2022-06-30T09:47:32.258+02:00,2022-06-30T08:20:05.567+02:00,1379,1.385177,0,0,1089.191,0,0,2022-06-30T09:44:05.799+02:00
177,2022-06-30T09:47:49.081+02:00,4768.797839541667,-8.601413269042968,1.1753558349609377,39.03777053833008,4768.787888541667,-1.667819984193026,3.065307079386196,0.1074667900166781,1.021088480949402,2.463931322097778,2.05837869644165,-1.019009590148926,0.2854823768138885,2.541436433792114,XArbitraryZVertical,0.7403340296968869,0.6690107082079785,0.0078648403175421,0.0653331625495924,0.0757719501852989,-0.1072600483894348,0.99133962392807,0,0,0,-1,-1,4751.973390625,unknown,2,2022-06-30T09:47:32.258+02:00,2022-06-30T08:20:05.567+02:00,1379,1.385177,0,0,1089.191,0,0,2022-06-30T09:44:05.799+02:00
178,2022-06-30T09:47:49.091+02:00,4768.807791541667,-8.53674774169922,0.34623001098632816,40.28587509155275,4768.797839541667,-1.687615416789004,3.087783799612835,0.1012220075160229,0.5025151371955872,1.63500452041626,1.802832007408142,-0.9488784074783324,0.2836355865001678,2.776349067687988,XArbitraryZVertical,0.7468569224291991,0.6625145757645852,0.013536422991777,0.0556419086470131,0.0535076074302196,-0.1010492444038391,0.993441641330719,0,0,0,-1,-1,4751.973390625,unknown,2,2022-06-30T09:47:32.258+02:00,2022-06-30T08:20:05.567+02:00,1379,1.385177,0,0,1089.191,0,0,2022-06-30T09:44:05.799+02:00
179,2022-06-30T09:47:49.100+02:00,4768.817743541667,-8.39304656982422,0.2616558837890625,41.28474792480469,4768.807791541667,-1.704717426210855,3.101547294785786,0.0992495727438901,0.0602530352771282,0.7907058000564575,1.590134859085083,-0.9166384935379028,0.2188983708620071,2.985104322433472,XArbitraryZVertical,0.7524112314270193,0.6565196365954187,0.0175893303325779,0.0504984679064853,0.0398376509547233,-0.0990867093205452,0.9942814111709596,0,0,0,-1,-1,4751.973390625,unknown,2,2022-06-30T09:47:32.258+02:00,2022-06-30T08:20:05.567+02:00,1379,1.385177,0,0,1089.191,0,0,2022-06-30T09:44:05.799+02:00
180,2022-06-30T09:47:49.111+02:00,4768.827694541667,-7.977510681152344,-0.3457809448242188,41.42126403808594,4768.817743541667,-1.719361696855557,3.10685826483649,0.1012331347416677,-0.3508614003658295,-0.0090846922248601,1.35126781463623,-0.904758632183075,0.1363535821437836,3.112332820892334,XArbitraryZVertical,0.757123323924378,0.6510793433956572,0.0198768322231028,0.049646816122969,0.0345496051013469,-0.1010603159666061,0.9942800998687744,0,0,0,-1,-1,4751.973390625,unknown,2,2022-06-30T09:47:32.258+02:00,2022-06-30T08:20:05.567+02:00,1379,1.385177,0,0,1089.191,0,0,2022-06-30T09:44:05.799+02:00
181,2022-06-30T09:47:49.120+02:00,4768.837646541667,-7.470964050292969,-0.6599775695800781,41.066651458740246,4768.827694541667,-1.731566374478136,3.104394399179985,0.1066141884128593,-0.6362366676330566,-0.7204871773719788,1.129730343818665,-0.8925391435623169,0.1330843567848206,3.214800834655762,XArbitraryZVertical,0.7610318300326171,0.6462567540772728,0.0203787868305936,0.0526078342205933,0.0369785241782665,-0.1064123287796974,0.9936344623565674,0,0,0,-1,-1,4751.973390625,unknown,2,2022-06-30T09:47:32.258+02:00,2022-06-30T08:20:05.567+02:00,1379,1.385177,0,0,1089.191,0,0,2022-06-30T09:44:05.799+02:00
182,2022-06-30T09:47:49.130+02:00,4768.847598541667,-7.420818328857422,-1.1693682861328125,39.85671752929688,4768.837646541667,-1.741610938429694,3.095503752666615,0.1151920418703975,-1.027496457099915,-1.266869783401489,0.9527973532676696,-0.8589694499969482,0.0796893388032913,3.230033159255981,XArbitraryZVertical,0.7642315710712303,0.6419572665591686,0.0194788944868553,0.0588357163929874,0.0457672588527202,-0.114937461912632,0.992318034172058,0,0,0,-1,-1,4751.973390625,unknown,2,2022-06-30T09:47:32.258+02:00,2022-06-30T08:20:05.567+02:00,1379,1.385177,0,0,1089.191,0,0,2022-06-30T09:44:05.799+02:00
183,2022-06-30T09:47:49.140+02:00,4768.857549541667,-7.141798553466797,-1.0738668823242188,37.961658325195316,4768.847598541667,-1.749371824635982,3.082026891490089,0.1276456609682947,-1.401188015937805,-1.607898712158203,0.7204415798187256,-0.8206126689910889,0.0600229799747467,3.196097850799561,XArbitraryZVertical,0.7666581152555338,0.6381912584971935,0.0180759415202024,0.0679752126950916,0.0590462386608123,-0.1272993087768555,0.9901055097579956,0,0,0,-1,-1,4751.973390625,unknown,2,2022-06-30T09:47:32.258+02:00,2022-06-30T08:20:05.567+02:00,1379,1.385177,0,0,1089.191,0,0,2022-06-30T09:44:05.799+02:00
184,2022-06-30T09:47:49.150+02:00,4768.867501541667,-6.583609313964844,-0.6466552734375001,35.537898559570316,4768.857549541667,-1.7542616658812,3.065915881758449,0.1428327307534955,-1.662138223648071,-1.730793714523315,0.4509071111679077,-0.8312894701957703,0.0231456011533737,3.075882434844971,XArbitraryZVertical,0.7681245067374223,0.635198180747379,0.016576161835822,0.0789515694254646,0.0748346745967865,-0.1423475593328476,0.9869839549064636,0,0,0,-1,-1,4751.973390625,unknown,2,2022-06-30T09:47:32.258+02:00,2022-06-30T08:20:05.567+02:00,1379,1.385177,0,0,1089.191,0,0,2022-06-30T09:44:05.799+02:00
185,2022-06-30T09:47:49.161+02:00,4768.877453541667,-6.263574829101563,-1.234632568359375,33.47473892211914,4768.867501541667,-1.756012834642306,3.049207849987543,0.1603445655494509,-1.853027820587158,-1.661761879920959,0.1991342455148697,-0.8190824389457703,0.0501914769411087,2.886727333068848,XArbitraryZVertical,0.7685393250998366,0.6331103649007718,0.0156787771772719,0.0909553775685593,0.09107007086277,-0.15965835750103,0.9829628467559814,0,0,0,-1,-1,4751.973390625,unknown,2,2022-06-30T09:47:32.258+02:00,2022-06-30T08:20:05.567+02:00,1379,1.385177,0,0,1089.191,0,0,2022-06-30T09:44:05.799+02:00
186,2022-06-30T09:47:49.170+02:00,4768.887404541667,-6.583609313964844,-1.816472625732422,31.8012190246582,4768.877453541667,-1.754579726061753,3.03358227740204,0.1802945694003431,-2.183377265930176,-1.401063919067383,-0.0843395367264747,-0.7771655321121216,0.1134010702371597,2.644561767578125,XArbitraryZVertical,0.7678764682630567,0.6319769278148943,0.0161218581576673,0.1034945708664427,0.1060531735420227,-0.1793193817138672,0.9780582189559937,0,0,0,-1,-1,4751.973390625,unknown,2,2022-06-30T09:47:32.258+02:00,2022-06-30T08:20:05.567+02:00,1379,1.385177,0,0,1089.191,0,0,2022-06-30T09:44:05.799+02:00
187,2022-06-30T09:47:49.180+02:00,4768.897356541667,-7.517217864990235,-1.1814930725097657,30.910571136474616,4768.887404541667,-1.749408599182257,3.020936925663513,0.2039109488146421,-2.68288254737854,-0.918740451335907,-0.386212021112442,-0.7563586235046387,0.0766459852457046,2.440145015716553,XArbitraryZVertical,0.7659151832450204,0.6320247469036001,0.0191198479337014,0.1164178238466132,0.1178695261478424,-0.2025007903575897,0.9721627235412598,0,0,0,-1,-1,4751.973390625,unknown,2,2022-06-30T09:47:32.258+02:00,2022-06-30T08:20:05.567+02:00,1379,1.385177,0,0,1089.191,0,0,2022-06-30T09:44:05.799+02:00
188,2022-06-30T09:47:49.190+02:00,4768.907308541667,-9.140891418457032,-0.06436614990234375,30.78812576293945,4768.897356541667,-1.74019367695714,3.013013627102704,0.2328328878768257,-3.313061237335205,-0.251890242099762,-0.6879533529281616,-0.7958774566650391,0.0455690920352935,2.276730060577393,XArbitraryZVertical,0.7624603350474577,0.6333614280600088,0.0259595417164057,0.1297453381265642,0.1247651427984238,-0.2307348996400833,0.964984893798828,0,0,0,-1,-1,4751.973390625,unknown,2,2022-06-30T09:47:32.258+02:00,2022-06-30T08:20:05.567+02:00,1379,1.385177,0,0,1089.191,0,0,2022-06-30T09:44:05.799+02:00
189,2022-06-30T09:47:49.200+02:00,4768.917259541667,-10.064470825195313,0.5162763977050782,30.79830459594726,4768.907308541667,-1.726465158070142,3.010976865061235,0.2671657552446524,-3.864108324050903,0.5417717099189758,-1.068319082260132,-0.8919054865837097,0.1435608863830566,2.194617509841919,XArbitraryZVertical,0.7572213142289526,0.6362149287529418,0.0372307566609218,0.1430396080746063,0.1256240159273148,-0.263998806476593,0.9563071131706238,0,0,0,-1,-1,4751.973390625,unknown,2,2022-06-30T09:47:32.258+02:00,2022-06-30T08:20:05.567+02:00,1379,1.385177,0,0,1089.191,0,0,2022-06-30T09:44:05.799+02:00
190,2022-06-30T09:47:49.210+02:00,4768.927211541667,-10.928324432373051,-0.4378395080566406,31.33553741455078,4768.917259541667,-1.707716262136604,3.015290977935688,0.3061976279828293,-4.364003658294678,1.383938789367676,-1.526674509048462,-1.051900506019592,0.2948736846446991,2.192551136016846,XArbitraryZVertical,0.749842664743509,0.6408446843351905,0.0529894910138254,0.1557121627488142,0.1201070621609688,-0.3014353215694427,0.9458918571472168,0,0,0,-1,-1,4751.973390625,unknown,2,2022-06-30T09:47:32.258+02:00,2022-06-30T08:20:05.567+02:00,1379,1.385177,0,0,1089.191,0,0,2022-06-30T09:44:05.799+02:00
191,2022-06-30T09:47:49.220+02:00,4768.937163541667,-12.572355651855469,-0.7206015014648438,32.325428924560555,4768.927211541667,-1.683601376167944,3.025590970579863,0.3484954132185642,-4.603444576263428,2.238352537155151,-2.000759840011597,-1.134724378585815,0.394111305475235,2.205909729003906,XArbitraryZVertical,0.7400088582045753,0.6474352031769338,0.0727087576641307,0.1671166708175687,0.1087841838598251,-0.3414840400218964,0.933570921421051,0,0,0,-1,-1,4751.973390625,unknown,2,2022-06-30T09:47:32.258+02:00,2022-06-30T08:20:05.567+02:00,1379,1.385177,0,0,1089.191,0,0,2022-06-30T09:44:05.799+02:00
192,2022-06-30T09:47:49.230+02:00,4768.947114541667,-14.365626525878907,-2.115550689697266,33.43866394042969,4768.937163541667,-1.653867091367985,3.040663784230311,0.3917659297199523,-4.589503288269043,2.908030033111572,-2.610935926437378,-1.207122564315796,0.3371888399124146,2.27471137046814,XArbitraryZVertical,0.7275151658267996,0.6561159674827266,0.0952158396589118,0.1765433164917448,0.0931238457560539,-0.3818211555480957,0.9195329546928406,0,0,0,-1,-1,4751.973390625,unknown,2,2022-06-30T09:47:32.258+02:00,2022-06-30T08:20:05.567+02:00,1379,1.385177,0,0,1089.191,0,0,2022-06-30T09:44:05.799+02:00
193,2022-06-30T09:47:49.240+02:00,4768.957066541667,-15.805033264160157,-2.3041584777832034,34.695001373291014,4768.947114541667,-1.617511978210742,3.057085330656763,0.4331268262061757,-4.300727844238281,3.305408477783203,-3.296430349349976,-1.358198404312134,0.3462547659873962,2.390731811523438,XArbitraryZVertical,0.7121665834828704,0.6671043753590444,0.1183721389368227,0.1837897202038521,0.0766124874353408,-0.4197109341621399,0.9044190049171448,0,0,0,-1,-1,4751.973390625,unknown,2,2022-06-30T09:47:32.258+02:00,2022-06-30T08:20:05.567+02:00,1379,1.385177,0,0,1089.191,0,0,2022-06-30T09:44:05.799+02:00
194,2022-06-30T09:47:49.250+02:00,4768.967017541667,-16.87455917358399,-1.3227992248535156,36.82761657714844,4768.957066541667,-1.572805532571439,3.071797361789415,0.47081069945778,-3.829722166061401,3.542248010635376,-4.21136999130249,-1.526537418365479,0.2379560470581055,2.519598960876465,XArbitraryZVertical,0.6936245312347953,0.6807354392229197,0.1406424979611282,0.1889554458873268,0.062151163816452,-0.4536089301109314,0.8890314698219299,0,0,0,-1,-1,4751.973390625,unknown,2,2022-06-30T09:47:32.258+02:00,2022-06-30T08:20:05.567+02:00,1379,1.385177,0,0,1089.191,0,0,2022-06-30T09:44:05.799+02:00
195,2022-06-30T09:47:49.260+02:00,4768.976969541667,-18.456469573974616,-2.7487339782714844,39.29298980712891,4768.967017541667,-1.51643514762384,3.079780665113673,0.5021089523474702,-3.061408519744873,3.289786338806152,-5.394646167755127,-1.665262699127197,0.2463963031768799,2.661801815032959,XArbitraryZVertical,0.6713275425115284,0.6976870399239405,0.1597040499658576,0.1924756119308429,0.0541480258107185,-0.4812752604484558,0.8748957514762878,0,0,0,-1,-1,4751.973390625,unknown,2,2022-06-30T09:47:32.258+02:00,2022-06-30T08:20:05.567+02:00,1379,1.385177,0,0,1089.191,0,0,2022-06-30T09:44:05.799+02:00
196,2022-06-30T09:47:49.270+02:00,4768.986921541667,-21.289029235839845,-5.137017517089844,42.173599548339844,4768.976969541667,-1.444551173993731,3.073270140881854,0.5241875968667586,-2.149996757507324,2.41378116607666,-6.929745197296143,-1.779241681098938,0.3656675219535828,2.890377998352051,XArbitraryZVertical,0.644784461319477,0.7184070367754148,0.1724844097173897,0.1959428578680013,0.0591029226779937,-0.5005098581314087,0.8637113571166992,0,0,0,-1,-1,4751.973390625,unknown,2,2022-06-30T09:47:32.258+02:00,2022-06-30T08:20:05.567+02:00,1379,1.385177,0,0,1089.191,0,0,2022-06-30T09:44:05.799+02:00
197,2022-06-30T09:47:49.280+02:00,4768.996872541667,-26.93693435668945,-4.406386871337891,44.70708114624025,4768.986921541667,-1.352461960551007,3.042656215372839,0.5330632083591686,-0.9179607629776,0.6704266667366028,-8.913803100585938,-1.966464161872864,0.2279763221740723,3.148358583450317,XArbitraryZVertical,0.6131782715650457,0.7433262749192574,0.1753193690230979,0.2018458151708673,0.0850705429911613,-0.508173942565918,0.8570430874824524,0,0,0,-1,-1,4751.973390625,unknown,2,2022-06-30T09:47:32.258+02:00,2022-06-30T08:20:05.567+02:00,1379,1.385177,0,0,1089.191,0,0,2022-06-30T09:44:05.799+02:00
198,2022-06-30T09:47:49.290+02:00,4769.006824541667,-31.891780700683594,6.184838562011719,45.79082748413087,4768.996872541667,-1.237245609238309,2.978726234835058,0.5212209229870177,0.7232738137245178,-1.931253433227539,-11.23049068450928,-2.310751676559448,-0.025712251663208,3.443305969238281,XArbitraryZVertical,0.5755502892987527,0.772405213964576,0.1636435725060358,0.2129622857591179,0.1406161487102509,-0.4979393184185028,0.8557358980178833,0,0,0,-1,-1,4751.973390625,unknown,2,2022-06-30T09:47:32.258+02:00,2022-06-30T08:20:05.567+02:00,1379,1.385177,0,0,1089.191,0,0,2022-06-30T09:44:05.799+02:00
199,2022-06-30T09:47:49.300+02:00,4769.016776541667,-37.17025405883789,20.355869750976563,44.61996231079101,4769.006824541667,-1.104730408081342,2.878948392276646,0.4836009049125282,1.56570303440094,-5.34492301940918,-13.06928062438965,-2.975726842880249,0.015796810388565,3.702330827713013,XArbitraryZVertical,0.5317433049605212,0.8029520043228089,0.1353778511238913,0.232787439984963,0.2298617511987686,-0.4649701714515686,0.8549657464027405,0,0,0,-1,-1,4751.973390625,unknown,2,2022-06-30T09:47:32.258+02:00,2022-06-30T08:20:05.567+02:00,1379,1.385177,0,0,1089.191,0,0,2022-06-30T09:44:05.799+02:00
200,2022-06-30T09:47:49.310+02:00,4769.026727541667,-41.42066528320313,26.779012756347658,38.912630767822264,4769.016776541667,-0.9653098408484168,2.747784631832291,0.4279798409508272,0.784633457660675,-8.559294700622559,-14.29917240142822,-3.600045680999756,1.045495986938477,3.827605724334717,XArbitraryZVertical,0.4815814456264009,0.8295550371303758,0.095737862620418,0.2659924376500501,0.3490995764732361,-0.4150336980819702,0.8401644825935364,0,0,0,-1,-1,4751.973390625,unknown,2,2022-06-30T09:47:32.258+02:00,2022-06-30T08:20:05.567+02:00,1379,1.385177,0,0,1089.191,0,0,2022-06-30T09:44:05.799+02:00
201,2022-06-30T09:47:49.319+02:00,4769.036679541667,-45.845912933349624,30.292805786132813,36.602185363769536,4769.026727541667,-0.8231456246908764,2.590217582744358,0.3609991778308178,-0.7714632749557495,-12.2191047668457,-15.29416847229004,-4.279109954833984,2.428220987319946,3.751514673233032,XArbitraryZVertical,0.4234773126531093,0.848008052102144,0.0511885689372711,0.3145298926314421,0.4900933802127838,-0.3532091975212097,0.7969014048576355,0,0,0,-1,-1,4751.973390625,unknown,2,2022-06-30T09:47:32.258+02:00,2022-06-30T08:20:05.567+02:00,1379,1.385177,0,0,1089.191,0,0,2022-06-30T09:44:05.799+02:00
202,2022-06-30T09:47:49.329+02:00,4769.046631541667,-57.84301483154297,26.954298248291014,37.11187545776368,4769.036679541667,-0.6818937382963554,2.402502455600827,0.2783012471093554,-2.157127857208252,-16.56362915039062,-16.2832145690918,-4.869987487792969,3.004489183425903,3.255984544754028,XArbitraryZVertical,0.3560065924713659,0.8535698811485046,0.0022859408901992,0.3803584540799709,0.6476974487304688,-0.2747226655483246,0.7106444835662842,0,0,0,-1,-1,4751.973390625,unknown,2,2022-06-30T09:47:32.258+02:00,2022-06-30T08:20:05.567+02:00,1379,1.385177,0,0,1089.191,0,0,2022-06-30T09:44:05.799+02:00
203,2022-06-30T09:47:49.339+02:00,4769.056582541667,-65.98638061523438,21.123473510742187,54.91390594482422,4769.046631541667,-0.5485833987562047,2.187629582728014,0.168636968943927,-2.505683422088623,-20.42195892333984,-17.41374397277832,-5.47752857208252,3.255789995193481,3.160860300064087,XArbitraryZVertical,0.2769969494004378,0.8416634050204985,-0.0518907262089873,0.4606329796261595,0.8041430115699768,-0.1678388118743896,0.5702491998672485,0,0,0,-1,-1,4751.973390625,unknown,2,2022-06-30T09:47:32.258+02:00,2022-06-30T08:20:05.567+02:00,1379,1.385177,0,0,1089.191,0,0,2022-06-30T09:44:05.799+02:00
204,2022-06-30T09:47:49.349+02:00,4769.066534541667,-91.5379458618164,16.61350204467774,60.84891403198243,4769.056582541667,-0.4501432034617768,1.95821919289925,0.0348778492789871,-2.088598489761353,-23.47202301025391,-15.31048583984375,-6.821654319763184,2.78250527381897,3.405491828918457,XArbitraryZVertical,0.1946892564495902,0.8067731725393493,-0.1103516635286841,0.5468414273990521,0.9253225326538086,-0.0348707772791385,0.3775737285614014,0,0,0,-1,-1,4751.973390625,unknown,2,2022-06-30T09:47:32.258+02:00,2022-06-30T08:20:05.567+02:00,1379,1.385177,0,0,1089.191,0,0,2022-06-30T09:44:05.799+02:00
205,2022-06-30T09:47:49.359+02:00,4769.076486541667,-130.4752752685547,9.766590270996094,67.22101318359375,4769.066534541667,-0.3796241147698554,1.713383656486694,-0.0930479981235107,-5.093515396118164,-26.04852676391602,-13.45497226715088,-7.712010383605957,2.06034517288208,5.456257820129395,XArbitraryZVertical,0.112510718106863,0.7470517485255986,-0.1579502076392281,0.6358512812865806,0.9855698347091676,0.0929137915372848,0.1414899528026581,0,0,0,-1,-1,4751.973390625,unknown,2,2022-06-30T09:47:32.258+02:00,2022-06-30T08:20:05.567+02:00,1379,1.385177,0,0,1089.191,0,0,2022-06-30T09:44:05.799+02:00
206,2022-06-30T09:47:49.369+02:00,4769.086437541667,-156.60359115600588,33.38986541748047,93.68612869262695,4769.076486541667,-0.3227318589706777,1.44381142735557,-0.2180500611321477,-5.809900283813477,-29.84797477722168,-11.49233245849609,-10.29954528808594,1.477200627326965,6.326388359069824,XArbitraryZVertical,0.0249351384935344,0.6614799141495367,-0.190840689478636,0.7248465204662308,0.9684600830078124,0.2163262665271759,-0.1236451268196106,0,0,0,-1,-1,4751.973390625,unknown,2,2022-06-30T09:47:32.258+02:00,2022-06-30T08:20:05.567+02:00,1379,1.385177,0,0,1089.191,0,0,2022-06-30T09:44:05.799+02:00
207,2022-06-30T09:47:49.379+02:00,4769.096389541667,-221.21343429565434,56.5464111328125,80.38209457397461,4769.086437541667,-0.3155056160865392,1.135059641263934,-0.3334408690106827,-0.4844250380992889,-31.9888858795166,-11.0031909942627,-14.15685939788818,0.6682783365249634,7.251125812530518,XArbitraryZVertical,-0.0549180455684697,0.5454983820452931,-0.2187326694658707,0.8071998555622238,0.8566277027130127,0.3272963166236877,-0.3988310396671295,0,0,0,-1,-1,4751.973390625,unknown,2,2022-06-30T09:47:32.258+02:00,2022-06-30T08:20:05.567+02:00,1379,1.385177,0,0,1089.191,0,0,2022-06-30T09:44:05.799+02:00
208,2022-06-30T09:47:49.390+02:00,4769.106341541667,-248.65107742309567,17.9436360168457,35.882032928466806,4769.096389541667,-0.4313782208545708,0.7851348768018855,-0.3816867172780219,12.72055244445801,-29.59235382080078,-9.281979560852053,-16.61971855163574,3.031169414520264,10.20645809173584,XArbitraryZVertical,-0.0908070126473757,0.4044216095952228,-0.265035563711207,0.8706052129551396,0.6560489535331726,0.3724863231182098,-0.6563944816589355,0,0,0,-1,-1,4751.973390625,unknown,2,2022-06-30T09:47:32.258+02:00,2022-06-30T08:20:05.567+02:00,1379,1.385177,0,0,1089.191,0,0,2022-06-30T09:44:05.799+02:00
209,2022-06-30T09:47:49.399+02:00,4769.116292541667,-231.70122482299809,-42.19186157226563,-35.158886718750004,4769.106341541667,-0.5709342585042737,0.466511739359565,-0.3081652435576159,12.40898418426514,-23.80853843688965,-3.414929866790771,-22.97837448120117,5.460848808288574,9.044961929321287,XArbitraryZVertical,-0.0789535916484461,0.261213006184872,-0.3047728555187527,0.9124952596295416,0.4285854399204254,0.3033108115196228,-0.8510681986808777,0,0,0,-1,-1,4751.973390625,unknown,2,2022-06-30T09:47:32.258+02:00,2022-06-30T08:20:05.567+02:00,1379,1.385177,0,0,1089.191,0,0,2022-06-30T09:44:05.799+02:00
210,2022-06-30T09:47:49.409+02:00,4769.126244541667,-158.65073410034185,-34.30700820922851,-41.22696807861328,4769.116292541667,-0.6070442125180955,0.2839585106492828,-0.2483766794715893,1.378101229667664,-10.17210865020752,1.094575166702271,-25.61825561523438,1.583285689353943,4.588194847106934,XArbitraryZVertical,-0.075050775098936,0.1706445858661246,-0.3103237442221286,0.9321732169083492,0.2715605497360229,0.245830774307251,-0.9304956197738647,0,0,0,-1,-1,4751.973390625,unknown,2,2022-06-30T09:47:32.258+02:00,2022-06-30T08:20:05.567+02:00,1379,1.385177,0,0,1089.191,0,0,2022-06-30T09:44:05.799+02:00
211,2022-06-30T09:47:49.419+02:00,4769.136196541667,-62.370350189209,-14.789844360351564,-28.302694244384764,4769.126244541667,-0.5838361552649285,0.2507992160063445,-0.2597464782079625,-3.801679611206055,1.498849749565125,2.10804295539856,-23.85873413085938,-4.5577392578125,-2.647765636444092,XArbitraryZVertical,-0.0873644373243412,0.1557496846456791,-0.2986377521757799,0.9375100228512756,0.2398531436920166,0.256835550069809,-0.9362189769744872,0,0,0,-1,-1,4751.973390625,unknown,2,2022-06-30T09:47:32.258+02:00,2022-06-30T08:20:05.567+02:00,1379,1.385177,0,0,1089.191,0,0,2022-06-30T09:44:05.799+02:00
212,2022-06-30T09:47:49.429+02:00,4769.146147541667,0.0056881713867187505,-1.4796730041503907,-20.349283447265627,4769.136196541667,-0.5496948126402531,0.2910906311738611,-0.2989790834973001,-5.451342582702637,3.19793176651001,2.491015195846558,-16.44661331176758,-3.791691780090332,-3.287109851837158,XArbitraryZVertical,-0.102905134279422,0.1780248060802101,-0.2863250487280362,0.9358075903336308,0.2742652893066406,0.2945447266101837,-0.9154353737831116,0,0,0,-1,-1,4751.973390625,unknown,2,2022-06-30T09:47:32.258+02:00,2022-06-30T08:20:05.567+02:00,1379,1.385177,0,0,1089.191,0,0,2022-06-30T09:44:05.799+02:00
213,2022-06-30T09:47:49.439+02:00,4769.156099541667,-2.1969813537597656,2.9309051513671878,-28.88139083862305,4769.146147541667,-0.503647574017994,0.3098821001253844,-0.3408603359027131,-4.876663208007812,-2.744629621505737,3.250778675079346,-6.645236015319824,-1.841927766799927,-1.98750901222229,XArbitraryZVertical,-0.1243937818710762,0.189043800904003,-0.2679673639850041,0.9364733220212348,0.2874020040035248,0.3342980444431305,-0.8975772857666016,0,0,0,-1,-1,4751.973390625,unknown,2,2022-06-30T09:47:32.258+02:00,2022-06-30T08:20:05.567+02:00,1379,1.385177,0,0,1089.191,0,0,2022-06-30T09:44:05.799+02:00
214,2022-06-30T09:47:49.449+02:00,4769.166051541667,-34.95171752929688,2.77103759765625,-27.217750396728512,4769.156099541667,-0.4596556747014459,0.2684429912648984,-0.372891131669372,-4.253346920013428,-8.269680976867676,2.560535669326782,-0.2464236468076706,-0.5151428580284119,-1.176416635513306,XArbitraryZVertical,-0.1489128057034161,0.1698906463919946,-0.2460017064509095,0.9425738063559967,0.2470033317804337,0.3643094003200531,-0.8979243040084839,0,0,0,-1,-1,4751.973390625,unknown,2,2022-06-30T09:47:32.258+02:00,2022-06-30T08:20:05.567+02:00,1379,1.385177,0,0,1089.191,0,0,2022-06-30T09:44:05.799+02:00
215,2022-06-30T09:47:49.459+02:00,4769.176002541667,-43.88109878540038,-9.322463836669924,-27.107280120849616,4769.166051541667,-0.4344747127774383,0.1866593724712688,-0.4125806230848357,-4.277384757995605,-9.394061088562012,0.1540619879961014,-0.3939588069915771,-0.1022079586982727,-2.043900489807129,XArbitraryZVertical,-0.1794850649368301,0.1330298602905471,-0.228685127972556,0.947518502731745,0.1700053811073303,0.4009747505187988,-0.9001763463020325,0,0,0,-1,-1,4751.973390625,unknown,2,2022-06-30T09:47:32.258+02:00,2022-06-30T08:20:05.567+02:00,1379,1.385177,0,0,1089.191,0,0,2022-06-30T09:44:05.799+02:00
216,2022-06-30T09:47:49.469+02:00,4769.185954541667,-37.13387969970703,-7.821535034179688,-40.79002670288087,4769.176002541667,-0.4364018148767932,0.0993627124683886,-0.4515141314292733,-3.554142951965332,-8.052627563476562,-1.504133939743042,-3.652124643325806,-0.1538580656051636,-1.879141092300415,XArbitraryZVertical,-0.2077894631264608,0.0956496912091055,-0.2215729148440503,0.9479346607646252,0.0892582833766937,0.4363284409046173,-0.8953493237495422,0,0,0,-1,-1,4751.973390625,unknown,2,2022-06-30T09:47:32.258+02:00,2022-06-30T08:20:05.567+02:00,1379,1.385177,0,0,1089.191,0,0,2022-06-30T09:44:05.799+02:00
217,2022-06-30T09:47:49.479+02:00,4769.195906541667,-37.13747222900391,4.9689170837402346,-43.12457199096681,4769.185954541667,-0.4569333640392949,0.0128761105857205,-0.4885325364295134,-3.68072509765625,-7.388113021850586,-2.571338415145874,-4.484468460083008,-1.419633030891418,-1.880280256271362,XArbitraryZVertical,-0.2341403404951695,0.0608573940116801,-0.2212731023953246,0.9447290904367104,0.0113695822656154,0.4693305790424347,-0.8829493522644043,0,0,0,-1,-1,4751.973390625,unknown,2,2022-06-30T09:47:32.258+02:00,2022-06-30T08:20:05.567+02:00,1379,1.385177,0,0,1089.191,0,0,2022-06-30T09:44:05.799+02:00
218,2022-06-30T09:47:49.489+02:00,4769.205857541667,-33.55616958618164,12.868439941406251,-37.976926574707036,4769.195906541667,-0.4921357768556533,-0.0708591159532591,-0.5216072424047482,-3.065933704376221,-5.999521255493164,-3.290114402770996,-3.723924160003662,-1.295576810836792,-3.293161153793335,XArbitraryZVertical,-0.2582696660514427,0.029579186389287,-0.2263482276944073,0.938716315068374,-0.0613848343491554,0.4982742965221405,-0.8648437261581421,0,0,0,-1,-1,4751.973390625,unknown,2,2022-06-30T09:47:32.258+02:00,2022-06-30T08:20:05.567+02:00,1379,1.385177,0,0,1089.191,0,0,2022-06-30T09:44:05.799+02:00
219,2022-06-30T09:47:49.499+02:00,4769.215809541667,-27.0638703918457,15.631394348144532,-36.28843780517578,4769.205857541667,-0.5302382111679372,-0.143456464847452,-0.5445352065416361,-2.292492628097534,-4.773924827575684,-2.654102802276611,-3.663387537002563,-0.0115053653717041,-3.549399375915527,XArbitraryZVertical,-0.2769399761979121,0.0036662766003278,-0.2331242355234653,0.9321716354918624,-0.1222876459360123,0.5180205702781677,-0.8465816378593445,0,0,0,-1,-1,4751.973390625,unknown,2,2022-06-30T09:47:32.258+02:00,2022-06-30T08:20:05.567+02:00,1379,1.385177,0,0,1089.191,0,0,2022-06-30T09:44:05.799+02:00
220,2022-06-30T09:47:49.509+02:00,4769.225760541667,-21.728814697265626,16.407380676269533,-36.17347686767578,4769.215809541667,-0.5595584667991609,-0.2027351052556638,-0.5629143508304354,-2.312581062316895,-4.075418472290039,-1.676949262619019,-3.250327110290527,0.7781140804290771,-3.042863368988037,XArbitraryZVertical,-0.2924298030865718,-0.0171255535258543,-0.2369016320392582,0.9263202223331248,-0.1702816933393478,0.5336531400680542,-0.8283830285072327,0,0,0,-1,-1,4751.973390625,unknown,2,2022-06-30T09:47:32.258+02:00,2022-06-30T08:20:05.567+02:00,1379,1.385177,0,0,1089.191,0,0,2022-06-30T09:44:05.799+02:00
221,2022-06-30T09:47:49.518+02:00,4769.235712541667,-19.09878387451172,18.201998748779303,-37.56872543334961,4769.225760541667,-0.5811204820539079,-0.2523009940502548,-0.5840258819671154,-2.666009426116943,-3.551205396652222,-0.9340826272964478,-2.550548553466797,1.042026996612549,-2.891289710998535,XArbitraryZVertical,-0.3081408670625535,-0.033620176871068,-0.23747888370974,0.9206100379420136,-0.2082560360431671,0.5513870120048523,-0.8078377842903137,0,0,0,-1,-1,4751.973390625,unknown,2,2022-06-30T09:47:32.258+02:00,2022-06-30T08:20:05.567+02:00,1379,1.385177,0,0,1089.191,0,0,2022-06-30T09:44:05.799+02:00
222,2022-06-30T09:47:49.528+02:00,4769.245664541667,-18.056651000976565,21.345611572265625,-39.434595336914064,4769.235712541667,-0.5996598907737561,-0.2958938294324477,-0.6083683529223282,-2.811649084091187,-3.118695020675659,-0.8072924613952637,-1.975688576698303,1.100986242294312,-2.902487754821777,XArbitraryZVertical,-0.3245658466018421,-0.0468684544335931,-0.236538809906096,0.9146090768948166,-0.2392774671316147,0.5715293288230896,-0.7849206924438477,0,0,0,-1,-1,4751.973390625,unknown,2,2022-06-30T09:47:32.258+02:00,2022-06-30T08:20:05.567+02:00,1379,1.385177,0,0,1089.191,0,0,2022-06-30T09:44:05.799+02:00
