,loggingTime(txt),accelerometerTimestamp_sinceReboot(s),accelerometerAccelerationX(G),accelerometerAccelerationY(G),accelerometerAccelerationZ(G),motionTimestamp_sinceReboot(s),motionYaw(rad),motionRoll(rad),motionPitch(rad),motionRotationRateX(rad/s),motionRotationRateY(rad/s),motionRotationRateZ(rad/s),motionUserAccelerationX(G),motionUserAccelerationY(G),motionUserAccelerationZ(G),motionAttitudeReferenceFrame(txt),motionQuaternionX(R),motionQuaternionY(R),motionQuaternionZ(R),motionQuaternionW(R),motionGravityX(G),motionGravityY(G),motionGravityZ(G),motionMagneticFieldX(µT),motionMagneticFieldY(µT),motionMagneticFieldZ(µT),motionHeading(°),motionMagneticFieldCalibrationAccuracy(Z),activityTimestamp_sinceReboot(s),activity(txt),activityActivityConfidence(Z),activityActivityStartDate(txt),pedometerStartDate(txt),pedometerNumberofSteps(N),pedometerAverageActivePace(s/m),pedometerCurrentPace(s/m),pedometerCurrentCadence(steps/s),pedometerDistance(m),pedometerFloorAscended(N),pedometerFloorDescended(N),pedometerEndDate(txt)
199,2022-06-30T09:40:26.714+02:00,4326.428885791667,4.273612976074219,18.379080505371096,7.822133789062501,4326.418933791667,-0.337193238281013,0.8698776199947915,-0.4261728899303672,2.771884679794312,4.933104991912842,-1.30876362323761,-0.2725362181663513,1.536180377006531,1.33087170124054,XArbitraryZVertical,-0.1199649303541356,0.4381677511367889,-0.2365781245761704,0.8588644856875363,0.695891261100769,0.4133890569210052,-0.5872348546981812,0,0,0,-1,-1,4326.411381791667,unknown,2,2022-06-30T09:40:26.696+02:00,2022-06-30T08:20:05.567+02:00,1233,1.427957,0,0,959.237,0,0,2022-06-30T09:40:26.695+02:00
200,2022-06-30T09:40:26.724+02:00,4326.438837791667,3.659290466308594,17.528100128173826,8.74466537475586,4326.428885791667,-0.3673376850865004,0.907662518108231,-0.4187562870924877,2.417813777923584,5.170829772949219,-1.02439820766449,-0.2810400128364563,1.574423789978027,1.311361908912659,XArbitraryZVertical,-0.1053475767173679,0.4557433639449316,-0.2501572441198375,0.8477153207979015,0.7199743390083313,0.4066245257854462,-0.5623997449874878,0,0,0,-1,-1,4326.411381791667,unknown,2,2022-06-30T09:40:26.696+02:00,2022-06-30T08:20:05.567+02:00,1233,1.427957,0,0,959.237,0,0,2022-06-30T09:40:26.695+02:00
201,2022-06-30T09:40:26.734+02:00,4326.448788791667,3.4504747009277343,17.18591171264649,9.049132232666015,4326.438837791667,-0.3920925957539975,0.9508253140455384,-0.4132676925644607,1.83557665348053,5.542920589447021,-0.8236355185508728,-0.3097378015518188,1.471900224685669,1.329461216926575,XArbitraryZVertical,-0.0916589931635594,0.474920557804387,-0.2616138414752023,0.8352289015951874,0.7453762292861938,0.4016040563583374,-0.5320981740951538,0,0,0,-1,-1,4326.411381791667,unknown,2,2022-06-30T09:40:26.696+02:00,2022-06-30T08:20:05.567+02:00,1233,1.427957,0,0,959.237,0,0,2022-06-30T09:40:26.695+02:00
202,2022-06-30T09:40:26.744+02:00,4326.458740791667,3.6935691833496094,16.45153884887695,9.342671813964845,4326.448788791667,-0.4094184186417033,1.001063280703363,-0.4109931421405247,1.096301198005676,5.956051349639893,-0.5920909643173218,-0.3989068865776062,1.387238144874573,1.38589084148407,XArbitraryZVertical,-0.0797825640718646,0.4963776928476005,-0.2704718015965139,0.821029170983657,0.7719232439994812,0.3995199501514435,-0.494487851858139,0,0,0,-1,-1,4326.411381791667,unknown,2,2022-06-30T09:40:26.696+02:00,2022-06-30T08:20:05.567+02:00,1233,1.427957,0,0,959.237,0,0,2022-06-30T09:40:26.695+02:00
203,2022-06-30T09:40:26.754+02:00,4326.468692791667,4.383185119628907,15.412399749755865,9.936337280273438,4326.458740791667,-0.4189525204405728,1.058690801478597,-0.4112122459805514,0.3691644370555878,6.394538402557373,-0.3598459661006927,-0.447315514087677,1.352155685424805,1.371604084968567,XArbitraryZVertical,-0.0695712689914502,0.5201706336007312,-0.2765479823854373,0.8050487941649555,0.7990459203720093,0.3997208178043365,-0.4491646885871887,0,0,0,-1,-1,4326.411381791667,unknown,2,2022-06-30T09:40:26.696+02:00,2022-06-30T08:20:05.567+02:00,1233,1.427957,0,0,959.237,0,0,2022-06-30T09:40:26.695+02:00
204,2022-06-30T09:40:26.764+02:00,4326.478644791667,5.3386482238769535,14.80286727905274,10.834469604492188,4326.468692791667,-0.4212052114725452,1.123680774246132,-0.4131038847715754,-0.1766112595796585,6.854764461517334,-0.1777746975421906,-0.4493357539176941,1.275562882423401,1.348357319831848,XArbitraryZVertical,-0.0607223504607864,0.5461822860645633,-0.2799974608216322,0.787146194412178,0.8258464336395264,0.4014540314674377,-0.3959954082965851,0,0,0,-1,-1,4326.411381791667,unknown,2,2022-06-30T09:40:26.696+02:00,2022-06-30T08:20:05.567+02:00,1233,1.427957,0,0,959.237,0,0,2022-06-30T09:40:26.695+02:00
205,2022-06-30T09:40:26.774+02:00,4326.488595791667,5.776188354492188,14.951657867431637,12.56352401733399,4326.478644791667,-0.4174023495078567,1.195814601524642,-0.415432403814385,-0.6283062696456909,7.341092109680176,0.0306798405945301,-0.4045586585998535,1.167504787445068,1.347980737686157,XArbitraryZVertical,-0.0526273432719882,0.5741768824004974,-0.281132607284961,0.7671478309929299,0.8513665795326233,0.4035855829715729,-0.3351025283336639,0,0,0,-1,-1,4326.411381791667,unknown,2,2022-06-30T09:40:26.696+02:00,2022-06-30T08:20:05.567+02:00,1233,1.427957,0,0,959.237,0,0,2022-06-30T09:40:26.695+02:00
206,2022-06-30T09:40:26.783+02:00,4326.498547791667,5.7260426330566405,14.351256408691407,16.96317489624024,4326.488595791667,-0.4078187097618549,1.275468026084472,-0.4167467432578878,-1.156808733940125,7.893145561218262,0.29869744181633,-0.3306179642677307,1.104168772697449,1.370573759078979,XArbitraryZVertical,-0.0448093128284958,0.6040866636731832,-0.2797910968265632,0.744841229631951,0.8748227953910828,0.4047877788543701,-0.2661428451538086,0,0,0,-1,-1,4326.411381791667,unknown,2,2022-06-30T09:40:26.696+02:00,2022-06-30T08:20:05.567+02:00,1233,1.427957,0,0,959.237,0,0,2022-06-30T09:40:26.695+02:00
207,2022-06-30T09:40:26.793+02:00,4326.508499791667,4.767585754394531,15.829731903076176,23.068828125,4326.498547791667,-0.3908456108221053,1.364030229587603,-0.416905012542786,-1.915013790130615,8.550117492675781,0.42377769947052,-0.3060647249221802,1.119191288948059,1.468396902084351,XArbitraryZVertical,-0.0378411158630109,0.6361699545892933,-0.2754477308666123,0.7197113996344091,0.8948710560798645,0.4049324989318848,-0.1877116709947586,0,0,0,-1,-1,4326.411381791667,unknown,2,2022-06-30T09:40:26.696+02:00,2022-06-30T08:20:05.567+02:00,1233,1.427957,0,0,959.237,0,0,2022-06-30T09:40:26.695+02:00
208,2022-06-30T09:40:26.803+02:00,4326.518450791667,2.361189880371094,18.560203857421875,28.870762939453126,4326.508499791667,-0.3631249808446034,1.464625695084684,-0.4154450681061154,-3.140053033828735,9.437026977539062,0.6539445519447327,-0.3260904550552368,1.059323668479919,1.826128602027893,XArbitraryZVertical,-0.0327094116741212,0.6711568923581603,-0.2670066695171903,0.6907865979501713,0.9097850918769836,0.4035971760749817,-0.096957042813301,0,0,0,-1,-1,4326.411381791667,unknown,2,2022-06-30T09:40:26.696+02:00,2022-06-30T08:20:05.567+02:00,1233,1.427957,0,0,959.237,0,0,2022-06-30T09:40:26.695+02:00
209,2022-06-30T09:40:26.813+02:00,4326.528402791667,-0.8065228271484376,21.245170440673824,34.954411926269536,4326.518450791667,-0.3213506757107684,1.580176994510638,-0.4095514826322102,-4.462730407714844,10.43170261383057,0.8921570777893066,-0.4312666654586792,1.215433955192566,2.342957496643066,XArbitraryZVertical,-0.0299880221033748,0.7095090535760827,-0.2528426043439954,0.6570908432646896,0.9172592759132384,0.3981979489326477,0.0086047574877738,0,0,0,-1,-1,4326.411381791667,unknown,2,2022-06-30T09:40:26.696+02:00,2022-06-30T08:20:05.567+02:00,1233,1.427957,0,0,959.237,0,0,2022-06-30T09:40:26.695+02:00
210,2022-06-30T09:40:26.823+02:00,4326.538354791667,-3.955973510742188,21.180953979492188,42.1762939453125,4326.528402791667,-0.2680789192674783,1.709861263388158,-0.3959239509463028,-5.525336265563965,11.42745685577393,1.088624000549316,-0.6730411648750305,1.506306767463684,2.815099239349365,XArbitraryZVertical,-0.0290477952539352,0.7504019831071901,-0.2330527023660411,0.6178508148676626,0.9137336015701294,0.3856608271598816,0.1278938204050064,0,0,0,-1,-1,4326.411381791667,unknown,2,2022-06-30T09:40:26.696+02:00,2022-06-30T08:20:05.567+02:00,1233,1.427957,0,0,959.237,0,0,2022-06-30T09:40:26.695+02:00
211,2022-06-30T09:40:26.833+02:00,4326.548305791667,-8.115074615478516,20.47113006591797,49.69141616821288,4326.538354791667,-0.2080304672943997,1.851063921970908,-0.3720041091092081,-6.406608581542969,12.41717720031738,1.277261853218079,-0.977465271949768,1.802181243896484,3.305448055267334,XArbitraryZVertical,-0.0290969861809176,0.792464336826504,-0.208316667840716,0.5725013918454345,0.8952510952949524,0.363483190536499,0.2576927244663239,0,0,0,-1,-1,4326.411381791667,unknown,2,2022-06-30T09:40:26.696+02:00,2022-06-30T08:20:05.567+02:00,1233,1.427957,0,0,959.237,0,0,2022-06-30T09:40:26.695+02:00
212,2022-06-30T09:40:26.843+02:00,4326.558257791667,-13.561498718261719,20.370090179443366,57.454273223876946,4326.548305791667,-0.1454889093389708,2.000580631028812,-0.3357500043448312,-7.188154220581055,13.23783111572266,1.456003665924072,-1.261556148529053,1.829640865325928,3.905907154083252,XArbitraryZVertical,-0.0296884875865508,0.8341601175991045,-0.1789534544141574,0.5208369056812533,0.8582970499992371,0.3294773995876312,0.3934090137481689,0,0,0,-1,-1,4326.411381791667,unknown,2,2022-06-30T09:40:26.696+02:00,2022-06-30T08:20:05.567+02:00,1233,1.427957,0,0,959.237,0,0,2022-06-30T09:40:26.695+02:00
213,2022-06-30T09:40:26.853+02:00,4326.568209791667,-18.008002166748053,20.785925445556636,64.80623474121094,4326.558257791667,-0.0841015843345706,2.153946370490553,-0.2862293185014503,-7.875462055206299,13.73732566833496,1.514380216598511,-1.627995848655701,1.804424285888672,4.537130832672119,XArbitraryZVertical,-0.0309071268651425,0.8735967075459584,-0.1451978904564777,0.4634557332227975,0.8007715344429016,0.2823369801044464,0.528252899646759,0,0,0,-1,-1,4326.411381791667,unknown,2,2022-06-30T09:40:26.696+02:00,2022-06-30T08:20:05.567+02:00,1233,1.427957,0,0,959.237,0,0,2022-06-30T09:40:26.695+02:00
214,2022-06-30T09:40:26.863+02:00,4326.578160791667,-21.570893096923825,20.24584854125976,73.0717465209961,4326.568209791667,-0.0277731041620305,2.305889272165979,-0.2254180897234016,-8.287221908569336,13.82784461975098,1.414764165878296,-2.105417728424072,1.85294771194458,5.203015327453613,XArbitraryZVertical,-0.0330250653110506,0.9087100250937468,-0.1083831975764393,0.4017569290218979,0.7230023741722107,0.2235139012336731,0.6536891460418701,0,0,0,-1,-1,4326.411381791667,unknown,2,2022-06-30T09:40:26.696+02:00,2022-06-30T08:20:05.567+02:00,1233,1.427957,0,0,959.237,0,0,2022-06-30T09:40:26.695+02:00
215,2022-06-30T09:40:26.873+02:00,4326.588112791667,-19.944674835205074,16.63505722045899,82.92740158081055,4326.578160791667,0.0235648820517626,2.450921492599661,-0.1553502852720583,-8.916476249694824,13.30879306793213,0.8971656560897827,-2.465060710906982,1.964124321937561,5.844604015350342,XArbitraryZVertical,-0.0373188919209571,0.9377501464826806,-0.069034418775429,0.338328682376113,0.6293829679489136,0.1547261774539948,0.7615360617637634,0,0,0,-1,-1,4326.411381791667,unknown,2,2022-06-30T09:40:26.696+02:00,2022-06-30T08:20:05.567+02:00,1233,1.427957,0,0,959.237,0,0,2022-06-30T09:40:26.695+02:00
216,2022-06-30T09:40:26.883+02:00,4326.598064791667,-13.031900024414064,13.912369079589844,92.09823074340821,4326.588112791667,0.0746067443895374,2.585156701144525,-0.0784347711912266,-9.585988998413086,12.40357971191406,-0.2337326407432556,-2.725406885147095,1.985442399978638,6.60216760635376,XArbitraryZVertical,-0.0465935433384895,0.9597370364099864,-0.027438599424116,0.2756464945162764,0.5265393853187561,0.0783543735742569,0.8465322852134705,0,0,0,-1,-1,4326.411381791667,unknown,2,2022-06-30T09:40:26.696+02:00,2022-06-30T08:20:05.567+02:00,1233,1.427957,0,0,959.237,0,0,2022-06-30T09:40:26.695+02:00
217,2022-06-30T09:40:26.893+02:00,4326.608016791667,-3.394790496826172,9.388925628662111,99.59074996948245,4326.598064791667,0.1301845176616039,2.705003045626697,0.0032790754974353,-10.16810989379883,11.19750595092773,-1.87701940536499,-2.455945014953613,1.699003338813782,7.547159671783447,XArbitraryZVertical,-0.0631482278922424,0.9742225205509932,0.0156839862247339,0.2160022258240947,0.4228492975234985,-0.0032790696714073,0.9061944484710692,0,0,0,-1,-1,4326.411381791667,unknown,2,2022-06-30T09:40:26.696+02:00,2022-06-30T08:20:05.567+02:00,1233,1.427957,0,0,959.237,0,0,2022-06-30T09:40:26.695+02:00
218,2022-06-30T09:40:26.903+02:00,4326.617967791667,7.171436920166016,4.901108093261719,103.55839920043944,4326.608016791667,0.1969280733529106,2.805655073527332,0.0866942115475087,-10.28279495239258,9.577691078186035,-4.352814674377441,-1.656846284866333,1.504767894744873,8.44764232635498,XArbitraryZVertical,-0.089621043595162,0.9809414450318334,0.0589359333709718,0.1620140933503073,0.3284164667129517,-0.0865856558084487,0.9405561089515686,0,0,0,-1,-1,4326.411381791667,unknown,2,2022-06-30T09:40:26.696+02:00,2022-06-30T08:20:05.567+02:00,1233,1.427957,0,0,959.237,0,0,2022-06-30T09:40:26.695+02:00
219,2022-06-30T09:40:26.913+02:00,4326.627919791666,9.033863983154298,-2.8719277954101563,107.8716796875,4326.617967791667,0.2823821441205603,2.880109489015305,0.1628798238732978,-9.469953536987305,7.415501594543457,-7.225688457489014,-0.6011457443237305,1.119237422943115,9.198740005493164,XArbitraryZVertical,-0.1285589833142949,0.9798386341318664,0.0981381297550051,0.1172943286923963,0.2550921142101288,-0.1621605753898621,0.9532223343849182,0,0,0,-1,-1,4326.411381791667,unknown,2,2022-06-30T09:40:26.696+02:00,2022-06-30T08:20:05.567+02:00,1233,1.427957,0,0,959.237,0,0,2022-06-30T09:40:26.695+02:00
220,2022-06-30T09:40:26.923+02:00,4326.637871791667,2.0378622436523437,1.084794158935547,109.70910873413088,4326.627919791666,0.3943542123850534,2.91771827689061,0.2303985636787551,-8.855871200561523,4.467325210571289,-11.04068470001221,0.5148912668228149,0.7279688119888306,9.607131958007812,XArbitraryZVertical,-0.1807946119056389,0.9705426551182352,0.1337498949776004,0.0864361569726225,0.216142475605011,-0.228365570306778,0.949279487133026,0,0,0,-1,-1,4326.411381791667,unknown,2,2022-06-30T09:40:26.696+02:00,2022-06-30T08:20:05.567+02:00,1233,1.427957,0,0,959.237,0,0,2022-06-30T09:40:26.695+02:00
221,2022-06-30T09:40:26.933+02:00,4326.647822791667,-14.693744201660158,17.314194946289064,108.7963069152832,4326.637871791667,0.546905889361617,2.90383769318238,0.2795430030590896,-7.34885835647583,0.3417788147926331,-15.67893886566162,0.6945047974586487,-0.0168387293815612,10.06195068359375,XArbitraryZVertical,-0.2496279266468971,0.9511873200818336,0.1649095725475864,0.0757194295454332,0.2263787984848022,-0.2759164273738861,0.9341428279876708,0,0,0,-1,-1,4326.411381791667,unknown,2,2022-06-30T09:40:26.696+02:00,2022-06-30T08:20:05.567+02:00,1233,1.427957,0,0,959.237,0,0,2022-06-30T09:40:26.695+02:00
222,2022-06-30T09:40:26.943+02:00,4326.657774791667,-35.878440399169925,34.57644790649414,105.16725357055662,4326.647822791667,0.743652395174202,2.823368150100238,0.2988324087036032,-6.843582153320312,-5.302422523498535,-19.58067512512207,-0.0912805795669555,0.4049849808216095,10.27569675445557,XArbitraryZVertical,-0.3327571602729629,0.918216799380154,0.1938599179737672,0.0925694639617514,0.2990142107009888,-0.2944045662879944,0.9076988101005554,0,0,0,-1,-1,4326.411381791667,unknown,2,2022-06-30T09:40:26.696+02:00,2022-06-30T08:20:05.567+02:00,1233,1.427957,0,0,959.237,0,0,2022-06-30T09:40:26.695+02:00
223,2022-06-30T09:40:26.953+02:00,4326.667726791667,-62.94455612182618,45.52722564697266,98.44518218994136,4326.657774791667,0.9726790931102804,2.67250866261145,0.2858287927213967,-7.728574752807617,-11.54952049255371,-21.95794486999512,-1.93156111240387,2.046906471252441,10.23455333709717,XArbitraryZVertical,-0.4206995781551204,0.8665498528298412,0.2299799771797923,0.1386090236119794,0.4337282180786133,-0.2819527089595795,0.8557935357093811,0,0,0,-1,-1,4326.411381791667,unknown,2,2022-06-30T09:40:26.696+02:00,2022-06-30T08:20:05.567+02:00,1233,1.427957,0,0,959.237,0,0,2022-06-30T09:40:26.695+02:00
224,2022-06-30T09:40:26.963+02:00,4326.677677791667,-107.52799438476563,42.831481475830074,77.94740753173828,4326.667726791667,1.218426160171082,2.46364633809024,0.2331671481576533,-9.129116058349608,-17.69364547729492,-24.05267333984375,-4.267555713653564,3.755672931671143,9.962627410888672,XArbitraryZVertical,-0.5042774182708154,0.7903146767564921,0.2789484495975343,0.208073948226911,0.610222578048706,-0.231060117483139,0.7577860355377197,0,0,0,-1,-1,4326.411381791667,unknown,2,2022-06-30T09:40:26.696+02:00,2022-06-30T08:20:05.567+02:00,1233,1.427957,0,0,959.237,0,0,2022-06-30T09:40:26.695+02:00
225,2022-06-30T09:40:26.973+02:00,4326.687629791667,-137.03732940673822,41.94203109741212,70.38139114379882,4326.677677791667,1.453561407404119,2.205193424366981,0.1028132776618614,-4.992578983306885,-26.75516510009766,-27.30764961242676,-7.21754264831543,4.743532180786133,9.445624351501465,XArbitraryZVertical,-0.5748461680879845,0.6814199033548549,0.3337325636125832,0.30633567827284,0.8011762499809265,-0.1026322394609451,0.5895624160766602,0,0,0,-1,-1,4326.411381791667,unknown,2,2022-06-30T09:40:26.696+02:00,2022-06-30T08:20:05.567+02:00,1233,1.427957,0,0,959.237,0,0,2022-06-30T09:40:26.695+02:00
226,2022-06-30T09:40:26.983+02:00,4326.697581791667,-198.23067718505862,72.0031187438965,135.08299346923823,4326.687629791667,1.559624658898213,1.886251867747024,-0.1323881008158496,8.746271133422852,-34.8776741027832,-23.89596176147461,-11.903395652771,4.234102725982666,7.638174533843994,XArbitraryZVertical,-0.5954987746728677,0.5469448101319002,0.3739577088602482,0.4542999915660193,0.9423367381095886,0.1320017278194427,0.3075348436832428,0,0,0,-1,-1,4326.411381791667,unknown,2,2022-06-30T09:40:26.696+02:00,2022-06-30T08:20:05.567+02:00,1233,1.427957,0,0,959.237,0,0,2022-06-30T09:40:26.695+02:00
227,2022-06-30T09:40:26.992+02:00,4326.707532791667,-315.2264831542969,98.78737060546875,191.51788650512694,4326.697581791667,1.41207234362154,1.50039190935424,-0.326600934407813,24.77551078796387,-34.89967727661133,-13.0202693939209,-14.91393852233887,3.954611301422119,7.241081237792969,XArbitraryZVertical,-0.5269714587818567,0.434726639768512,0.3839915406044833,0.621179948224499,0.944792091846466,0.3208255171775818,-0.0666276589035987,0,0,0,-1,-1,4326.411381791667,unknown,2,2022-06-30T09:40:26.696+02:00,2022-06-30T08:20:05.567+02:00,1233,1.427957,0,0,959.237,0,0,2022-06-30T09:40:26.695+02:00
228,2022-06-30T09:40:27.003+02:00,4326.717484791667,-314.37161087036134,-2.7175987243652346,191.9506365966797,4326.707532791667,1.07162963907657,1.037164758312632,-0.3348049255597678,34.78131866455078,-34.84208679199219,-7.24299955368042,-21.02016067504883,7.01118278503418,14.25034713745117,XArbitraryZVertical,-0.3739457121518266,0.3463449749398785,0.3662068364881425,0.7785257453136235,0.8131598830223083,0.3285849392414093,-0.4804195165634155,0,0,0,-1,-1,4326.411381791667,unknown,2,2022-06-30T09:40:26.696+02:00,2022-06-30T08:20:05.567+02:00,1233,1.427957,0,0,959.237,0,0,2022-06-30T09:40:26.695+02:00
229,2022-06-30T09:40:27.012+02:00,4326.727436791667,-314.3597854614257,-23.9311848449707,22.73517196655274,4326.717484791667,0.8058787389031543,0.6247883310480312,-0.1099406718549693,34.88671875,-34.86486053466797,5.197432518005371,-32.71457290649414,9.960349082946776,20.32891082763672,XArbitraryZVertical,-0.168428680990103,0.2617951962944881,0.3570481461135271,0.8806882186729689,0.5813941955566406,0.1097193285822868,-0.8061901330947876,0,0,0,-1,-1,4326.411381791667,unknown,2,2022-06-30T09:40:26.696+02:00,2022-06-30T08:20:05.567+02:00,1233,1.427957,0,0,959.237,0,0,2022-06-30T09:40:26.695+02:00
230,2022-06-30T09:40:27.022+02:00,4326.737388791666,-250.7621374511719,-10.5190754699707,141.31423553466803,4326.727436791667,0.7160683699805758,0.3254193548017565,0.2316452500147787,34.80990982055664,-22.30448913574219,6.252094268798828,-32.35720443725586,-0.047444149851799,20.48904228210449,XArbitraryZVertical,0.0504187138113807,0.1906663662920638,0.3610216881713949,0.9114646635417458,0.3111668229103088,-0.2295791357755661,-0.922208607196808,0,0,0,-1,-1,4326.411381791667,unknown,2,2022-06-30T09:40:26.696+02:00,2022-06-30T08:20:05.567+02:00,1233,1.427957,0,0,959.237,0,0,2022-06-30T09:40:26.695+02:00
231,2022-06-30T09:40:27.032+02:00,4326.747339791666,-119.18126129150386,-185.70128219604496,97.03346786499024,4326.737388791666,0.6613490556340061,0.2391183217529589,0.5764352340892914,34.68152236938477,0.18378646671772,3.939988136291504,-32.24340438842773,-1.894429683685303,3.132106304168701,XArbitraryZVertical,0.2297964884061169,0.1997891260546371,0.3411327500250871,0.8893291677150135,0.1985743790864944,-0.545038640499115,-0.8145557641983032,0,0,0,-1,-1,4326.411381791667,unknown,2,2022-06-30T09:40:26.696+02:00,2022-06-30T08:20:05.567+02:00,1233,1.427957,0,0,959.237,0,0,2022-06-30T09:40:26.695+02:00
232,2022-06-30T09:40:27.042+02:00,4326.757291791667,-19.312389678955075,-192.50208984375,40.82789794921875,4326.747339791666,0.6043955405014263,0.3492853774942704,0.9124695814439808,30.31475639343262,13.24668216705322,8.441590309143066,-25.77126312255859,-0.2812638282775879,14.97997283935547,XArbitraryZVertical,0.3677847154704446,0.278043477379929,0.336196845768351,0.8212173048074731,0.2093721032142639,-0.7910170555114746,-0.574852466583252,0,0,0,-1,-1,4326.411381791667,unknown,2,2022-06-30T09:40:26.696+02:00,2022-06-30T08:20:05.567+02:00,1233,1.427957,0,0,959.237,0,0,2022-06-30T09:40:26.695+02:00
233,2022-06-30T09:40:27.053+02:00,4326.767243791667,17.468673706054688,-89.08784088134765,-5.074747009277344,4326.757291791667,0.6392420466985346,0.4956220901513563,1.107719227430487,2.361210346221924,21.97787475585938,8.242661476135254,-12.36139965057373,-18.03511238098145,10.28423404693604,XArbitraryZVertical,0.4185340703801607,0.358263513147859,0.3815477809598435,0.7422249849898545,0.2124427706003189,-0.8946821689605713,-0.3929529786109924,0,0,0,-1,-1,4326.411381791667,unknown,2,2022-06-30T09:40:26.696+02:00,2022-06-30T08:20:05.567+02:00,1233,1.427957,0,0,959.237,0,0,2022-06-30T09:40:26.695+02:00
234,2022-06-30T09:40:27.062+02:00,4326.777194791667,65.96692108154298,-48.69883026123047,-24.598197784423824,4326.767243791667,0.7978480546675514,0.5596552695242808,1.067136657458633,-15.12863254547119,14.84604930877686,1.064097881317139,-2.224871158599854,-18.74722480773926,4.570867538452148,XArbitraryZVertical,0.3580751709347307,0.4089998947481289,0.4508689898614099,0.7079678408583262,0.2562275528907776,-0.875822126865387,-0.4090025126934052,0,0,0,-1,-1,4326.411381791667,unknown,2,2022-06-30T09:40:26.696+02:00,2022-06-30T08:20:05.567+02:00,1233,1.427957,0,0,959.237,0,0,2022-06-30T09:40:26.695+02:00
235,2022-06-30T09:40:27.072+02:00,4326.787146791667,-16.497942352294928,-26.41467041015625,18.107245788574218,4326.777194791667,1.011519084429736,0.4522135942881809,0.9217821625497212,-20.23834228515625,-0.1127165928483009,4.686391353607178,1.516602635383606,-8.284648895263672,0.0263444185256958,XArbitraryZVertical,0.2818855207805837,0.3856377462270895,0.5100988340455351,0.7152784851422735,0.2640978097915649,-0.7966800332069397,-0.5436481833457947,0,0,0,-1,-1,4326.411381791667,unknown,2,2022-06-30T09:40:26.696+02:00,2022-06-30T08:20:05.567+02:00,1233,1.427957,0,0,959.237,0,0,2022-06-30T09:40:26.695+02:00
236,2022-06-30T09:40:27.082+02:00,4326.797098791667,-90.16215682983399,26.37156005859375,39.85058029174806,4326.787146791667,1.159763003109895,0.2809915381618014,0.7639687743110721,-15.145094871521,-8.165365219116211,2.062729120254517,6.524213314056396,-4.272409915924072,-1.813685536384583,XArbitraryZVertical,0.2375555840932491,0.3109328472016564,0.5470906058158534,0.739986484216832,0.200243353843689,-0.6917927265167236,-0.6937761902809143,0,0,0,-1,-1,4326.411381791667,unknown,2,2022-06-30T09:40:26.696+02:00,2022-06-30T08:20:05.567+02:00,1233,1.427957,0,0,959.237,0,0,2022-06-30T09:40:26.695+02:00
237,2022-06-30T09:40:27.092+02:00,4326.807049791667,-128.7966659545899,31.187644958496094,18.631156311035156,4326.797098791667,1.259744073228648,0.1479796007119464,0.654461999091066,-9.687286376953123,-2.594162940979004,10.37384510040283,-1.798723101615906,-2.0838942527771,2.630499362945557,XArbitraryZVertical,0.2177988385170837,0.2453798994865214,0.5754590998562044,0.749132329501784,0.1169753819704056,-0.6087325215339661,-0.7847047448158264,0,0,0,-1,-1,4326.411381791667,unknown,2,2022-06-30T09:40:26.696+02:00,2022-06-30T08:20:05.567+02:00,1233,1.427957,0,0,959.237,0,0,2022-06-30T09:40:26.695+02:00
238,2022-06-30T09:40:27.103+02:00,4326.817001791667,-41.00962005615234,-17.961448974609375,14.937138061523438,4326.807049791667,1.412710044576307,0.106845503329852,0.6283553100988767,-0.5253321528434753,11.56410694122314,11.59898281097412,-9.277114868164062,3.276047706604004,4.866622447967529,XArbitraryZVertical,0.2017953992122984,0.2389300696997579,0.628966677178135,0.7117528549372782,0.086273156106472,-0.58781498670578,-0.8043820858001709,0,0,0,-1,-1,4326.411381791667,unknown,2,2022-06-30T09:40:26.696+02:00,2022-06-30T08:20:05.567+02:00,1233,1.427957,0,0,959.237,0,0,2022-06-30T09:40:26.695+02:00
239,2022-06-30T09:40:27.112+02:00,4326.826953791667,-4.918921051025391,-27.993587036132816,-0.3800596618652344,4326.817001791667,1.551958406584262,0.1399785176373692,0.6394268003059136,-0.1365908682346344,9.87485122680664,11.19104194641113,-13.2410774230957,3.775904655456543,2.693789482116699,XArbitraryZVertical,0.1772745350368418,0.2669814183847669,0.6789816298781293,0.6605140015882438,0.1119576245546341,-0.5967355966567993,-0.7945893406867981,0,0,0,-1,-1,4326.411381791667,unknown,2,2022-06-30T09:40:26.696+02:00,2022-06-30T08:20:05.567+02:00,1233,1.427957,0,0,959.237,0,0,2022-06-30T09:40:26.695+02:00
240,2022-06-30T09:40:27.122+02:00,4326.836904791667,-23.542143859863284,-3.3030313110351566,-3.6741096496582033,4326.826953791667,1.68461565352821,0.1194315227470613,0.6637353073619335,2.596955537796021,2.506591320037842,10.37560558319092,-4.274241924285889,-1.214868903160095,2.304729223251343,XArbitraryZVertical,0.1744160877274486,0.280243297131282,0.7171539979812465,0.6137857824674363,0.0938523113727569,-0.6160634160041809,-0.7820854187011719,0,0,0,-1,-1,4326.411381791667,unknown,2,2022-06-30T09:40:26.696+02:00,2022-06-30T08:20:05.567+02:00,1233,1.427957,0,0,959.237,0,0,2022-06-30T09:40:26.695+02:00
241,2022-06-30T09:40:27.132+02:00,4326.846856791667,-50.060847930908196,-4.031566314697266,-1.0894345092773439,4326.836904791667,1.805285170134606,0.0519673129751766,0.7106911980453253,4.968771457672119,-0.0970711112022399,9.0047025680542,-0.5407881140708923,-2.201218605041504,0.7181456685066223,XArbitraryZVertical,0.196353436623758,0.288099515802583,0.7412786892115425,0.5735416056815593,0.0393688827753067,-0.652357816696167,-0.7568879723548889,0,0,0,-1,-1,4326.411381791667,unknown,2,2022-06-30T09:40:26.696+02:00,2022-06-30T08:20:05.567+02:00,1233,1.427957,0,0,959.237,0,0,2022-06-30T09:40:26.695+02:00
242,2022-06-30T09:40:27.142+02:00,4326.856808791666,-47.923292999267574,-30.840217437744137,1.5849041748046875,4326.846856791667,1.919971856048089,-0.0172728858632557,0.7679995313281434,5.932533264160156,2.150171518325806,8.46096134185791,-2.387387037277222,0.3579975366592407,0.3446673154830933,XArbitraryZVertical,0.2214147237883424,0.3022883544678139,0.7576413753515897,0.5343939091909231,-0.0124238012358546,-0.6946976780891418,-0.7191945314407349,0,0,0,-1,-1,4326.411381791667,unknown,2,2022-06-30T09:40:26.696+02:00,2022-06-30T08:20:05.567+02:00,1233,1.427957,0,0,959.237,0,0,2022-06-30T09:40:26.695+02:00
243,2022-06-30T09:40:27.152+02:00,4326.866759791666,-32.32857238769532,-36.50099578857422,0.4248165893554688,4326.856808791666,2.048039370077685,-0.0747655560464554,0.8141889879400998,3.915698766708374,4.358253955841064,9.181881904602053,-5.051766872406006,0.3162044286727905,0.5734869241714478,XArbitraryZVertical,0.2350374125021072,0.3201360456292988,0.7761530632049797,0.4897517472405357,-0.0512756407260894,-0.7271690964698792,-0.6845406293869019,0,0,0,-1,-1,4326.411381791667,unknown,2,2022-06-30T09:40:26.696+02:00,2022-06-30T08:20:05.567+02:00,1233,1.427957,0,0,959.237,0,0,2022-06-30T09:40:26.695+02:00
244,2022-06-30T09:40:27.162+02:00,4326.876711791667,-21.72058181762695,-23.6578532409668,-3.7745507812500003,4326.866759791666,2.186094396551602,-0.1276408443166851,0.8312046941394253,1.5881427526474,5.23353099822998,9.02458381652832,-4.799352169036865,-2.405008792877197,0.8300631046295166,XArbitraryZVertical,0.2370696279915134,0.3309778125461528,0.7989437154014233,0.4426517423318055,-0.0857947692275047,-0.7387438416481018,-0.6685033440589905,0,0,0,-1,-1,4326.411381791667,unknown,2,2022-06-30T09:40:26.696+02:00,2022-06-30T08:20:05.567+02:00,1233,1.427957,0,0,959.237,0,0,2022-06-30T09:40:26.695+02:00
245,2022-06-30T09:40:27.172+02:00,4326.886663791667,-18.10305450439453,-15.20133865356445,-6.455326080322266,4326.876711791667,2.312702746573093,-0.1702481931576963,0.8314292509318127,1.244871973991394,4.859359741210938,7.92524528503418,-3.181307792663574,-2.981899261474609,0.7073829174041748,XArbitraryZVertical,0.2332268132051118,0.3369953837417781,0.8205202818093171,0.3984792461383809,-0.1141633316874504,-0.7388951778411865,-0.6640787124633789,0,0,0,-1,-1,4326.411381791667,unknown,2,2022-06-30T09:40:26.696+02:00,2022-06-30T08:20:05.567+02:00,1233,1.427957,0,0,959.237,0,0,2022-06-30T09:40:26.695+02:00
246,2022-06-30T09:40:27.182+02:00,4326.896615791667,-18.74596755981445,-12.772489471435552,-4.955594787597657,4326.886663791667,2.426206822889775,-0.2100963085399421,0.8333870266491279,2.100277423858643,3.998569965362549,7.129853248596191,-2.073900461196899,-1.671392679214478,0.2728216648101807,XArbitraryZVertical,0.2307378603500169,0.3434621480391535,0.8369748728821946,0.3581436105273019,-0.1402260363101959,-0.7402129769325256,-0.6575875878334045,0,0,0,-1,-1,4326.411381791667,unknown,2,2022-06-30T09:40:26.696+02:00,2022-06-30T08:20:05.567+02:00,1233,1.427957,0,0,959.237,0,0,2022-06-30T09:40:26.695+02:00
247,2022-06-30T09:40:27.192+02:00,4326.906566791667,-19.09549072265625,-13.176199951171876,-2.6961932373046875,4326.896615791667,2.532795230551575,-0.2514218583315008,0.8424814483790145,2.882152318954468,3.700330972671509,6.399368762969971,-1.679775238037109,-0.8032784461975098,-0.013349711894989,XArbitraryZVertical,0.2307456266827023,0.3527229862946146,0.8483924450580359,0.3202705698066647,-0.1655921041965485,-0.7462971210479736,-0.6446859240531921,0,0,0,-1,-1,4326.411381791667,unknown,2,2022-06-30T09:40:26.696+02:00,2022-06-30T08:20:05.567+02:00,1233,1.427957,0,0,959.237,0,0,2022-06-30T09:40:26.695+02:00
248,2022-06-30T09:40:27.202+02:00,4326.916518791667,-16.88413925170899,-14.21923095703125,-1.469194793701172,4326.906566791667,2.63196569064474,-0.2882772937227627,0.8552540026457869,3.0416259765625,3.846488237380981,5.62837028503418,-1.724394679069519,-0.547248899936676,0.1237981915473938,XArbitraryZVertical,0.2299356641080256,0.3642136572249889,0.8564235922888755,0.2846344784620762,-0.1865091323852539,-0.7547375559806824,-0.6289560198783875,0,0,0,-1,-1,4326.411381791667,unknown,2,2022-06-30T09:40:26.696+02:00,2022-06-30T08:20:05.567+02:00,1233,1.427957,0,0,959.237,0,0,2022-06-30T09:40:26.695+02:00
249,2022-06-30T09:40:27.211+02:00,4326.926470791667,-14.765894165039063,-13.997691650390626,-1.6476237487792968,4326.916518791667,2.722975131465924,-0.3189757675170891,0.8667554141006144,2.650432348251343,3.831202507019043,5.081360340118408,-1.743542551994324,-0.5809067487716675,0.3398097157478333,XArbitraryZVertical,0.2271341377037182,0.3756120520841572,0.8626210563646289,0.2514174955231048,-0.2029905021190643,-0.7622327208518982,-0.6146513223648071,0,0,0,-1,-1,4326.411381791667,unknown,2,2022-06-30T09:40:26.696+02:00,2022-06-30T08:20:05.567+02:00,1233,1.427957,0,0,959.237,0,0,2022-06-30T09:40:26.695+02:00
250,2022-06-30T09:40:27.221+02:00,4326.936421791667,-13.288915557861325,-12.274774475097656,-2.435585174560547,4326.926470791667,2.804266216629975,-0.3437062757128011,0.872944020547436,1.958517551422119,3.668838500976562,4.445036888122559,-1.504581212997437,-0.683238685131073,0.4552255868911743,XArbitraryZVertical,0.222695713846714,0.3845922125565305,0.8680937277087819,0.2211534025042298,-0.216533750295639,-0.7662240266799927,-0.6049908995628357,0,0,0,-1,-1,4326.411381791667,unknown,2,2022-06-30T09:40:26.696+02:00,2022-06-30T08:20:05.567+02:00,1233,1.427957,0,0,959.237,0,0,2022-06-30T09:40:26.695+02:00
251,2022-06-30T09:40:27.231+02:00,4326.946373791667,-12.284055175781251,-10.057585144042969,-3.060385894775391,4326.936421791667,2.872237655161994,-0.360864208275048,0.8739951291494962,1.280193567276001,3.328658580780029,3.729193449020386,-1.278590559959412,-0.6599807143211365,0.4324790835380554,XArbitraryZVertical,0.2170220722398402,0.3907492333641807,0.873049396771497,0.1949392288504837,-0.2265972644090652,-0.7668989896774292,-0.6004329323768616,0,0,0,-1,-1,4326.411381791667,unknown,2,2022-06-30T09:40:26.696+02:00,2022-06-30T08:20:05.567+02:00,1233,1.427957,0,0,959.237,0,0,2022-06-30T09:40:26.695+02:00
252,2022-06-30T09:40:27.241+02:00,4326.956325791667,-12.466675415039063,-7.838749237060547,-3.9116656494140627,4326.946373791667,2.927629800556663,-0.3725385172912553,0.8716665492388364,0.8905681371688843,2.851671934127808,3.129769086837769,-1.120388627052307,-0.4858485460281372,0.3511322736740112,XArbitraryZVertical,0.211220045317055,0.3945654727486112,0.8773965624118291,0.1728570110846605,-0.2342406660318375,-0.7654024958610535,-0.5994083881378174,0,0,0,-1,-1,4326.411381791667,unknown,2,2022-06-30T09:40:26.696+02:00,2022-06-30T08:20:05.567+02:00,1233,1.427957,0,0,959.237,0,0,2022-06-30T09:40:26.695+02:00
253,2022-06-30T09:40:27.251+02:00,4326.966276791667,-12.774136047363282,-6.4780787658691406,-4.125870208740235,4326.956325791667,2.973301057993842,-0.381117067939975,0.867965439526113,0.5947983264923096,2.464105129241943,2.665822267532349,-1.011770963668823,-0.2622224688529968,0.2880361676216125,XArbitraryZVertical,0.2059417272000283,0.3969720387085566,0.8810291961435268,0.1542366035629556,-0.2404261082410812,-0.7630153894424438,-0.6000024080276489,0,0,0,-1,-1,4326.411381791667,unknown,2,2022-06-30T09:40:26.696+02:00,2022-06-30T08:20:05.567+02:00,1233,1.427957,0,0,959.237,0,0,2022-06-30T09:40:26.695+02:00
254,2022-06-30T09:40:27.261+02:00,4326.976228791667,-12.57070907592774,-6.193370819091797,-4.393214263916016,4326.966276791667,3.011359763407558,-0.3865071413236265,0.8628279259802404,0.3027592599391937,2.298845767974854,2.32060980796814,-1.025681734085083,-0.0393722653388977,0.2035776972770691,XArbitraryZVertical,0.2007894537285982,0.3981498119460557,0.884350676917421,0.1381458601545376,-0.2451310753822327,-0.7596845626831055,-0.602320671081543,0,0,0,-1,-1,4326.411381791667,unknown,2,2022-06-30T09:40:26.696+02:00,2022-06-30T08:20:05.567+02:00,1233,1.427957,0,0,959.237,0,0,2022-06-30T09:40:26.695+02:00
255,2022-06-30T09:40:27.271+02:00,4326.986180791667,-11.67572021484375,-5.901926879882812,-5.1906060791015625,4326.976228791667,3.042703570584697,-0.3876001769070493,0.8565020759079824,0.0915665403008461,2.253762006759644,1.968375205993652,-1.054553508758545,0.0952012538909912,0.1859111785888672,XArbitraryZVertical,0.1951237666541348,0.3983490474974035,0.8876198073530329,0.1240001301900837,-0.2476007789373398,-0.7555557489395142,-0.6064894795417786,0,0,0,-1,-1,4326.411381791667,unknown,2,2022-06-30T09:40:26.696+02:00,2022-06-30T08:20:05.567+02:00,1233,1.427957,0,0,959.237,0,0,2022-06-30T09:40:26.695+02:00
256,2022-06-30T09:40:27.281+02:00,4326.996132791667,-10.865754547119137,-4.943919067382812,-6.2526475524902345,4326.986180791667,3.068495143058014,-0.3848441170706929,0.8501449860737487,0.0276783630251884,2.202087640762329,1.683308601379395,-1.033691167831421,0.1200438737869263,0.16377854347229,XArbitraryZVertical,0.1888928375376768,0.3981394220708411,0.8907162773903636,0.111485322416526,-0.2477264404296875,-0.7513760924339294,-0.6116089820861816,0,0,0,-1,-1,4326.411381791667,unknown,2,2022-06-30T09:40:26.696+02:00,2022-06-30T08:20:05.567+02:00,1233,1.427957,0,0,959.237,0,0,2022-06-30T09:40:26.695+02:00
257,2022-06-30T09:40:27.291+02:00,4327.006083791667,-10.371183013916012,-3.770509185791016,-6.869814147949219,4326.996132791667,3.090580383431808,-0.3802491806399531,0.8448045250228415,0.0879152044653892,2.041183710098267,1.445370554924011,-0.9437859058380128,0.1462180018424988,0.0873441696166992,XArbitraryZVertical,0.1825817811899647,0.3980387022218423,0.8934040840915028,0.1002908132639085,-0.2463993728160858,-0.7478413581848145,-0.6164581775665283,0,0,0,-1,-1,4326.411381791667,unknown,2,2022-06-30T09:40:26.696+02:00,2022-06-30T08:20:05.567+02:00,1233,1.427957,0,0,959.237,0,0,2022-06-30T09:40:26.695+02:00
258,2022-06-30T09:40:27.301+02:00,4327.016035791667,-10.20442977905274,-2.658172302246094,-7.219786376953126,4327.006083791667,3.109826384981832,-0.375343277573108,0.8412751333284962,0.198543980717659,1.828425765037537,1.208502054214478,-0.863281786441803,0.2415264844894409,-0.0172637701034545,XArbitraryZVertical,0.1766583377198256,0.3984170154864329,0.8954776509156924,0.0904190332602204,-0.2443382292985916,-0.7454935908317566,-0.6201114058494568,0,0,0,-1,-1,4326.411381791667,unknown,2,2022-06-30T09:40:26.696+02:00,2022-06-30T08:20:05.567+02:00,1233,1.427957,0,0,959.237,0,0,2022-06-30T09:40:26.695+02:00
