,loggingTime(txt),accelerometerTimestamp_sinceReboot(s),accelerometerAccelerationX(G),accelerometerAccelerationY(G),accelerometerAccelerationZ(G),motionTimestamp_sinceReboot(s),motionYaw(rad),motionRoll(rad),motionPitch(rad),motionRotationRateX(rad/s),motionRotationRateY(rad/s),motionRotationRateZ(rad/s),motionUserAccelerationX(G),motionUserAccelerationY(G),motionUserAccelerationZ(G),motionAttitudeReferenceFrame(txt),motionQuaternionX(R),motionQuaternionY(R),motionQuaternionZ(R),motionQuaternionW(R),motionGravityX(G),motionGravityY(G),motionGravityZ(G),motionMagneticFieldX(µT),motionMagneticFieldY(µT),motionMagneticFieldZ(µT),motionHeading(°),motionMagneticFieldCalibrationAccuracy(Z),activityTimestamp_sinceReboot(s),activity(txt),activityActivityConfidence(Z),activityActivityStartDate(txt),pedometerStartDate(txt),pedometerNumberofSteps(N),pedometerAverageActivePace(s/m),pedometerCurrentPace(s/m),pedometerCurrentCadence(steps/s),pedometerDistance(m),pedometerFloorAscended(N),pedometerFloorDescended(N),pedometerEndDate(txt)
144,2022-06-30T09:48:45.307+02:00,4825.02441925,-14.669045562744136,2.941083984375,16.24691436767578,4825.01446725,-1.10717981531564,1.764848211740608,0.2297739295818068,3.354359149932861,9.115594863891602,3.935707092285156,-2.610639572143555,0.6368145942687988,1.751105189323425,XArbitraryZVertical,0.4652938941067382,0.6143172521444072,-0.2564862084941474,0.5833788204061752,0.9554423093795776,-0.2277573943138123,0.1877681910991669,0,0,0,-1,-1,4823.314921,unknown,2,2022-06-30T09:48:43.599+02:00,2022-06-30T08:20:05.567+02:00,1383,1.400134,0,0,1092.013,0,0,2022-06-30T09:48:43.599+02:00
145,2022-06-30T09:48:45.317+02:00,4825.03437025,-14.8971711730957,4.046984252929688,14.945670318603511,4825.02441925,-1.150354500622705,1.865595513757929,0.2608236803019441,3.305384635925293,9.027324676513672,4.13762092590332,-2.478071212768555,0.5480524301528931,1.53003978729248,XArbitraryZVertical,0.4982551104933071,0.62618068118242,-0.2335859470455986,0.5523380134620683,0.9244975447654724,-0.257876455783844,0.2807208001613617,0,0,0,-1,-1,4823.314921,unknown,2,2022-06-30T09:48:43.599+02:00,2022-06-30T08:20:05.567+02:00,1383,1.400134,0,0,1092.013,0,0,2022-06-30T09:48:43.599+02:00
146,2022-06-30T09:48:45.327+02:00,4825.044322250001,-16.078514556884762,5.295837249755859,15.149097290039064,4825.03437025,-1.197377704513658,1.967640287026244,0.2887266937187563,3.391689538955688,8.90203857421875,4.209408760070801,-2.379425048828125,0.5845361351966858,1.285647749900818,XArbitraryZVertical,0.5301693779880527,0.6357482448511498,-0.2099290201237719,0.5202637975320085,0.8841094970703125,-0.2847318649291992,0.3705107867717743,0,0,0,-1,-1,4823.314921,unknown,2,2022-06-30T09:48:43.599+02:00,2022-06-30T08:20:05.567+02:00,1383,1.400134,0,0,1092.013,0,0,2022-06-30T09:48:43.599+02:00
147,2022-06-30T09:48:45.337+02:00,4825.05427425,-17.49232452392578,7.128326568603516,16.22865234375,4825.044322250001,-1.24954413296221,2.070671132429886,0.3109885867364083,3.727614164352417,8.709854125976562,4.164379119873047,-2.354113578796387,0.7185361385345459,1.067190170288086,XArbitraryZVertical,0.5610677123924361,0.6429345864026456,-0.1868118787190813,0.486764409582634,0.8355435729026794,-0.3059999644756317,0.4563237130641937,0,0,0,-1,-1,4823.314921,unknown,2,2022-06-30T09:48:43.599+02:00,2022-06-30T08:20:05.567+02:00,1383,1.400134,0,0,1092.013,0,0,2022-06-30T09:48:43.599+02:00
148,2022-06-30T09:48:45.347+02:00,4825.06422525,-17.964891815185553,8.090974731445312,18.5085612487793,4825.05427425,-1.307103509790683,2.174395480683718,0.3255092654140122,4.088967323303223,8.503007888793945,4.080300807952881,-2.419057369232178,0.8596316576004028,1.006447553634644,XArbitraryZVertical,0.5909906202203543,0.6477897698244095,-0.165075450113262,0.4514959354474889,0.7800650000572205,-0.3197913467884064,0.5378029942512512,0,0,0,-1,-1,4823.314921,unknown,2,2022-06-30T09:48:43.599+02:00,2022-06-30T08:20:05.567+02:00,1383,1.400134,0,0,1092.013,0,0,2022-06-30T09:48:43.599+02:00
149,2022-06-30T09:48:45.357+02:00,4825.074177250001,-17.6035432434082,7.0274363708496095,20.4245768737793,4825.06422525,-1.367566624661639,2.277134231536864,0.3311657543324361,4.346530437469482,8.229940414428711,3.803607940673828,-2.502519845962524,1.051784038543701,1.040511608123779,XArbitraryZVertical,0.6193100814702824,0.6506517571291004,-0.1449883804025244,0.4148322183338234,0.7194081544876099,-0.3251456618309021,0.6137853860855103,0,0,0,-1,-1,4823.314921,unknown,2,2022-06-30T09:48:43.599+02:00,2022-06-30T08:20:05.567+02:00,1383,1.400134,0,0,1092.013,0,0,2022-06-30T09:48:43.599+02:00
150,2022-06-30T09:48:45.367+02:00,4825.084128250001,-16.914226684570313,5.638624420166016,23.271207275390626,4825.074177250001,-1.427886269241935,2.377634060192325,0.3270527930680575,4.539053440093994,8.0689697265625,3.485974311828613,-2.48639988899231,1.146021127700806,1.202876687049866,XArbitraryZVertical,0.6453836287819068,0.6522219213445833,-0.1266595191877875,0.3768872115617686,0.6551161408424377,-0.3212534487247467,0.6838269233703613,0,0,0,-1,-1,4823.314921,unknown,2,2022-06-30T09:48:43.599+02:00,2022-06-30T08:20:05.567+02:00,1383,1.400134,0,0,1092.013,0,0,2022-06-30T09:48:43.599+02:00
151,2022-06-30T09:48:45.377+02:00,4825.09408025,-15.896193695068364,3.6158807373046877,25.577910461425784,4825.084128250001,-1.485255382290094,2.475274561029683,0.3152442103289593,4.397787094116211,7.902828216552734,3.220710515975952,-2.382085561752319,1.026402592658997,1.334651947021484,XArbitraryZVertical,0.6689384860918132,0.65284259922696,-0.1091242241689672,0.3382452572113759,0.5876365900039673,-0.3100486695766449,0.747364342212677,0,0,0,-1,-1,4823.314921,unknown,2,2022-06-30T09:48:43.599+02:00,2022-06-30T08:20:05.567+02:00,1383,1.400134,0,0,1092.013,0,0,2022-06-30T09:48:43.599+02:00
152,2022-06-30T09:48:45.387+02:00,4825.10403125,-14.729669494628906,2.8828550720214845,27.711573486328128,4825.09408025,-1.537349359512574,2.568634719563125,0.2989408767369058,4.034698009490967,7.70355224609375,3.029343605041504,-2.242258787155151,0.8692911267280579,1.569159507751465,XArbitraryZVertical,0.6896637637755634,0.6525951821270514,-0.0915701363366472,0.3001641548742015,0.5180765986442566,-0.2945082187652588,0.803033173084259,0,0,0,-1,-1,4823.314921,unknown,2,2022-06-30T09:48:43.599+02:00,2022-06-30T08:20:05.567+02:00,1383,1.400134,0,0,1092.013,0,0,2022-06-30T09:48:43.599+02:00
153,2022-06-30T09:48:45.397+02:00,4825.11398325,-14.136004028320313,3.4057177734375004,29.526249847412114,4825.10403125,-1.583902007835288,2.657853491965186,0.2826391625313149,3.277002334594727,7.554766178131104,3.080727815628052,-2.067046403884888,0.6474819183349609,1.757193088531494,XArbitraryZVertical,0.7078176410134677,0.6512011707216013,-0.0727107268362189,0.2639024968598844,0.4466390907764435,-0.2788910567760468,0.8501375317573547,0,0,0,-1,-1,4823.314921,unknown,2,2022-06-30T09:48:43.599+02:00,2022-06-30T08:20:05.567+02:00,1383,1.400134,0,0,1092.013,0,0,2022-06-30T09:48:43.599+02:00
154,2022-06-30T09:48:45.407+02:00,4825.123935250001,-13.690380706787115,4.688550109863281,31.0827131652832,4825.11398325,-1.625706457001272,2.743177516067278,0.2703950892461185,2.42309308052063,7.266279220581055,3.156830549240112,-1.875357389450073,0.5609807968139648,1.936640739440918,XArbitraryZVertical,0.7237286832805369,0.6483140497255667,-0.0515849074422943,0.2307485108655069,0.3738619685173035,-0.2671121954917908,0.8881886005401611,0,0,0,-1,-1,4823.314921,unknown,2,2022-06-30T09:48:43.599+02:00,2022-06-30T08:20:05.567+02:00,1383,1.400134,0,0,1092.013,0,0,2022-06-30T09:48:43.599+02:00
155,2022-06-30T09:48:45.417+02:00,4825.133886250001,-13.01303924560547,6.060147857666016,32.7876676940918,4825.123935250001,-1.664048036636196,2.823252269227352,0.2613604775950651,1.944961428642273,6.783536911010742,3.175164222717285,-1.743340730667114,0.605562686920166,2.092309474945068,XArbitraryZVertical,0.7376344150358136,0.6439305170657932,-0.0295403909818481,0.200938959680316,0.3023614883422852,-0.2583950757980347,0.9175021052360536,0,0,0,-1,-1,4823.314921,unknown,2,2022-06-30T09:48:43.599+02:00,2022-06-30T08:20:05.567+02:00,1383,1.400134,0,0,1092.013,0,0,2022-06-30T09:48:43.599+02:00
156,2022-06-30T09:48:45.427+02:00,4825.14383825,-12.291240234375001,6.1662771606445315,35.24361053466797,4825.133886250001,-1.700695071895475,2.897081636635446,0.2521431138373786,1.851836085319519,6.167943477630615,3.163478851318359,-1.629981160163879,0.7274153828620911,2.228895902633667,XArbitraryZVertical,0.7500967918622062,0.6380775174107735,-0.0085872544491267,0.1736032935709358,0.2344272583723068,-0.2494798749685287,0.9395762085914612,0,0,0,-1,-1,4823.314921,unknown,2,2022-06-30T09:48:43.599+02:00,2022-06-30T08:20:05.567+02:00,1383,1.400134,0,0,1092.013,0,0,2022-06-30T09:48:43.599+02:00
157,2022-06-30T09:48:45.437+02:00,4825.15378925,-12.339889068603512,4.300706634521484,38.09398315429688,4825.14383825,-1.736589574299312,2.963691730177576,0.2413482278900977,1.695555210113525,5.442555904388428,3.244007587432861,-1.498342871665955,0.8567637801170349,2.386578559875488,XArbitraryZVertical,0.7615919931656632,0.6307323531784653,0.0101674750235274,0.1484955764211015,0.1718349903821945,-0.2390119880437851,0.9556913375854492,0,0,0,-1,-1,4823.314921,unknown,2,2022-06-30T09:48:43.599+02:00,2022-06-30T08:20:05.567+02:00,1383,1.400134,0,0,1092.013,0,0,2022-06-30T09:48:43.599+02:00
158,2022-06-30T09:48:45.446+02:00,4825.16374125,-11.8936669921875,4.045038299560547,40.46475311279297,4825.15378925,-1.772046463334866,3.021943360215761,0.2316172735455843,1.223397254943848,4.571709156036377,3.297223567962646,-1.369106531143188,0.8581221699714661,2.626282930374146,XArbitraryZVertical,0.77236760572809,0.6217855054132837,0.0269541849039534,0.1269036046986003,0.1161765679717064,-0.2295519113540649,0.9663378596305848,0,0,0,-1,-1,4823.314921,unknown,2,2022-06-30T09:48:43.599+02:00,2022-06-30T08:20:05.567+02:00,1383,1.400134,0,0,1092.013,0,0,2022-06-30T09:48:43.599+02:00
159,2022-06-30T09:48:45.456+02:00,4825.17369225,-11.40268798828125,6.299051055908204,42.215662078857434,4825.16374125,-1.806255219622099,3.07003398630417,0.2261746655196248,0.5070352554321289,3.516039133071899,3.254568099975586,-1.327565789222717,0.6626511812210083,2.911141395568848,XArbitraryZVertical,0.7822512935862576,0.6116386072636488,0.0419140282926242,0.1105647191689848,0.0696766972541809,-0.2242512702941895,0.9720377326011658,0,0,0,-1,-1,4823.314921,unknown,2,2022-06-30T09:48:43.599+02:00,2022-06-30T08:20:05.567+02:00,1383,1.400134,0,0,1092.013,0,0,2022-06-30T09:48:43.599+02:00
160,2022-06-30T09:48:45.467+02:00,4825.183644250001,-10.842103729248052,6.704707489013672,43.1631916809082,4825.17369225,-1.839120259772804,3.106443038250405,0.2255115868169232,0.000135573092848,2.279570579528809,3.156577825546265,-1.246655225753784,0.6359429359436035,3.150769710540771,XArbitraryZVertical,0.7913611107904092,0.6006551755574016,0.0543055300669226,0.100060027702283,0.0342525765299797,-0.2236050218343735,0.9740781188011168,0,0,0,-1,-1,4823.314921,unknown,2,2022-06-30T09:48:43.599+02:00,2022-06-30T08:20:05.567+02:00,1383,1.400134,0,0,1092.013,0,0,2022-06-30T09:48:43.599+02:00
161,2022-06-30T09:48:45.476+02:00,4825.19359625,-10.447973327636719,4.698279876708985,44.00998077392578,4825.183644250001,-1.870067883104139,3.129924495468534,0.2268507019024862,-0.118708461523056,1.060568690299988,2.922726392745972,-1.173722863197327,0.8670148849487305,3.329016208648682,XArbitraryZVertical,0.7998274136517024,0.5894341646081149,0.0625414775301371,0.0945090544703051,0.0113689545542001,-0.2249100357294083,0.9743130803108216,0,0,0,-1,-1,4823.314921,unknown,2,2022-06-30T09:48:43.599+02:00,2022-06-30T08:20:05.567+02:00,1383,1.400134,0,0,1092.013,0,0,2022-06-30T09:48:43.599+02:00
162,2022-06-30T09:48:45.486+02:00,4825.20354725,-10.523416442871094,1.7103433227539064,43.33907592773438,4825.19359625,-1.899098648412421,-3.141551564566918,0.2305976641707331,-0.6578798294067383,0.0016838484443724,2.751731157302856,-1.105169653892517,0.9120156168937684,3.426387548446655,XArbitraryZVertical,0.8077529221749987,0.5781869817677914,0.0669776440255402,0.0935361547223187,-4.000139233539812e-05,-0.2285594046115875,0.9735299348831176,0,0,0,-1,-1,4823.314921,unknown,2,2022-06-30T09:48:43.599+02:00,2022-06-30T08:20:05.567+02:00,1383,1.400134,0,0,1092.013,0,0,2022-06-30T09:48:43.599+02:00
163,2022-06-30T09:48:45.496+02:00,4825.21349925,-10.30906219482422,0.24504043579101564,40.42358871459962,4825.20354725,-1.925802100096958,-3.139372637035744,0.2411780218196654,-1.471257448196411,-0.780036985874176,2.449018478393555,-1.062877535820007,0.7177740335464478,3.515181541442871,XArbitraryZVertical,0.8148141211631432,0.5671027847651168,0.0696110296105337,0.0981165500934866,-0.0021557621657848,-0.2388467192649841,0.971055269241333,0,0,0,-1,-1,4823.314921,unknown,2,2022-06-30T09:48:43.599+02:00,2022-06-30T08:20:05.567+02:00,1383,1.400134,0,0,1092.013,0,0,2022-06-30T09:48:43.599+02:00
164,2022-06-30T09:48:45.506+02:00,4825.22345025,-10.316097564697262,-1.2545411682128906,36.79498443603516,4825.21349925,-1.949062926952792,3.139116359375597,0.2589975766180243,-2.097398042678833,-1.293237447738647,2.091537237167358,-1.075117468833923,0.4304583966732025,3.451202392578125,XArbitraryZVertical,0.8205996734409489,0.5567210371130052,0.0715017444614362,0.107542475355958,0.0023937004152685,-0.2561116814613342,0.966644287109375,0,0,0,-1,-1,4823.314921,unknown,2,2022-06-30T09:48:43.599+02:00,2022-06-30T08:20:05.567+02:00,1383,1.400134,0,0,1092.013,0,0,2022-06-30T09:48:43.599+02:00
165,2022-06-30T09:48:45.516+02:00,4825.23340225,-10.134974212646489,-3.7907171630859375,32.26764907836914,4825.22345025,-1.968614947432617,3.129974655770225,0.2823133846440053,-2.504746198654175,-1.551360845565796,1.69596254825592,-1.062031030654907,0.3035566210746765,3.160302400588989,XArbitraryZVertical,0.8250434381411746,0.547245593582431,0.0730711762110403,0.1203587777330366,0.0111578330397605,-0.2785781919956207,0.9603488445281982,0,0,0,-1,-1,4823.314921,unknown,2,2022-06-30T09:48:43.599+02:00,2022-06-30T08:20:05.567+02:00,1383,1.400134,0,0,1092.013,0,0,2022-06-30T09:48:43.599+02:00
166,2022-06-30T09:48:45.526+02:00,4825.24335325,-9.148076477050783,-6.035598907470703,28.329488525390627,4825.23340225,-1.983154783125852,3.118787184078149,0.3081244824428923,-2.591524839401245,-1.496774911880493,1.188968300819397,-1.073319911956787,0.1753878593444824,2.798106670379639,XArbitraryZVertical,0.827882212957904,0.5393878624939578,0.0745608490572732,0.1345828821678554,0.0217295456677675,-0.3032719790935516,0.9526564478874208,0,0,0,-1,-1,4823.314921,unknown,2,2022-06-30T09:48:43.599+02:00,2022-06-30T08:20:05.567+02:00,1383,1.400134,0,0,1092.013,0,0,2022-06-30T09:48:43.599+02:00
167,2022-06-30T09:48:45.536+02:00,4825.25330525,-8.634494476318359,-7.743098144531251,25.82729187011719,4825.24335325,-1.991924607361597,3.10860297978368,0.3335402914312637,-2.373697757720947,-1.064802169799805,0.6115784645080566,-1.064293146133423,-0.0590235292911529,2.34488582611084,XArbitraryZVertical,0.8290144354596222,0.5337813921752725,0.0765890422043182,0.1481437684479419,0.0311659313738346,-0.3273902535438538,0.9443750381469728,0,0,0,-1,-1,4823.314921,unknown,2,2022-06-30T09:48:43.599+02:00,2022-06-30T08:20:05.567+02:00,1383,1.400134,0,0,1092.013,0,0,2022-06-30T09:48:43.599+02:00
168,2022-06-30T09:48:45.546+02:00,4825.26325625,-8.745862884521484,-7.331304473876953,24.73980331420899,4825.25330525,-1.994030413511475,3.102260068836404,0.3553501317986311,-1.971870183944702,-0.338026374578476,-0.060112290084362,-0.9693917632102966,-0.2673312127590179,1.951017618179321,XArbitraryZVertical,0.8283597214426224,0.5312439072018282,0.0796631311245418,0.1589149803416112,0.0368657708168029,-0.3479186296463013,0.9367998242378236,0,0,0,-1,-1,4823.314921,unknown,2,2022-06-30T09:48:43.599+02:00,2022-06-30T08:20:05.567+02:00,1383,1.400134,0,0,1092.013,0,0,2022-06-30T09:48:43.599+02:00
169,2022-06-30T09:48:45.556+02:00,4825.273208250001,-9.537117462158202,-4.769980773925782,25.05594589233399,4825.26325625,-1.988451417775903,3.101264319681758,0.3724183693760095,-1.467415928840637,0.5601946115493774,-0.8782690167427063,-0.917726755142212,-0.425437867641449,1.702058553695679,XArbitraryZVertical,0.8257123874920971,0.5324900285206108,0.0842951828009396,0.165975707629727,0.0375536642968654,-0.3638690710067749,0.9306931495666504,0,0,0,-1,-1,4823.314921,unknown,2,2022-06-30T09:48:43.599+02:00,2022-06-30T08:20:05.567+02:00,1383,1.400134,0,0,1092.013,0,0,2022-06-30T09:48:43.599+02:00
170,2022-06-30T09:48:45.566+02:00,4825.28316025,-11.577075347900387,-4.043092346191407,27.172095336914065,4825.273208250001,-1.973994601738668,3.106080628393702,0.3842649313903318,-1.071972131729126,1.476214170455933,-1.705787897109985,-0.9244409799575806,-0.3724521994590759,1.595406532287598,XArbitraryZVertical,0.8207612406963369,0.5381412255974953,0.0906942282448126,0.1689073233962375,0.0329153724014759,-0.3748777806758881,0.9264900088310242,0,0,0,-1,-1,4823.314921,unknown,2,2022-06-30T09:48:43.599+02:00,2022-06-30T08:20:05.567+02:00,1383,1.400134,0,0,1092.013,0,0,2022-06-30T09:48:43.599+02:00
171,2022-06-30T09:48:45.576+02:00,4825.29311125,-14.786551208496094,-3.013683013916016,30.336514892578126,4825.28316025,-1.950449539705827,3.116356382572075,0.395163568024148,-1.343847036361694,2.365514278411865,-2.659086942672729,-0.995472490787506,-0.1012777090072632,1.63148307800293,XArbitraryZVertical,0.8130467662839859,0.5479734904460914,0.0998691485400769,0.1694292849946738,0.0232889372855424,-0.3849591612815857,0.9226399660110474,0,0,0,-1,-1,4823.314921,unknown,2,2022-06-30T09:48:43.599+02:00,2022-06-30T08:20:05.567+02:00,1383,1.400134,0,0,1092.013,0,0,2022-06-30T09:48:43.599+02:00
172,2022-06-30T09:48:45.586+02:00,4825.30306325,-17.312398681640627,-1.093176727294922,34.498909149169926,4825.29311125,-1.915023296205725,3.129537077265053,0.4114201919919707,-2.037439107894897,3.047257900238037,-3.849338054656982,-1.191179633140564,-0.0122287273406982,1.853349208831787,XArbitraryZVertical,0.8012144909683421,0.5624046683227877,0.1127370720551879,0.1704310799748813,0.0110493181273341,-0.3999114036560059,0.9164873361587524,0,0,0,-1,-1,4823.314921,unknown,2,2022-06-30T09:48:43.599+02:00,2022-06-30T08:20:05.567+02:00,1383,1.400134,0,0,1092.013,0,0,2022-06-30T09:48:43.599+02:00
173,2022-06-30T09:48:45.596+02:00,4825.31301425,-18.703905029296877,-2.271676025390625,39.16365875244141,4825.30306325,-1.86570986864877,-3.141477913210664,0.4337436600897331,-2.449190139770508,3.417936086654663,-5.16229248046875,-1.507189869880676,0.1130653321743011,2.18500828742981,XArbitraryZVertical,0.7844985122609408,0.5816025042745145,0.1281914361152787,0.1728223873490866,-0.0001041152791003,-0.4202707409858704,0.907398760318756,0,0,0,-1,-1,4823.314921,unknown,2,2022-06-30T09:48:43.599+02:00,2022-06-30T08:20:05.567+02:00,1383,1.400134,0,0,1092.013,0,0,2022-06-30T09:48:43.599+02:00
174,2022-06-30T09:48:45.606+02:00,4825.322966250001,-22.649400329589845,-2.973416748046875,43.8285580444336,4825.31301425,-1.801855379187231,-3.134721210879071,0.4587833604280095,-2.461230993270874,3.441338062286377,-6.436400413513184,-1.758610010147095,0.3314225077629089,2.620137453079224,XArbitraryZVertical,0.7628792460271482,0.6052277310072689,0.1438014802216389,0.1761696362553754,-0.0061608310788869,-0.4428575932979584,0.8965706825256348,0,0,0,-1,-1,4823.314921,unknown,2,2022-06-30T09:48:43.599+02:00,2022-06-30T08:20:05.567+02:00,1383,1.400134,0,0,1092.013,0,0,2022-06-30T09:48:43.599+02:00
175,2022-06-30T09:48:45.616+02:00,4825.332917250001,-26.453439788818365,-0.197589111328125,46.54690521240234,4825.322966250001,-1.721578964683971,-3.138677959462306,0.4809542320837094,-1.965604066848755,2.959047079086304,-7.963645935058594,-1.904032468795776,0.2310576438903809,3.105667591094971,XArbitraryZVertical,0.7363082406533106,0.6333445481560162,0.1563191278371456,0.1796921552696342,-0.0025840301532298,-0.4626253545284271,0.8865503072738647,0,0,0,-1,-1,4823.314921,unknown,2,2022-06-30T09:48:43.599+02:00,2022-06-30T08:20:05.567+02:00,1383,1.400134,0,0,1092.013,0,0,2022-06-30T09:48:43.599+02:00
176,2022-06-30T09:48:45.626+02:00,4825.34286925,-29.9521142578125,2.9810508728027347,48.3503549194336,4825.332917250001,-1.62226476147619,3.120711931180019,0.496702971199238,-1.374602079391479,1.525745391845703,-9.662623405456545,-2.327163696289062,0.173428475856781,3.588775873184204,XArbitraryZVertical,0.704550683970752,0.6656515588391717,0.1619345817637355,0.1851857612719764,0.0183561407029628,-0.4765295088291168,0.8789673447608948,0,0,0,-1,-1,4823.314921,unknown,2,2022-06-30T09:48:43.599+02:00,2022-06-30T08:20:05.567+02:00,1383,1.400134,0,0,1092.013,0,0,2022-06-30T09:48:43.599+02:00
177,2022-06-30T09:48:45.636+02:00,4825.35282025,-32.385903167724614,9.568701782226563,48.38732803344726,4825.34286925,-1.502086544627222,3.066557922539023,0.5035011055437638,-0.9917681813240052,-0.9228428602218628,-11.43911170959473,-2.762240409851074,0.4623531997203827,3.871408224105835,XArbitraryZVertical,0.6672556941135885,0.7010612517883389,0.1571690389428588,0.1964200973562758,0.0656611695885658,-0.4824950993061066,0.8734340667724609,0,0,0,-1,-1,4823.314921,unknown,2,2022-06-30T09:48:43.599+02:00,2022-06-30T08:20:05.567+02:00,1383,1.400134,0,0,1092.013,0,0,2022-06-30T09:48:43.599+02:00
178,2022-06-30T09:48:45.645+02:00,4825.36277225,-32.764166564941405,17.6562336730957,47.75459381103516,4825.35282025,-1.36251117818824,2.974260568316121,0.4979393147522735,-0.8258638978004456,-4.271412372589111,-13.09241962432861,-3.19955039024353,0.7814946174621582,4.06238317489624,XArbitraryZVertical,0.6242113797253027,0.7372304700179301,0.139727897510358,0.2175487200591261,0.1463275998830795,-0.4776161015033722,0.8662972450256348,0,0,0,-1,-1,4823.314921,unknown,2,2022-06-30T09:48:43.599+02:00,2022-06-30T08:20:05.567+02:00,1383,1.400134,0,0,1092.013,0,0,2022-06-30T09:48:43.599+02:00
179,2022-06-30T09:48:45.656+02:00,4825.37272425,-36.146682586669925,24.637266540527346,46.65767486572266,4825.36277225,-1.209499195141592,2.840764011676602,0.4747166738516739,-1.060122132301331,-8.037738800048828,-14.38853359222412,-3.56486177444458,1.432489037513733,4.082969665527344,XArbitraryZVertical,0.5753612269086947,0.7705187457353382,0.1084410112601713,0.2519936966709677,0.2635462284088135,-0.4570864737033844,0.8494793772697449,0,0,0,-1,-1,4823.314921,unknown,2,2022-06-30T09:48:43.599+02:00,2022-06-30T08:20:05.567+02:00,1383,1.400134,0,0,1092.013,0,0,2022-06-30T09:48:43.599+02:00
180,2022-06-30T09:48:45.665+02:00,4825.38267525,-42.27149597167969,30.707742919921877,47.54487991333007,4825.37272425,-1.049769731169031,2.6783241455702,0.4354565472734603,-2.410732746124268,-10.30975246429443,-15.22303485870361,-3.74504542350769,2.221643924713135,4.056839466094971,XArbitraryZVertical,0.5191288264802639,0.7975340770793613,0.0696165907611936,0.2993295341176451,0.4051710367202759,-0.4218243956565857,0.8111106753349304,0,0,0,-1,-1,4823.314921,unknown,2,2022-06-30T09:48:43.599+02:00,2022-06-30T08:20:05.567+02:00,1383,1.400134,0,0,1092.013,0,0,2022-06-30T09:48:43.599+02:00
181,2022-06-30T09:48:45.675+02:00,4825.39262725,-51.16076065063476,30.16706726074219,42.40711395263672,4825.38267525,-0.8894161292350642,2.500334959175508,0.380868924108049,-3.770009994506836,-12.68974304199219,-15.73811817169189,-4.240015029907227,2.88317084312439,4.012212753295898,XArbitraryZVertical,0.4547433660587507,0.8155790736603667,0.0290361661346577,0.3566458728441416,0.5553377866744995,-0.3717272579669952,0.7439215183258057,0,0,0,-1,-1,4823.314921,unknown,2,2022-06-30T09:48:43.599+02:00,2022-06-30T08:20:05.567+02:00,1383,1.400134,0,0,1092.013,0,0,2022-06-30T09:48:43.599+02:00
182,2022-06-30T09:48:45.686+02:00,4825.40257825,-59.22104919433594,26.082062072753907,38.41521514892578,4825.39262725,-0.7332417272361533,2.307689191806514,0.3000085033077441,-3.586477279663086,-15.56125640869141,-17.25121688842773,-5.01650333404541,3.425776958465576,4.204597473144531,XArbitraryZVertical,0.380570516088762,0.8222856293288432,-0.0159796764706104,0.4227968710297825,0.7074823975563049,-0.2955283224582672,0.6419751644134521,0,0,0,-1,-1,4823.314921,unknown,2,2022-06-30T09:48:43.599+02:00,2022-06-30T08:20:05.567+02:00,1383,1.400134,0,0,1092.013,0,0,2022-06-30T09:48:43.599+02:00
183,2022-06-30T09:48:45.696+02:00,4825.412530250001,-67.47293930053712,29.614715881347657,44.434797363281255,4825.40257825,-0.6067051428349352,2.107745065303398,0.1750032908356184,-1.422579288482666,-18.5571231842041,-17.27931976318359,-6.061313152313232,3.249245166778564,3.819141864776611,XArbitraryZVertical,0.2999148248132194,0.8135741902595482,-0.0745626536747705,0.4925329708591799,0.8461490869522095,-0.1741113811731339,0.5037037134170532,0,0,0,-1,-1,4823.314921,unknown,2,2022-06-30T09:48:43.599+02:00,2022-06-30T08:20:05.567+02:00,1383,1.400134,0,0,1092.013,0,0,2022-06-30T09:48:43.599+02:00
184,2022-06-30T09:48:45.705+02:00,4825.422481250001,-86.12220794677735,32.70578796386719,46.916187286376946,4825.412530250001,-0.5305671719105868,1.896286294425704,0.032813245688131,-0.5864924192428589,-22.12491607666016,-15.00698184967041,-6.98378849029541,2.691528797149658,3.596323013305664,XArbitraryZVertical,0.2221845556163042,0.7813030641457751,-0.1400216854144209,0.5662097004061168,0.9469840526580812,-0.032807357609272,0.319600909948349,0,0,0,-1,-1,4823.314921,unknown,2,2022-06-30T09:48:43.599+02:00,2022-06-30T08:20:05.567+02:00,1383,1.400134,0,0,1092.013,0,0,2022-06-30T09:48:43.599+02:00
185,2022-06-30T09:48:45.715+02:00,4825.43243325,-107.75327590942382,19.749181365966802,58.636215362548825,4825.422481250001,-0.4899415467418345,1.661091487886167,-0.1004559347096809,-2.556835174560547,-25.64316749572754,-13.11457443237305,-7.868880748748779,2.91854190826416,4.439822673797607,XArbitraryZVertical,0.1459803248524309,0.7235666509244506,-0.1993332733632285,0.6445209484595668,0.990905225276947,0.100287064909935,0.0897179096937179,0,0,0,-1,-1,4823.314921,unknown,2,2022-06-30T09:48:43.599+02:00,2022-06-30T08:20:05.567+02:00,1383,1.400134,0,0,1092.013,0,0,2022-06-30T09:48:43.599+02:00
186,2022-06-30T09:48:45.725+02:00,4825.44238525,-135.59238418579102,16.80285827636719,92.20705444335938,4825.43243325,-0.4590766665116969,1.385066497651916,-0.2345267090895329,-3.935502290725708,-30.70497894287109,-13.30128192901611,-9.734919548034668,3.101540327072144,4.962094306945801,XArbitraryZVertical,0.0565952694114677,0.6379597755232509,-0.2466506275999663,0.7273017836661225,0.955897092819214,0.232382670044899,-0.1796085983514786,0,0,0,-1,-1,4823.314921,unknown,2,2022-06-30T09:48:43.599+02:00,2022-06-30T08:20:05.567+02:00,1383,1.400134,0,0,1092.013,0,0,2022-06-30T09:48:43.599+02:00
187,2022-06-30T09:48:45.735+02:00,4825.45233625,-208.5356977844238,37.07415390014649,116.17311676025386,4825.44238525,-0.470879638429797,1.058667837790485,-0.3482932625903641,-1.33536970615387,-33.3621711730957,-9.273765563964844,-11.80338764190674,1.671873927116394,6.437798500061035,XArbitraryZVertical,-0.0294186030243794,0.5184875239526204,-0.2833799488199672,0.8062264244588321,0.8193634152412415,0.3412940502166748,-0.4606104791164398,0,0,0,-1,-1,4823.314921,unknown,2,2022-06-30T09:48:43.599+02:00,2022-06-30T08:20:05.567+02:00,1383,1.400134,0,0,1092.013,0,0,2022-06-30T09:48:43.599+02:00
188,2022-06-30T09:48:45.745+02:00,4825.462288250001,-247.69351867675783,4.128115539550781,81.11003082275391,4825.45233625,-0.5449333410306809,0.7052132813175988,-0.4030064993284683,5.038907051086426,-32.265869140625,-7.691401958465576,-14.41812038421631,1.320643424987793,10.09976005554199,XArbitraryZVertical,-0.0898449986890147,0.3764220279304701,-0.314009805398108,0.86696718911271,0.5962666869163513,0.3921857476234436,-0.7004686594009399,0,0,0,-1,-1,4823.314921,unknown,2,2022-06-30T09:48:43.599+02:00,2022-06-30T08:20:05.567+02:00,1383,1.400134,0,0,1092.013,0,0,2022-06-30T09:48:43.599+02:00
189,2022-06-30T09:48:45.755+02:00,4825.472239250001,-276.5807473754883,-21.13050888061524,-21.407133636474615,4825.462288250001,-0.6297438372557984,0.3597588960465582,-0.3806483408868459,6.233599185943604,-29.33255195617676,-3.962318658828735,-21.58431243896484,3.407697677612305,12.7113037109375,XArbitraryZVertical,-0.1225669868533611,0.224685122443085,-0.331377795575827,0.9081203969929896,0.3268503248691559,0.3715224862098694,-0.8689878582954407,0,0,0,-1,-1,4823.314921,unknown,2,2022-06-30T09:48:43.599+02:00,2022-06-30T08:20:05.567+02:00,1383,1.400134,0,0,1092.013,0,0,2022-06-30T09:48:43.599+02:00
190,2022-06-30T09:48:45.765+02:00,4825.48219125,-201.0928752136231,-34.45669692993164,-48.45034698486328,4825.472239250001,-0.656986355452548,0.1201219914993404,-0.3611340001320868,-1.828206300735474,-16.27610015869141,-0.2733307480812073,-25.3611888885498,0.0674711763858795,9.196852684020996,XArbitraryZVertical,-0.1506280350120197,0.1137251203820652,-0.3270030843761423,0.925984274343276,0.1121036857366562,0.3533353209495544,-0.9287555813789368,0,0,0,-1,-1,4823.314921,unknown,2,2022-06-30T09:48:43.599+02:00,2022-06-30T08:20:05.567+02:00,1383,1.400134,0,0,1092.013,0,0,2022-06-30T09:48:43.599+02:00
191,2022-06-30T09:48:45.775+02:00,4825.49214225,-89.18214477539063,8.374036102294923,-18.00665496826172,4825.48219125,-0.6447092551095592,0.0428895998715225,-0.422089281189972,-9.275986671447754,-0.5969855785369873,1.450564503669739,-28.23287010192871,-2.563643932342529,-1.270778656005859,XArbitraryZVertical,-0.192003347325999,0.086236027676726,-0.3139611341254673,0.925811305142748,0.0391134023666381,0.4096672534942627,-0.9113961458206176,0,0,0,-1,-1,4823.314921,unknown,2,2022-06-30T09:48:43.599+02:00,2022-06-30T08:20:05.567+02:00,1383,1.400134,0,0,1092.013,0,0,2022-06-30T09:48:43.599+02:00
192,2022-06-30T09:48:45.785+02:00,4825.50209425,13.571527862548825,24.394022369384764,-17.60264511108399,4825.49214225,-0.6224037380458268,0.0767943137333927,-0.507299900427912,-7.580848217010498,2.889398097991943,1.715984225273132,-20.56582069396973,-3.99822473526001,-4.067389965057373,XArbitraryZVertical,-0.2273308401921941,0.1121560843678664,-0.3053571816630439,0.9178773129235464,0.0670568421483039,0.4858189821243286,-0.8714833855628967,0,0,0,-1,-1,4823.314921,unknown,2,2022-06-30T09:48:43.599+02:00,2022-06-30T08:20:05.567+02:00,1383,1.400134,0,0,1092.013,0,0,2022-06-30T09:48:43.599+02:00
193,2022-06-30T09:48:45.795+02:00,4825.51204625,-19.058218231201177,2.3438259887695314,-11.608360290527344,4825.50209425,-0.5913854214185553,0.0819165995539158,-0.5680207391696618,-5.042923927307129,-5.535670757293701,2.205929517745972,-9.159918785095217,0.3156574368476868,-0.9954002499580384,XArbitraryZVertical,-0.2563679094123533,0.1191853325472896,-0.2904698658712704,0.9141650317287436,0.0689758211374282,0.5379646420478821,-0.840140700340271,0,0,0,-1,-1,4823.314921,unknown,2,2022-06-30T09:48:43.599+02:00,2022-06-30T08:20:05.567+02:00,1383,1.400134,0,0,1092.013,0,0,2022-06-30T09:48:43.599+02:00
194,2022-06-30T09:48:45.805+02:00,4825.52199725,-53.83689559936525,6.77116928100586,-26.447601928710938,4825.51204625,-0.5594612073725719,0.0258283675741473,-0.6111187151945938,-4.270721912384033,-8.15773868560791,2.686622142791748,1.362286686897278,1.912864208221436,-0.9756240248680116,XArbitraryZVertical,-0.2857090514164887,0.0948872415024403,-0.2670194505719243,0.9154602791623612,0.021151253953576,0.5737840533256531,-0.8187335133552551,0,0,0,-1,-1,4823.314921,unknown,2,2022-06-30T09:48:43.599+02:00,2022-06-30T08:20:05.567+02:00,1383,1.400134,0,0,1092.013,0,0,2022-06-30T09:48:43.599+02:00
195,2022-06-30T09:48:45.815+02:00,4825.53194925,-44.77563858032226,-4.18409912109375,-37.108881683349615,4825.52199725,-0.5397619519338316,-0.0404287401114684,-0.6616944120241597,-5.673954963684082,-7.633073329925537,0.2321533560752869,-1.910846352577209,-0.3755327463150024,-0.3950117826461792,XArbitraryZVertical,-0.3181187954938096,0.0681664498628438,-0.2457775113104274,0.9130975455631004,-0.0318876542150974,0.6144545674324036,-0.7883075475692749,0,0,0,-1,-1,4823.314921,unknown,2,2022-06-30T09:48:43.599+02:00,2022-06-30T08:20:05.567+02:00,1383,1.400134,0,0,1092.013,0,0,2022-06-30T09:48:43.599+02:00
196,2022-06-30T09:48:45.825+02:00,4825.54190025,-42.4494758605957,-2.42615478515625,-35.89340927124024,4825.53194925,-0.559088004445141,-0.1322484838591838,-0.7165393069958378,-5.550905227661133,-8.424939155578613,-2.118942022323608,-5.388525009155273,0.033452033996582,-1.948485612869263,XArbitraryZVertical,-0.3533797214789242,0.0370617357689844,-0.2355628700322429,0.9045768379797674,-0.0994359105825424,0.6567789316177368,-0.7474983930587769,0,0,0,-1,-1,4823.314921,unknown,2,2022-06-30T09:48:43.599+02:00,2022-06-30T08:20:05.567+02:00,1383,1.400134,0,0,1092.013,0,0,2022-06-30T09:48:43.599+02:00
197,2022-06-30T09:48:45.835+02:00,4825.551852250001,-46.01446243286132,14.685810699462888,-34.81984176635743,4825.54190025,-0.6109683959390045,-0.2503363474842604,-0.7627792998449426,-4.883757591247559,-7.933181285858154,-3.575189113616943,-4.385197162628174,-1.117447257041931,-3.08237624168396,XArbitraryZVertical,-0.387049627194901,0.0005615918369628,-0.2326453890503721,0.892226689177134,-0.1790884882211685,0.690933346748352,-0.7003845572471619,0,0,0,-1,-1,4823.314921,unknown,2,2022-06-30T09:48:43.599+02:00,2022-06-30T08:20:05.567+02:00,1383,1.400134,0,0,1092.013,0,0,2022-06-30T09:48:43.599+02:00
198,2022-06-30T09:48:45.845+02:00,4825.561803250001,-40.69946502685547,20.270397491455075,-30.93347351074219,4825.551852250001,-0.6830636926935039,-0.3697404158777284,-0.7883994236795335,-3.118986129760742,-5.913733005523682,-4.590278148651123,-4.072402477264404,-0.9565405249595642,-3.001519918441772,XArbitraryZVertical,-0.4125648310355385,-0.0334734616363316,-0.2374519935685486,0.8787982284145404,-0.2547615170478821,0.7092258334159851,-0.6573395729064941,0,0,0,-1,-1,4823.314921,unknown,2,2022-06-30T09:48:43.599+02:00,2022-06-30T08:20:05.567+02:00,1383,1.400134,0,0,1092.013,0,0,2022-06-30T09:48:43.599+02:00
199,2022-06-30T09:48:45.855+02:00,4825.57175525,-34.297428131103516,19.98269577026368,-32.19475067138672,4825.561803250001,-0.7541294218253598,-0.4715208794671402,-0.7912899308207573,-1.694449186325073,-4.490012645721436,-4.159380912780762,-4.371267795562744,0.785763680934906,-2.923199653625488,XArbitraryZVertical,-0.4277756058890488,-0.062418776600661,-0.2466516415355302,0.8673378871449874,-0.3192994594573975,0.7112606167793274,-0.6262238621711731,0,0,0,-1,-1,4823.314921,unknown,2,2022-06-30T09:48:43.599+02:00,2022-06-30T08:20:05.567+02:00,1383,1.400134,0,0,1092.013,0,0,2022-06-30T09:48:43.599+02:00
200,2022-06-30T09:48:45.864+02:00,4825.58170725,-29.43987945556641,25.17809188842774,-33.53236907958985,4825.57175525,-0.8093140476978532,-0.5513408642470622,-0.7876838245274457,-1.595937252044678,-3.722478866577148,-3.001780986785889,-3.77921724319458,1.357578039169312,-2.552307844161987,XArbitraryZVertical,-0.4383872794479832,-0.0856785332452742,-0.2538201242175473,0.8579343498103186,-0.3695561289787292,0.7087211608886719,-0.6009515523910522,0,0,0,-1,-1,4823.314921,unknown,2,2022-06-30T09:48:43.599+02:00,2022-06-30T08:20:05.567+02:00,1383,1.400134,0,0,1092.013,0,0,2022-06-30T09:48:43.599+02:00
201,2022-06-30T09:48:45.874+02:00,4825.59165825,-26.392666168212887,30.58844100952149,-37.21590911865235,4825.58170725,-0.8520142635612783,-0.6155893250703286,-0.7875844231858025,-1.662895917892456,-3.130749940872192,-2.097050905227661,-3.088752269744873,1.328320741653442,-2.705788135528564,XArbitraryZVertical,-0.4485907851844272,-0.1036594646746362,-0.2578216943590534,0.8494404611000835,-0.4074179530143738,0.7086510062217712,-0.5760420560836792,0,0,0,-1,-1,4823.314921,unknown,2,2022-06-30T09:48:43.599+02:00,2022-06-30T08:20:05.567+02:00,1383,1.400134,0,0,1092.013,0,0,2022-06-30T09:48:43.599+02:00
202,2022-06-30T09:48:45.885+02:00,4825.601610250001,-23.316712646484376,30.84889938354493,-39.29628295898438,4825.59165825,-0.8847966010776196,-0.6680717221481465,-0.789272254956396,-1.325985789299011,-2.787568092346191,-1.444553971290588,-2.564673662185669,1.856732964515686,-2.865245819091797,XArbitraryZVertical,-0.4578234734689612,-0.1180225147618152,-0.2594410435890898,0.8421156601778023,-0.4363336265087128,0.7098408937454224,-0.5529367327690125,0,0,0,-1,-1,4823.314921,unknown,2,2022-06-30T09:48:43.599+02:00,2022-06-30T08:20:05.567+02:00,1383,1.400134,0,0,1092.013,0,0,2022-06-30T09:48:43.599+02:00
203,2022-06-30T09:48:45.894+02:00,4825.611561250001,-20.520227966308596,25.77205673217774,-36.20356430053712,4825.601610250001,-0.908378370465615,-0.7119093527853425,-0.7880767341684088,-0.5611357092857361,-2.701038837432861,-1.461883783340454,-2.229683876037598,2.409089088439941,-3.259744882583618,XArbitraryZVertical,-0.4645465751985908,-0.1312764864256485,-0.2594906910161823,0.8364374765290312,-0.4607001841068268,0.7089982628822327,-0.5339259505271912,0,0,0,-1,-1,4823.314921,unknown,2,2022-06-30T09:48:43.599+02:00,2022-06-30T08:20:05.567+02:00,1383,1.400134,0,0,1092.013,0,0,2022-06-30T09:48:43.599+02:00
