,loggingTime(txt),accelerometerTimestamp_sinceReboot(s),accelerometerAccelerationX(G),accelerometerAccelerationY(G),accelerometerAccelerationZ(G),motionTimestamp_sinceReboot(s),motionYaw(rad),motionRoll(rad),motionPitch(rad),motionRotationRateX(rad/s),motionRotationRateY(rad/s),motionRotationRateZ(rad/s),motionUserAccelerationX(G),motionUserAccelerationY(G),motionUserAccelerationZ(G),motionAttitudeReferenceFrame(txt),motionQuaternionX(R),motionQuaternionY(R),motionQuaternionZ(R),motionQuaternionW(R),motionGravityX(G),motionGravityY(G),motionGravityZ(G),motionMagneticFieldX(µT),motionMagneticFieldY(µT),motionMagneticFieldZ(µT),motionHeading(°),motionMagneticFieldCalibrationAccuracy(Z),activityTimestamp_sinceReboot(s),activity(txt),activityActivityConfidence(Z),activityActivityStartDate(txt),pedometerStartDate(txt),pedometerNumberofSteps(N),pedometerAverageActivePace(s/m),pedometerCurrentPace(s/m),pedometerCurrentCadence(steps/s),pedometerDistance(m),pedometerFloorAscended(N),pedometerFloorDescended(N),pedometerEndDate(txt)
198,2022-06-30T09:53:28.954+02:00,5078.367878041667,8.216862945556642,-13.332774353027345,16.43312713623047,5078.357926041667,-3.10761581094306,2.418261398627986,0.7601795118579551,-0.2804305553436279,-0.521686851978302,-1.003605604171753,0.2588791251182556,-0.5554856657981873,1.020091652870178,XArbitraryZVertical,0.8706617475464042,-0.1164996030518879,-0.3226379132627719,0.3525348246603963,0.4796766340732574,-0.6890515685081482,0.5432480573654175,0,0,0,-1,-1,5075.947204625,unknown,2,2022-06-30T09:53:26.533+02:00,2022-06-30T08:20:05.567+02:00,1418,1.388076,0,0,1121.329,0,0,2022-06-30T09:50:28.075+02:00
199,2022-06-30T09:53:28.964+02:00,5078.377829041667,8.842412109375001,-13.777649230957032,17.519567871093752,5078.367878041667,-3.094513160549148,2.405724096981669,0.7556112701972335,-0.3268647789955139,-0.1998649537563324,-1.030812621116638,0.3040449321269989,-0.6406517028808594,1.093995332717896,XArbitraryZVertical,0.8701514856240821,-0.1122324544144968,-0.3261281547026396,0.3519670970502813,0.4885575473308563,-0.6857337355613708,0.5395194888114929,0,0,0,-1,-1,5075.947204625,unknown,2,2022-06-30T09:53:26.533+02:00,2022-06-30T08:20:05.567+02:00,1418,1.388076,0,0,1121.329,0,0,2022-06-30T09:50:28.075+02:00
200,2022-06-30T09:53:28.974+02:00,5078.387781041667,9.44790298461914,-14.173126831054688,18.328635406494136,5078.377829041667,-3.080384943700403,2.395384631272517,0.7514021227845196,-0.460006058216095,0.05914768576622,-1.074110865592957,0.378431648015976,-0.6992023587226868,1.191473960876465,XArbitraryZVertical,0.8699367035633186,-0.1071778168493915,-0.3284696559019585,0.3518961112565535,0.496064692735672,-0.6826640367507935,0.5365539193153381,0,0,0,-1,-1,5075.947204625,unknown,2,2022-06-30T09:53:26.533+02:00,2022-06-30T08:20:05.567+02:00,1418,1.388076,0,0,1121.329,0,0,2022-06-30T09:50:28.075+02:00
201,2022-06-30T09:53:28.985+02:00,5078.397732041667,10.356812896728512,-13.770613861083989,19.428248748779303,5078.387781041667,-3.064591190106353,2.387131762059774,0.7478487998859333,-0.6088141202926636,0.4525725841522217,-1.109142303466797,0.4271565675735474,-0.7551175355911255,1.298970341682434,XArbitraryZVertical,0.8699854735308957,-0.1011348195288591,-0.3295695147162404,0.3525353507267621,0.5021342039108276,-0.6800631880760193,0.534205973148346,0,0,0,-1,-1,5075.947204625,unknown,2,2022-06-30T09:53:26.533+02:00,2022-06-30T08:20:05.567+02:00,1418,1.388076,0,0,1121.329,0,0,2022-06-30T09:50:28.075+02:00
202,2022-06-30T09:53:28.994+02:00,5078.407683041667,11.509116668701177,-13.204491119384762,20.668120422363284,5078.397732041667,-3.047095243256726,2.381956984065684,0.7449721206216248,-0.7550008893013,0.8946371078491211,-1.173547387123108,0.4995003938674927,-0.7536128759384155,1.385944604873657,XArbitraryZVertical,0.8704522495143063,-0.0939206855352001,-0.328977929027031,0.3539284616140237,0.506236732006073,-0.6779513359069824,0.5330164432525635,0,0,0,-1,-1,5075.947204625,unknown,2,2022-06-30T09:53:26.533+02:00,2022-06-30T08:20:05.567+02:00,1418,1.388076,0,0,1121.329,0,0,2022-06-30T09:50:28.075+02:00
203,2022-06-30T09:53:29.004+02:00,5078.417635041667,12.391531677246094,-12.82622772216797,22.00873260498047,5078.407683041667,-3.027445164013644,2.379504236845678,0.7425653714899566,-0.9123317003250122,1.281379818916321,-1.259404897689819,0.6020346879959106,-0.6956000924110413,1.516944646835327,XArbitraryZVertical,0.87131463759416,-0.0853625814650533,-0.3267747921340159,0.3560088575088063,0.5086676478385925,-0.6761801242828369,0.5329519510269165,0,0,0,-1,-1,5075.947204625,unknown,2,2022-06-30T09:53:26.533+02:00,2022-06-30T08:20:05.567+02:00,1418,1.388076,0,0,1121.329,0,0,2022-06-30T09:50:28.075+02:00
204,2022-06-30T09:53:29.014+02:00,5078.427586041667,12.795541534423824,-12.354558563232427,23.341560974121094,5078.417635041667,-3.005260257897436,2.379370417969263,0.7408644644177087,-1.126679182052612,1.681016206741333,-1.350449800491333,0.7189372777938843,-0.6512609720230103,1.632392644882202,XArbitraryZVertical,0.8724516461648922,-0.0754029468463028,-0.3230286002506743,0.3588803032223242,0.5095323920249939,-0.6749260425567627,0.5337149500846863,0,0,0,-1,-1,5075.947204625,unknown,2,2022-06-30T09:53:26.533+02:00,2022-06-30T08:20:05.567+02:00,1418,1.388076,0,0,1121.329,0,0,2022-06-30T09:50:28.075+02:00
205,2022-06-30T09:53:29.024+02:00,5078.437538041667,13.223501586914063,-12.076436920166012,24.87736724853516,5078.427586041667,-2.980483399415355,2.381750823059051,0.7398553195666735,-1.338107347488403,2.119650363922119,-1.43861985206604,0.7774183750152588,-0.6087778210639954,1.775203704833984,XArbitraryZVertical,0.8738523152117502,-0.0639696887610273,-0.3176210041392803,0.3625010874458646,0.5087295174598694,-0.6741810441017151,0.5354200005531311,0,0,0,-1,-1,5075.947204625,unknown,2,2022-06-30T09:53:26.533+02:00,2022-06-30T08:20:05.567+02:00,1418,1.388076,0,0,1121.329,0,0,2022-06-30T09:50:28.075+02:00
206,2022-06-30T09:53:29.034+02:00,5078.447489041667,13.651461639404301,-12.148886260986325,26.815237426757815,5078.437538041667,-2.952916474111929,2.386672765059218,0.7400931701976715,-1.536750078201294,2.571384906768799,-1.502190589904785,0.8182251453399658,-0.5656487941741943,1.923594951629639,XArbitraryZVertical,0.8753817000191199,-0.0510607782782086,-0.3104155592460708,0.3670722108192458,0.5059782266616821,-0.6743566989898682,0.537800669670105,0,0,0,-1,-1,5075.947204625,unknown,2,2022-06-30T09:53:26.533+02:00,2022-06-30T08:20:05.567+02:00,1418,1.388076,0,0,1121.329,0,0,2022-06-30T09:50:28.075+02:00
207,2022-06-30T09:53:29.044+02:00,5078.457441041667,13.66283798217774,-12.002490692138677,29.205317230224615,5078.447489041667,-2.922811761382388,2.394424560389907,0.7412741676957602,-1.704163789749146,3.044886350631714,-1.600826978683472,0.8698868751525879,-0.5594975352287292,2.082474708557129,XArbitraryZVertical,0.8770501734438337,-0.036659400448794,-0.3013239663114639,0.3723479024836657,0.5012523531913757,-0.6752282977104187,0.5411218404769897,0,0,0,-1,-1,5075.947204625,unknown,2,2022-06-30T09:53:26.533+02:00,2022-06-30T08:20:05.567+02:00,1418,1.388076,0,0,1121.329,0,0,2022-06-30T09:50:28.075+02:00
208,2022-06-30T09:53:29.054+02:00,5078.467392041667,13.461356964111324,-11.885434112548824,31.334339904785157,5078.457441041667,-2.889617362252274,2.404591072607304,0.7434894974934594,-1.960432887077332,3.50110936164856,-1.725919008255005,0.9069228172302246,-0.5543709993362427,2.308358907699585,XArbitraryZVertical,0.8787014691771594,-0.0205962250704089,-0.2903737640922111,0.3783420773984809,0.4947188794612885,-0.6768606901168823,0.5450809597969055,0,0,0,-1,-1,5075.947204625,unknown,2,2022-06-30T09:53:26.533+02:00,2022-06-30T08:20:05.567+02:00,1418,1.388076,0,0,1121.329,0,0,2022-06-30T09:50:28.075+02:00
209,2022-06-30T09:53:29.064+02:00,5078.477344041667,13.846805419921875,-11.377839660644533,33.245715179443366,5078.467392041667,-2.85267392973189,2.416790730085049,0.7469792258221207,-2.222578048706055,3.973532438278198,-1.865946173667908,0.8873767852783203,-0.5422694683074951,2.536069631576538,XArbitraryZVertical,0.8801390305801216,-0.0026779645143416,-0.2775277372609182,0.3851317485782728,0.4864632487297058,-0.6794253587722778,0.5493037700653076,0,0,0,-1,-1,5075.947204625,unknown,2,2022-06-30T09:53:26.533+02:00,2022-06-30T08:20:05.567+02:00,1418,1.388076,0,0,1121.329,0,0,2022-06-30T09:50:28.075+02:00
210,2022-06-30T09:53:29.074+02:00,5078.487295041667,14.359938354492188,-10.772348785400387,35.1252067565918,5078.477344041667,-2.811552474014303,2.430468305485367,0.7519791429061126,-2.55055570602417,4.39942455291748,-2.031707525253296,0.9135311841964722,-0.5065352320671082,2.736958503723145,XArbitraryZVertical,0.8811177092341427,0.0171497306806682,-0.2628540759528454,0.3927405424323545,0.4766815602779388,-0.683085560798645,0.5533250570297241,0,0,0,-1,-1,5075.947204625,unknown,2,2022-06-30T09:53:26.533+02:00,2022-06-30T08:20:05.567+02:00,1418,1.388076,0,0,1121.329,0,0,2022-06-30T09:50:28.075+02:00
211,2022-06-30T09:53:29.084+02:00,5078.497247041667,15.129637756347657,-9.890532531738282,36.536472015380866,5078.487295041667,-2.764665021976361,2.444220410357492,0.7597864471867265,-3.11085319519043,4.831763744354248,-2.187246084213257,0.9690428376197816,-0.4371486902236938,2.940371036529541,XArbitraryZVertical,0.8810987572537698,0.0390697307803454,-0.2463929858411689,0.401782233858859,0.4655881524085999,-0.6887666583061218,0.5557229518890381,0,0,0,-1,-1,5075.947204625,unknown,2,2022-06-30T09:53:26.533+02:00,2022-06-30T08:20:05.567+02:00,1418,1.388076,0,0,1121.329,0,0,2022-06-30T09:50:28.075+02:00
212,2022-06-30T09:53:29.094+02:00,5078.507198041667,16.91841796875,-8.32598602294922,37.700301818847656,5078.497247041667,-2.710361651365186,2.45709279363546,0.7717108822248083,-3.763803720474243,5.314171314239502,-2.343576431274414,1.044021129608154,-0.3688300848007202,3.097031116485596,XArbitraryZVertical,0.8795576202133084,0.0633404283320264,-0.2278827867378556,0.4128387099095693,0.4531708359718323,-0.69736248254776,0.5552672147750854,0,0,0,-1,-1,5078.494065041667,unknown,2,2022-06-30T09:53:29.080+02:00,2022-06-30T08:20:05.567+02:00,1418,1.388076,0,0,1121.329,0,0,2022-06-30T09:50:28.075+02:00
213,2022-06-30T09:53:29.104+02:00,5078.517150041667,19.058367919921874,-7.160659332275391,38.24112716674805,5078.507198041667,-2.648200111803437,2.468710314786723,0.7887130939641102,-4.461040496826172,5.786713600158691,-2.427383422851562,1.183704018592834,-0.2177532315254211,3.236151218414307,XArbitraryZVertical,0.8760728190260582,0.08981701713633,-0.2069972542397041,0.4261236265482308,0.4392356276512146,-0.709446907043457,0.5511413812637329,0,0,0,-1,-1,5078.494065041667,unknown,2,2022-06-30T09:53:29.080+02:00,2022-06-30T08:20:05.567+02:00,1418,1.388076,0,0,1121.329,0,0,2022-06-30T09:50:28.075+02:00
214,2022-06-30T09:53:29.114+02:00,5078.527101041667,21.33243896484375,-6.058052215576172,38.74018936157226,5078.517150041667,-2.578409800132951,2.478606166890852,0.8105948966483941,-5.052192687988281,6.247395038604736,-2.5162513256073,1.412551641464233,-0.063770055770874,3.330487489700317,XArbitraryZVertical,0.8703883809420386,0.1181984711659274,-0.1837061898804276,0.4412540567426071,0.4241025745868683,-0.7246972322463989,0.5430936217308044,0,0,0,-1,-1,5078.494065041667,unknown,2,2022-06-30T09:53:29.080+02:00,2022-06-30T08:20:05.567+02:00,1418,1.388076,0,0,1121.329,0,0,2022-06-30T09:50:28.075+02:00
215,2022-06-30T09:53:29.124+02:00,5078.537053041667,24.74010269165039,-5.943240966796875,39.01905944824219,5078.527101041667,-2.501353829572039,2.486359907974366,0.836813286794139,-5.539697170257568,6.653129577636719,-2.581664800643921,1.640913605690002,0.0782971978187561,3.393751621246338,XArbitraryZVertical,0.8623292718806984,0.1481398164724078,-0.1580360321783844,0.4576762110133124,0.4081583321094513,-0.7425123453140259,0.5311143398284912,0,0,0,-1,-1,5078.494065041667,unknown,2,2022-06-30T09:53:29.080+02:00,2022-06-30T08:20:05.567+02:00,1418,1.388076,0,0,1121.329,0,0,2022-06-30T09:50:28.075+02:00
216,2022-06-30T09:53:29.133+02:00,5078.547004041667,27.615922393798826,-6.854096832275391,39.19299774169922,5078.537053041667,-2.417102987449413,2.490552296778208,0.8664660223218763,-5.937431812286377,6.862222194671631,-2.670455932617188,1.944871306419373,0.1645721793174744,3.453339338302612,XArbitraryZVertical,0.8517184813589136,0.1792015612993012,-0.130463455316341,0.474807048203389,0.3924086093902588,-0.7620453834533691,0.515075147151947,0,0,0,-1,-1,5078.494065041667,unknown,2,2022-06-30T09:53:29.080+02:00,2022-06-30T08:20:05.567+02:00,1418,1.388076,0,0,1121.329,0,0,2022-06-30T09:50:28.075+02:00
217,2022-06-30T09:53:29.143+02:00,5078.556956041667,28.78199752807618,-9.096433868408203,39.23131805419922,5078.547004041667,-2.325150028196609,2.48740988949155,0.897006977076061,-6.051588535308838,6.717044830322266,-2.985021829605103,2.311541318893433,0.1383506655693054,3.47341775894165,XArbitraryZVertical,0.8385085135533377,0.2108803868106235,-0.1027138332982306,0.4918158631611363,0.3796814978122711,-0.7814629077911377,0.4951341152191162,0,0,0,-1,-1,5078.494065041667,unknown,2,2022-06-30T09:53:29.080+02:00,2022-06-30T08:20:05.567+02:00,1418,1.388076,0,0,1121.329,0,0,2022-06-30T09:50:28.075+02:00
218,2022-06-30T09:53:29.153+02:00,5078.566907041667,29.415929260253908,-14.481335906982427,39.25990859985351,5078.556956041667,-2.223564164320588,2.47172796646542,0.9243898461333084,-5.950888156890869,6.243688106536865,-3.516066312789917,2.517494201660156,0.0240069031715393,3.539829969406128,XArbitraryZVertical,0.8227794735425223,0.2431376019587903,-0.0771716361983967,0.5079004051900593,0.3739698529243469,-0.7982534170150757,0.4721639156341553,0,0,0,-1,-1,5078.494065041667,unknown,2,2022-06-30T09:53:29.080+02:00,2022-06-30T08:20:05.567+02:00,1418,1.388076,0,0,1121.329,0,0,2022-06-30T09:50:28.075+02:00
219,2022-06-30T09:53:29.163+02:00,5078.576859041667,28.395201873779303,-15.22124725341797,39.762713012695315,5078.566907041667,-2.113460299248001,2.441985846255915,0.945372652797828,-5.547698497772217,5.562661170959473,-4.039827346801758,2.592689990997314,-0.3811336755752563,3.540210723876953,XArbitraryZVertical,0.8050460521816389,0.2754267593658063,-0.0553828147636458,0.5224688527685296,0.3769752383232117,-0.8107151389122009,0.4479180872440338,0,0,0,-1,-1,5078.494065041667,unknown,2,2022-06-30T09:53:29.080+02:00,2022-06-30T08:20:05.567+02:00,1418,1.388076,0,0,1121.329,0,0,2022-06-30T09:50:28.075+02:00
220,2022-06-30T09:53:29.173+02:00,5078.586810041667,26.073529815673826,-8.929530944824219,40.24710571289063,5078.576859041667,-1.996782856157673,2.398423618302091,0.9538674284814362,-4.69629430770874,4.752711296081543,-5.132969856262207,2.595717191696167,-0.8097683787345886,3.591023683547974,XArbitraryZVertical,0.7861121293524888,0.3082576217402155,-0.0394745401784529,0.5342721847127546,0.3914497792720795,-0.8156590461730957,0.4259900748729706,0,0,0,-1,-1,5078.494065041667,unknown,2,2022-06-30T09:53:29.080+02:00,2022-06-30T08:20:05.567+02:00,1418,1.388076,0,0,1121.329,0,0,2022-06-30T09:50:28.075+02:00
221,2022-06-30T09:53:29.183+02:00,5078.596762041667,25.44139434814453,-2.8538154602050785,40.089034423828124,5078.586810041667,-1.878805407732218,2.344979586444693,0.9442787362713506,-3.492361307144165,3.79187536239624,-6.054108619689941,2.343551635742188,-0.4685667157173157,3.681373119354248,XArbitraryZVertical,0.7667402207682539,0.3421544696315646,-0.0313932682417311,0.5422677195477568,0.4192196130752563,-0.8100742697715759,0.4099204838275909,0,0,0,-1,-1,5078.494065041667,unknown,2,2022-06-30T09:53:29.080+02:00,2022-06-30T08:20:05.567+02:00,1418,1.388076,0,0,1121.329,0,0,2022-06-30T09:50:28.075+02:00
222,2022-06-30T09:53:29.193+02:00,5078.606713041667,23.8976545715332,1.9496955871582031,38.069583892822266,5078.596762041667,-1.768367304203249,2.288563189837493,0.916136026888301,-2.451436758041382,2.657884359359741,-7.233275413513184,2.152146577835083,0.2264668941497803,3.717023372650146,XArbitraryZVertical,0.7474962341494148,0.3761437531551596,-0.0317540725520287,0.5465867040637313,0.4586624503135681,-0.7932547926902771,0.4004694819450378,0,0,0,-1,-1,5078.494065041667,unknown,2,2022-06-30T09:53:29.080+02:00,2022-06-30T08:20:05.567+02:00,1418,1.388076,0,0,1121.329,0,0,2022-06-30T09:50:28.075+02:00
223,2022-06-30T09:53:29.203+02:00,5078.616665041667,18.21427322387695,9.041797485351562,36.098183441162114,5078.606713041667,-1.65884095232155,2.222848302824357,0.8655479059232314,-1.913235425949097,1.242171406745911,-9.492878913879396,2.041421413421631,0.7074645161628723,3.579042911529541,XArbitraryZVertical,0.7257062212329437,0.4123439419526713,-0.0430106631684399,0.5490657876503302,0.515234112739563,-0.7614505290985107,0.3933540880680084,0,0,0,-1,-1,5078.494065041667,unknown,2,2022-06-30T09:53:29.080+02:00,2022-06-30T08:20:05.567+02:00,1418,1.388076,0,0,1121.329,0,0,2022-06-30T09:50:28.075+02:00
224,2022-06-30T09:53:29.213+02:00,5078.626616041667,10.686128082275387,21.71594146728516,35.02281967163086,5078.616665041667,-1.546613199157437,2.143175519401824,0.7877116999301802,-1.542677879333496,-0.6849313974380493,-12.083251953125,1.604619026184082,1.225525140762329,3.423772096633911,XArbitraryZVertical,0.6977738674842212,0.4518456866855591,-0.0676922177198337,0.5516928290071931,0.5930277705192566,-0.7087408304214478,0.3821057975292206,0,0,0,-1,-1,5078.494065041667,unknown,2,2022-06-30T09:53:29.080+02:00,2022-06-30T08:20:05.567+02:00,1418,1.388076,0,0,1121.329,0,0,2022-06-30T09:50:28.075+02:00
225,2022-06-30T09:53:29.223+02:00,5078.636568041667,2.5896148681640625,35.80344635009766,32.089669189453126,5078.626616041667,-1.437633352708003,2.051192367008008,0.682235887793371,-2.213626384735107,-3.139029979705811,-14.28480243682861,0.7929189801216125,2.097357034683228,3.226866722106934,XArbitraryZVertical,0.661152850286745,0.4921602133635277,-0.1065423814959402,0.5561511670798156,0.6883125305175781,-0.6305299997329712,0.358689546585083,0,0,0,-1,-1,5078.494065041667,unknown,2,2022-06-30T09:53:29.080+02:00,2022-06-30T08:20:05.567+02:00,1418,1.388076,0,0,1121.329,0,0,2022-06-30T09:50:28.075+02:00
226,2022-06-30T09:53:29.233+02:00,5078.646519041667,-3.6489619445800785,35.573524475097656,30.365554504394535,5078.636568041667,-1.321952032951546,1.938879516642991,0.5606912008304143,-5.245985984802246,-5.994391918182373,-15.58077812194824,-0.1316389441490173,3.558474063873291,3.163940191268921,XArbitraryZVertical,0.6100018798109358,0.5294001871144476,-0.1536562306321453,0.5692301875629774,0.7901623249053955,-0.531771719455719,0.3047336935997009,0,0,0,-1,-1,5078.494065041667,unknown,2,2022-06-30T09:53:29.080+02:00,2022-06-30T08:20:05.567+02:00,1418,1.388076,0,0,1121.329,0,0,2022-06-30T09:50:28.075+02:00
227,2022-06-30T09:53:29.243+02:00,5078.656471041667,-17.081878051757812,19.60652801513672,38.023330078125,5078.646519041667,-1.185898519248998,1.796572934168989,0.4309058568440525,-10.30350112915039,-9.79238224029541,-16.4760684967041,-0.9237212538719176,4.303344249725342,2.945297479629517,XArbitraryZVertical,0.5374739786782419,0.5593044741978799,-0.2013715545627782,0.5981220231276887,0.885528564453125,-0.4176940321922302,0.2033995389938354,0,0,0,-1,-1,5078.494065041667,unknown,2,2022-06-30T09:53:29.080+02:00,2022-06-30T08:20:05.567+02:00,1418,1.388076,0,0,1121.329,0,0,2022-06-30T09:50:28.075+02:00
228,2022-06-30T09:53:29.253+02:00,5078.666422041667,-69.03030075073244,-4.793631591796875,78.95136978149415,5078.656471041667,-1.015195575280813,1.607628869371845,0.2689119087906203,-17.83387756347656,-17.03802299499512,-20.74682426452637,-1.863476991653442,3.195812225341797,3.176306486129761,XArbitraryZVertical,0.4281199512591266,0.578328363128944,-0.2499291946940715,0.6479082449413551,0.9634068012237548,-0.2656826078891754,0.0355007760226726,0,0,0,-1,-1,5078.494065041667,unknown,2,2022-06-30T09:53:29.080+02:00,2022-06-30T08:20:05.567+02:00,1418,1.388076,0,0,1121.329,0,0,2022-06-30T09:50:28.075+02:00
229,2022-06-30T09:53:29.263+02:00,5078.676374041667,-240.22839248657223,-35.806440124511724,162.48800445556637,5078.666422041667,-0.8282454319543924,1.353272836973624,-0.022132266375344,-22.57927513122559,-26.51326370239258,-34.66469192504883,-4.359054088592529,0.9885960221290588,5.623779296875,XArbitraryZVertical,0.2440502255363907,0.5766800110682054,-0.3200586463334423,0.7109446162275755,0.9761958718299866,0.0221304595470428,-0.2157593071460724,0,0,0,-1,-1,5078.494065041667,unknown,2,2022-06-30T09:53:29.080+02:00,2022-06-30T08:20:05.567+02:00,1418,1.388076,0,0,1121.329,0,0,2022-06-30T09:50:28.075+02:00
230,2022-06-30T09:53:29.273+02:00,5078.686325041667,-314.7533171081543,104.16733291625975,55.26088439941407,5078.676374041667,-0.8062057254391922,1.124678157835243,-0.3387682125766401,-0.9630396366119384,-22.30421257019043,-15.5277099609375,-16.13930892944336,-3.239018440246582,11.43306732177734,XArbitraryZVertical,0.0749689014444139,0.5393583864923394,-0.4097934942488539,0.7318071059999429,0.8508561253547668,0.3323255777359009,-0.4069443941116333,0,0,0,-1,-1,5078.494065041667,unknown,2,2022-06-30T09:53:29.080+02:00,2022-06-30T08:20:05.567+02:00,1418,1.388076,0,0,1121.329,0,0,2022-06-30T09:50:28.075+02:00
231,2022-06-30T09:53:29.283+02:00,5078.696277041667,-227.7000453186035,209.50642913818365,-158.88873916625974,5078.686325041667,-0.9842472446671764,0.8366151243162179,-0.4032122490764828,22.86454582214355,-26.38200950622559,-15.02874851226807,-30.80879020690918,1.333149552345276,17.8559513092041,XArbitraryZVertical,0.0267842943164335,0.4372153103508103,-0.4947029144849496,0.7505960520478702,0.6828446984291077,0.3923749923706055,-0.61625075340271,0,0,0,-1,-1,5078.494065041667,unknown,2,2022-06-30T09:53:29.080+02:00,2022-06-30T08:20:05.567+02:00,1418,1.388076,0,0,1121.329,0,0,2022-06-30T09:50:28.075+02:00
232,2022-06-30T09:53:29.293+02:00,5078.706228041667,-73.40689956665038,37.20273651123047,73.66750762939454,5078.696277041667,-1.292507676628942,0.4512943317563144,-0.2477119900844662,32.85063171386719,-26.38595008850098,-13.90397167205811,-31.36587142944336,18.7557430267334,-11.8453426361084,XArbitraryZVertical,0.0375753983205109,0.2497607951246132,-0.6045043092540747,0.7555012591548522,0.4228181838989258,0.2451864331960678,-0.8724152445793152,0,0,0,-1,-1,5078.494065041667,unknown,2,2022-06-30T09:53:29.080+02:00,2022-06-30T08:20:05.567+02:00,1418,1.388076,0,0,1121.329,0,0,2022-06-30T09:50:28.075+02:00
233,2022-06-30T09:53:29.303+02:00,5078.716180041667,-94.85130569458008,-126.55807113647464,26.270370483398438,5078.706228041667,-1.4962183978728,0.2012923035876664,-0.0363041201107336,16.63653755187988,-15.43986415863037,-11.3318567276001,-13.47003650665283,13.40959548950195,-4.632072925567627,XArbitraryZVertical,0.0551011888131344,0.085919488280853,-0.6780368705730959,0.7279064003999843,0.199803963303566,0.0362961441278457,-0.9791634082794188,0,0,0,-1,-1,5078.494065041667,unknown,2,2022-06-30T09:53:29.080+02:00,2022-06-30T08:20:05.567+02:00,1418,1.388076,0,0,1121.329,0,0,2022-06-30T09:50:28.075+02:00
234,2022-06-30T09:53:29.312+02:00,5078.726131041667,-13.438903656005865,-8.033643951416016,29.94567764282226,5078.716180041667,-1.578285654696304,0.2052841479803906,0.1107078780141091,11.21797180175781,12.82704067230225,5.711415767669678,-9.43729305267334,-6.659797191619873,8.933077812194824,XArbitraryZVertical,0.1113802115898655,0.0330084512567229,-0.7009394790717367,0.7036964823589938,0.202597439289093,-0.1104818731546402,-0.9730097651481628,0,0,0,-1,-1,5078.494065041667,unknown,2,2022-06-30T09:53:29.080+02:00,2022-06-30T08:20:05.567+02:00,1418,1.388076,0,0,1121.329,0,0,2022-06-30T09:50:28.075+02:00
235,2022-06-30T09:53:29.322+02:00,5078.736083041667,8.536897430419922,-12.217294006347657,-3.7583843994140627,5078.726131041667,-1.455264006537095,0.3348610516983332,0.1842184801702668,-0.4117046594619751,17.59564018249512,18.11543083190918,-5.869921684265137,-7.096073150634766,3.284112215042114,XArbitraryZVertical,0.1780941584394489,0.0635980325233006,-0.6415761624072144,0.7433827669202364,0.3230772912502289,-0.1831782907247543,-0.9284754991531372,0,0,0,-1,-1,5078.494065041667,unknown,2,2022-06-30T09:53:29.080+02:00,2022-06-30T08:20:05.567+02:00,1418,1.388076,0,0,1121.329,0,0,2022-06-30T09:50:28.075+02:00
236,2022-06-30T09:53:29.333+02:00,5078.746034041667,26.418262939453125,-49.48978546142578,-11.38831787109375,5078.736083041667,-1.299546754742285,0.445756031927318,0.2674976252582116,4.782414436340332,10.91082000732422,14.80709266662598,-0.3070878386497498,0.7615871429443359,2.106539011001587,XArbitraryZVertical,0.2360847087223028,0.0957405164832059,-0.5613027243528811,0.7874243859680737,0.4158068299293518,-0.2643188834190369,-0.8701955080032349,0,0,0,-1,-1,5078.494065041667,unknown,2,2022-06-30T09:53:29.080+02:00,2022-06-30T08:20:05.567+02:00,1418,1.388076,0,0,1121.329,0,0,2022-06-30T09:50:28.075+02:00
237,2022-06-30T09:53:29.343+02:00,5078.755986041667,24.530987548828126,-54.69820449829101,18.181790771484376,5078.746034041667,-1.218664330647475,0.4592332199091633,0.3681097445710773,3.05348539352417,-3.550691366195679,8.595088958740234,0.8430711030960083,-3.294734716415405,-0.1599493026733398,XArbitraryZVertical,0.2742030758975301,0.0814945512120304,-0.5137269012035411,0.8088609787044829,0.413566529750824,-0.3598524630069733,-0.8363426327705383,0,0,0,-1,-1,5078.494065041667,unknown,2,2022-06-30T09:53:29.080+02:00,2022-06-30T08:20:05.567+02:00,1418,1.388076,0,0,1121.329,0,0,2022-06-30T09:50:28.075+02:00
238,2022-06-30T09:53:29.352+02:00,5078.765937041667,-22.34493347167969,-60.20435440063476,-5.776038665771485,5078.755986041667,-1.135552606898192,0.3312140792866298,0.3711984174219237,-7.057833194732666,-15.11680889129639,6.188895702362061,3.232219457626343,-4.95391845703125,1.79876971244812,XArbitraryZVertical,0.2405806704409183,0.038720960076538,-0.4956442281981221,0.8336416416247154,0.3030436635017395,-0.3627324998378754,-0.8812432289123535,0,0,0,-1,-1,5078.494065041667,unknown,2,2022-06-30T09:53:29.080+02:00,2022-06-30T08:20:05.567+02:00,1418,1.388076,0,0,1121.329,0,0,2022-06-30T09:50:28.075+02:00
239,2022-06-30T09:53:29.362+02:00,5078.775889041667,-71.78142974853516,-32.941098632812505,-12.744797058105469,5078.765937041667,-1.065704525459244,0.1404969505420483,0.3031393366108363,-8.797911643981934,-17.78601837158203,3.586309194564819,-0.1635115742683411,-5.834096908569336,1.592216730117798,XArbitraryZVertical,0.1649837529582503,-0.0167461207915243,-0.4918008953915028,0.8547700875261443,0.133650153875351,-0.2985178828239441,-0.9449998736381532,0,0,0,-1,-1,5078.494065041667,unknown,2,2022-06-30T09:53:29.080+02:00,2022-06-30T08:20:05.567+02:00,1418,1.388076,0,0,1121.329,0,0,2022-06-30T09:50:28.075+02:00
240,2022-06-30T09:53:29.372+02:00,5078.785840041667,-84.51140762329102,4.0549177551269535,-17.029786376953126,5078.775889041667,-1.036029084917381,-0.0174092454247309,0.2286026471008852,-6.027200698852539,-10.95183086395264,1.231362581253052,-4.543042182922363,-4.892554759979248,-0.0762275457382202,XArbitraryZVertical,0.094803632890702,-0.0639848761316322,-0.4927689983505226,0.8626105045515056,-0.0169554706662893,-0.2266167402267456,-0.9738364219665528,0,0,0,-1,-1,5078.494065041667,unknown,2,2022-06-30T09:53:29.080+02:00,2022-06-30T08:20:05.567+02:00,1418,1.388076,0,0,1121.329,0,0,2022-06-30T09:50:28.075+02:00
241,2022-06-30T09:53:29.382+02:00,5078.795792041667,-29.018056640625,-4.36806655883789,-17.695751495361325,5078.785840041667,-1.019941279180727,-0.0588278977909065,0.1999453810277428,0.3954973518848419,1.872968554496765,2.831958532333374,-9.236841201782228,-1.017800092697144,-0.4900016784667969,XArbitraryZVertical,0.0727843890736635,-0.0742389263376409,-0.488065912933428,0.8665925699087418,-0.0576226450502872,-0.1986158043146133,-0.9783820509910583,0,0,0,-1,-1,5078.494065041667,unknown,2,2022-06-30T09:53:29.080+02:00,2022-06-30T08:20:05.567+02:00,1418,1.388076,0,0,1121.329,0,0,2022-06-30T09:50:28.075+02:00
242,2022-06-30T09:53:29.392+02:00,5078.805743041667,-4.092789001464844,-27.900780029296875,-11.847712554931636,5078.795792041667,-0.9786428452803492,-0.0370470262754612,0.2183562534939907,3.2151038646698,3.361411809921265,4.571314334869385,-5.796329975128174,0.8328814506530762,-0.9230507612228394,XArbitraryZVertical,0.0875042441835088,-0.0674575395479204,-0.4689297429321348,0.8762975386853977,-0.0361590646207332,-0.2166251987218857,-0.9755849838256836,0,0,0,-1,-1,5078.494065041667,unknown,2,2022-06-30T09:53:29.080+02:00,2022-06-30T08:20:05.567+02:00,1418,1.388076,0,0,1121.329,0,0,2022-06-30T09:50:28.075+02:00
243,2022-06-30T09:53:29.402+02:00,5078.815695041667,6.922654266357422,-25.557253417968752,-10.821596374511719,5078.805743041667,-0.9377733635006898,-0.0138781618291699,0.248675955511903,2.733840227127075,3.008725166320801,3.227730751037598,-1.215980291366577,-1.588611602783203,-0.5278328657150269,XArbitraryZVertical,0.1075186874337605,-0.0621838196047306,-0.4491616689654575,0.8847749529187652,-0.013450825586915,-0.2461208552122116,-0.9691458344459534,0,0,0,-1,-1,5078.494065041667,unknown,2,2022-06-30T09:53:29.080+02:00,2022-06-30T08:20:05.567+02:00,1418,1.388076,0,0,1121.329,0,0,2022-06-30T09:50:28.075+02:00
244,2022-06-30T09:53:29.412+02:00,5078.825646041667,5.795797576904297,-6.942862243652344,-18.13658477783203,5078.815695041667,-0.9074241076424936,-0.0028318471129809,0.2622755140563696,-0.0905267521739006,0.3742448091506958,2.843966960906982,0.21556456387043,-2.880079984664917,-0.1099611520767212,XArbitraryZVertical,0.1169171225909716,-0.0585754254159062,-0.4347076336877638,0.8910266718426894,-0.0027350012678653,-0.2592789232730865,-0.9657986164093018,0,0,0,-1,-1,5078.494065041667,unknown,2,2022-06-30T09:53:29.080+02:00,2022-06-30T08:20:05.567+02:00,1418,1.388076,0,0,1121.329,0,0,2022-06-30T09:50:28.075+02:00
245,2022-06-30T09:53:29.422+02:00,5078.835598041667,-4.018693084716797,2.1409977722167968,-20.027602386474616,5078.825646041667,-0.8790761407634378,-0.0235202371297355,0.2564902441094957,-0.5056927800178528,-2.947307109832764,2.667814016342163,0.8909432291984558,-1.371008157730103,-0.4335700869560242,XArbitraryZVertical,0.1107663721106875,-0.0649724950032475,-0.4233589280331072,0.8968146517397912,-0.0227487049996852,-0.2536871731281281,-0.9670187830924988,0,0,0,-1,-1,5078.494065041667,unknown,2,2022-06-30T09:53:29.080+02:00,2022-06-30T08:20:05.567+02:00,1418,1.388076,0,0,1121.329,0,0,2022-06-30T09:50:28.075+02:00
246,2022-06-30T09:53:29.432+02:00,5078.845549041667,-13.586347045898439,-3.680097198486328,-16.84821395874024,5078.835598041667,-0.8523928678151438,-0.0691649322999429,0.2602972743583444,1.680938959121704,-4.635602474212646,2.479112863540649,0.1830078959465027,0.1988194286823273,-1.103364229202271,XArbitraryZVertical,0.1039282146473915,-0.0848373061992112,-0.4137548735315429,0.9004490567350095,-0.0667817369103431,-0.2573678195476532,-0.964003086090088,0,0,0,-1,-1,5078.494065041667,unknown,2,2022-06-30T09:53:29.080+02:00,2022-06-30T08:20:05.567+02:00,1418,1.388076,0,0,1121.329,0,0,2022-06-30T09:50:28.075+02:00
247,2022-06-30T09:53:29.442+02:00,5078.855501041667,-19.86054977416993,-18.154846801757813,-11.05151824951172,5078.845549041667,-0.8268858349687437,-0.1202421032017226,0.2847449791234735,3.4206383228302,-3.975689888000488,1.917336106300354,-0.7820333242416382,0.3708933889865875,-0.9736793041229248,XArbitraryZVertical,0.1058061323335391,-0.1113697453537277,-0.4047882295695642,0.9014145971212588,-0.1151224747300148,-0.2809126973152161,-0.952803671360016,0,0,0,-1,-1,5078.494065041667,unknown,2,2022-06-30T09:53:29.080+02:00,2022-06-30T08:20:05.567+02:00,1418,1.388076,0,0,1121.329,0,0,2022-06-30T09:50:28.075+02:00
248,2022-06-30T09:53:29.452+02:00,5078.865452041667,-18.60615829467774,-25.9573713684082,-6.705904998779297,5078.855501041667,-0.8053857249716192,-0.156611175866327,0.3170544496280378,3.419760704040527,-2.037473440170288,1.341710805892944,-1.630015730857849,-0.764845609664917,-0.4632496237754822,XArbitraryZVertical,0.1145193306862424,-0.1327427274214907,-0.3971585106779476,0.9008495343154244,-0.1481977999210358,-0.3117691874504089,-0.938529372215271,0,0,0,-1,-1,5078.494065041667,unknown,2,2022-06-30T09:53:29.080+02:00,2022-06-30T08:20:05.567+02:00,1418,1.388076,0,0,1121.329,0,0,2022-06-30T09:50:28.075+02:00
249,2022-06-30T09:53:29.462+02:00,5078.875404041667,-13.680650939941406,-26.81314178466797,-3.406466217041016,5078.865452041667,-0.7857903330093119,-0.1761911864862515,0.3416659520525691,1.897154569625854,-0.7969681620597839,1.594684600830078,-1.881481528282166,-2.089290142059326,0.0128621459007263,XArbitraryZVertical,0.1232460092533905,-0.1449305529519041,-0.3896457873988897,0.9011003893937644,-0.1651493757963181,-0.3350571990013123,-0.9276111125946044,0,0,0,-1,-1,5078.494065041667,unknown,2,2022-06-30T09:53:29.080+02:00,2022-06-30T08:20:05.567+02:00,1418,1.388076,0,0,1121.329,0,0,2022-06-30T09:50:28.075+02:00
250,2022-06-30T09:53:29.472+02:00,5078.885355041667,-9.17726577758789,-24.519910583496095,-4.913532257080078,5078.875404041667,-0.7662056468901025,-0.1896008430668959,0.3485915345717561,0.2998690903186798,-0.6415296196937561,1.723292112350464,-1.471061944961548,-2.337884664535522,0.4720693230628967,XArbitraryZVertical,0.1252741822189703,-0.1509977369499673,-0.3817088677587941,0.9032190007852812,-0.1771315187215805,-0.3415744006633759,-0.9230121374130248,0,0,0,-1,-1,5078.494065041667,unknown,2,2022-06-30T09:53:29.080+02:00,2022-06-30T08:20:05.567+02:00,1418,1.388076,0,0,1121.329,0,0,2022-06-30T09:50:28.075+02:00
251,2022-06-30T09:53:29.482+02:00,5078.895306041667,-6.897506561279298,-15.864160308837887,-7.5699082946777345,5078.885355041667,-0.7496698441695194,-0.2026648336346069,0.3443899049178304,-0.4567957818508148,-0.8644057512283325,1.474507927894592,-0.9562600255012512,-2.392373561859131,0.5193682909011841,XArbitraryZVertical,0.122141962837865,-0.1551541760841514,-0.3749837237646844,0.9057570481287948,-0.1894614845514297,-0.3376224637031555,-0.9220170378684998,0,0,0,-1,-1,5078.494065041667,unknown,2,2022-06-30T09:53:29.080+02:00,2022-06-30T08:20:05.567+02:00,1418,1.388076,0,0,1121.329,0,0,2022-06-30T09:50:28.075+02:00
252,2022-06-30T09:53:29.492+02:00,5078.905258041667,-6.030958557128907,-8.398435363769531,-9.56331298828125,5078.895306041667,-0.7378442986660306,-0.2161955833190579,0.337633377433124,-0.2856517136096954,-1.049235224723816,0.9774574041366576,-0.5850715637207031,-1.752424597740173,0.2949436902999878,XArbitraryZVertical,0.1174443420654643,-0.1594324826482554,-0.3703162067815627,0.9075539428720772,-0.2024040669202805,-0.3312550187110901,-0.921576201915741,0,0,0,-1,-1,5078.494065041667,unknown,2,2022-06-30T09:53:29.080+02:00,2022-06-30T08:20:05.567+02:00,1418,1.388076,0,0,1121.329,0,0,2022-06-30T09:50:28.075+02:00
253,2022-06-30T09:53:29.502+02:00,5078.915209041667,-5.663323059082032,-5.371579742431641,-10.402467956542969,5078.905258041667,-0.729385190933013,-0.2301264886252472,0.3380276877298974,0.8135032653808594,-1.131264448165894,0.60458904504776,-0.4353506863117218,-0.8600237369537354,0.0300513505935668,XArbitraryZVertical,0.1157438376630864,-0.1653280904226175,-0.3672973016141694,0.9079442991268004,-0.2151926010847092,-0.3316270411014557,-0.9185400009155272,0,0,0,-1,-1,5078.494065041667,unknown,2,2022-06-30T09:53:29.080+02:00,2022-06-30T08:20:05.567+02:00,1418,1.388076,0,0,1121.329,0,0,2022-06-30T09:50:28.075+02:00
254,2022-06-30T09:53:29.511+02:00,5078.925161041667,-5.010231170654297,-6.47897689819336,-10.3704345703125,5078.915209041667,-0.7207465670884156,-0.2433465950803064,0.3507668304619913,1.985705494880676,-0.9015405178070068,0.3872037529945374,-0.3638534545898438,-0.2945354580879211,-0.1306735277175903,XArbitraryZVertical,0.1199279823515023,-0.1729074965505918,-0.364464777148741,0.907130502480568,-0.2262802720069885,-0.3436180353164673,-0.9114405512809752,0,0,0,-1,-1,5078.494065041667,unknown,2,2022-06-30T09:53:29.080+02:00,2022-06-30T08:20:05.567+02:00,1418,1.388076,0,0,1121.329,0,0,2022-06-30T09:50:28.075+02:00
255,2022-06-30T09:53:29.522+02:00,5078.935112041667,-3.4684373474121095,-8.715476074218751,-8.411458282470704,5078.925161041667,-0.7112158637042963,-0.2539121575060808,0.3711998043084914,2.293013334274292,-0.5236647725105286,0.3915935456752777,-0.3235174417495728,-0.2054581642150879,-0.1475009322166443,XArbitraryZVertical,0.1282730704050007,-0.1803862325613325,-0.3613302710288172,0.90578547955702,-0.2340845763683319,-0.362733781337738,-0.902013659477234,0,0,0,-1,-1,5078.494065041667,unknown,2,2022-06-30T09:53:29.080+02:00,2022-06-30T08:20:05.567+02:00,1418,1.388076,0,0,1121.329,0,0,2022-06-30T09:50:28.075+02:00
256,2022-06-30T09:53:29.532+02:00,5078.945064041667,-1.4977853393554688,-13.167218627929689,-5.540428619384766,5078.935112041667,-0.6998509932613881,-0.2613559499539038,0.3869656629027002,1.172589540481567,-0.1544502079486847,0.901938259601593,-0.2019841372966766,-0.3832403421401978,-0.1182529926300049,XArbitraryZVertical,0.1352463890576049,-0.1854816431178798,-0.3570989890853208,0.9054199913486348,-0.239284873008728,-0.3773801922798157,-0.8946099281311035,0,0,0,-1,-1,5078.494065041667,unknown,2,2022-06-30T09:53:29.080+02:00,2022-06-30T08:20:05.567+02:00,1418,1.388076,0,0,1121.329,0,0,2022-06-30T09:50:28.075+02:00
257,2022-06-30T09:53:29.542+02:00,5078.955015041667,-0.32781829833984377,-14.086756439208989,-5.427713012695313,5078.945064041667,-0.6863029674483412,-0.2683608449016925,0.3884353234947311,-0.2193064987659454,-0.3026684820652008,1.428255677223206,-0.0080197751522064,-0.7276286482810974,0.2176021337509155,XArbitraryZVertical,0.1359489812821452,-0.1879622517107523,-0.3514770596066635,0.907001749570906,-0.2453982830047607,-0.3787407577037811,-0.8923761248588562,0,0,0,-1,-1,5078.494065041667,unknown,2,2022-06-30T09:53:29.080+02:00,2022-06-30T08:20:05.567+02:00,1418,1.388076,0,0,1121.329,0,0,2022-06-30T09:50:28.075+02:00
