,loggingTime(txt),accelerometerTimestamp_sinceReboot(s),accelerometerAccelerationX(G),accelerometerAccelerationY(G),accelerometerAccelerationZ(G),motionTimestamp_sinceReboot(s),motionYaw(rad),motionRoll(rad),motionPitch(rad),motionRotationRateX(rad/s),motionRotationRateY(rad/s),motionRotationRateZ(rad/s),motionUserAccelerationX(G),motionUserAccelerationY(G),motionUserAccelerationZ(G),motionAttitudeReferenceFrame(txt),motionQuaternionX(R),motionQuaternionY(R),motionQuaternionZ(R),motionQuaternionW(R),motionGravityX(G),motionGravityY(G),motionGravityZ(G),motionMagneticFieldX(µT),motionMagneticFieldY(µT),motionMagneticFieldZ(µT),motionHeading(°),motionMagneticFieldCalibrationAccuracy(Z),activityTimestamp_sinceReboot(s),activity(txt),activityActivityConfidence(Z),activityActivityStartDate(txt),pedometerStartDate(txt),pedometerNumberofSteps(N),pedometerAverageActivePace(s/m),pedometerCurrentPace(s/m),pedometerCurrentCadence(steps/s),pedometerDistance(m),pedometerFloorAscended(N),pedometerFloorDescended(N),pedometerEndDate(txt)
272,2022-06-30T09:54:06.581+02:00,5115.994480291667,6.53645736694336,-8.599317626953125,16.855099639892575,5115.984528291667,3.014655868648357,2.607434147538843,0.7472938265954959,-1.346694469451904,-0.6375828981399536,-0.7720052003860474,0.1723231673240662,-0.100357711315155,1.05450427532196,XArbitraryZVertical,0.8900764657436574,-0.1530946372377277,-0.2675415938932133,0.3357789167646468,0.3734530508518219,-0.6796562075614929,0.631348192691803,0,0,0,-1,-1,5114.15955275,unknown,2,2022-06-30T09:54:04.745+02:00,2022-06-30T08:20:05.567+02:00,1418,1.388076,0,0,1121.329,0,0,2022-06-30T09:50:28.075+02:00
273,2022-06-30T09:54:06.591+02:00,5116.004431291667,7.401957550048828,-8.893156585693362,16.985029449462886,5115.994480291667,3.033568983615093,2.590095934230931,0.7546773845457531,-1.342724800109863,-0.2777829170227051,-0.8593260049819946,0.2469285130500793,-0.16447913646698,1.092419147491455,XArbitraryZVertical,0.8878078448214235,-0.1484615035663673,-0.2718830010068621,0.3403469380350346,0.3817028999328613,-0.6850537061691284,0.6204871535301208,0,0,0,-1,-1,5114.15955275,unknown,2,2022-06-30T09:54:04.745+02:00,2022-06-30T08:20:05.567+02:00,1418,1.388076,0,0,1121.329,0,0,2022-06-30T09:50:28.075+02:00
274,2022-06-30T09:54:06.601+02:00,5116.014383291667,8.244255981445313,-9.27396469116211,17.32946319580078,5116.004431291667,3.053427758748577,2.576191059478181,0.7612141994043179,-1.315464973449707,0.2262246161699295,-0.9155917167663574,0.3219219744205475,-0.2050046920776367,1.113467216491699,XArbitraryZVertical,0.8861527171040542,-0.1428154956976428,-0.2744576431580881,0.3449785866492809,0.3878861963748932,-0.689801037311554,0.6113258004188538,0,0,0,-1,-1,5114.15955275,unknown,2,2022-06-30T09:54:04.745+02:00,2022-06-30T08:20:05.567+02:00,1418,1.388076,0,0,1121.329,0,0,2022-06-30T09:50:28.075+02:00
275,2022-06-30T09:54:06.611+02:00,5116.024335291667,9.190288696289063,-10.072554016113282,18.078954620361326,5116.014383291667,3.074291364049492,2.567268409104703,0.7673263887016782,-1.372769236564636,0.8826541900634766,-0.9818679094314576,0.4090364575386047,-0.2295994758605957,1.138646125793457,XArbitraryZVertical,0.8852577974119656,-0.1358800629964234,-0.2745700813409124,0.349952375847108,0.3910275101661682,-0.694213330745697,0.6042895317077637,0,0,0,-1,-1,5114.15955275,unknown,2,2022-06-30T09:54:04.745+02:00,2022-06-30T08:20:05.567+02:00,1418,1.388076,0,0,1121.329,0,0,2022-06-30T09:50:28.075+02:00
276,2022-06-30T09:54:06.621+02:00,5116.034286291667,10.293644256591802,-10.792856140136719,18.681601409912115,5116.024335291667,3.096607824500452,2.563474172218438,0.773053490431642,-1.330920934677124,1.470765948295593,-1.102990984916687,0.49179607629776,-0.2815035581588745,1.204463243484497,XArbitraryZVertical,0.8851558943655427,-0.1273964203185385,-0.2720805164784287,0.3553046189930866,0.3911382853984833,-0.6983241438865662,0.5994616150856018,0,0,0,-1,-1,5114.15955275,unknown,2,2022-06-30T09:54:04.745+02:00,2022-06-30T08:20:05.567+02:00,1418,1.388076,0,0,1121.329,0,0,2022-06-30T09:50:28.075+02:00
277,2022-06-30T09:54:06.631+02:00,5116.044238291667,10.97637451171875,-11.315419464111324,19.980001373291014,5116.034286291667,3.120061329717025,2.564939234299525,0.7774939070819201,-1.260374903678894,2.134668827056885,-1.227818965911865,0.6082761287689209,-0.3684352040290833,1.273055076599121,XArbitraryZVertical,0.8859740894028514,-0.1173210466330484,-0.2670283856291346,0.3605294474665653,0.3885650634765625,-0.7014955878257751,0.5974286198616028,0,0,0,-1,-1,5114.15955275,unknown,2,2022-06-30T09:54:04.745+02:00,2022-06-30T08:20:05.567+02:00,1418,1.388076,0,0,1121.329,0,0,2022-06-30T09:50:28.075+02:00
278,2022-06-30T09:54:06.641+02:00,5116.054189291667,11.969409484863283,-11.84816162109375,21.907543029785156,5116.044238291667,-3.138942914989815,2.573020451677752,0.7806643661793521,-1.129329323768616,2.885017395019531,-1.346283078193665,0.7046481370925903,-0.4219043254852295,1.361335039138794,XArbitraryZVertical,0.8878044828501995,-0.1055423415765817,-0.2588917844090023,0.3655666833886538,0.3825250566005707,-0.7037515640258789,0.5986719727516174,0,0,0,-1,-1,5114.15955275,unknown,2,2022-06-30T09:54:04.745+02:00,2022-06-30T08:20:05.567+02:00,1418,1.388076,0,0,1121.329,0,0,2022-06-30T09:50:28.075+02:00
279,2022-06-30T09:54:06.651+02:00,5116.064141291667,12.669803009033199,-12.1810693359375,24.332200927734377,5116.054189291667,-3.114263281043783,2.588220627397734,0.7820296484903423,-1.008636474609375,3.655245542526245,-1.495208621025085,0.7916439771652222,-0.4794067740440369,1.526802778244019,XArbitraryZVertical,0.8906990610087209,-0.0919499597884397,-0.2475178493276238,0.370047747045675,0.3728760778903961,-0.7047208547592163,0.6035992503166199,0,0,0,-1,-1,5114.15955275,unknown,2,2022-06-30T09:54:04.745+02:00,2022-06-30T08:20:05.567+02:00,1418,1.388076,0,0,1121.329,0,0,2022-06-30T09:50:28.075+02:00
280,2022-06-30T09:54:06.661+02:00,5116.074093291667,12.566966857910156,-11.787537689208989,26.678571624755865,5116.064141291667,-3.087688648557915,2.6088885964493,0.7822134011206211,-1.000625252723694,4.261369705200195,-1.745028376579285,0.9034762382507324,-0.5207803845405579,1.740162372589111,XArbitraryZVertical,0.8942681565614035,-0.0762685257611139,-0.2333387214594833,0.3741933705882091,0.3602564334869385,-0.7048512101173401,0.6110648512840271,0,0,0,-1,-1,5114.15955275,unknown,2,2022-06-30T09:54:04.745+02:00,2022-06-30T08:20:05.567+02:00,1418,1.388076,0,0,1121.329,0,0,2022-06-30T09:50:28.075+02:00
281,2022-06-30T09:54:06.670+02:00,5116.084044291667,12.362941131591802,-10.906619567871095,29.35126373291016,5116.074093291667,-3.057148694990876,2.633063821163705,0.7820558821407706,-1.14612603187561,4.925464630126953,-2.048299551010132,0.955453872680664,-0.5325192213058472,1.980437040328979,XArbitraryZVertical,0.898042312508974,-0.0580150790654073,-0.2167695396053607,0.378371749824526,0.3454338908195496,-0.704739511013031,0.6196914911270142,0,0,0,-1,-1,5114.15955275,unknown,2,2022-06-30T09:54:04.745+02:00,2022-06-30T08:20:05.567+02:00,1418,1.388076,0,0,1121.329,0,0,2022-06-30T09:50:28.075+02:00
282,2022-06-30T09:54:06.680+02:00,5116.0939975,13.217813415527344,-10.628497924804687,31.927107238769533,5116.084044291667,-3.02183450988025,2.660054519481116,0.7828381422490914,-1.432144999504089,5.475683689117432,-2.309182405471802,0.925500750541687,-0.4463321566581726,2.224743366241455,XArbitraryZVertical,0.9015401128299207,-0.0370839741673257,-0.1978485994313206,0.3830224652438126,0.3283289074897766,-0.7052942514419556,0.6282995939254761,0,0,0,-1,-1,5114.15955275,unknown,2,2022-06-30T09:54:04.745+02:00,2022-06-30T08:20:05.567+02:00,1418,1.388076,0,0,1121.329,0,0,2022-06-30T09:50:28.075+02:00
283,2022-06-30T09:54:06.690+02:00,5116.1039495,13.83123779296875,-10.034233703613282,33.915721893310554,5116.0939975,-2.980054318102801,2.687091557271165,0.7868056803528893,-1.973776578903198,5.876523971557617,-2.650814056396484,0.9895218014717102,-0.3822916150093079,2.497760534286499,XArbitraryZVertical,0.9038980050471616,-0.0134811059827064,-0.1772779114053195,0.3890491718449188,0.3099926710128784,-0.7081013321876526,0.6344267129898071,0,0,0,-1,-1,5114.15955275,unknown,2,2022-06-30T09:54:04.745+02:00,2022-06-30T08:20:05.567+02:00,1418,1.388076,0,0,1121.329,0,0,2022-06-30T09:50:28.075+02:00
284,2022-06-30T09:54:06.700+02:00,5116.1139005,15.008389892578126,-8.971144409179688,36.07423324584961,5116.1039495,-2.929842856570322,2.711696437059633,0.7953551048248071,-2.63109278678894,6.219386100769043,-3.035616874694824,1.093008637428284,-0.3496999740600586,2.716936826705933,XArbitraryZVertical,0.9044320514269072,0.0130457490521764,-0.155565931611835,0.3970288212899893,0.2917567193508148,-0.7141122221946716,0.6363350749015808,0,0,0,-1,-1,5114.15955275,unknown,2,2022-06-30T09:54:04.745+02:00,2022-06-30T08:20:05.567+02:00,1418,1.388076,0,0,1121.329,0,0,2022-06-30T09:50:28.075+02:00
285,2022-06-30T09:54:06.710+02:00,5116.1238525,17.23770401000976,-7.9854441833496095,37.758530731201176,5116.1139005,-2.870711362696083,2.732272184130175,0.8092761051152391,-3.26221227645874,6.454912662506104,-3.377983570098877,1.178459405899048,-0.2449315786361694,2.941304922103882,XArbitraryZVertical,0.9026212234446744,0.0422545694349384,-0.133062574948977,0.4071657328601571,0.2746194303035736,-0.7237878441810608,0.6330210566520691,0,0,0,-1,-1,5114.15955275,unknown,2,2022-06-30T09:54:04.745+02:00,2022-06-30T08:20:05.567+02:00,1418,1.388076,0,0,1121.329,0,0,2022-06-30T09:50:28.075+02:00
286,2022-06-30T09:54:06.720+02:00,5116.1338035,19.73915222167969,-7.315437469482422,39.039417114257816,5116.1238525,-2.803364676878919,2.748249549971991,0.8279871214381457,-3.81615138053894,6.620849132537842,-3.659571886062622,1.375531196594238,-0.1261910796165466,3.142366647720337,XArbitraryZVertical,0.8982939275287435,0.0736357034783485,-0.1099462063723012,0.4189961345505254,0.2592341601848602,-0.7365714311599731,0.6247084140777588,0,0,0,-1,-1,5114.15955275,unknown,2,2022-06-30T09:54:04.745+02:00,2022-06-30T08:20:05.567+02:00,1418,1.388076,0,0,1121.329,0,0,2022-06-30T09:50:28.075+02:00
287,2022-06-30T09:54:06.730+02:00,5116.1437555,22.661375427246096,-7.989186401367188,39.84189834594726,5116.1338035,-2.728524428247771,2.758856981395458,0.8518340116086925,-4.42212963104248,6.685546398162842,-3.821667671203613,1.639581322669983,-0.022046685218811,3.309305906295776,XArbitraryZVertical,0.891150692642637,0.1064260668189638,-0.0863494680539038,0.432513396773643,0.2459621727466583,-0.7524895668029785,0.6109521389007568,0,0,0,-1,-1,5114.15955275,unknown,2,2022-06-30T09:54:04.745+02:00,2022-06-30T08:20:05.567+02:00,1418,1.388076,0,0,1121.329,0,0,2022-06-30T09:50:28.075+02:00
288,2022-06-30T09:54:06.740+02:00,5116.153707500001,24.553740234375002,-10.018815765380864,40.190523376464846,5116.1437555,-2.64629914502425,2.763060185418266,0.8808306836470593,-4.935856342315674,6.755447864532471,-3.952821016311646,1.917421340942383,0.0166290402412414,3.437785148620605,XArbitraryZVertical,0.8809777744242343,0.1400134556218448,-0.0623595171234298,0.4476447929903681,0.2352272868156433,-0.7712678909301758,0.5914512276649475,0,0,0,-1,-1,5114.15955275,unknown,2,2022-06-30T09:54:04.745+02:00,2022-06-30T08:20:05.567+02:00,1418,1.388076,0,0,1121.329,0,0,2022-06-30T09:50:28.075+02:00
289,2022-06-30T09:54:06.750+02:00,5116.163658500001,25.255331268310552,-15.24834091186524,39.711818847656254,5116.153707500001,-2.556496975396684,2.760055286058205,0.9131585233019686,-5.229647636413574,6.70305061340332,-4.127453804016113,2.210634708404541,-0.1116685271263123,3.51459789276123,XArbitraryZVertical,0.8679479973138832,0.1741105731364139,-0.0381196873077962,0.4635717878666311,0.2275973111391068,-0.7914383411407471,0.5672964453697205,0,0,0,-1,-1,5114.15955275,unknown,2,2022-06-30T09:54:04.745+02:00,2022-06-30T08:20:05.567+02:00,1418,1.388076,0,0,1121.329,0,0,2022-06-30T09:50:28.075+02:00
290,2022-06-30T09:54:06.760+02:00,5116.1736105,26.622588043212886,-22.044208831787113,39.5074937438965,5116.163658500001,-2.458499201531608,2.747301079340792,0.944416092920769,-4.990694522857666,6.53949499130249,-4.404588222503662,2.30319881439209,-0.4231367707252502,3.545419931411743,XArbitraryZVertical,0.8527119904157114,0.20856598823323,-0.0149605647002529,0.4787051872869776,0.2251973450183868,-0.8101547956466675,0.5412350296974182,0,0,0,-1,-1,5114.15955275,unknown,2,2022-06-30T09:54:04.745+02:00,2022-06-30T08:20:05.567+02:00,1418,1.388076,0,0,1121.329,0,0,2022-06-30T09:50:28.075+02:00
291,2022-06-30T09:54:06.770+02:00,5116.1835615,26.56241317749024,-21.780906372070312,39.13087692260743,5116.1736105,-2.353403199949505,2.724503066239985,0.9683866672676252,-4.103070259094238,6.140321254730225,-4.934869289398193,2.414896965026855,-1.097154855728149,3.520886898040771,XArbitraryZVertical,0.8365056667173216,0.2434853155532734,0.0056728403611654,0.4908574741311182,0.2295424491167068,-0.8239726424217224,0.5180536508560181,0,0,0,-1,-1,5114.15955275,unknown,2,2022-06-30T09:54:04.745+02:00,2022-06-30T08:20:05.567+02:00,1418,1.388076,0,0,1121.329,0,0,2022-06-30T09:50:28.075+02:00
292,2022-06-30T09:54:06.780+02:00,5116.1935135,24.96328857421875,-14.756463775634762,41.14329208374024,5116.1835615,-2.242190406777833,2.690692234574541,0.9767125031184708,-2.722799301147461,5.467224597930908,-5.818934440612793,2.508973121643066,-1.547696352005005,3.475274562835693,XArbitraryZVertical,0.8207697559428261,0.2797138131574595,0.0210009664775052,0.4976506196231143,0.2439255863428116,-0.8286616802215576,0.5038056373596191,0,0,0,-1,-1,5114.15955275,unknown,2,2022-06-30T09:54:04.745+02:00,2022-06-30T08:20:05.567+02:00,1418,1.388076,0,0,1121.329,0,0,2022-06-30T09:50:28.075+02:00
293,2022-06-30T09:54:06.790+02:00,5116.203465500001,23.365361480712888,-8.477171630859376,41.99307495117188,5116.1935135,-2.125823361314077,2.642363014385656,0.9685016555411234,-1.850767850875854,4.090781211853027,-6.613469123840332,2.344356536865234,-1.051420092582703,3.595215320587158,XArbitraryZVertical,0.8052751906735219,0.316586539869394,0.02835992332054,0.5005003529427655,0.2712282538414001,-0.8240377902984619,0.4973903298377991,0,0,0,-1,-1,5114.15955275,unknown,2,2022-06-30T09:54:04.745+02:00,2022-06-30T08:20:05.567+02:00,1418,1.388076,0,0,1121.329,0,0,2022-06-30T09:50:28.075+02:00
294,2022-06-30T09:54:06.800+02:00,5116.213416500001,20.54866882324219,-2.213147735595703,40.69512405395507,5116.203465500001,-2.006159343039587,2.577245993445977,0.9453964311371528,-1.209163546562195,2.483657836914062,-7.704901218414307,2.161777973175049,-0.3688671588897705,3.763792991638184,XArbitraryZVertical,0.7891552608646453,0.3529258694727022,0.0261106249041943,0.5019917411104724,0.3131210803985596,-0.8107290863990784,0.4946453869342804,0,0,0,-1,-1,5114.15955275,unknown,2,2022-06-30T09:54:04.745+02:00,2022-06-30T08:20:05.567+02:00,1418,1.388076,0,0,1121.329,0,0,2022-06-30T09:50:28.075+02:00
295,2022-06-30T09:54:06.810+02:00,5116.2233685,14.792838134765626,4.852159881591797,38.62433029174805,5116.213416500001,-1.882350200945731,2.493921954676633,0.9060533226970812,-0.8304791450500488,0.6590573787689209,-9.152817726135254,1.900017261505127,0.2431297302246094,3.759786128997803,XArbitraryZVertical,0.770956450974226,0.3893523730830631,0.013086181388691,0.503844976113899,0.3721687197685242,-0.7870753407478333,0.4919382333755493,0,0,0,-1,-1,5114.15955275,unknown,2,2022-06-30T09:54:04.745+02:00,2022-06-30T08:20:05.567+02:00,1418,1.388076,0,0,1121.329,0,0,2022-06-30T09:50:28.075+02:00
296,2022-06-30T09:54:06.820+02:00,5116.2333205,8.627908172607423,13.262570343017574,41.06186141967775,5116.2233685,-1.753015412699172,2.392101154696511,0.8459108982835017,-0.7068535685539246,-1.136360168457031,-11.44999408721924,1.364356517791748,0.8570346832275391,3.524054050445557,XArbitraryZVertical,0.7482844884551154,0.4275023501736024,-0.0121131444975387,0.5071147408898077,0.4517136514186859,-0.7485753893852234,0.4853758811950684,0,0,0,-1,-1,5114.15955275,unknown,2,2022-06-30T09:54:04.745+02:00,2022-06-30T08:20:05.567+02:00,1418,1.388076,0,0,1121.329,0,0,2022-06-30T09:50:28.075+02:00
297,2022-06-30T09:54:06.830+02:00,5116.2432715,1.8347346496582033,24.947870635986327,42.78867050170899,5116.2333205,-1.615495499088623,2.269174497401511,0.7613205081295051,-1.541571378707886,-3.805212497711182,-14.03225994110107,0.6419968008995056,1.610913515090942,3.587267398834229,XArbitraryZVertical,0.7166565238637332,0.4681206547221129,-0.0507688551306158,0.5144793013656854,0.554444432258606,-0.689877986907959,0.4654670357704163,0,0,0,-1,-1,5114.15955275,unknown,2,2022-06-30T09:54:04.745+02:00,2022-06-30T08:20:05.567+02:00,1418,1.388076,0,0,1121.329,0,0,2022-06-30T09:50:28.075+02:00
298,2022-06-30T09:54:06.840+02:00,5116.2532235,-9.939630432128906,39.392083740234376,48.03316452026368,5116.2432715,-1.471240156680192,2.118275839925419,0.6544415727804108,-4.225780963897705,-7.678318977355957,-16.06619453430176,-0.140759289264679,2.464886665344238,3.808264970779419,XArbitraryZVertical,0.6707396193641201,0.506559167466876,-0.1033452199996986,0.5318138405990825,0.6774258017539978,-0.6087163090705872,0.4129876494407654,0,0,0,-1,-1,5114.15955275,unknown,2,2022-06-30T09:54:04.745+02:00,2022-06-30T08:20:05.567+02:00,1418,1.388076,0,0,1121.329,0,0,2022-06-30T09:50:28.075+02:00
299,2022-06-30T09:54:06.850+02:00,5116.2631745,-33.24960708618164,35.15095321655274,41.09958297729493,5116.2532235,-1.3063552956838,1.936778501897341,0.5374723318673348,-10.42664432525635,-9.97052764892578,-16.81553840637207,-1.107276797294617,3.863009691238403,4.367746353149414,XArbitraryZVertical,0.6022453484842109,0.5394490617410401,-0.1582449915558114,0.5667927322188119,0.8021162152290344,-0.511966347694397,0.3074094951152802,0,0,0,-1,-1,5114.15955275,unknown,2,2022-06-30T09:54:04.745+02:00,2022-06-30T08:20:05.567+02:00,1418,1.388076,0,0,1121.329,0,0,2022-06-30T09:50:28.075+02:00
300,2022-06-30T09:54:06.859+02:00,5116.2731265,-63.985940551757814,27.5141340637207,42.34439437866212,5116.2631745,-1.109842621283826,1.747173963844872,0.4038353127915953,-16.10778427124023,-10.54477024078369,-18.78703689575195,-2.948965311050415,4.46779203414917,4.544414520263672,XArbitraryZVertical,0.50516229914305,0.5705139975961908,-0.20074761120736,0.6156503285933,0.9052945375442504,-0.3929480314254761,0.1613503396511078,0,0,0,-1,-1,5114.15955275,unknown,2,2022-06-30T09:54:04.745+02:00,2022-06-30T08:20:05.567+02:00,1418,1.388076,0,0,1121.329,0,0,2022-06-30T09:50:28.075+02:00
301,2022-06-30T09:54:06.869+02:00,5116.283078500001,-89.5735807800293,17.060023498535156,69.53071014404297,5116.2731265,-0.9008356569603854,1.561243582168551,0.1983557250472629,-19.57820320129395,-15.3033561706543,-26.29182434082031,-5.904572010040283,3.273122072219849,3.995373010635376,XArbitraryZVertical,0.3681856509045326,0.5997971993098,-0.2450502027034983,0.666808189520073,0.9803473353385924,-0.1970575600862503,-0.0093652922660112,0,0,0,-1,-1,5114.15955275,unknown,2,2022-06-30T09:54:04.745+02:00,2022-06-30T08:20:05.567+02:00,1418,1.388076,0,0,1121.329,0,0,2022-06-30T09:50:28.075+02:00
302,2022-06-30T09:54:06.879+02:00,5116.293029500001,-186.48774673461912,-7.298223266601563,126.11005279541011,5116.283078500001,-0.762669908496545,1.340120143796347,-0.1159862039141786,-13.60432529449463,-26.56878852844238,-31.95815086364746,-8.77097225189209,2.39101767539978,5.407534599304199,XArbitraryZVertical,0.1885696115324645,0.5923610893958695,-0.3246125536486212,0.7128650459069116,0.9669711589813232,0.1157263219356537,-0.2270996868610382,0,0,0,-1,-1,5114.15955275,unknown,2,2022-06-30T09:54:04.745+02:00,2022-06-30T08:20:05.567+02:00,1418,1.388076,0,0,1121.329,0,0,2022-06-30T09:50:28.075+02:00
303,2022-06-30T09:54:06.889+02:00,5116.3029815,-314.68191558837884,55.603372192382814,41.822729187011724,5116.293029500001,-0.8215733309611317,1.054133646605256,-0.3820608765624344,6.721518516540527,-26.24665260314941,-22.17019271850586,-13.30217361450195,0.0076592564582824,10.68582725524902,XArbitraryZVertical,0.0467591441109568,0.5182966504398407,-0.4264173017924164,0.7398314937254075,0.8067821860313416,0.3728335499763489,-0.458364337682724,0,0,0,-1,-1,5114.15955275,unknown,2,2022-06-30T09:54:04.745+02:00,2022-06-30T08:20:05.567+02:00,1418,1.388076,0,0,1121.329,0,0,2022-06-30T09:50:28.075+02:00
304,2022-06-30T09:54:06.900+02:00,5116.3129325,-216.83444046020506,128.4722904968262,-209.1832511901856,5116.3029815,-1.09448317334674,0.6948603933869002,-0.3919482386330402,30.98187065124512,-21.1190185546875,-12.14013290405273,-28.24817276000977,0.5151657462120056,12.45665740966797,XArbitraryZVertical,0.0174232948991817,0.3804606543975076,-0.5364965206843044,0.7530722178836015,0.5917237997055054,0.3819896280765533,-0.709892213344574,0,0,0,-1,-1,5114.15955275,unknown,2,2022-06-30T09:54:04.745+02:00,2022-06-30T08:20:05.567+02:00,1418,1.388076,0,0,1121.329,0,0,2022-06-30T09:50:28.075+02:00
305,2022-06-30T09:54:06.909+02:00,5116.3228845,-72.68554962158204,43.268572540283195,83.4948715209961,5116.3129325,-1.315647256936227,0.3362559244296529,-0.1290467018351213,34.90268325805664,-34.70169067382812,-4.269720554351807,-32.34356689453125,10.29561233520508,-10.42656898498535,XArbitraryZVertical,0.0517922201446117,0.1710084487114195,-0.6100590411034293,0.7719467377025218,0.3272114396095276,0.1286888271570206,-0.9361473321914672,0,0,0,-1,-1,5114.15955275,unknown,2,2022-06-30T09:54:04.745+02:00,2022-06-30T08:20:05.567+02:00,1418,1.388076,0,0,1121.329,0,0,2022-06-30T09:50:28.075+02:00
306,2022-06-30T09:54:06.919+02:00,5116.332836500001,-93.02779769897461,-127.13931243896491,53.627181701660156,5116.3228845,-1.443672192384327,0.0373232662321811,0.1400833994933424,10.86675548553467,-15.99899196624756,-9.292181968688965,-10.09491729736328,10.95172882080078,-7.614901065826416,XArbitraryZVertical,0.0648207246074204,-0.0322629875748745,-0.6580487927031425,0.749486049518966,0.0369490794837474,-0.1396256983280182,-0.9895147681236268,0,0,0,-1,-1,5114.15955275,unknown,2,2022-06-30T09:54:04.745+02:00,2022-06-30T08:20:05.567+02:00,1418,1.388076,0,0,1121.329,0,0,2022-06-30T09:50:28.075+02:00
307,2022-06-30T09:54:06.929+02:00,5116.342787500001,-4.571942596435547,7.093748474121094,-9.33384017944336,5116.332836500001,-1.462525001481187,0.0615645332237633,0.1953522479989038,5.624846935272217,8.41789722442627,9.8485746383667,-11.37769222259521,-5.74946117401123,19.14505958557129,XArbitraryZVertical,0.0930090007730741,-0.0422951434585179,-0.6620778293006413,0.7424375077825283,0.0603553913533687,-0.194112092256546,-0.979120910167694,0,0,0,-1,-1,5114.15955275,unknown,2,2022-06-30T09:54:04.745+02:00,2022-06-30T08:20:05.567+02:00,1418,1.388076,0,0,1121.329,0,0,2022-06-30T09:50:28.075+02:00
308,2022-06-30T09:54:06.939+02:00,5116.3527395,6.386918334960938,-11.5872541809082,-5.7700511169433595,5116.342787500001,-1.313293236060326,0.1716854900838542,0.2224951460834572,-5.497616291046143,19.05555725097656,17.06438064575195,-3.726415872573853,-7.290399074554443,-2.314349412918091,XArbitraryZVertical,0.1396235818341989,-3.516131902865748e-05,-0.5969176303969792,0.7900598459459786,0.1666319966316223,-0.2206639498472214,-0.96101051568985,0,0,0,-1,-1,5114.15955275,unknown,2,2022-06-30T09:54:04.745+02:00,2022-06-30T08:20:05.567+02:00,1418,1.388076,0,0,1121.329,0,0,2022-06-30T09:50:28.075+02:00
309,2022-06-30T09:54:06.949+02:00,5116.3626915,38.113143310546874,-70.34965713500976,-5.944139099121094,5116.3527395,-1.133462323638937,0.2946253304617959,0.1841625709497909,-6.844160079956055,9.808958053588867,15.83169937133789,-0.9041385650634766,2.852983713150024,2.74675989151001,XArbitraryZVertical,0.1552046011708506,0.0744764116973813,-0.5174258493777253,0.8382334317189439,0.2854709923267365,-0.1831233352422714,-0.9407296180725098,0,0,0,-1,-1,5114.15955275,unknown,2,2022-06-30T09:54:04.745+02:00,2022-06-30T08:20:05.567+02:00,1418,1.388076,0,0,1121.329,0,0,2022-06-30T09:50:28.075+02:00
310,2022-06-30T09:54:06.959+02:00,5116.3726425,-4.147575073242188,-16.909137268066406,-0.9205856323242188,5116.3626915,-0.971615321373267,0.2653034040363632,0.1625495599509563,-11.07369041442871,-10.87131309509277,12.21445465087891,2.550717830657959,-6.192139148712158,-2.118081331253052,XArbitraryZVertical,0.1327140712098119,0.0789996011771457,-0.4517974620997894,0.8786495574235643,0.2587457001209259,-0.1618346869945526,-0.9522920846939088,0,0,0,-1,-1,5114.15955275,unknown,2,2022-06-30T09:54:04.745+02:00,2022-06-30T08:20:05.567+02:00,1418,1.388076,0,0,1121.329,0,0,2022-06-30T09:50:28.075+02:00
311,2022-06-30T09:54:06.969+02:00,5116.3825945,-67.6787612915039,-25.738825836181636,-54.62321044921875,5116.3726425,-0.856105871477725,0.0828337445035305,0.0460860286319456,-13.50278091430664,-21.76568984985352,5.3094801902771,2.164449691772461,-3.788311719894409,3.63786244392395,XArbitraryZVertical,0.038126816422845,0.028103180629027,-0.413766179308905,0.9091502302576348,0.0826511979103088,-0.0460697151720523,-0.9955131411552428,0,0,0,-1,-1,5114.15955275,unknown,2,2022-06-30T09:54:04.745+02:00,2022-06-30T08:20:05.567+02:00,1418,1.388076,0,0,1121.329,0,0,2022-06-30T09:50:28.075+02:00
312,2022-06-30T09:54:06.979+02:00,5116.3925455,-121.29576416015625,-7.395221557617188,-22.99009185791016,5116.3825945,-0.8494414198822229,-0.1304040632447582,-0.0194186947789781,0.2002285867929459,-18.25930786132812,-2.51042914390564,-3.487894535064697,-2.366402864456177,-3.40070629119873,XArbitraryZVertical,-0.0356750270687256,-0.0553718649887813,-0.4105949070521314,0.9094356925787414,-0.1300102770328522,0.0194174740463495,-0.9913225173950196,0,0,0,-1,-1,5114.15955275,unknown,2,2022-06-30T09:54:04.745+02:00,2022-06-30T08:20:05.567+02:00,1418,1.388076,0,0,1121.329,0,0,2022-06-30T09:50:28.075+02:00
313,2022-06-30T09:54:06.989+02:00,5116.4024975,-57.12450897216797,-25.95168319702149,-10.987451477050781,5116.3925455,-0.8493016795769986,-0.217192260315855,0.0105253790401152,4.703051567077637,0.1127234846353531,0.2451861947774887,-9.701026916503906,-1.413776397705078,-3.170749187469482,XArbitraryZVertical,-0.0398863872567674,-0.1009106268035653,-0.4100897020215901,0.9055675133855002,-0.2154767662286758,-0.0105251846835017,-0.9764522314071656,0,0,0,-1,-1,5114.15955275,unknown,2,2022-06-30T09:54:04.745+02:00,2022-06-30T08:20:05.567+02:00,1418,1.388076,0,0,1121.329,0,0,2022-06-30T09:50:28.075+02:00
314,2022-06-30T09:54:06.999+02:00,5116.412449500001,10.13662078857422,-43.8956185913086,-15.547119598388678,5116.4024975,-0.8367543757202913,-0.1615140456446712,0.0367370246119194,0.88546222448349,8.958577156066895,2.466166734695435,-10.628098487854,-1.617766857147217,-0.5092406272888184,XArbitraryZVertical,-0.0160400544604251,-0.0811370519032694,-0.4062396238341629,0.9100158988633508,-0.1607042253017426,-0.0367287620902061,-0.9863190054893494,0,0,0,-1,-1,5114.15955275,unknown,2,2022-06-30T09:54:04.745+02:00,2022-06-30T08:20:05.567+02:00,1418,1.388076,0,0,1121.329,0,0,2022-06-30T09:50:28.075+02:00
315,2022-06-30T09:54:07.009+02:00,5116.422400500001,23.38676696777344,-16.333584136962887,-12.225526885986325,5116.412449500001,-0.792131964068155,-0.0841175814075163,0.0342630005038277,-0.9609994888305664,6.261061668395996,5.561838626861572,-1.108261227607727,-3.781417846679688,-0.2522284984588623,XArbitraryZVertical,-0.0004282456655099,-0.0453887390157057,-0.3860586561015993,0.9213568276389948,-0.0839691087603569,-0.0342562980949878,-0.9958793520927428,0,0,0,-1,-1,5114.15955275,unknown,2,2022-06-30T09:54:04.745+02:00,2022-06-30T08:20:05.567+02:00,1418,1.388076,0,0,1121.329,0,0,2022-06-30T09:50:28.075+02:00
316,2022-06-30T09:54:07.019+02:00,5116.4323525,8.674910430908204,2.9761111450195314,-18.704653472900386,5116.422400500001,-0.7571537375863912,-0.0629907778340629,-0.0059884740783473,-6.233933448791504,-1.733483195304871,1.705492973327637,2.252156972885132,-3.54558539390564,-0.5156424641609192,XArbitraryZVertical,-0.0144195058085346,-0.0281541646958513,-0.3693259049321385,0.9287614759111252,-0.062948003411293,0.0059884381480515,-0.997998833656311,0,0,0,-1,-1,5114.15955275,unknown,2,2022-06-30T09:54:04.745+02:00,2022-06-30T08:20:05.567+02:00,1418,1.388076,0,0,1121.329,0,0,2022-06-30T09:50:28.075+02:00
317,2022-06-30T09:54:07.030+02:00,5116.4423045,-12.679083709716801,2.232307891845703,-27.81904998779297,5116.4323525,-0.7534993545978961,-0.1022519220053869,-0.0686876954162508,-5.595203876495361,-5.657439231872559,0.7712610960006714,2.06112265586853,-0.3285675942897797,-0.3704687356948853,XArbitraryZVertical,-0.0506771216102618,-0.0348754158495135,-0.3655709970904113,0.9287482678412368,-0.1018331348896027,0.0686336979269981,-0.9924310445785522,0,0,0,-1,-1,5114.15955275,unknown,2,2022-06-30T09:54:04.745+02:00,2022-06-30T08:20:05.567+02:00,1418,1.388076,0,0,1121.329,0,0,2022-06-30T09:50:28.075+02:00
318,2022-06-30T09:54:07.039+02:00,5116.4522555,-33.61095565795899,-2.156266021728516,-27.939848785400386,5116.4423045,-0.7415160927875857,-0.1579688661371302,-0.1127447867287878,-2.781201362609863,-5.135202884674072,2.685667991638184,0.029940515756607,0.2681392431259155,-1.4720139503479,XArbitraryZVertical,-0.0808931602850893,-0.0530738311264516,-0.3564752405195279,0.9292818718785468,-0.1563139110803604,0.1125060841441154,-0.981278955936432,0,0,0,-1,-1,5114.15955275,unknown,2,2022-06-30T09:54:04.745+02:00,2022-06-30T08:20:05.567+02:00,1418,1.388076,0,0,1121.329,0,0,2022-06-30T09:50:28.075+02:00
319,2022-06-30T09:54:07.048+02:00,5116.462207500001,-31.174472351074222,-7.115453338623047,-23.478975219726564,5116.4522555,-0.7179248848055777,-0.1841393251841806,-0.1337946332050972,-0.6904831528663635,-0.9364822506904602,2.414133787155151,-2.278847932815552,-0.1533394604921341,-2.014125823974609,XArbitraryZVertical,-0.0945480323034995,-0.062502794940929,-0.343278401219537,0.9323701863693148,-0.1814640760421753,0.1333958208560944,-0.9743081331253052,0,0,0,-1,-1,5114.15955275,unknown,2,2022-06-30T09:54:04.745+02:00,2022-06-30T08:20:05.567+02:00,1418,1.388076,0,0,1121.329,0,0,2022-06-30T09:50:28.075+02:00
320,2022-06-30T09:54:07.059+02:00,5116.4721595,-16.031063232421875,-13.567336578369137,-19.415225830078125,5116.462207500001,-0.6997812645356702,-0.1789817283444603,-0.1401618196049181,0.0963009148836135,1.337424278259277,1.455150604248047,-3.400882005691528,-0.5419864654541016,-1.610738039016724,XArbitraryZVertical,-0.0960785095217586,-0.0598427029850445,-0.3347063166999104,0.9354995798102512,-0.1762818098068237,0.1397033482789993,-0.974375545978546,0,0,0,-1,-1,5114.15955275,unknown,2,2022-06-30T09:54:04.745+02:00,2022-06-30T08:20:05.567+02:00,1418,1.388076,0,0,1121.329,0,0,2022-06-30T09:50:28.075+02:00
321,2022-06-30T09:54:07.068+02:00,5116.4821105,-5.257217559814453,-15.153737640380864,-14.65198104858399,5116.4721595,-0.684747151703139,-0.1614825696631599,-0.1371036649575215,1.033037543296814,1.620392084121704,1.328281044960022,-2.267149448394775,-1.21592903137207,-1.231866598129272,XArbitraryZVertical,-0.0913260805022725,-0.0528725018496073,-0.3286401798283078,0.9385412806355145,-0.1592728942632675,0.1366745382547379,-0.9777280688285828,0,0,0,-1,-1,5114.15955275,unknown,2,2022-06-30T09:54:04.745+02:00,2022-06-30T08:20:05.567+02:00,1418,1.388076,0,0,1121.329,0,0,2022-06-30T09:50:28.075+02:00
322,2022-06-30T09:54:07.079+02:00,5116.4920625,-1.9173628234863282,-15.136224060058595,-12.623100128173824,5116.4821105,-0.672570060599929,-0.147197258552748,-0.1283302006722135,0.873738706111908,0.927628755569458,0.720702052116394,-0.8419971466064453,-1.656314253807068,-0.7347683906555176,XArbitraryZVertical,-0.0845800074919091,-0.0481690500550243,-0.3239610787001512,0.941050094654356,-0.145460233092308,0.1279782503843307,-0.9810519218444824,0,0,0,-1,-1,5114.15955275,unknown,2,2022-06-30T09:54:04.745+02:00,2022-06-30T08:20:05.567+02:00,1418,1.388076,0,0,1121.329,0,0,2022-06-30T09:50:28.075+02:00
323,2022-06-30T09:54:07.088+02:00,5116.5020135,-2.7939399719238285,-14.018648071289062,-10.984308013916012,5116.4920625,-0.6685960376575606,-0.142832728360053,-0.1249062423859559,-0.1048454418778419,-0.1588093638420105,-0.0015890270005911,-0.1690032482147217,-1.662347674369812,-0.3505666851997375,XArbitraryZVertical,-0.0821737318087379,-0.0468483384880507,-0.3224247900761059,0.9418571771608212,-0.1412385851144791,0.1245817095041275,-0.9821054339408876,0,0,0,-1,-1,5114.15955275,unknown,2,2022-06-30T09:54:04.745+02:00,2022-06-30T08:20:05.567+02:00,1418,1.388076,0,0,1121.329,0,0,2022-06-30T09:50:28.075+02:00
324,2022-06-30T09:54:07.098+02:00,5116.5119655,-6.194718017578126,-10.51817733764649,-9.989476776123052,5116.5020135,-0.6706829901042126,-0.1477800427219002,-0.1304270159173801,-1.023666143417358,-0.6467288136482239,-0.2181590795516968,-0.040394127368927,-1.658454537391663,-0.247450053691864,XArbitraryZVertical,-0.0856122638733641,-0.0481750482008522,-0.3229532195799619,0.9413027412624774,-0.1459921151399612,0.1300575435161591,-0.9806994199752808,0,0,0,-1,-1,5114.15955275,unknown,2,2022-06-30T09:54:04.745+02:00,2022-06-30T08:20:05.567+02:00,1418,1.388076,0,0,1121.329,0,0,2022-06-30T09:50:28.075+02:00
325,2022-06-30T09:54:07.108+02:00,5116.5219175,-8.735684051513672,-6.377637634277344,-9.977801055908198,5116.5119655,-0.6747155247873539,-0.1535889661375382,-0.1428307415479826,-1.484894275665283,-0.2413413822650909,-0.1619983464479446,-0.315277487039566,-1.408947587013245,-0.0730738043785095,XArbitraryZVertical,-0.092463025089997,-0.0486616029603141,-0.3240124994929365,0.9402652163744072,-0.1514279842376709,0.14234559237957,-0.9781652688980104,0,0,0,-1,-1,5114.15955275,unknown,2,2022-06-30T09:54:04.745+02:00,2022-06-30T08:20:05.567+02:00,1418,1.388076,0,0,1121.329,0,0,2022-06-30T09:50:28.075+02:00
326,2022-06-30T09:54:07.118+02:00,5116.5318685,-7.776927795410157,-2.947969665527344,-11.590697021484376,5116.5219175,-0.6773556167745414,-0.1516923869558481,-0.1577262618861202,-1.474931001663208,0.6901659369468689,0.0941686853766441,-0.6425737142562866,-1.011184215545654,-0.0178333520889282,XArbitraryZVertical,-0.0991893458552928,-0.045147923715008,-0.3246250142762571,0.9395434034410082,-0.1492355465888977,0.1570730954408646,-0.9762462973594666,0,0,0,-1,-1,5114.15955275,unknown,2,2022-06-30T09:54:04.745+02:00,2022-06-30T08:20:05.567+02:00,1418,1.388076,0,0,1121.329,0,0,2022-06-30T09:50:28.075+02:00
327,2022-06-30T09:54:07.128+02:00,5116.541820500001,-4.12227767944336,-1.5379019165039063,-10.9453889465332,5116.5318685,-0.6773788608873874,-0.1403831578581462,-0.1719297271431866,-1.37213671207428,1.472882032394409,0.2852824628353119,-0.7539405226707458,-0.6336545348167419,-0.1373205780982971,XArbitraryZVertical,-0.1039980911346041,-0.0374489139727256,-0.3245296913715195,0.93939470145356,-0.1378595530986786,0.1710839420557022,-0.975563943386078,0,0,0,-1,-1,5114.15955275,unknown,2,2022-06-30T09:54:04.745+02:00,2022-06-30T08:20:05.567+02:00,1418,1.388076,0,0,1121.329,0,0,2022-06-30T09:50:28.075+02:00
328,2022-06-30T09:54:07.138+02:00,5116.5517725,-1.0614427185058595,-1.2413685607910157,-8.552764434814453,5116.541820500001,-0.6757088728660242,-0.1256832120076787,-0.1851221219682508,-1.182255983352661,1.356132626533508,0.3859086036682129,-0.5085947513580322,-0.3860933482646942,-0.2042825818061829,XArbitraryZVertical,-0.1077585100088436,-0.0284200422145779,-0.3239167868615883,0.9394990138703784,-0.1232107803225517,0.1840665638446808,-0.975160837173462,0,0,0,-1,-1,5114.15955275,unknown,2,2022-06-30T09:54:04.745+02:00,2022-06-30T08:20:05.567+02:00,1418,1.388076,0,0,1121.329,0,0,2022-06-30T09:50:28.075+02:00
329,2022-06-30T09:54:07.148+02:00,5116.5617235,-0.49711624145507816,-1.3683045959472657,-7.007378082275391,5116.5517725,-0.6727233895105839,-0.1141334482756418,-0.1956527833136898,-0.8360521793365479,0.7994131445884705,0.4407540261745453,-0.1266752183437347,-0.3294628858566284,-0.025140643119812,XArbitraryZVertical,-0.1107819931499917,-0.0213980289947783,-0.3226835626794274,0.9397578239988252,-0.1117129847407341,0.1944069117307663,-0.9745389223098756,0,0,0,-1,-1,5114.15955275,unknown,2,2022-06-30T09:54:04.745+02:00,2022-06-30T08:20:05.567+02:00,1418,1.388076,0,0,1121.329,0,0,2022-06-30T09:50:28.075+02:00
330,2022-06-30T09:54:07.158+02:00,5116.5716755,-0.8363108825683594,-1.6700770568847658,-6.497837677001954,5116.5617235,-0.6697086671955439,-0.1092249183056449,-0.20210486716532,-0.3860682547092438,0.0656557828187942,0.2516509294509888,0.0481952577829361,-0.3301419913768768,0.203437864780426,XArbitraryZVertical,-0.1129823403604531,-0.0181874489981062,-0.3212668789717922,0.9400488979388788,-0.1067891493439674,0.2007317990064621,-0.9738084077835084,0,0,0,-1,-1,5114.15955275,unknown,2,2022-06-30T09:54:04.745+02:00,2022-06-30T08:20:05.567+02:00,1418,1.388076,0,0,1121.329,0,0,2022-06-30T09:50:28.075+02:00
331,2022-06-30T09:54:07.168+02:00,5116.5816265,-1.8600320434570314,-2.3128404235839843,-6.557264099121094,5116.5716755,-0.6688524794446133,-0.1112745518800824,-0.2049183433004932,-0.2144283205270767,-0.4565291106700897,-0.0062546520493924,0.0447109714150428,-0.355999231338501,0.2871397733688354,XArbitraryZVertical,-0.1146205844999008,-0.0187331880034528,-0.3206281270536084,0.9400579627315884,-0.1087217330932617,0.2034872174263,-0.9730224013328552,0,0,0,-1,-1,5114.15955275,unknown,2,2022-06-30T09:54:04.745+02:00,2022-06-30T08:20:05.567+02:00,1418,1.388076,0,0,1121.329,0,0,2022-06-30T09:50:28.075+02:00
