,loggingTime(txt),accelerometerTimestamp_sinceReboot(s),accelerometerAccelerationX(G),accelerometerAccelerationY(G),accelerometerAccelerationZ(G),motionTimestamp_sinceReboot(s),motionYaw(rad),motionRoll(rad),motionPitch(rad),motionRotationRateX(rad/s),motionRotationRateY(rad/s),motionRotationRateZ(rad/s),motionUserAccelerationX(G),motionUserAccelerationY(G),motionUserAccelerationZ(G),motionAttitudeReferenceFrame(txt),motionQuaternionX(R),motionQuaternionY(R),motionQuaternionZ(R),motionQuaternionW(R),motionGravityX(G),motionGravityY(G),motionGravityZ(G),motionMagneticFieldX(µT),motionMagneticFieldY(µT),motionMagneticFieldZ(µT),motionHeading(°),motionMagneticFieldCalibrationAccuracy(Z),activityTimestamp_sinceReboot(s),activity(txt),activityActivityConfidence(Z),activityActivityStartDate(txt),pedometerStartDate(txt),pedometerNumberofSteps(N),pedometerAverageActivePace(s/m),pedometerCurrentPace(s/m),pedometerCurrentCadence(steps/s),pedometerDistance(m),pedometerFloorAscended(N),pedometerFloorDescended(N),pedometerEndDate(txt)
237,2022-06-30T09:58:25.768+02:00,5352.878679666667,-2.687960357666016,4.792134704589844,17.793797607421876,5352.868728666667,2.003718666648108,2.076704814783246,0.1707156100247464,3.192888975143433,4.940788269042969,0.9514878988265992,-1.15262246131897,0.8144345283508301,1.146724939346313,XArbitraryZVertical,0.6998912464888397,-0.4989300540524145,-0.4656884079807345,-0.2106072097504292,0.8620190024375916,-0.1698876023292542,0.477557897567749,0,0,0,-1,-1,5351.721965166667,unknown,2,2022-06-30T09:58:24.610+02:00,2022-06-30T08:20:05.567+02:00,1483,1.408551,0,0,1171.106,0,0,2022-06-30T09:57:51.488+02:00
238,2022-06-30T09:58:25.778+02:00,5352.888631666667,-2.4278013610839846,4.479734344482422,18.853144683837886,5352.878679666667,1.972356979028228,2.129507173142835,0.1631560405128482,2.918637752532959,4.629532814025879,0.901817798614502,-1.115349292755127,0.6857184171676636,1.225542545318604,XArbitraryZVertical,0.7051827903396239,-0.5140467466502782,-0.4422098283087635,-0.2071802615352128,0.8366782069206238,-0.1624331325292587,0.5230536460876465,0,0,0,-1,-1,5351.721965166667,unknown,2,2022-06-30T09:58:24.610+02:00,2022-06-30T08:20:05.567+02:00,1483,1.408551,0,0,1171.106,0,0,2022-06-30T09:57:51.488+02:00
239,2022-06-30T09:58:25.788+02:00,5352.898582666667,-2.1013302612304687,4.233795776367188,19.370319213867187,5352.888631666667,1.944422644460659,2.17838882476809,0.1557604864582063,2.52864146232605,4.30884838104248,0.9046706557273864,-1.073505997657776,0.625270426273346,1.312224388122559,XArbitraryZVertical,0.709638831025429,-0.5276393833094328,-0.4203574336858256,-0.2032462413139515,0.8110853433609009,-0.1551314294338226,0.5639811754226685,0,0,0,-1,-1,5351.721965166667,unknown,2,2022-06-30T09:58:24.610+02:00,2022-06-30T08:20:05.567+02:00,1483,1.408551,0,0,1171.106,0,0,2022-06-30T09:57:51.488+02:00
240,2022-06-30T09:58:25.797+02:00,5352.908534666667,-2.1427940368652343,4.058659973144532,19.994221801757813,5352.898582666667,1.920151447522198,2.223320034430109,0.1496067224248522,2.103575229644775,3.992294788360596,0.9318165183067322,-1.015064001083374,0.5912798643112183,1.349570512771606,XArbitraryZVertical,0.7133447764797015,-0.5397637029888173,-0.4004666156349344,-0.198547348113903,0.7856788635253906,-0.1490492522716522,0.6004112362861633,0,0,0,-1,-1,5351.721965166667,unknown,2,2022-06-30T09:58:24.610+02:00,2022-06-30T08:20:05.567+02:00,1483,1.408551,0,0,1171.106,0,0,2022-06-30T09:57:51.488+02:00
241,2022-06-30T09:58:25.808+02:00,5352.918485666667,-1.6468753051757814,3.6326458740234377,21.05790985107422,5352.908534666667,1.89931051574031,2.264636280258161,0.1450431771737977,1.709331154823303,3.704545021057129,0.9232409000396729,-0.9766810536384584,0.5664105415344238,1.368762016296387,XArbitraryZVertical,0.7164455729807672,-0.550540956151893,-0.382531533195942,-0.1930805415493966,0.7607235312461853,-0.1445351541042328,0.6327791810035706,0,0,0,-1,-1,5351.721965166667,unknown,2,2022-06-30T09:58:24.610+02:00,2022-06-30T08:20:05.567+02:00,1483,1.408551,0,0,1171.106,0,0,2022-06-30T09:57:51.488+02:00
242,2022-06-30T09:58:25.817+02:00,5352.928437666667,-0.8370593261718751,2.961441650390625,22.82782928466797,5352.918485666667,1.881845419113025,2.302464646858457,0.1420686981722235,1.320709824562073,3.40323281288147,0.8878805041313171,-0.9399641156196594,0.5406852960586548,1.426586151123047,XArbitraryZVertical,0.7191207507811639,-0.5599604916426068,-0.366541117309776,-0.1869684719870736,0.736564576625824,-0.1415912657976151,0.6613808274269104,0,0,0,-1,-1,5351.721965166667,unknown,2,2022-06-30T09:58:24.610+02:00,2022-06-30T08:20:05.567+02:00,1483,1.408551,0,0,1171.106,0,0,2022-06-30T09:57:51.488+02:00
243,2022-06-30T09:58:25.827+02:00,5352.938388666667,0.11930191040039063,2.387684783935547,24.887995147705077,5352.928437666667,1.867790662001957,2.336690140990521,0.1409826671335212,0.8587419986724854,3.087450742721558,0.8628430366516113,-0.8406717777252197,0.4737074077129364,1.538259506225586,XArbitraryZVertical,0.721467406982552,-0.5680112923626836,-0.3526425275796422,-0.1802533096571564,0.7136120200157166,-0.1405161023139954,0.6863040924072266,0,0,0,-1,-1,5351.721965166667,unknown,2,2022-06-30T09:58:24.610+02:00,2022-06-30T08:20:05.567+02:00,1483,1.408551,0,0,1171.106,0,0,2022-06-30T09:57:51.488+02:00
244,2022-06-30T09:58:25.837+02:00,5352.948340666667,0.9596543884277344,2.0981867980957034,26.69189392089844,5352.938388666667,1.857500652071606,2.367584066007563,0.1432831627568876,0.2765472829341888,2.840792417526245,0.8979454040527344,-0.7290299534797668,0.4190236628055573,1.726845026016235,XArbitraryZVertical,0.7235624844764026,-0.5747612558251547,-0.3411813219895876,-0.1723432450732735,0.6918444633483887,-0.1427934020757675,0.7077863216400146,0,0,0,-1,-1,5351.721965166667,unknown,2,2022-06-30T09:58:24.610+02:00,2022-06-30T08:20:05.567+02:00,1483,1.408551,0,0,1171.106,0,0,2022-06-30T09:57:51.488+02:00
245,2022-06-30T09:58:25.847+02:00,5352.958291666667,1.8724562072753907,2.234403533935547,28.244914398193366,5352.948340666667,1.851051282851466,2.395565859644673,0.1493911067625419,-0.2644243538379669,2.604556083679199,0.8623448014259338,-0.6139459609985352,0.3683341145515442,1.907623171806335,XArbitraryZVertical,0.7255664972920548,-0.5802233324576684,-0.3321343048098838,-0.163036812213427,0.6711665987968445,-0.1488360464572906,0.7262117266654968,0,0,0,-1,-1,5351.721965166667,unknown,2,2022-06-30T09:58:24.610+02:00,2022-06-30T08:20:05.567+02:00,1483,1.408551,0,0,1171.106,0,0,2022-06-30T09:57:51.488+02:00
246,2022-06-30T09:58:25.857+02:00,5352.968243666667,2.7542724609375,2.2872436523437503,29.553642883300782,5352.958291666667,1.84825396477977,2.420826213555693,0.1587870081066401,-0.7511671185493469,2.390420436859131,0.811016857624054,-0.5085765719413757,0.377954363822937,2.058596849441528,XArbitraryZVertical,0.7276230952639201,-0.5843706550305418,-0.3252651791714749,-0.1525723015510379,0.6516584753990173,-0.1581205874681473,0.741848886013031,0,0,0,-1,-1,5351.721965166667,unknown,2,2022-06-30T09:58:24.610+02:00,2022-06-30T08:20:05.567+02:00,1483,1.408551,0,0,1171.106,0,0,2022-06-30T09:57:51.488+02:00
247,2022-06-30T09:58:25.867+02:00,5352.978194666667,3.6542010498046875,1.663191375732422,30.15554122924805,5352.968243666667,1.84840192917327,2.443888018529613,0.1711502642229322,-1.127120614051819,2.26537036895752,0.7850674986839294,-0.3983933925628662,0.4032570123672485,2.196476459503174,XArbitraryZVertical,0.7297178908083086,-0.5874292429364052,-0.3202134137959732,-0.1410747422340326,0.6330737471580505,-0.1703159213066101,0.7551226019859314,0,0,0,-1,-1,5351.721965166667,unknown,2,2022-06-30T09:58:24.610+02:00,2022-06-30T08:20:05.567+02:00,1483,1.408551,0,0,1171.106,0,0,2022-06-30T09:57:51.488+02:00
248,2022-06-30T09:58:25.877+02:00,5352.988146666667,4.069437561035157,0.6878196716308594,30.58215408325195,5352.978194666667,1.850130130171157,2.465739644308183,0.1854139690606176,-1.274401426315308,2.20772123336792,0.7583690285682678,-0.2829774022102356,0.3969545066356659,2.283766269683838,XArbitraryZVertical,0.7317858720237839,-0.5898222230419036,-0.316202860830621,-0.1288994040986867,0.6148410439491272,-0.1843534260988235,0.766801655292511,0,0,0,-1,-1,5351.721965166667,unknown,2,2022-06-30T09:58:24.610+02:00,2022-06-30T08:20:05.567+02:00,1483,1.408551,0,0,1171.106,0,0,2022-06-30T09:57:51.488+02:00
249,2022-06-30T09:58:25.887+02:00,5352.998098666667,4.158053283691406,-0.4117936706542969,31.029873046875,5352.988146666667,1.852408755621389,2.487476157355356,0.2006689643294229,-1.41772997379303,2.271038293838501,0.77299565076828,-0.1973075270652771,0.3210141956806183,2.317187309265137,XArbitraryZVertical,0.7338302835492563,-0.5918815340078892,-0.3125016449880797,-0.116241448453387,0.5962486863136292,-0.1993249207735062,0.7776612639427185,0,0,0,-1,-1,5351.721965166667,unknown,2,2022-06-30T09:58:24.610+02:00,2022-06-30T08:20:05.567+02:00,1483,1.408551,0,0,1171.106,0,0,2022-06-30T09:57:51.488+02:00
250,2022-06-30T09:58:25.897+02:00,5353.008049666667,4.211192779541016,-1.1317964172363282,31.6811686706543,5352.998098666667,1.855558589354664,2.510172662828711,0.2177729689320583,-1.685674071311951,2.434069156646729,0.7594092488288879,-0.1527349352836609,0.2292244583368301,2.35526180267334,XArbitraryZVertical,0.7359997796470739,-0.5936050451980915,-0.3089520334165053,-0.1024016894591453,0.5763495564460754,-0.2160557359457016,0.7881252765655518,0,0,0,-1,-1,5351.721965166667,unknown,2,2022-06-30T09:58:24.610+02:00,2022-06-30T08:20:05.567+02:00,1483,1.408551,0,0,1171.106,0,0,2022-06-30T09:57:51.488+02:00
251,2022-06-30T09:58:25.907+02:00,5353.018001666667,4.543801116943359,-1.227297821044922,32.95681594848632,5353.008049666667,1.860440095416517,2.534313369842672,0.2378229855631545,-2.02362585067749,2.665647745132446,0.7114619016647339,-0.1350026726722717,0.1445539146661758,2.383154630661011,XArbitraryZVertical,0.738473260618428,-0.5947284281492405,-0.3056847209154787,-0.0866729683827465,0.5545737147331238,-0.2355874478816986,0.798089325428009,0,0,0,-1,-1,5351.721965166667,unknown,2,2022-06-30T09:58:24.610+02:00,2022-06-30T08:20:05.567+02:00,1483,1.408551,0,0,1171.106,0,0,2022-06-30T09:57:51.488+02:00
252,2022-06-30T09:58:25.917+02:00,5353.027952666667,4.926405487060547,-1.2805870056152344,33.902848663330076,5353.018001666667,1.867565997606016,2.560639175053286,0.2600032249745839,-2.417121648788452,2.988759994506836,0.5951608419418335,-0.0810340046882629,0.1349526643753052,2.487231254577637,XArbitraryZVertical,0.7416160768933536,-0.5949178741245374,-0.3021712806475099,-0.0690724800383528,0.530375063419342,-0.2570836544036865,0.8078433871269226,0,0,0,-1,-1,5351.721965166667,unknown,2,2022-06-30T09:58:24.610+02:00,2022-06-30T08:20:05.567+02:00,1483,1.408551,0,0,1171.106,0,0,2022-06-30T09:57:51.488+02:00
253,2022-06-30T09:58:25.927+02:00,5353.037904666667,5.51093994140625,-1.4281800842285157,35.08613800048828,5353.027952666667,1.877645199880694,2.589235282308837,0.2843977309529621,-2.739037275314331,3.299670219421387,0.3678794205188751,-0.0288110971450805,0.154618501663208,2.592726230621338,XArbitraryZVertical,0.745622637231779,-0.5937964033666409,-0.2983426466932347,-0.0494420043354745,0.5036190152168274,-0.2805794179439545,0.8170945644378662,0,0,0,-1,-1,5351.721965166667,unknown,2,2022-06-30T09:58:24.610+02:00,2022-06-30T08:20:05.567+02:00,1483,1.408551,0,0,1171.106,0,0,2022-06-30T09:57:51.488+02:00
254,2022-06-30T09:58:25.937+02:00,5353.047855666667,5.917644195556641,-1.4597644042968752,36.02423721313476,5353.037904666667,1.891150280481099,2.619869547372397,0.3102913007878216,-3.072046518325806,3.658263921737671,0.0556280240416526,0.0602002143859863,0.1640705466270447,2.68425178527832,XArbitraryZVertical,0.750666785548896,-0.5909985376756874,-0.2939923776871706,-0.0280830938559222,0.4745747745037079,-0.3053360283374786,0.8255597949028015,0,0,0,-1,-1,5351.721965166667,unknown,2,2022-06-30T09:58:24.610+02:00,2022-06-30T08:20:05.567+02:00,1483,1.408551,0,0,1171.106,0,0,2022-06-30T09:57:51.488+02:00
255,2022-06-30T09:58:25.947+02:00,5353.057807666667,6.104006652832031,-1.5787669372558595,36.3275065612793,5353.047855666667,1.908961051981135,2.652537718492388,0.338128843086674,-3.436646938323975,4.041555881500244,-0.3378017246723175,0.1379860937595367,0.1860319674015045,2.803698062896729,XArbitraryZVertical,0.7569041345943849,-0.586081907099503,-0.2891051226153146,-0.0047272140876081,0.4431907832622528,-0.3317224681377411,0.8327917456626892,0,0,0,-1,-1,5351.721965166667,unknown,2,2022-06-30T09:58:24.610+02:00,2022-06-30T08:20:05.567+02:00,1483,1.408551,0,0,1171.106,0,0,2022-06-30T09:57:51.488+02:00
256,2022-06-30T09:58:25.957+02:00,5353.067758666667,5.807323608398438,-1.6820521545410156,36.9500619506836,5353.057807666667,1.931670941464305,2.686457983423634,0.3670854251164294,-3.691210508346558,4.342267513275146,-0.8332833647727966,0.2078823745250702,0.1999918222427368,2.849062442779541,XArbitraryZVertical,0.7644402265581334,-0.5786293492706259,-0.2835763113389367,0.0200966720274627,0.4102972447872162,-0.3588965535163879,0.8383615612983704,0,0,0,-1,-1,5351.721965166667,unknown,2,2022-06-30T09:58:24.610+02:00,2022-06-30T08:20:05.567+02:00,1483,1.408551,0,0,1171.106,0,0,2022-06-30T09:57:51.488+02:00
257,2022-06-30T09:58:25.967+02:00,5353.077710666667,5.513484649658204,-2.3908282470703126,37.68189010620118,5353.067758666667,1.959925535012702,2.720623114342742,0.3971503622751625,-4.029109001159668,4.648260116577148,-1.395931601524353,0.2350229024887085,0.2262546718120575,2.887409687042236,XArbitraryZVertical,0.773227950161641,-0.568283708326154,-0.2775711402591519,0.0461143190354898,0.3768394887447357,-0.3867920637130737,0.8416556715965271,0,0,0,-1,-1,5351.721965166667,unknown,2,2022-06-30T09:58:24.610+02:00,2022-06-30T08:20:05.567+02:00,1483,1.408551,0,0,1171.106,0,0,2022-06-30T09:57:51.488+02:00
258,2022-06-30T09:58:25.977+02:00,5353.087661666667,4.891977081298829,-2.9202772521972657,39.514080047607436,5353.077710666667,1.995209274215892,2.753935646428562,0.4288152371593118,-4.347877502441406,4.879151821136475,-2.098903179168701,0.2341785430908203,0.2129131555557251,2.959386587142944,XArbitraryZVertical,0.7833380011042849,-0.5544086521539648,-0.2713536004763709,0.0733476694019668,0.3437940180301666,-0.4157935976982117,0.8419747352600098,0,0,0,-1,-1,5351.721965166667,unknown,2,2022-06-30T09:58:24.610+02:00,2022-06-30T08:20:05.567+02:00,1483,1.408551,0,0,1171.106,0,0,2022-06-30T09:57:51.488+02:00
259,2022-06-30T09:58:25.986+02:00,5353.097613666667,3.87274658203125,-3.7009039306640625,42.690474700927744,5353.087661666667,2.0387998851741,2.784425662350595,0.4613633484795507,-4.627553462982178,5.02045726776123,-2.899209022521973,0.2200444042682648,0.1668036878108978,3.078834772109985,XArbitraryZVertical,0.7947654249172742,-0.5364846659884247,-0.2651759542971,0.1010635680887025,0.3130672574043274,-0.4451693296432495,0.8389357328414917,0,0,0,-1,-1,5351.721965166667,unknown,2,2022-06-30T09:58:24.610+02:00,2022-06-30T08:20:05.567+02:00,1483,1.408551,0,0,1171.106,0,0,2022-06-30T09:57:51.488+02:00
260,2022-06-30T09:58:25.996+02:00,5353.107565666667,1.4801220703125,-7.718698883056641,47.70953750610351,5353.097613666667,2.092475075296612,2.810341656316973,0.4952157267730075,-4.978882312774658,5.140518188476562,-3.875149488449097,0.1724320948123932,0.1652853786945343,3.341611862182617,XArbitraryZVertical,0.8074266594074675,-0.5138860713662141,-0.2594163248868986,0.1291761911170858,0.2861556112766266,-0.4752214848995209,0.8320333957672119,0,0,0,-1,-1,5351.721965166667,unknown,2,2022-06-30T09:58:24.610+02:00,2022-06-30T08:20:05.567+02:00,1483,1.408551,0,0,1171.106,0,0,2022-06-30T09:57:51.488+02:00
261,2022-06-30T09:58:26.006+02:00,5353.117516666667,-1.4248869323730469,-12.74389892578125,54.12040603637695,5353.107565666667,2.159707186529346,2.828035160354866,0.5277663434014154,-4.909835815429688,4.979597091674805,-5.260698318481445,0.0193976163864135,-0.0479389429092407,3.743680238723755,XArbitraryZVertical,0.8217197401589388,-0.4854710320675087,-0.2543919806865881,0.1561389970476507,0.2664759159088135,-0.5036048889160156,0.8218109011650085,0,0,0,-1,-1,5351.721965166667,unknown,2,2022-06-30T09:58:24.610+02:00,2022-06-30T08:20:05.567+02:00,1483,1.408551,0,0,1171.106,0,0,2022-06-30T09:57:51.488+02:00
262,2022-06-30T09:58:26.016+02:00,5353.127468666667,-6.849306793212891,-11.686348114013677,56.92362670898438,5353.117516666667,2.243123848098132,2.831702084285202,0.5537171127194401,-4.408685207366943,4.335874557495117,-6.813440799713135,-0.248919278383255,-0.5243637561798096,4.404783725738525,XArbitraryZVertical,0.837777755758706,-0.4507311629876379,-0.2510008456400404,0.1787972599084762,0.2593868672847748,-0.5258525609970093,0.8100603222846985,0,0,0,-1,-1,5351.721965166667,unknown,2,2022-06-30T09:58:24.610+02:00,2022-06-30T08:20:05.567+02:00,1483,1.408551,0,0,1171.106,0,0,2022-06-30T09:57:51.488+02:00
263,2022-06-30T09:58:26.027+02:00,5353.137419666667,-11.142379302978512,-0.9967771911621094,56.833963165283194,5353.127468666667,2.344090794198611,2.814437622759624,0.569336368586376,-3.981328248977661,2.887151002883911,-8.578855514526367,-0.6506345272064209,-0.838200032711029,4.913397789001465,XArbitraryZVertical,0.8548951512857847,-0.4098136753418246,-0.2516183617296131,0.1946671040907942,0.2706601619720459,-0.5390732288360596,0.7975859642028809,0,0,0,-1,-1,5351.721965166667,unknown,2,2022-06-30T09:58:24.610+02:00,2022-06-30T08:20:05.567+02:00,1483,1.408551,0,0,1171.106,0,0,2022-06-30T09:57:51.488+02:00
264,2022-06-30T09:58:26.036+02:00,5353.147371666667,-12.930560760498052,9.175170135498048,52.32444076538087,5353.137419666667,2.467005078216777,2.762941203041806,0.5739244201578225,-4.057516098022461,-0.0342185907065868,-10.54365730285645,-1.271970987319946,-0.1820586919784546,5.071180820465088,XArbitraryZVertical,0.8712656816823987,-0.3619963055982532,-0.2623244435229318,0.2025851049426156,0.3104384541511536,-0.542931854724884,0.780290424823761,0,0,0,-1,-1,5351.721965166667,unknown,2,2022-06-30T09:58:24.610+02:00,2022-06-30T08:20:05.567+02:00,1483,1.408551,0,0,1171.106,0,0,2022-06-30T09:57:51.488+02:00
265,2022-06-30T09:58:26.046+02:00,5353.157322666667,-15.762970733642575,13.958173828125,46.300517578125,5353.147371666667,2.60996396857258,2.668388385486311,0.5672537636918903,-4.76170825958252,-3.479497194290161,-12.02666282653809,-1.654733180999756,1.032511711120605,4.856215476989746,XArbitraryZVertical,0.8832900615937943,-0.3084641672367118,-0.2885966330678232,0.2033728970593978,0.3843625783920288,-0.5373179316520691,0.750702977180481,0,0,0,-1,-1,5351.721965166667,unknown,2,2022-06-30T09:58:24.610+02:00,2022-06-30T08:20:05.567+02:00,1483,1.408551,0,0,1171.106,0,0,2022-06-30T09:57:51.488+02:00
266,2022-06-30T09:58:26.056+02:00,5353.167274666667,-24.807312927246095,17.626146240234377,43.361828613281254,5353.157322666667,2.770185350102332,2.528482840229729,0.5456154358574107,-5.579489231109619,-7.661369323730469,-13.67476940155029,-1.830140471458435,1.728371500968933,4.312756061553955,XArbitraryZVertical,0.8873227306996114,-0.2494316185211737,-0.3330479684844269,0.198799641007538,0.4918682277202606,-0.518944263458252,0.699115514755249,0,0,0,-1,-1,5351.721965166667,unknown,2,2022-06-30T09:58:24.610+02:00,2022-06-30T08:20:05.567+02:00,1483,1.408551,0,0,1171.106,0,0,2022-06-30T09:57:51.488+02:00
267,2022-06-30T09:58:26.066+02:00,5353.177225666667,-28.537106781005864,17.305363311767575,38.606667022705075,5353.167274666667,2.94490651554933,2.344396286832088,0.501424407395219,-7.577488422393799,-11.45818138122559,-15.059157371521,-2.707610130310059,2.091087818145752,3.917678117752075,XArbitraryZVertical,0.8790247327884559,-0.1834852047271961,-0.396625149390481,0.1906234153252185,0.6273334622383118,-0.4806751012802124,0.6127026081085205,0,0,0,-1,-1,5351.721965166667,unknown,2,2022-06-30T09:58:24.610+02:00,2022-06-30T08:20:05.567+02:00,1483,1.408551,0,0,1171.106,0,0,2022-06-30T09:57:51.488+02:00
268,2022-06-30T09:58:26.076+02:00,5353.187177666667,-36.986735687255866,8.735384674072266,30.260772399902347,5353.177225666667,3.129092601991791,2.132988750632292,0.4380584168078355,-10.43022632598877,-14.29121589660645,-15.30371475219727,-3.548074007034302,2.307788372039795,3.763657808303833,XArbitraryZVertical,0.8539221131561769,-0.1103290989449051,-0.472832031136768,0.1872815704634328,0.7661982178688049,-0.4241820275783539,0.4827109575271606,0,0,0,-1,-1,5351.721965166667,unknown,2,2022-06-30T09:58:24.610+02:00,2022-06-30T08:20:05.567+02:00,1483,1.408551,0,0,1171.106,0,0,2022-06-30T09:57:51.488+02:00
269,2022-06-30T09:58:26.086+02:00,5353.197128666667,-58.206608734130874,8.863817596435549,40.86561950683594,5353.187177666667,-2.974035796891896,1.903492822845593,0.3428525853109599,-10.73776245117188,-17.92203712463379,-16.8318042755127,-4.059360980987549,1.756448030471802,3.181047677993774,XArbitraryZVertical,0.8079611245928127,-0.0314854895244352,-0.5581252553773247,0.1862894864905671,0.8901562094688416,-0.3361750245094299,0.3075850307941437,0,0,0,-1,-1,5351.721965166667,unknown,2,2022-06-30T09:58:24.610+02:00,2022-06-30T08:20:05.567+02:00,1483,1.408551,0,0,1171.106,0,0,2022-06-30T09:57:51.488+02:00
270,2022-06-30T09:58:26.096+02:00,5353.207080666667,-98.66896682739257,43.68605438232422,73.02878585815431,5353.197128666667,-2.851644707431591,1.666157366766615,0.180539825269752,-5.10481595993042,-23.370361328125,-20.03860282897949,-5.687590599060059,0.6435500383377075,3.06848669052124,XArbitraryZVertical,0.738020798423654,0.0464737630107793,-0.6531978437682406,0.162782522589701,0.9792774319648744,-0.1795606464147568,0.093669019639492,0,0,0,-1,-1,5351.721965166667,unknown,2,2022-06-30T09:58:24.610+02:00,2022-06-30T08:20:05.567+02:00,1483,1.408551,0,0,1171.106,0,0,2022-06-30T09:57:51.488+02:00
271,2022-06-30T09:58:26.106+02:00,5353.217031666667,-142.0520512390137,84.04063659667969,42.44004547119141,5353.207080666667,-2.849476919831705,1.407693972314528,-0.0135746494408216,4.199708461761475,-27.39705657958984,-18.48024368286133,-8.657398223876953,2.419989109039307,6.240841865539551,XArbitraryZVertical,0.6394968525301379,0.0993034663656903,-0.7548628782724454,0.1066047219818003,0.98663729429245,0.0135742323473095,-0.162365198135376,0,0,0,-1,-1,5351.721965166667,unknown,2,2022-06-30T09:58:24.610+02:00,2022-06-30T08:20:05.567+02:00,1483,1.408551,0,0,1171.106,0,0,2022-06-30T09:57:51.488+02:00
272,2022-06-30T09:58:26.116+02:00,5353.226983666667,-164.83677017211912,78.40201217651368,1.6006214904785157,5353.217031666667,-3.005653848297416,1.12435210549707,-0.1225819006168005,18.84321022033691,-27.49860382080078,-12.63308048248291,-13.70463752746582,6.390908718109131,7.297387599945068,XArbitraryZVertical,0.5272794054898156,0.0878397471370514,-0.8447760703477173,0.02478258574523,0.8952198624610901,0.12227513641119,-0.4285212159156799,0,0,0,-1,-1,5351.721965166667,unknown,2,2022-06-30T09:58:24.610+02:00,2022-06-30T08:20:05.567+02:00,1483,1.408551,0,0,1171.106,0,0,2022-06-30T09:57:51.488+02:00
273,2022-06-30T09:58:26.126+02:00,5353.236935666667,-185.27691467285158,77.93183990478516,-12.655283203125,5353.226983666667,3.0219301534693,0.8140270999837942,-0.0633589201543994,28.68440437316895,-28.39231872558594,-5.833121776580811,-16.2427806854248,8.789268493652344,2.441882133483887,XArbitraryZVertical,0.396701244540964,0.0053752540596299,-0.9154542876317978,-0.0673995100889566,0.7255991101264954,0.0633165389299392,-0.6851984858512878,0,0,0,-1,-1,5351.721965166667,unknown,2,2022-06-30T09:58:24.610+02:00,2022-06-30T08:20:05.567+02:00,1483,1.408551,0,0,1171.106,0,0,2022-06-30T09:57:51.488+02:00
274,2022-06-30T09:58:26.136+02:00,5353.246886666667,-155.34695434570312,-21.075872497558596,0.85981201171875,5353.236935666667,2.826534371109778,0.5886361442610422,0.1276059437683734,25.75018119812012,-16.00254440307617,-0.934700608253479,-18.45899200439453,8.57066535949707,0.6978462338447571,XArbitraryZVertical,0.2763400703817544,-0.1056783504731499,-0.9461290498487974,-0.1315603562082549,0.5507128834724426,-0.1272599250078201,-0.8249365091323853,0,0,0,-1,-1,5351.721965166667,unknown,2,2022-06-30T09:58:24.610+02:00,2022-06-30T08:20:05.567+02:00,1483,1.408551,0,0,1171.106,0,0,2022-06-30T09:57:51.488+02:00
275,2022-06-30T09:58:26.146+02:00,5353.256838666667,-108.57012725830073,-105.14420150756838,23.835234375000002,5353.246886666667,2.707315051061252,0.5345957234151982,0.3190005171837473,18.74859428405762,-0.9031663537025452,1.62444543838501,-18.95377540588379,4.542927265167236,-0.7249747514724731,XArbitraryZVertical,0.2216485091157966,-0.205767705689676,-0.9389224430403478,-0.1641837677495634,0.4837889671325684,-0.3136176466941833,-0.8170631527900696,0,0,0,-1,-1,5351.721965166667,unknown,2,2022-06-30T09:58:24.610+02:00,2022-06-30T08:20:05.567+02:00,1483,1.408551,0,0,1171.106,0,0,2022-06-30T09:57:51.488+02:00
276,2022-06-30T09:58:26.156+02:00,5353.266789666667,18.85134841918945,-125.59482421875,-15.224241027832033,5353.256838666667,2.654865818444246,0.614707408626824,0.4246353956329355,3.530335664749146,12.07195091247559,1.07337749004364,-14.0792875289917,-6.939100742340088,2.557270288467407,XArbitraryZVertical,0.2386305435011471,-0.2661974008558846,-0.9196419298863856,-0.1626447229361944,0.5255005359649658,-0.4119885861873627,-0.7443888187408447,0,0,0,-1,-1,5351.721965166667,unknown,2,2022-06-30T09:58:24.610+02:00,2022-06-30T08:20:05.567+02:00,1483,1.408551,0,0,1171.106,0,0,2022-06-30T09:57:51.488+02:00
277,2022-06-30T09:58:26.166+02:00,5353.276741666667,79.8647703552246,-64.26196655273438,5.445825347900391,5353.266789666667,2.677385669054527,0.7017156291920883,0.4231776516237908,-5.797671794891357,1.965076565742493,3.440618991851807,-6.488076210021973,-12.18702697753906,2.315414667129517,XArbitraryZVertical,0.2816620372785199,-0.269227931077474,-0.9101190485537692,-0.140947409281792,0.5885859131813049,-0.4106598794460297,-0.6963656544685364,0,0,0,-1,-1,5351.721965166667,unknown,2,2022-06-30T09:58:24.610+02:00,2022-06-30T08:20:05.567+02:00,1483,1.408551,0,0,1171.106,0,0,2022-06-30T09:57:51.488+02:00
278,2022-06-30T09:58:26.176+02:00,5353.286692666667,-17.781074066162116,0.29608428955078125,11.359128570556637,5353.276741666667,2.760638679524862,0.6577777578645755,0.3737816752748714,-11.14119529724121,-4.292959213256836,0.416307657957077,8.210683822631836,-10.61487197875977,-1.919354438781738,XArbitraryZVertical,0.2783349821633412,-0.2327519236875726,-0.9244654227152134,-0.1171315467436465,0.5691473484039307,-0.3651385903358459,-0.7367123365402222,0,0,0,-1,-1,5351.721965166667,unknown,2,2022-06-30T09:58:24.610+02:00,2022-06-30T08:20:05.567+02:00,1483,1.408551,0,0,1171.106,0,0,2022-06-30T09:57:51.488+02:00
279,2022-06-30T09:58:26.185+02:00,5353.296644666667,-16.361126861572263,22.571861572265625,-35.44419342041016,5353.286692666667,2.83449500811271,0.603150340608155,0.2797691212761174,-11.57234477996826,-1.88748025894165,2.463979244232178,1.561916708946228,-1.968586444854736,3.079374313354492,XArbitraryZVertical,0.2703001336002723,-0.1765549740078792,-0.9407521324331958,-0.1036906306431117,0.5451850295066833,-0.2761337459087372,-0.7915323376655579,0,0,0,-1,-1,5351.721965166667,unknown,2,2022-06-30T09:58:24.610+02:00,2022-06-30T08:20:05.567+02:00,1483,1.408551,0,0,1171.106,0,0,2022-06-30T09:57:51.488+02:00
280,2022-06-30T09:58:26.195+02:00,5353.306595666667,-1.1834390258789063,16.728762359619136,-62.6103012084961,5353.296644666667,2.93593981734408,0.5619212962478565,0.2148836545814492,-9.317621231079102,-2.227843999862671,5.277811527252197,-2.819615602493286,1.659309506416321,-0.2969474792480469,XArbitraryZVertical,0.2636481368622579,-0.1307835275135068,-0.9532557853994494,-0.068474878629017,0.5205590128898621,-0.2132337540388107,-0.8267706632614136,0,0,0,-1,-1,5351.721965166667,unknown,2,2022-06-30T09:58:24.610+02:00,2022-06-30T08:20:05.567+02:00,1483,1.408551,0,0,1171.106,0,0,2022-06-30T09:57:51.488+02:00
281,2022-06-30T09:58:26.205+02:00,5353.316547666667,-7.261100463867188,-7.366930389404297,-38.69573181152344,5353.306595666667,2.996282808011154,0.5197061444047499,0.1873420687343242,-1.445724248886108,-3.695732593536377,2.021083116531372,-1.267415165901184,2.467620372772217,-4.737004280090332,XArbitraryZVertical,0.2485754851930047,-0.1087251478184953,-0.9613970777450372,-0.0458773068029335,0.4879355132579803,-0.1862481385469437,-0.8527781367301941,0,0,0,-1,-1,5351.721965166667,unknown,2,2022-06-30T09:58:24.610+02:00,2022-06-30T08:20:05.567+02:00,1483,1.408551,0,0,1171.106,0,0,2022-06-30T09:57:51.488+02:00
282,2022-06-30T09:58:26.216+02:00,5353.326498666667,-11.512709197998053,-20.999231872558596,-19.794387359619137,5353.316547666667,2.996976916680578,0.4858062767531834,0.1904337290974747,1.171087980270386,-2.895853757858276,-1.147587656974792,-0.6107171773910522,0.8485715985298157,-4.688343048095703,XArbitraryZVertical,0.2321395021796717,-0.1093386699336394,-0.9653742070058308,-0.0469990293552559,0.4584805965423584,-0.1892848014831543,-0.8683125972747803,0,0,0,-1,-1,5351.721965166667,unknown,2,2022-06-30T09:58:24.610+02:00,2022-06-30T08:20:05.567+02:00,1483,1.408551,0,0,1171.106,0,0,2022-06-30T09:57:51.488+02:00
283,2022-06-30T09:58:26.226+02:00,5353.3364515,-8.04292465209961,-14.145584106445312,-13.704152069091801,5353.326498666667,2.994434460566835,0.4607714526099521,0.1958767897771267,-0.0760662481188774,-2.174536943435669,1.652163743972778,-1.522607803344727,-1.603773951530457,-1.861408710479736,XArbitraryZVertical,0.219645599289641,-0.1116471793455958,-0.9679326606693878,-0.0489590272927092,0.4361365735530853,-0.1946266293525696,-0.8785814642906189,0,0,0,-1,-1,5351.721965166667,unknown,2,2022-06-30T09:58:24.610+02:00,2022-06-30T08:20:05.567+02:00,1483,1.408551,0,0,1171.106,0,0,2022-06-30T09:57:51.488+02:00
284,2022-06-30T09:58:26.235+02:00,5353.346403500001,5.665119323730469,-0.640518035888672,-18.64058670043945,5353.3364515,3.020858102807604,0.4408761533893284,0.204048665557848,-0.5413447618484497,-0.8426094651222229,3.349409341812134,-1.587815880775452,-1.796723246574402,-0.6809731721878052,XArbitraryZVertical,0.2111280438416294,-0.112324988734317,-0.9703029810429072,-0.0363355077280408,0.4178791046142578,-0.2026356607675552,-0.8856160640716553,0,0,0,-1,-1,5351.721965166667,unknown,2,2022-06-30T09:58:24.610+02:00,2022-06-30T08:20:05.567+02:00,1483,1.408551,0,0,1171.106,0,0,2022-06-30T09:57:51.488+02:00
285,2022-06-30T09:58:26.245+02:00,5353.356354500001,4.298760681152344,0.4052073669433594,-23.536305999755864,5353.346403500001,3.050210673529556,0.4270906348574391,0.2179393478755118,0.8694843053817749,-0.8468112349510193,2.933035612106323,-0.4761420488357544,-0.4415574669837952,-0.6750607490539551,XArbitraryZVertical,0.2055945967641978,-0.115795264271467,-0.9715280572983248,-0.0213491025615614,0.404426097869873,-0.2162181735038757,-0.8886446356773376,0,0,0,-1,-1,5351.721965166667,unknown,2,2022-06-30T09:58:24.610+02:00,2022-06-30T08:20:05.567+02:00,1483,1.408551,0,0,1171.106,0,0,2022-06-30T09:57:51.488+02:00
286,2022-06-30T09:58:26.255+02:00,5353.3663065,-1.7190252685546876,-6.417155456542969,-23.55935806274414,5353.356354500001,3.067785182729898,0.4129677850126508,0.2449681087319274,2.553206205368042,-1.095046639442444,2.50947642326355,0.3405263125896454,0.3855462670326233,-1.319998979568481,XArbitraryZVertical,0.1989331849355431,-0.1270088811686283,-0.9716880283109236,-0.0108092395120054,0.3893477320671082,-0.2425253838300705,-0.8885886669158936,0,0,0,-1,-1,5351.721965166667,unknown,2,2022-06-30T09:58:24.610+02:00,2022-06-30T08:20:05.567+02:00,1483,1.408551,0,0,1171.106,0,0,2022-06-30T09:57:51.488+02:00
287,2022-06-30T09:58:26.265+02:00,5353.3762575,-1.7287550354003907,-11.272758178710937,-19.522402954101562,5353.3663065,3.080025423312463,0.3997859429751549,0.2818217665328158,3.184094190597534,-0.8723390102386475,2.670397996902466,-0.31196129322052,0.0202022194862365,-1.576482772827148,XArbitraryZVertical,0.1922665482303315,-0.1436342267613084,-0.9707723796418226,-0.0019927350568899,0.3738665580749512,-0.2781060039997101,-0.8848055601119995,0,0,0,-1,-1,5351.721965166667,unknown,2,2022-06-30T09:58:24.610+02:00,2022-06-30T08:20:05.567+02:00,1483,1.408551,0,0,1171.106,0,0,2022-06-30T09:57:51.488+02:00
288,2022-06-30T09:58:26.276+02:00,5353.3862095,-2.5129742431640625,-13.17590057373047,-16.160394287109376,5353.3762575,3.095655483744325,0.3882422257558013,0.3214646730508477,2.91395902633667,-0.4951858818531036,3.127962350845337,-0.5843127965927124,-0.6725381016731262,-1.336208581924438,XArbitraryZVertical,0.1867609580938882,-0.1613669951435428,-0.969023698574402,0.0086197279918462,0.3591697216033936,-0.3159565329551697,-0.8781620860099792,0,0,0,-1,-1,5351.721965166667,unknown,2,2022-06-30T09:58:24.610+02:00,2022-06-30T08:20:05.567+02:00,1483,1.408551,0,0,1171.106,0,0,2022-06-30T09:57:51.488+02:00
289,2022-06-30T09:58:26.285+02:00,5353.3961605,-2.290686492919922,-18.988014221191406,-13.068723449707031,5353.3862095,3.116462535043682,0.3787417800743113,0.3553255869714147,1.851626753807068,0.0037729770410805,2.992334127426147,-0.5146534442901611,-0.8576400279998779,-0.9355496764183044,XArbitraryZVertical,0.1830825597667255,-0.1758844860038276,-0.9670053767571124,0.0211192835341253,0.3466545343399048,-0.347895622253418,-0.871090829372406,0,0,0,-1,-1,5351.721965166667,unknown,2,2022-06-30T09:58:24.610+02:00,2022-06-30T08:20:05.567+02:00,1483,1.408551,0,0,1171.106,0,0,2022-06-30T09:57:51.488+02:00
290,2022-06-30T09:58:26.295+02:00,5353.406112500001,2.2986199951171877,-22.478605499267577,-12.159813537597657,5353.3961605,3.14026142458384,0.372096756129392,0.3758613911243868,0.3103371560573578,0.3077429831027985,2.691910743713379,-0.6650475263595581,-1.2487553358078,-0.622981071472168,XArbitraryZVertical,0.1815977642404811,-0.1837232439789874,-0.965462490321436,0.0339159538533946,0.3381893634796143,-0.3670739233493805,-0.866536021232605,0,0,0,-1,-1,5351.721965166667,unknown,2,2022-06-30T09:58:24.610+02:00,2022-06-30T08:20:05.567+02:00,1483,1.408551,0,0,1171.106,0,0,2022-06-30T09:57:51.488+02:00
291,2022-06-30T09:58:26.305+02:00,5353.416063500001,4.784201202392579,-21.025577087402343,-11.819870452880865,5353.406112500001,-3.115893793131737,0.3641672265790155,0.3799308079495437,-1.3165602684021,0.0624793507158756,2.239115476608276,-0.3337020874023438,-1.805138468742371,-0.3796185255050659,XArbitraryZVertical,0.1801930804333148,-0.1834031767750521,-0.9652577156986168,0.0465987632347407,0.3307727873325348,-0.3708562254905701,-0.8677874803543091,0,0,0,-1,-1,5351.721965166667,unknown,2,2022-06-30T09:58:24.610+02:00,2022-06-30T08:20:05.567+02:00,1483,1.408551,0,0,1171.106,0,0,2022-06-30T09:57:51.488+02:00
292,2022-06-30T09:58:26.315+02:00,5353.4260155,4.17017807006836,-15.079492034912114,-10.697354736328126,5353.416063500001,-3.089986610773341,0.3529543809164624,0.3683224386516948,-2.508953332901001,-0.409078061580658,1.4747074842453,0.0786198377609252,-1.92835521697998,-0.3623397946357727,XArbitraryZVertical,0.1771875872727167,-0.1757648380898136,-0.9666694974649336,0.0571086057533331,0.3224883079528809,-0.3600508868694305,-0.8754225373268127,0,0,0,-1,-1,5351.721965166667,unknown,2,2022-06-30T09:58:24.610+02:00,2022-06-30T08:20:05.567+02:00,1483,1.408551,0,0,1171.106,0,0,2022-06-30T09:57:51.488+02:00
293,2022-06-30T09:58:26.325+02:00,5353.4359665,2.991080017089844,-8.710536346435548,-9.535620574951173,5353.4260155,-3.068980408743597,0.3395032103815819,0.3457279740370194,-3.004684209823608,-0.7979796528816223,0.709407389163971,0.1769058704376221,-1.53157103061676,-0.2624551057815552,XArbitraryZVertical,0.1724637382897486,-0.1633796348891199,-0.9692426372111764,0.0642820627612967,0.3133136630058289,-0.3388816714286804,-0.8871266841888428,0,0,0,-1,-1,5351.721965166667,unknown,2,2022-06-30T09:58:24.610+02:00,2022-06-30T08:20:05.567+02:00,1483,1.408551,0,0,1171.106,0,0,2022-06-30T09:57:51.488+02:00
294,2022-06-30T09:58:26.335+02:00,5353.445918500001,3.1105316162109378,-3.2539334106445312,-8.724457397460938,5353.4359665,-3.054319209993632,0.3254490315095886,0.3198067026824549,-2.736294507980347,-1.038739323616028,0.2949514091014862,0.040227860212326,-0.8897182941436768,-0.13015216588974,XArbitraryZVertical,0.1666422809627038,-0.1499927388452716,-0.9721482284883336,0.0682681467151814,0.3035225570201874,-0.3143830597400665,-0.8994650840759277,0,0,0,-1,-1,5351.721965166667,unknown,2,2022-06-30T09:58:24.610+02:00,2022-06-30T08:20:05.567+02:00,1483,1.408551,0,0,1171.106,0,0,2022-06-30T09:57:51.488+02:00
295,2022-06-30T09:58:26.345+02:00,5353.4558705,1.8308427429199219,0.8375083923339844,-7.768545227050781,5353.445918500001,-3.044322932759465,0.3111599967090494,0.2989023649026385,-1.799068570137024,-1.234057426452637,0.2206457406282425,0.018539160490036,-0.3022691309452057,-0.0177215933799743,XArbitraryZVertical,0.1601958775428345,-0.1394739402508397,-0.9746327191910168,0.0705376662951637,0.2925879657268524,-0.29447141289711,-0.9097685813903807,0,0,0,-1,-1,5351.721965166667,unknown,2,2022-06-30T09:58:24.610+02:00,2022-06-30T08:20:05.567+02:00,1483,1.408551,0,0,1171.106,0,0,2022-06-30T09:57:51.488+02:00
296,2022-06-30T09:58:26.355+02:00,5353.4658215,0.062120819091796876,2.302811279296875,-7.470664672851563,5353.4558705,-3.038074924748577,0.296445374247602,0.2878342550319849,-0.6634007692337036,-1.321913719177246,0.2715736627578735,0.0008556544780731,0.1862812042236328,0.0785964131355285,XArbitraryZVertical,0.1532966755190662,-0.1340968907757797,-0.9764037598325944,0.0717916011819929,0.2801048457622528,-0.2838762402534485,-0.9170362949371338,0,0,0,-1,-1,5351.721965166667,unknown,2,2022-06-30T09:58:24.610+02:00,2022-06-30T08:20:05.567+02:00,1483,1.408551,0,0,1171.106,0,0,2022-06-30T09:57:51.488+02:00
