,loggingTime(txt),accelerometerTimestamp_sinceReboot(s),accelerometerAccelerationX(G),accelerometerAccelerationY(G),accelerometerAccelerationZ(G),motionTimestamp_sinceReboot(s),motionYaw(rad),motionRoll(rad),motionPitch(rad),motionRotationRateX(rad/s),motionRotationRateY(rad/s),motionRotationRateZ(rad/s),motionUserAccelerationX(G),motionUserAccelerationY(G),motionUserAccelerationZ(G),motionAttitudeReferenceFrame(txt),motionQuaternionX(R),motionQuaternionY(R),motionQuaternionZ(R),motionQuaternionW(R),motionGravityX(G),motionGravityY(G),motionGravityZ(G),motionMagneticFieldX(µT),motionMagneticFieldY(µT),motionMagneticFieldZ(µT),motionHeading(°),motionMagneticFieldCalibrationAccuracy(Z),activityTimestamp_sinceReboot(s),activity(txt),activityActivityConfidence(Z),activityActivityStartDate(txt),pedometerStartDate(txt),pedometerNumberofSteps(N),pedometerAverageActivePace(s/m),pedometerCurrentPace(s/m),pedometerCurrentCadence(steps/s),pedometerDistance(m),pedometerFloorAscended(N),pedometerFloorDescended(N),pedometerEndDate(txt)
173,2022-06-30T09:41:09.944+02:00,4369.659101375,0.310155029296875,14.765445098876949,12.474758605957032,4369.649149375,-0.0513425305424381,1.215175029175373,-0.5734771231730658,2.080459833145142,5.222104549407959,0.698227047920227,-0.8139795660972595,0.8742983937263489,1.578573942184448,XArbitraryZVertical,-0.2180754914837157,0.5533598128535842,-0.1816226362681493,0.7831023002500981,0.7874597907066345,0.5425561666488647,-0.2924720048904419,0,0,0,-1,-1,4364.627862125,running,2,2022-06-30T09:41:04.912+02:00,2022-06-30T08:20:05.567+02:00,1233,1.427957,0,0,959.237,0,0,2022-06-30T09:40:39.431+02:00
174,2022-06-30T09:41:09.954+02:00,4369.669053375001,-0.12214599609375,13.79695907592774,13.2110774230957,4369.659101375,-0.0693142681160897,1.25826544211977,-0.5596358439866672,1.716930866241455,5.383275508880615,0.9283896684646606,-0.7737735509872437,0.92012619972229,1.488681793212891,XArbitraryZVertical,-0.2035718548878641,0.5729545141777387,-0.1893455022401701,0.7709928991446386,0.8063969016075134,0.5308776497840881,-0.2605632543563843,0,0,0,-1,-1,4364.627862125,running,2,2022-06-30T09:41:04.912+02:00,2022-06-30T08:20:05.567+02:00,1233,1.427957,0,0,959.237,0,0,2022-06-30T09:40:39.431+02:00
175,2022-06-30T09:41:09.964+02:00,4369.679005375,-0.05403762817382813,13.561199340820313,13.996344451904301,4369.669053375001,-0.084341520166674,1.304904929511277,-0.545230805368063,1.560374975204468,5.581284523010254,1.09755551815033,-0.7933452725410461,0.9865265488624572,1.496306538581848,XArbitraryZVertical,-0.1891054342939005,0.593215122401629,-0.1955886956541292,0.7576807659383664,0.8249616026878357,0.5186154246330261,-0.2246699035167694,0,0,0,-1,-1,4364.627862125,running,2,2022-06-30T09:41:04.912+02:00,2022-06-30T08:20:05.567+02:00,1233,1.427957,0,0,959.237,0,0,2022-06-30T09:40:39.431+02:00
176,2022-06-30T09:41:09.974+02:00,4369.688957375,0.1872605895996094,12.710817718505865,14.228062591552739,4369.679005375,-0.0971538332073775,1.354815184025686,-0.5304559613126997,1.329798817634583,5.775439262390137,1.248060822486877,-0.8549870252609253,0.900490939617157,1.53154981136322,XArbitraryZVertical,-0.1746396403355462,0.6140630153547039,-0.2006155271764206,0.7430888648670727,0.8425359129905701,0.5059266686439514,-0.1848552227020264,0,0,0,-1,-1,4364.627862125,running,2,2022-06-30T09:41:04.912+02:00,2022-06-30T08:20:05.567+02:00,1233,1.427957,0,0,959.237,0,0,2022-06-30T09:40:39.431+02:00
177,2022-06-30T09:41:09.986+02:00,4369.698909375,1.1964619445800782,12.274026031494136,14.823075256347657,4369.688957375,-0.1085533763968437,1.407799690771127,-0.5151484033445877,1.257462859153748,6.017299652099609,1.372523665428162,-0.8641936182975769,0.8897210359573364,1.567957878112793,XArbitraryZVertical,-0.1599529265372306,0.6354582952325565,-0.2046127160654501,0.7271461283356325,0.8586852550506592,0.4926640093326569,-0.1412156373262405,0,0,0,-1,-1,4364.627862125,running,2,2022-06-30T09:41:04.912+02:00,2022-06-30T08:20:05.567+02:00,1233,1.427957,0,0,959.237,0,0,2022-06-30T09:40:39.431+02:00
178,2022-06-30T09:41:09.996+02:00,4369.708861375,1.6828005981445313,12.59076736450195,16.02208190917969,4369.698909375,-0.1207493324456027,1.463141609549104,-0.4995742534975256,1.234935641288757,6.30398416519165,1.445911288261414,-0.8536161184310913,0.816648006439209,1.544678211212158,XArbitraryZVertical,-0.1445538849637428,0.6572263306036122,-0.2083425212774166,0.709754310562186,0.8727049827575684,0.4790518581867218,-0.0943154469132423,0,0,0,-1,-1,4364.627862125,running,2,2022-06-30T09:41:04.912+02:00,2022-06-30T08:20:05.567+02:00,1233,1.427957,0,0,959.237,0,0,2022-06-30T09:40:39.431+02:00
179,2022-06-30T09:41:10.004+02:00,4369.718813375001,1.3482463073730468,12.281809844970699,18.437608795166014,4369.708861375,-0.1314533499039649,1.522589249336926,-0.4841547565284052,0.8150126338005066,6.665449619293213,1.489361643791199,-0.7620768547058105,0.7857142686843872,1.553666591644287,XArbitraryZVertical,-0.1291805967273535,0.6796965115450309,-0.2111776919660166,0.6904556516331894,0.8840404748916626,0.4654604196548462,-0.0426500514149665,0,0,0,-1,-1,4364.627862125,running,2,2022-06-30T09:41:04.912+02:00,2022-06-30T08:20:05.567+02:00,1233,1.427957,0,0,959.237,0,0,2022-06-30T09:40:39.431+02:00
180,2022-06-30T09:41:10.014+02:00,4369.728765375,0.3833528137207031,12.728181610107427,21.23574005126953,4369.718813375001,-0.1347847290791414,1.589649773004364,-0.4691933115526457,-0.2347279340028763,7.139497756958008,1.469353556632996,-0.7202354073524475,0.8312954306602478,1.616424441337585,XArbitraryZVertical,-0.1156934529024701,0.7035783804079332,-0.2114075148522516,0.6685054450778308,0.8917750120162964,0.4521669149398804,0.0168150253593921,0,0,0,-1,-1,4369.723587375001,unknown,2,2022-06-30T09:41:10.008+02:00,2022-06-30T08:20:05.567+02:00,1233,1.427957,0,0,959.237,0,0,2022-06-30T09:40:39.431+02:00
181,2022-06-30T09:41:10.024+02:00,4369.738716375,-1.2835807800292969,15.100448455810552,24.23849578857422,4369.728765375,-0.1256903099043349,1.667305608310218,-0.4546002338385031,-1.5581955909729,7.655760765075684,1.357581257820129,-0.7568197846412659,0.8128649592399597,1.792897582054138,XArbitraryZVertical,-0.1058710144800069,0.7294366320516336,-0.2076456705132537,0.6431149634605751,0.8942559361457825,0.4391031861305237,0.0865729451179504,0,0,0,-1,-1,4369.723587375001,unknown,2,2022-06-30T09:41:10.008+02:00,2022-06-30T08:20:05.567+02:00,1233,1.427957,0,0,959.237,0,0,2022-06-30T09:40:39.431+02:00
182,2022-06-30T09:41:10.034+02:00,4369.748668375,-3.310815124511719,16.482823791503908,28.055109100341802,4369.738716375,-0.1035882921847505,1.755633935795026,-0.4385685239079211,-2.8248450756073,8.168241500854492,1.24549925327301,-0.8508607149124146,0.8728259801864624,1.998309731483459,XArbitraryZVertical,-0.0999034738804409,0.7571102934822941,-0.1994132551406644,0.6140339155327185,0.8899386525154114,0.4246439039707184,0.1663933992385864,0,0,0,-1,-1,4369.723587375001,unknown,2,2022-06-30T09:41:10.008+02:00,2022-06-30T08:20:05.567+02:00,1233,1.427957,0,0,959.237,0,0,2022-06-30T09:40:39.431+02:00
183,2022-06-30T09:41:10.044+02:00,4369.758620375001,-5.723647613525391,16.60961013793945,32.28890487670899,4369.748668375,-0.0709668969902969,1.852952555784864,-0.419270992971135,-3.82117486000061,8.658455848693848,1.155231118202209,-1.008112192153931,1.132196545600891,2.216482877731323,XArbitraryZVertical,-0.0971772595212804,0.7859468108395288,-0.1871179614862473,0.5812325172851266,0.8772684931755066,0.4070946872234344,0.2543116211891174,0,0,0,-1,-1,4369.723587375001,unknown,2,2022-06-30T09:41:10.008+02:00,2022-06-30T08:20:05.567+02:00,1233,1.427957,0,0,959.237,0,0,2022-06-30T09:40:39.431+02:00
184,2022-06-30T09:41:10.054+02:00,4369.768572375,-8.190517730712891,16.646583251953125,36.71295501708985,4369.758620375001,-0.0314714438731419,1.957110047361333,-0.3946965467302349,-4.708740234375,9.120206832885742,1.107731819152832,-1.192577600479126,1.295678019523621,2.512040615081787,XArbitraryZVertical,-0.0966350592007228,0.8152087681201001,-0.1712704571707497,0.5447594735779651,0.8550839424133301,0.3845280706882477,0.3478073477745056,0,0,0,-1,-1,4369.723587375001,unknown,2,2022-06-30T09:41:10.008+02:00,2022-06-30T08:20:05.567+02:00,1233,1.427957,0,0,959.237,0,0,2022-06-30T09:40:39.431+02:00
185,2022-06-30T09:41:10.063+02:00,4369.778524375,-10.486593017578125,16.321609039306637,41.435035400390625,4369.768572375,0.0132345651994781,2.066285437890254,-0.3626605205078065,-5.592959403991699,9.477675437927246,1.1344975233078,-1.405965089797974,1.338367342948914,2.846891164779663,XArbitraryZVertical,-0.0979435817033576,0.8442009030662672,-0.1515580837284281,0.5047396278897589,0.8225150108337402,0.3547629415988922,0.4445362091064453,0,0,0,-1,-1,4369.723587375001,unknown,2,2022-06-30T09:41:10.008+02:00,2022-06-30T08:20:05.567+02:00,1233,1.427957,0,0,959.237,0,0,2022-06-30T09:40:39.431+02:00
186,2022-06-30T09:41:10.073+02:00,4369.788476375,-12.738210754394531,15.70578964233399,47.48650131225587,4369.778524375,0.0609831721341224,2.177895046072068,-0.3217312748612286,-6.3897705078125,9.71495532989502,1.129396438598633,-1.614079713821411,1.380689740180969,3.201185941696167,XArbitraryZVertical,-0.1008592831174287,0.8720291809557773,-0.1279236736296309,0.4615495977510878,0.7791648507118225,0.316209465265274,0.5412150025367737,0,0,0,-1,-1,4369.723587375001,unknown,2,2022-06-30T09:41:10.008+02:00,2022-06-30T08:20:05.567+02:00,1233,1.427957,0,0,959.237,0,0,2022-06-30T09:40:39.431+02:00
187,2022-06-30T09:41:10.083+02:00,4369.798428375,-15.482753448486324,14.545702056884762,54.48744277954101,4369.788476375,0.1095893698036868,2.289870146195015,-0.2709350573845069,-7.263177394866943,9.929149627685549,1.14059853553772,-1.793938159942627,1.396139860153198,3.589094877243042,XArbitraryZVertical,-0.1051262980209966,0.8979300404286025,-0.1003890751425727,0.4154420448868761,0.7249687314033508,0.2676325142383575,0.6346597671508789,0,0,0,-1,-1,4369.723587375001,unknown,2,2022-06-30T09:41:10.008+02:00,2022-06-30T08:20:05.567+02:00,1233,1.427957,0,0,959.237,0,0,2022-06-30T09:40:39.431+02:00
188,2022-06-30T09:41:10.093+02:00,4369.808380375001,-16.819174346923823,13.224848785400386,62.6585009765625,4369.798428375,0.1575122919115902,2.400892750665736,-0.2102933008232158,-7.91987419128418,10.06790065765381,1.002162337303162,-1.958430528640747,1.392251014709473,4.118883609771729,XArbitraryZVertical,-0.110804742483113,0.9211901987491008,-0.0692156059626457,0.366524350407774,0.6599384546279907,0.2087467461824417,0.7217381596565247,0,0,0,-1,-1,4369.723587375001,unknown,2,2022-06-30T09:41:10.008+02:00,2022-06-30T08:20:05.567+02:00,1233,1.427957,0,0,959.237,0,0,2022-06-30T09:40:39.431+02:00
189,2022-06-30T09:41:10.103+02:00,4369.818332375,-17.68407577514649,9.784103851318362,70.52943328857423,4369.808380375001,0.2036047816387393,2.509754402062112,-0.1410042015410182,-8.661502838134766,10.18061065673828,0.7150320410728455,-2.163029432296753,1.342204689979553,4.755340576171875,XArbitraryZVertical,-0.1181301495143538,0.9410167590726034,-0.035114903666268,0.315118516175107,0.5847673416137695,0.1405374258756638,0.7989345192909241,0,0,0,-1,-1,4369.723587375001,unknown,2,2022-06-30T09:41:10.008+02:00,2022-06-30T08:20:05.567+02:00,1233,1.427957,0,0,959.237,0,0,2022-06-30T09:40:39.431+02:00
190,2022-06-30T09:41:10.113+02:00,4369.828283375,-15.810871124267575,8.210126953125,78.1686474609375,4369.818332375,0.2490055300785166,2.616429968454479,-0.0638383423482685,-9.204991340637209,10.30296325683594,0.1058709472417831,-2.214824914932251,1.284303665161133,5.523726940155029,XArbitraryZVertical,-0.1280835905321841,0.9567312214148594,0.0016365826068499,0.2612611413772284,0.5003325939178467,0.0637949928641319,0.8634800910949707,0,0,0,-1,-1,4369.723587375001,unknown,2,2022-06-30T09:41:10.008+02:00,2022-06-30T08:20:05.567+02:00,1233,1.427957,0,0,959.237,0,0,2022-06-30T09:40:39.431+02:00
191,2022-06-30T09:41:10.123+02:00,4369.838235375,-10.073003082275386,5.243895263671876,82.84911437988282,4369.828283375,0.2949111989035872,2.7205619795789,0.0183603956465624,-9.624133110046388,10.41299247741699,-0.8834742903709412,-2.211290121078491,1.015719413757324,6.277029991149902,XArbitraryZVertical,-0.1417747440981994,0.9675521020038108,0.0395800429751935,0.2053685366297588,0.4086324274539948,-0.0183593649417161,0.9125142693519592,0,0,0,-1,-1,4369.723587375001,unknown,2,2022-06-30T09:41:10.008+02:00,2022-06-30T08:20:05.567+02:00,1233,1.427957,0,0,959.237,0,0,2022-06-30T09:40:39.431+02:00
192,2022-06-30T09:41:10.133+02:00,4369.848187375001,-2.771636352539063,1.9622694396972657,85.35026321411134,4369.838235375,0.3441667052261628,2.821954724482143,0.1005512394932099,-9.241202354431152,10.53709125518799,-2.416322708129883,-1.924344897270203,0.9372957944869996,7.023707389831543,XArbitraryZVertical,-0.160960143619169,0.9728149266885016,0.0760970792751461,0.1480952398452071,0.3126357197761536,-0.100381888449192,0.944554090499878,0,0,0,-1,-1,4369.723587375001,unknown,2,2022-06-30T09:41:10.008+02:00,2022-06-30T08:20:05.567+02:00,1233,1.427957,0,0,959.237,0,0,2022-06-30T09:40:39.431+02:00
193,2022-06-30T09:41:10.143+02:00,4369.858139375,1.259480895996094,-0.5869294738769532,87.81339111328126,4369.848187375001,0.4009250530442894,2.91967525547637,0.1757230587625184,-8.250288009643555,10.65708541870117,-4.517992973327637,-1.243520259857178,0.709365963935852,7.484918117523193,XArbitraryZVertical,-0.1876128162481828,0.9721260270781252,0.1074265440818516,0.0907298672653043,0.2167109251022339,-0.1748201102018356,0.9604551792144777,0,0,0,-1,-1,4369.723587375001,unknown,2,2022-06-30T09:41:10.008+02:00,2022-06-30T08:20:05.567+02:00,1233,1.427957,0,0,959.237,0,0,2022-06-30T09:40:39.431+02:00
194,2022-06-30T09:41:10.153+02:00,4369.868091375,-0.57719970703125,0.16615447998046876,90.46213302612306,4369.858139375,0.4744000656494827,3.00928975305164,0.2394198468616004,-6.795960903167725,10.3198299407959,-7.566040515899658,-0.4106857180595398,0.4371664226055145,7.737346649169922,XArbitraryZVertical,-0.225116721480778,0.964787773692655,0.1312483028784374,0.0357913310094489,0.128154456615448,-0.2371390610933304,0.9629859924316406,0,0,0,-1,-1,4369.723587375001,unknown,2,2022-06-30T09:41:10.008+02:00,2022-06-30T08:20:05.567+02:00,1233,1.427957,0,0,959.237,0,0,2022-06-30T09:40:39.431+02:00
195,2022-06-30T09:41:10.163+02:00,4369.878043375,-12.435689849853512,3.989054718017578,91.4036750793457,4369.868091375,0.577236430868032,3.078798689814934,0.2897487010842303,-5.139605522155762,8.90552806854248,-11.3860034942627,0.0682510063052177,0.2258816361427307,7.994988918304443,XArbitraryZVertical,-0.2771627921453356,0.9494178290438016,0.1471699369729881,-0.0112927970237944,0.0601368956267833,-0.285711407661438,0.9564268589019777,0,0,0,-1,-1,4369.723587375001,unknown,2,2022-06-30T09:41:10.008+02:00,2022-06-30T08:20:05.567+02:00,1233,1.427957,0,0,959.237,0,0,2022-06-30T09:40:39.431+02:00
196,2022-06-30T09:41:10.173+02:00,4369.887995375,-33.5926936340332,12.062366180419927,92.08580657958987,4369.878043375,0.7213344062095661,3.110621337784092,0.3270271082221761,-3.457285642623901,6.169365882873535,-15.89445114135742,-0.0881626456975936,0.3381663262844086,8.274872779846191,XArbitraryZVertical,-0.3457910848521469,0.9239601560121894,0.1576859909704242,-0.0431445094239736,0.0293252039700746,-0.3212291300296783,0.9465476870536804,0,0,0,-1,-1,4369.723587375001,unknown,2,2022-06-30T09:41:10.008+02:00,2022-06-30T08:20:05.567+02:00,1233,1.427957,0,0,959.237,0,0,2022-06-30T09:40:39.431+02:00
197,2022-06-30T09:41:10.183+02:00,4369.897947375001,-58.50209426879882,30.334119873046877,92.48772079467774,4369.887995375,0.9143953024937151,3.086729962539953,0.3454041440702906,-1.897741556167603,1.549111127853394,-20.49800872802734,-1.319250583648682,0.7452086210250854,8.377875328063965,XArbitraryZVertical,-0.4304756837035109,0.8856930323098412,0.1660647166725875,-0.0515850911265575,0.0515965335071086,-0.3385769724845886,0.939522922039032,0,0,0,-1,-1,4369.723587375001,unknown,2,2022-06-30T09:41:10.008+02:00,2022-06-30T08:20:05.567+02:00,1233,1.427957,0,0,959.237,0,0,2022-06-30T09:40:39.431+02:00
198,2022-06-30T09:41:10.193+02:00,4369.907899375,-74.41999282836913,45.632307128906255,89.42254486083986,4369.897947375001,1.151355863306557,2.988563746176972,0.3417108549181234,-2.067400693893433,-5.341463565826416,-24.02057838439941,-3.567950487136841,1.564698696136475,8.45576000213623,XArbitraryZVertical,-0.5240053015523677,0.831266960445262,0.1832121888803236,-0.0291056606901088,0.1436191648244858,-0.3350995182991028,0.9311726093292236,0,0,0,-1,-1,4369.723587375001,unknown,2,2022-06-30T09:41:10.008+02:00,2022-06-30T08:20:05.567+02:00,1233,1.427957,0,0,959.237,0,0,2022-06-30T09:40:39.431+02:00
199,2022-06-30T09:41:10.203+02:00,4369.917850375,-93.44183670043945,48.29931106567382,76.27553421020507,4369.907899375,1.41591234932565,2.809403762880848,0.3066378787833041,-3.077983140945435,-13.62309741973877,-26.47503471374512,-6.274416923522949,3.394018411636353,8.526667594909668,XArbitraryZVertical,-0.6146284937243085,0.7568680236499068,0.2206740262120771,0.0261842487795157,0.3109011352062225,-0.301855057477951,0.901234805583954,0,0,0,-1,-1,4369.723587375001,unknown,2,2022-06-30T09:41:10.008+02:00,2022-06-30T08:20:05.567+02:00,1233,1.427957,0,0,959.237,0,0,2022-06-30T09:40:39.431+02:00
200,2022-06-30T09:41:10.213+02:00,4369.927802375,-116.86123580932619,34.988540954589844,65.54300262451173,4369.917850375,1.685402149045281,2.556495473558829,0.2135603800489238,-2.595607995986938,-23.16990852355957,-28.95182800292969,-8.125869750976562,4.863552570343018,8.300727844238281,XArbitraryZVertical,-0.6902041911490734,0.6564891737865562,0.2819517582649498,0.1146442043496127,0.5397339463233948,-0.211940735578537,0.8147197365760803,0,0,0,-1,-1,4369.723587375001,unknown,2,2022-06-30T09:41:10.008+02:00,2022-06-30T08:20:05.567+02:00,1233,1.427957,0,0,959.237,0,0,2022-06-30T09:40:39.431+02:00
201,2022-06-30T09:41:10.223+02:00,4369.937754375001,-148.4530403137207,32.31959106445313,94.21617645263674,4369.927802375,1.902197592741613,2.245000637590288,0.015121893679681,3.955870151519775,-33.79268264770508,-29.19864082336426,-10.30627632141113,4.938599109649658,7.151079177856445,XArbitraryZVertical,-0.7316907264765402,0.526052248350055,0.3567832262509288,0.2461777266599206,0.7811146378517151,-0.0151213174685835,0.6242045760154724,0,0,0,-1,-1,4369.723587375001,unknown,2,2022-06-30T09:41:10.008+02:00,2022-06-30T08:20:05.567+02:00,1233,1.427957,0,0,959.237,0,0,2022-06-30T09:40:39.431+02:00
202,2022-06-30T09:41:10.233+02:00,4369.947706375,-295.04395294189453,83.00089874267579,144.8221907043457,4369.937754375001,1.905780575706151,1.895183753624029,-0.2428873662289415,22.58142280578613,-34.90278625488281,-16.39564895629883,-12.83248519897461,3.326113939285278,6.371870994567871,XArbitraryZVertical,-0.6979527811492449,0.4093266389456943,0.4152278762610693,0.4158117266644002,0.9200245141983032,0.2405062466859818,0.309372752904892,0,0,0,-1,-1,4369.723587375001,unknown,2,2022-06-30T09:41:10.008+02:00,2022-06-30T08:20:05.567+02:00,1233,1.427957,0,0,959.237,0,0,2022-06-30T09:40:39.431+02:00
203,2022-06-30T09:41:10.243+02:00,4369.957658375,-315.2308241271973,98.76282165527344,195.03437393188474,4369.947706375,1.614614526933904,1.452861675384225,-0.380065665136739,34.5348014831543,-34.84394454956055,-7.343525409698486,-16.05501747131348,2.923574447631836,9.713360786437988,XArbitraryZVertical,-0.568838730224693,0.3489841184721567,0.4435782473941472,0.5982231348024062,0.922189712524414,0.3709814548492432,-0.1092651709914207,0,0,0,-1,-1,4369.723587375001,unknown,2,2022-06-30T09:41:10.008+02:00,2022-06-30T08:20:05.567+02:00,1233,1.427957,0,0,959.237,0,0,2022-06-30T09:40:39.431+02:00
204,2022-06-30T09:41:10.253+02:00,4369.967610375,-313.74037353515627,-24.05348052978516,159.65110382080076,4369.957658375,1.266144552251502,0.9856825040862642,-0.282991242569022,34.89284515380859,-34.87388610839844,2.818642616271973,-30.87632751464844,8.18161678314209,15.29303646087646,XArbitraryZVertical,-0.3772831707348415,0.3041285266726394,0.4622147281960811,0.7426444775679798,0.8004904389381409,0.2792291641235352,-0.5303264856338501,0,0,0,-1,-1,4369.723587375001,unknown,2,2022-06-30T09:41:10.008+02:00,2022-06-30T08:20:05.567+02:00,1233,1.427957,0,0,959.237,0,0,2022-06-30T09:40:39.431+02:00
205,2022-06-30T09:41:10.263+02:00,4369.977562375,-314.8214254760743,-1.8348843383789064,89.95109573364259,4369.967610375,1.067318105007456,0.6097538435441477,0.0074905043866778,34.86361312866211,-33.19451904296875,10.68954753875732,-32.70627212524414,10.0750560760498,20.7009449005127,XArbitraryZVertical,-0.149618669103099,0.2602522765261838,0.4861928520696366,0.8206701753690949,0.5726495981216431,-0.007490434218198,-0.8197659850120544,0,0,0,-1,-1,4369.723587375001,unknown,2,2022-06-30T09:41:10.008+02:00,2022-06-30T08:20:05.567+02:00,1233,1.427957,0,0,959.237,0,0,2022-06-30T09:40:39.431+02:00
206,2022-06-30T09:41:10.272+02:00,4369.987514375001,-230.4851536560059,-163.79523605346685,96.05495269775389,4369.977562375,0.9829880849040372,0.3830353723818785,0.355127168555542,34.75593566894531,-13.08146381378174,6.00435733795166,-32.33210754394531,-2.104225158691406,17.14398002624512,XArbitraryZVertical,0.0644551092799001,0.2470148101678202,0.485671975604515,0.8360334895321975,0.3504172265529633,-0.347709596157074,-0.8696584701538086,0,0,0,-1,-1,4369.723587375001,unknown,2,2022-06-30T09:41:10.008+02:00,2022-06-30T08:20:05.567+02:00,1233,1.427957,0,0,959.237,0,0,2022-06-30T09:40:39.431+02:00
207,2022-06-30T09:41:10.282+02:00,4369.997466375,-52.32204574584962,-225.49917205810553,-0.46478347778320317,4369.987514375001,0.9297071033262332,0.3723562528820161,0.6769498749678076,25.58847045898438,4.083298683166504,9.118165016174316,-32.37547302246094,0.4393762350082397,9.895397186279297,XArbitraryZVertical,0.2134123558162154,0.3023569785157117,0.4704909843682797,0.801045334414654,0.2835861146450043,-0.62641841173172,-0.7260708212852478,0,0,0,-1,-1,4369.723587375001,unknown,2,2022-06-30T09:41:10.008+02:00,2022-06-30T08:20:05.567+02:00,1233,1.427957,0,0,959.237,0,0,2022-06-30T09:40:39.431+02:00
208,2022-06-30T09:41:10.292+02:00,4370.007418375,-3.8154158020019535,-137.80643005371095,4.29471908569336,4369.997466375,1.004498431929151,0.4136284902028853,0.8888782617769271,10.52861881256104,12.78686237335205,15.12831974029541,-23.74825096130371,-15.92039680480957,10.36866474151611,XArbitraryZVertical,0.2795741579087065,0.3650657610706404,0.5027535563893294,0.7319864735110023,0.2533325850963593,-0.7763652205467224,-0.5771305561065674,0,0,0,-1,-1,4369.723587375001,unknown,2,2022-06-30T09:41:10.008+02:00,2022-06-30T08:20:05.567+02:00,1233,1.427957,0,0,959.237,0,0,2022-06-30T09:40:39.431+02:00
209,2022-06-30T09:41:10.302+02:00,4370.017369375,14.102174377441408,-58.03252075195313,-7.661368103027344,4370.007418375,1.185360090752382,0.4153738093254876,0.960461684330138,-3.91009259223938,16.60282897949219,9.05238151550293,-5.564823150634766,-22.16720771789551,0.477026104927063,XArbitraryZVertical,0.2728056838504787,0.404196272392071,0.5637702746187757,0.6666074072754078,0.2312809824943542,-0.8194562792778015,-0.5244048833847046,0,0,0,-1,-1,4369.723587375001,unknown,2,2022-06-30T09:41:10.008+02:00,2022-06-30T08:20:05.567+02:00,1233,1.427957,0,0,959.237,0,0,2022-06-30T09:40:39.431+02:00
210,2022-06-30T09:41:10.313+02:00,4370.027321375001,-4.450694732666016,-14.106365661621094,-26.29596725463868,4370.017369375,1.293699019726653,0.4787305396733487,0.9299034120461984,-6.064630508422852,11.07933712005615,0.4888767600059509,-0.6643610000610352,-13.24598407745361,0.9684840440750122,XArbitraryZVertical,0.219881879353517,0.4316303555915748,0.608167911201176,0.6288711258389424,0.2754295170307159,-0.8015621900558472,-0.5306943655014038,0,0,0,-1,-1,4369.723587375001,unknown,2,2022-06-30T09:41:10.008+02:00,2022-06-30T08:20:05.567+02:00,1233,1.427957,0,0,959.237,0,0,2022-06-30T09:40:39.431+02:00
211,2022-06-30T09:41:10.322+02:00,4370.037273375,-57.42448516845703,13.297896881103512,6.664141845703125,4370.027321375001,1.318679740191279,0.5011515018893493,0.8906907507272016,-2.67990255355835,-3.049172878265381,-0.1588560491800308,1.135396242141724,-5.138143062591553,-0.2294333577156067,XArbitraryZVertical,0.1927615241518226,0.4325180684353795,0.6200042296261047,0.62559233836882,0.3021340668201447,-0.7775063514709473,-0.5515422224998474,0,0,0,-1,-1,4369.723587375001,unknown,2,2022-06-30T09:41:10.008+02:00,2022-06-30T08:20:05.567+02:00,1233,1.427957,0,0,959.237,0,0,2022-06-30T09:40:39.431+02:00
212,2022-06-30T09:41:10.332+02:00,4370.047225375,-111.20689407348631,5.359305267333984,20.03508682250976,4370.037273375,1.381602233223719,0.4090331096390422,0.8876984732794185,-0.42986661195755,-2.291632652282715,6.232588768005371,-0.7047317028045654,-0.662336528301239,-2.101398468017578,XArbitraryZVertical,0.2072071067028586,0.409268712507554,0.6306435003383614,0.6259818482659595,0.2510419487953186,-0.7756210565567017,-0.5791286826133728,0,0,0,-1,-1,4369.723587375001,unknown,2,2022-06-30T09:41:10.008+02:00,2022-06-30T08:20:05.567+02:00,1233,1.427957,0,0,959.237,0,0,2022-06-30T09:40:39.431+02:00
213,2022-06-30T09:41:10.343+02:00,4370.057177375001,-64.03099685668944,-14.372961273193365,20.601508941650387,4370.047225375,1.472317721943438,0.382595313984011,0.9163120748850062,0.3787303566932678,10.35184097290039,6.860048294067383,-6.0809326171875,2.14890718460083,1.244057893753052,XArbitraryZVertical,0.207287096818168,0.4179278019011431,0.6535335119595198,0.5960389017919268,0.227264329791069,-0.793362021446228,-0.5647368431091309,0,0,0,-1,-1,4369.723587375001,unknown,2,2022-06-30T09:41:10.008+02:00,2022-06-30T08:20:05.567+02:00,1233,1.427957,0,0,959.237,0,0,2022-06-30T09:40:39.431+02:00
214,2022-06-30T09:41:10.352+02:00,4370.067129375,-21.79153427124024,-11.308683471679688,12.570559387207032,4370.057177375001,1.593588840467469,0.4083114646397832,0.9497794442625044,0.1133298352360725,13.28315925598145,8.967656135559082,-11.56710910797119,1.35959792137146,2.576341390609741,XArbitraryZVertical,0.1840345128115218,0.4462250433397276,0.6875767425611263,0.5424506113438169,0.2310343980789185,-0.8132871985435486,-0.5340290069580078,0,0,0,-1,-1,4369.723587375001,unknown,2,2022-06-30T09:41:10.008+02:00,2022-06-30T08:20:05.567+02:00,1233,1.427957,0,0,959.237,0,0,2022-06-30T09:40:39.431+02:00
215,2022-06-30T09:41:10.362+02:00,4370.077081375,-21.428688812255864,-10.052196350097656,6.2719573974609375,4370.067129375,1.738963615500935,0.3961837241520509,0.9880784190238876,0.5015299916267395,7.502323627471924,9.20750331878662,-6.739474296569824,-0.6301633715629578,2.607721328735352,XArbitraryZVertical,0.1675974224331987,0.4669863493455823,0.7196972710087325,0.4856652296377264,0.2123592495918274,-0.8349700570106506,-0.5076696872711182,0,0,0,-1,-1,4369.723587375001,unknown,2,2022-06-30T09:41:10.008+02:00,2022-06-30T08:20:05.567+02:00,1233,1.427957,0,0,959.237,0,0,2022-06-30T09:40:39.431+02:00
216,2022-06-30T09:41:10.372+02:00,4370.087033375,-45.515250549316406,-4.3417213439941404,6.732699279785157,4370.077081375,1.91202706180871,0.2948916742125352,1.026719065077472,0.5886931419372559,2.303348779678345,10.68153476715088,-2.371800899505615,-0.2971655130386353,1.776686906814575,XArbitraryZVertical,0.1756447357359518,0.4706448516977993,0.745493421116361,0.438043329317799,0.1504416912794113,-0.8556053042411804,-0.4952847063541412,0,0,0,-1,-1,4369.723587375001,unknown,2,2022-06-30T09:41:10.008+02:00,2022-06-30T08:20:05.567+02:00,1233,1.427957,0,0,959.237,0,0,2022-06-30T09:40:39.431+02:00
217,2022-06-30T09:41:10.382+02:00,4370.096984375,-46.309199523925784,-8.615484008789062,6.286626892089844,4370.087033375,2.118768812000575,0.1402943978330589,1.057746173645716,1.004970073699951,3.049656391143799,11.04291915893555,-2.253007888793945,-0.1534371376037598,1.125357508659363,XArbitraryZVertical,0.1935580044678475,0.468538143501069,0.7683671318768173,0.3906653621801847,0.0686360299587249,-0.8712514638900757,-0.4860146045684814,0,0,0,-1,-1,4369.723587375001,unknown,2,2022-06-30T09:41:10.008+02:00,2022-06-30T08:20:05.567+02:00,1233,1.427957,0,0,959.237,0,0,2022-06-30T09:40:39.431+02:00
218,2022-06-30T09:41:10.392+02:00,4370.106936375,-32.34009841918945,-15.885565795898438,3.862567749023438,4370.096984375,2.349083649113411,-0.0238680224720934,1.077005911871989,1.400892734527588,4.269853115081787,11.38965034484863,-4.62836742401123,0.4379616379737854,1.160141587257385,XArbitraryZVertical,0.2073800129701382,0.4691241611577315,0.7895381574872467,0.3369654661632972,-0.0113115832209587,-0.8805426359176636,-0.4738321006298065,0,0,0,-1,-1,4369.723587375001,unknown,2,2022-06-30T09:41:10.008+02:00,2022-06-30T08:20:05.567+02:00,1233,1.427957,0,0,959.237,0,0,2022-06-30T09:40:39.431+02:00
219,2022-06-30T09:41:10.402+02:00,4370.116888375001,-29.08062652587891,-18.114281158447262,2.7439439392089846,4370.106936375,2.589730835367097,-0.198629611282429,1.07776524288319,1.221173405647278,3.07308292388916,11.28785514831543,-4.627217292785645,0.0026675462722778,1.104830622673035,XArbitraryZVertical,0.2210034403133363,0.4681466801861501,0.8078837886117908,0.2816383166482831,-0.0933941081166267,-0.8809022903442383,-0.4639923274517059,0,0,0,-1,-1,4369.723587375001,unknown,2,2022-06-30T09:41:10.008+02:00,2022-06-30T08:20:05.567+02:00,1233,1.427957,0,0,959.237,0,0,2022-06-30T09:40:39.431+02:00
220,2022-06-30T09:41:10.412+02:00,4370.126840375,-31.92486190795899,-18.65570526123047,2.210453338623047,4370.116888375001,2.817171495297179,-0.3742173395492676,1.055575303169091,0.7223455309867859,1.891614556312561,11.07807636260986,-3.116532325744629,-0.7491397857666016,0.8523650169372559,XArbitraryZVertical,0.2385119834195578,0.462383209976165,0.8225717530356638,0.2295421438048652,-0.1801135689020157,-0.8701838254928589,-0.4586276113986969,0,0,0,-1,-1,4369.723587375001,unknown,2,2022-06-30T09:41:10.008+02:00,2022-06-30T08:20:05.567+02:00,1233,1.427957,0,0,959.237,0,0,2022-06-30T09:40:39.431+02:00
221,2022-06-30T09:41:10.422+02:00,4370.136792375,-29.02928329467774,-20.4296662902832,-0.10912307739257814,4370.126840375,3.012192225003815,-0.5226488107034322,1.011544525612693,-0.0066708005033433,2.110008478164673,10.77742767333984,-2.699546337127686,-0.998859405517578,0.7394319772720337,XArbitraryZVertical,0.2558015656089495,0.4524420720120952,0.8352387881504714,0.1795492741108086,-0.2648395001888275,-0.8476523160934448,-0.4597234725952148,0,0,0,-1,-1,4369.723587375001,unknown,2,2022-06-30T09:41:10.008+02:00,2022-06-30T08:20:05.567+02:00,1233,1.427957,0,0,959.237,0,0,2022-06-30T09:40:39.431+02:00
222,2022-06-30T09:41:10.432+02:00,4370.146744375001,-23.0159880065918,-20.27069686889649,-2.0875588989257814,4370.136792375,-3.116224772419961,-0.6285314547326296,0.9504099386596347,-0.854361891746521,2.456886291503906,10.37075138092041,-2.912509202957153,-1.088048934936523,0.6955752372741699,XArbitraryZVertical,0.2693266879731036,0.4385642774317829,0.8473751071880178,0.1306907016089144,-0.3418089151382446,-0.8136538863182068,-0.4702490270137787,0,0,0,-1,-1,4369.723587375001,unknown,2,2022-06-30T09:41:10.008+02:00,2022-06-30T08:20:05.567+02:00,1233,1.427957,0,0,959.237,0,0,2022-06-30T09:40:39.431+02:00
223,2022-06-30T09:41:10.442+02:00,4370.156696375,-18.19660995483399,-19.6631103515625,-2.4168740844726564,4370.146744375001,-2.998816007400763,-0.6970316642457804,0.878883607071385,-1.587756514549255,2.462035894393921,9.78236961364746,-2.549584150314331,-1.312507629394531,0.4780718088150024,XArbitraryZVertical,0.279748647919829,0.4208833333825387,0.8587784618396184,0.0842470638452364,-0.4095678627490997,-0.7700271010398865,-0.4891958236694336,0,0,0,-1,-1,4369.723587375001,unknown,2,2022-06-30T09:41:10.008+02:00,2022-06-30T08:20:05.567+02:00,1233,1.427957,0,0,959.237,0,0,2022-06-30T09:40:39.431+02:00
224,2022-06-30T09:41:10.452+02:00,4370.166648375,-16.385675811767573,-17.331858215332034,-3.3438963317871098,4370.156696375,-2.910905116815879,-0.7397140351508494,0.8031141227045498,-2.02960205078125,2.082014799118042,9.059885025024414,-1.878050208091736,-1.346807718276978,0.3001783490180969,XArbitraryZVertical,0.2885758910978589,0.4002937235972533,0.8687694609719947,0.041577129247488,-0.4681257009506226,-0.71952223777771,-0.5129777789115906,0,0,0,-1,-1,4369.723587375001,unknown,2,2022-06-30T09:41:10.008+02:00,2022-06-30T08:20:05.567+02:00,1233,1.427957,0,0,959.237,0,0,2022-06-30T09:40:39.431+02:00
225,2022-06-30T09:41:10.462+02:00,4370.176600375,-16.491655426025385,-14.569951629638677,-3.1548394775390625,4370.166648375,-2.843368151058572,-0.7686675491370276,0.7287621055434611,-2.156481981277466,1.548458099365234,8.316702842712402,-1.336301565170288,-1.33844780921936,0.2898836731910706,XArbitraryZVertical,0.2973568456444221,0.3787515164775965,0.8764212940062,0.0034552570449998,-0.5186023712158203,-0.6659466624259949,-0.5362523794174194,0,0,0,-1,-1,4369.723587375001,unknown,2,2022-06-30T09:41:10.008+02:00,2022-06-30T08:20:05.567+02:00,1233,1.427957,0,0,959.237,0,0,2022-06-30T09:40:39.431+02:00
226,2022-06-30T09:41:10.472+02:00,4370.186551375,-16.062946929931638,-11.64308807373047,-3.0629306030273438,4370.176600375,-2.789887491526277,-0.7883564810320681,0.6577175445497725,-2.178621530532837,1.417828440666199,7.581775188446045,-1.109053134918213,-1.155441999435425,0.217072606086731,XArbitraryZVertical,0.3056947572641276,0.3571850944657237,0.8820565457981495,-0.0307541532944211,-0.5612499713897705,-0.6113121509552002,-0.5579390525817871,0,0,0,-1,-1,4369.723587375001,unknown,2,2022-06-30T09:41:10.008+02:00,2022-06-30T08:20:05.567+02:00,1233,1.427957,0,0,959.237,0,0,2022-06-30T09:40:39.431+02:00
227,2022-06-30T09:41:10.481+02:00,4370.196503375,-14.565011901855469,-8.456364898681642,-4.374652862548828,4370.186551375,-2.746555448107079,-0.7990895155317957,0.5925957045854751,-1.919824838638306,1.526019215583801,6.688826084136963,-1.08659029006958,-0.9266982078552246,0.2568608522415161,XArbitraryZVertical,0.312029413228866,0.3367639090051345,0.886251522320026,-0.0615311084110067,-0.5945159792900085,-0.5585160255432129,-0.5784554481506348,0,0,0,-1,-1,4369.723587375001,unknown,2,2022-06-30T09:41:10.008+02:00,2022-06-30T08:20:05.567+02:00,1233,1.427957,0,0,959.237,0,0,2022-06-30T09:40:39.431+02:00
228,2022-06-30T09:41:10.491+02:00,4370.206455375001,-13.082644500732426,-6.017187194824219,-5.593568115234375,4370.196503375,-2.709045883572602,-0.803882936641189,0.5368944254369383,-1.231581211090088,1.511844992637634,5.796848773956299,-1.018660187721252,-0.6753892302513123,0.2840572595596313,XArbitraryZVertical,0.3160262915678601,0.3193523974098477,0.8889362080464351,-0.0890716714290676,-0.6187449097633362,-0.511469841003418,-0.5962828397750854,0,0,0,-1,-1,4369.723587375001,unknown,2,2022-06-30T09:41:10.008+02:00,2022-06-30T08:20:05.567+02:00,1233,1.427957,0,0,959.237,0,0,2022-06-30T09:40:39.431+02:00
229,2022-06-30T09:41:10.501+02:00,4370.216407375,-12.895533599853511,-5.933511199951172,-6.4006896972656255,4370.206455375001,-2.673161170688658,-0.8074101445028169,0.4925354067443825,-0.4381536245346069,1.30667781829834,4.96998405456543,-0.8480899333953857,-0.3891532719135284,0.1632548570632935,XArbitraryZVertical,0.3185446286796342,0.3064844285860751,0.8897407429899161,-0.1138332184631926,-0.6366204619407654,-0.4728614389896393,-0.6091932058334351,0,0,0,-1,-1,4369.723587375001,unknown,2,2022-06-30T09:41:10.008+02:00,2022-06-30T08:20:05.567+02:00,1233,1.427957,0,0,959.237,0,0,2022-06-30T09:40:39.431+02:00
230,2022-06-30T09:41:10.511+02:00,4370.226359375,-12.423115997314449,-6.329138488769532,-7.3575,4370.216407375,-2.638941166662323,-0.8105362984316122,0.4589403098718166,0.1622685492038727,1.242574095726013,4.159801959991455,-0.6839314699172974,-0.1703744828701019,0.0476117730140686,XArbitraryZVertical,0.319883707891765,0.2979482565842847,0.8890947448125417,-0.1356901528205027,-0.6496711373329163,-0.4429983198642731,-0.6178025007247925,0,0,0,-1,-1,4369.723587375001,unknown,2,2022-06-30T09:41:10.008+02:00,2022-06-30T08:20:05.567+02:00,1233,1.427957,0,0,959.237,0,0,2022-06-30T09:40:39.431+02:00
231,2022-06-30T09:41:10.521+02:00,4370.236311375001,-11.054362335205074,-5.805677032470704,-8.176596679687501,4370.226359375,-2.607023784731918,-0.8116199491275459,0.4335992472675339,0.4939632713794708,1.323518991470337,3.533960580825806,-0.6562551856040955,-0.1847034096717834,-0.0278397798538208,XArbitraryZVertical,0.3196347479906395,0.2924388490401133,0.8878416037094208,-0.1550818025804057,-0.6582739353179932,-0.4201397001743317,-0.6246262788772583,0,0,0,-1,-1,4369.723587375001,unknown,2,2022-06-30T09:41:10.008+02:00,2022-06-30T08:20:05.567+02:00,1233,1.427957,0,0,959.237,0,0,2022-06-30T09:40:39.431+02:00
232,2022-06-30T09:41:10.531+02:00,4370.246263375,-9.633516998291014,-6.470893707275391,-8.840316467285156,4370.236311375001,-2.578482264753002,-0.8095321543052302,0.4137962030218329,0.520067572593689,1.437755227088928,2.947727203369141,-0.603509783744812,-0.2430840730667114,-0.1183845996856689,XArbitraryZVertical,0.3177642805571158,0.2884753318363791,0.8866462326413022,-0.1722394787729657,-0.6628626585006714,-0.4020880162715912,-0.6316156983375549,0,0,0,-1,-1,4369.723587375001,unknown,2,2022-06-30T09:41:10.008+02:00,2022-06-30T08:20:05.567+02:00,1233,1.427957,0,0,959.237,0,0,2022-06-30T09:40:39.431+02:00
