,loggingTime(txt),accelerometerTimestamp_sinceReboot(s),accelerometerAccelerationX(G),accelerometerAccelerationY(G),accelerometerAccelerationZ(G),motionTimestamp_sinceReboot(s),motionYaw(rad),motionRoll(rad),motionPitch(rad),motionRotationRateX(rad/s),motionRotationRateY(rad/s),motionRotationRateZ(rad/s),motionUserAccelerationX(G),motionUserAccelerationY(G),motionUserAccelerationZ(G),motionAttitudeReferenceFrame(txt),motionQuaternionX(R),motionQuaternionY(R),motionQuaternionZ(R),motionQuaternionW(R),motionGravityX(G),motionGravityY(G),motionGravityZ(G),motionMagneticFieldX(µT),motionMagneticFieldY(µT),motionMagneticFieldZ(µT),motionHeading(°),motionMagneticFieldCalibrationAccuracy(Z),activityTimestamp_sinceReboot(s),activity(txt),activityActivityConfidence(Z),activityActivityStartDate(txt),pedometerStartDate(txt),pedometerNumberofSteps(N),pedometerAverageActivePace(s/m),pedometerCurrentPace(s/m),pedometerCurrentCadence(steps/s),pedometerDistance(m),pedometerFloorAscended(N),pedometerFloorDescended(N),pedometerEndDate(txt)
201,2022-06-30T09:18:36.795+02:00,3111.2144235,1.9293379211425783,-4.0776704406738284,-4.911286926269532,3111.2044725,-0.0119785402401953,1.031225512496778,0.8079503007877142,-1.399528980255127,5.667210102081299,-1.77329695224762,-0.2942602634429932,0.3676475882530212,-0.1584084630012512,XArbitraryZVertical,0.3446822491746383,0.4513225564390936,0.1890188047223514,0.8011081082666924,0.5928134918212891,-0.7228723764419556,-0.3550041913986206,0,0,0,-1,-1,3108.688408541667,unknown,2,2022-06-30T09:18:34.269+02:00,2022-06-30T08:20:05.567+02:00,926,1.452099,0,0,719.4605,0,0,2022-06-30T09:18:24.071+02:00
202,2022-06-30T09:18:36.805+02:00,3111.2243745,1.3712983703613282,-4.019890594482422,-3.907324676513672,3111.2144235,-0.0066472320360542,1.087334052882631,0.7828031443767487,-1.747592449188232,6.380185127258301,-2.273774862289429,-0.3808472752571106,0.3174213767051697,-0.2024644911289215,XArbitraryZVertical,0.3280684377981947,0.4770710553381591,0.194703006771317,0.7917480762230208,0.6276883482933044,-0.705269455909729,-0.3295486271381378,0,0,0,-1,-1,3108.688408541667,unknown,2,2022-06-30T09:18:34.269+02:00,2022-06-30T08:20:05.567+02:00,926,1.452099,0,0,719.4605,0,0,2022-06-30T09:18:24.071+02:00
203,2022-06-30T09:18:36.815+02:00,3111.2343265,1.1994557189941406,-3.819607086181641,-2.8400440979003907,3111.2243745,0.0021179847498221,1.148521227430694,0.7515205790077222,-2.163637161254883,7.123550891876221,-2.833367109298706,-0.4697999954223633,0.2670857310295105,-0.201193243265152,XArbitraryZVertical,0.3075788799369223,0.5056395132413987,0.2001756674216227,0.7808031362924477,0.6664702296257019,-0.6827505826950073,-0.2994478344917297,0,0,0,-1,-1,3108.688408541667,unknown,2,2022-06-30T09:18:34.269+02:00,2022-06-30T08:20:05.567+02:00,926,1.452099,0,0,719.4605,0,0,2022-06-30T09:18:24.071+02:00
204,2022-06-30T09:18:36.826+02:00,3111.2442775,0.8731343078613282,-3.2730935668945316,-1.7377363586425782,3111.2343265,0.0155983583024655,1.214211275969202,0.7136644761349172,-2.584665775299072,7.896306037902832,-3.449053525924683,-0.5686280131340027,0.2448334693908691,-0.1344099342823029,XArbitraryZVertical,0.2827096228516192,0.5367774626885442,0.2052734090056847,0.7679896135096208,0.7084134817123413,-0.6546083688735962,-0.2638904452323914,0,0,0,-1,-1,3111.2373865,running,2,2022-06-30T09:18:36.818+02:00,2022-06-30T08:20:05.567+02:00,926,1.452099,0,0,719.4605,0,0,2022-06-30T09:18:24.071+02:00
205,2022-06-30T09:18:36.836+02:00,3111.2542295,0.05912704467773438,-3.454516296386719,-1.4588662719726564,3111.2442775,0.034387011489949,1.28550806868565,0.6692804013959641,-3.017101526260376,8.850027084350586,-4.115477561950684,-0.6303002834320068,0.2310630679130554,-0.0687854140996933,XArbitraryZVertical,0.2531180992190991,0.5705885610471346,0.2098305920380701,0.7525497373647055,0.7525687217712402,-0.6204217672348022,-0.2207198441028595,0,0,0,-1,-1,3111.2373865,running,2,2022-06-30T09:18:36.818+02:00,2022-06-30T08:20:05.567+02:00,926,1.452099,0,0,719.4605,0,0,2022-06-30T09:18:24.071+02:00
206,2022-06-30T09:18:36.845+02:00,3111.2641805,-0.501606903076172,-2.961441650390625,0.15088623046875002,3111.2542295,0.0588541492241982,1.364530114871625,0.6180103574918621,-3.262636661529541,9.987292289733888,-4.949363231658936,-0.7087519764900208,0.2457658052444458,-0.0102153420448303,XArbitraryZVertical,0.2182586288237521,0.6073722577071966,0.2134298076602233,0.733423456866441,0.7977563142776489,-0.5794146656990051,-0.1669242233037949,0,0,0,-1,-1,3111.2373865,running,2,2022-06-30T09:18:36.818+02:00,2022-06-30T08:20:05.567+02:00,926,1.452099,0,0,719.4605,0,0,2022-06-30T09:18:24.071+02:00
207,2022-06-30T09:18:36.855+02:00,3111.2741315,-1.4570700073242189,-2.4195684814453124,3.3844619750976563,3111.2641805,0.088495682848195,1.453225384496427,0.559318031593443,-3.597397089004517,11.12818813323975,-5.921146392822266,-0.8357385993003845,0.178465723991394,-0.0492867827415466,XArbitraryZVertical,0.1778649183060432,0.6470326163542207,0.2149742408357981,0.7095766400588652,0.8417657017707825,-0.5306082963943481,-0.0994257256388664,0,0,0,-1,-1,3111.2373865,running,2,2022-06-30T09:18:36.818+02:00,2022-06-30T08:20:05.567+02:00,926,1.452099,0,0,719.4605,0,0,2022-06-30T09:18:24.071+02:00
208,2022-06-30T09:18:36.865+02:00,3111.2840835,-2.2421873474121097,-1.19990478515625,8.352780303955079,3111.2741315,0.1282371913768688,1.550201743508142,0.492907312237939,-4.249602794647217,12.36485862731934,-6.941718578338623,-0.9319063425064088,0.1713090837001801,0.0335222482681274,XArbitraryZVertical,0.1304354846383572,0.6884153656111235,0.2147626460823788,0.6804026609384864,0.8807739615440369,-0.473189115524292,-0.0181417372077703,0,0,0,-1,-1,3111.2373865,running,2,2022-06-30T09:18:36.818+02:00,2022-06-30T08:20:05.567+02:00,926,1.452099,0,0,719.4605,0,0,2022-06-30T09:18:24.071+02:00
209,2022-06-30T09:18:36.875+02:00,3111.2940345,-3.939657440185547,1.1536509704589843,15.008389892578126,3111.2840835,0.1833951889971517,1.655532643773721,0.4200545717379171,-5.309149742126465,13.66244411468506,-8.054878234863281,-1.058319807052612,0.1611670851707458,0.2677234411239624,XArbitraryZVertical,0.0745015585915587,0.73012888513883,0.2134763686805484,0.6448170815662474,0.9097905158996582,-0.4078102707862854,0.0772773399949073,0,0,0,-1,-1,3111.2373865,running,2,2022-06-30T09:18:36.818+02:00,2022-06-30T08:20:05.567+02:00,926,1.452099,0,0,719.4605,0,0,2022-06-30T09:18:24.071+02:00
210,2022-06-30T09:18:36.885+02:00,3111.3039865,-8.51953353881836,3.126398620605469,24.083118896484375,3111.2940345,0.261176624632259,1.769585910238018,0.3435953416652132,-6.988309860229492,15.0674352645874,-9.239717483520508,-1.151568412780762,0.2145598232746124,0.6655153036117554,XArbitraryZVertical,0.0080917413264135,0.7700029301061218,0.2124269240779326,0.6015853833400081,0.9230071902275084,-0.3368744552135468,0.1859399825334549,0,0,0,-1,-1,3111.2373865,running,2,2022-06-30T09:18:36.818+02:00,2022-06-30T08:20:05.567+02:00,926,1.452099,0,0,719.4605,0,0,2022-06-30T09:18:24.071+02:00
211,2022-06-30T09:18:36.895+02:00,3111.3139375,-14.471306762695313,3.506158905029297,36.80471420288087,3111.3039865,0.3705010365029084,1.894393678421834,0.2712635841061243,-9.63633632659912,16.58528327941895,-10.24123668670654,-1.315024614334106,0.3855484127998352,1.223555207252502,XArbitraryZVertical,-0.0705410686306115,0.8051085851171361,0.2144616116832203,0.5484800696735621,0.9134287238121032,-0.2679490149021149,0.3063517510890961,0,0,0,-1,-1,3111.2373865,running,2,2022-06-30T09:18:36.818+02:00,2022-06-30T08:20:05.567+02:00,926,1.452099,0,0,719.4605,0,0,2022-06-30T09:18:24.071+02:00
212,2022-06-30T09:18:36.905+02:00,3111.3238895,-21.19682098388672,3.677103424072266,53.47509796142578,3111.3139375,0.5191882009573651,2.031969057561747,0.2170200269644336,-13.17521953582764,18.20039176940918,-10.9501485824585,-1.742979049682617,0.5340155363082886,2.020395278930664,XArbitraryZVertical,-0.1617640027617644,0.8313318553152448,0.2233921068790521,0.4825098178466514,0.8745251893997192,-0.2153205126523972,0.4345604777336121,0,0,0,-1,-1,3111.2373865,running,2,2022-06-30T09:18:36.818+02:00,2022-06-30T08:20:05.567+02:00,926,1.452099,0,0,719.4605,0,0,2022-06-30T09:18:24.071+02:00
213,2022-06-30T09:18:36.915+02:00,3111.3338405,-29.279712524414062,-3.7043467712402345,68.00223861694337,3111.3238895,0.7141851806505927,2.183213152611053,0.2027398335581283,-18.67207908630371,20.34968185424805,-11.13409233093262,-2.276660442352295,0.5587604641914368,3.188681364059448,XArbitraryZVertical,-0.264874589500381,0.8434322892582568,0.2444708584309638,0.3983685843627646,0.8015021085739136,-0.2013538032770157,0.5630731582641602,0,0,0,-1,-1,3111.2373865,running,2,2022-06-30T09:18:36.818+02:00,2022-06-30T08:20:05.567+02:00,926,1.452099,0,0,719.4605,0,0,2022-06-30T09:18:24.071+02:00
214,2022-06-30T09:18:36.925+02:00,3111.3437915,-40.22989151000976,-28.793373870849614,67.98712005615235,3111.3338405,0.9560862650747504,2.346977026916756,0.2562672889921388,-24.34525108337402,23.60755348205566,-11.09593677520752,-2.851026296615601,0.6283038258552551,4.773399353027344,XArbitraryZVertical,-0.3768291032579014,0.8347696237814116,0.2811690081243701,0.2865372891873331,0.6902905702590942,-0.2534715235233307,0.6776809692382812,0,0,0,-1,-1,3111.2373865,running,2,2022-06-30T09:18:36.818+02:00,2022-06-30T08:20:05.567+02:00,926,1.452099,0,0,719.4605,0,0,2022-06-30T09:18:24.071+02:00
215,2022-06-30T09:18:36.935+02:00,3111.3537435,-61.03991683959962,-72.11927719116213,47.315706481933596,3111.3437915,1.212869643940318,2.531494510618777,0.3722009378988181,-23.85986137390137,29.34906768798828,-11.169189453125,-3.518397569656372,-0.0139424502849578,6.168456554412842,XArbitraryZVertical,-0.4885798293055514,0.8018893974803963,0.3132363456560334,0.1419371529615413,0.533717691898346,-0.3636665344238281,0.7634736895561218,0,0,0,-1,-1,3111.2373865,running,2,2022-06-30T09:18:36.818+02:00,2022-06-30T08:20:05.567+02:00,926,1.452099,0,0,719.4605,0,0,2022-06-30T09:18:24.071+02:00
216,2022-06-30T09:18:36.945+02:00,3111.3636945,-112.03751678466803,-75.99651443481444,73.3498681640625,3111.3537435,1.407330812356715,2.751387538595572,0.4795816454069787,-12.11320209503174,30.3121452331543,-9.341994285583496,-4.43837308883667,-2.473695993423462,6.109890460968018,XArbitraryZVertical,-0.5814731171222198,0.7563983906790942,0.299498235610062,-0.0071611994117706,0.3374668955802917,-0.4614080488681793,0.8204990029335022,0,0,0,-1,-1,3111.2373865,running,2,2022-06-30T09:18:36.818+02:00,2022-06-30T08:20:05.567+02:00,926,1.452099,0,0,719.4605,0,0,2022-06-30T09:18:24.071+02:00
217,2022-06-30T09:18:36.955+02:00,3111.3736465,-176.04127029418942,-53.125874176025384,122.61422241210938,3111.3636945,1.540075258547008,2.996555929160736,0.5254556796898274,-2.74958610534668,31.57279014587402,-11.13219738006592,-6.347244739532471,-6.850000858306885,3.967199325561523,XArbitraryZVertical,-0.6569976750659317,0.7045284739565196,0.2346653265465336,-0.1300997407233666,0.1250312030315399,-0.5016072392463684,0.8560126423835754,0,0,0,-1,-1,3111.2373865,running,2,2022-06-30T09:18:36.818+02:00,2022-06-30T08:20:05.567+02:00,926,1.452099,0,0,719.4605,0,0,2022-06-30T09:18:24.071+02:00
218,2022-06-30T09:18:36.965+02:00,3111.3835975,-183.0541868591309,-18.388510894775386,174.98731201171876,3111.3736465,1.706545416248189,-3.081312319339165,0.4913976315621826,8.346796035766602,24.54269027709961,-17.98400115966797,-11.36763000488281,-7.274982452392578,6.596978187561035,XArbitraryZVertical,-0.7352965192570228,0.6319616545037672,0.1378355736674156,-0.2023979457288884,-0.0531154461205005,-0.4718585908412933,0.8800730109214783,0,0,0,-1,-1,3111.2373865,running,2,2022-06-30T09:18:36.818+02:00,2022-06-30T08:20:05.567+02:00,926,1.452099,0,0,719.4605,0,0,2022-06-30T09:18:24.071+02:00
219,2022-06-30T09:18:36.975+02:00,3111.3935495,-172.0583528137207,2.8075616455078127,176.0743515014649,3111.3835975,1.95335126560656,-3.001989007680332,0.4247473352491992,8.14494800567627,13.60007858276367,-25.57489776611328,-17.81829833984375,-5.003390789031982,11.59662246704102,XArbitraryZVertical,-0.8162810535985435,0.5336898131363793,0.0612083591566601,-0.2124011234612128,-0.1267861872911453,-0.4120905697345734,0.9022791385650636,0,0,0,-1,-1,3111.2373865,running,2,2022-06-30T09:18:36.818+02:00,2022-06-30T08:20:05.567+02:00,926,1.452099,0,0,719.4605,0,0,2022-06-30T09:18:24.071+02:00
220,2022-06-30T09:18:36.985+02:00,3111.4035005,-180.11325256347658,23.766976318359376,141.24762405395506,3111.3935495,2.276409063475636,-3.064856340967421,0.4060895548083798,3.237076997756958,-0.9990528225898744,-31.59553146362305,-18.58953094482422,-1.479445576667786,16.92167663574219,XArbitraryZVertical,-0.8918200768089436,0.403288389763903,0.0503657859864322,-0.1986925807624601,-0.0704263821244239,-0.3950199484825134,0.9159691333770752,0,0,0,-1,-1,3111.2373865,running,2,2022-06-30T09:18:36.818+02:00,2022-06-30T08:20:05.567+02:00,926,1.452099,0,0,719.4605,0,0,2022-06-30T09:18:24.071+02:00
221,2022-06-30T09:18:36.995+02:00,3111.4134525,-180.4505012512207,38.98373291015625,126.8834944152832,3111.4035005,2.616349450856982,2.999909163830255,0.3408942852716697,9.769680976867676,-16.30609703063965,-32.46321868896484,-17.67216300964355,0.6205241680145264,17.01544380187988,XArbitraryZVertical,-0.9462144959726924,0.2668041018093593,0.1112909577504357,-0.1452864458397793,0.1330841928720474,-0.3343300521373749,0.93301260471344,0,0,0,-1,-1,3111.2373865,running,2,2022-06-30T09:18:36.818+02:00,2022-06-30T08:20:05.567+02:00,926,1.452099,0,0,719.4605,0,0,2022-06-30T09:18:24.071+02:00
222,2022-06-30T09:18:37.005+02:00,3111.4234035,-240.17645050048827,43.96237976074219,77.30374603271484,3111.4134525,2.897449239958499,2.708808039387642,0.1025762645585256,21.35492706298828,-28.71362495422363,-33.87423706054688,-18.77736473083496,2.525126218795776,13.49530124664307,XArbitraryZVertical,-0.9667955001002896,0.1296977804127965,0.2189265393417365,-0.0235871515832358,0.4171959757804871,-0.1023964732885361,0.9030300974845886,0,0,0,-1,-1,3111.2373865,running,2,2022-06-30T09:18:36.818+02:00,2022-06-30T08:20:05.567+02:00,926,1.452099,0,0,719.4605,0,0,2022-06-30T09:18:24.071+02:00
223,2022-06-30T09:18:37.014+02:00,3111.4333545,-314.43747390747075,86.4744255065918,-30.61568435668945,3111.4234035,2.992942290391721,2.385773545631609,-0.3110297034939332,34.77323532104492,-34.7155647277832,-27.87595748901367,-19.04752159118652,3.667838096618652,12.24130344390869,XArbitraryZVertical,-0.9199302386993709,0.0111913520810694,0.3528291500185817,0.1706305288310588,0.6529755592346191,0.3060390949249268,0.6927937865257263,0,0,0,-1,-1,3111.2373865,running,2,2022-06-30T09:18:36.818+02:00,2022-06-30T08:20:05.567+02:00,926,1.452099,0,0,719.4605,0,0,2022-06-30T09:18:24.071+02:00
224,2022-06-30T09:18:37.024+02:00,3111.4433065,-279.2806828308106,300.68437362670903,85.37361465454102,3111.4333545,2.757852312950633,1.923013897373834,-0.6061084405089989,34.88999938964844,-34.87827301025391,4.214970588684082,-25.25423622131348,3.9117112159729,7.596567630767822,XArbitraryZVertical,-0.8008907051315498,-0.018402556406964,0.4895125846831445,0.3444020837526532,0.771416425704956,0.5696734189987183,0.2835291624069214,0,0,0,-1,-1,3111.2373865,running,2,2022-06-30T09:18:36.818+02:00,2022-06-30T08:20:05.567+02:00,926,1.452099,0,0,719.4605,0,0,2022-06-30T09:18:24.071+02:00
225,2022-06-30T09:18:37.034+02:00,3111.4532575,-311.11378555297847,246.06116317749027,313.9767320251465,3111.4433065,2.343833991040664,1.34676283428898,-0.518581883017367,34.86816787719727,-34.90655517578125,12.75378799438477,-32.89956665039062,8.3192777633667,-2.927910089492798,XArbitraryZVertical,-0.633309113957058,0.04941923914543,0.6341686293839663,0.4408030924523292,0.8468178510665894,0.495648980140686,-0.1929546147584915,0,0,0,-1,-1,3111.2373865,running,2,2022-06-30T09:18:36.818+02:00,2022-06-30T08:20:05.567+02:00,926,1.452099,0,0,719.4605,0,0,2022-06-30T09:18:24.071+02:00
226,2022-06-30T09:18:37.044+02:00,3111.4632095,-241.21603866577152,-312.996270904541,301.1181715393066,3111.4532575,1.972449064180542,0.9102751070729002,-0.4001916492691593,34.75775146484375,-5.880320072174072,-11.66195201873779,-29.19625663757324,30.26120758056641,9.2677640914917,XArbitraryZVertical,-0.4577975222054456,0.0888578066262667,0.685891177832001,0.558640449440592,0.7272776961326599,0.3895948529243469,-0.5650514364242554,0,0,0,-1,-1,3111.2373865,running,2,2022-06-30T09:18:36.818+02:00,2022-06-30T08:20:05.567+02:00,926,1.452099,0,0,719.4605,0,0,2022-06-30T09:18:24.071+02:00
227,2022-06-30T09:18:37.054+02:00,3111.4731605,-31.065498962402344,-224.15496734619137,106.2759979248047,3111.4632095,1.705214879511861,0.9794923627715336,-0.1666003838519574,33.81892776489258,23.43291091918945,18.25973320007324,-32.53266143798828,24.91685676574707,32.55550765991211,XArbitraryZVertical,-0.4012980607884467,0.2531737454586324,0.6364268800036308,0.6081314233902932,0.8187195658683777,0.1658307611942291,-0.5497258305549622,0,0,0,-1,-1,3111.2373865,running,2,2022-06-30T09:18:36.818+02:00,2022-06-30T08:20:05.567+02:00,926,1.452099,0,0,719.4605,0,0,2022-06-30T09:18:24.071+02:00
228,2022-06-30T09:18:37.065+02:00,3111.4831115,-14.129866790771489,-130.4260276794434,-10.994486846923824,3111.4731605,1.584478175692958,1.167451143300941,0.1349136840148429,22.68330574035645,16.93224334716797,16.63521385192871,-25.50018692016602,-31.77133369445801,31.08395385742188,XArbitraryZVertical,-0.3519790267131128,0.4261988398923265,0.6187805053001021,0.5581899166005968,0.9113953113555908,-0.1345047801733017,-0.38893061876297,0,0,0,-1,-1,3111.2373865,running,2,2022-06-30T09:18:36.818+02:00,2022-06-30T08:20:05.567+02:00,926,1.452099,0,0,719.4605,0,0,2022-06-30T09:18:24.071+02:00
229,2022-06-30T09:18:37.074+02:00,3111.4930635,-1.1430230712890626,-91.78343536376951,17.853822784423826,3111.4831115,1.506206647926312,1.315756344564848,0.2746503272632415,0.2328463941812515,11.09084701538086,7.539369106292725,-4.098103046417236,-22.57843017578125,11.07626342773438,XArbitraryZVertical,-0.3352010760808279,0.5159709066969171,0.5971410332961097,0.5146230708388797,0.9313856959342957,-0.2712103724479675,-0.2428285181522369,0,0,0,-1,-1,3111.2373865,running,2,2022-06-30T09:18:36.818+02:00,2022-06-30T08:20:05.567+02:00,926,1.452099,0,0,719.4605,0,0,2022-06-30T09:18:24.071+02:00
230,2022-06-30T09:18:37.084+02:00,3111.5030145,-35.073414459228516,-53.27586227416993,26.64010162353516,3111.4930635,1.591800873806162,1.363254296421897,0.2998103107101696,-10.67822456359863,2.484611034393311,0.5350176692008972,-2.375243425369263,-12.9998722076416,-0.9238792657852172,XArbitraryZVertical,-0.3639839499255983,0.5187329130630066,0.6144499492836628,0.4699820418881794,0.9348901510238647,-0.2953389883041382,-0.1968636959791183,0,0,0,-1,-1,3111.2373865,running,2,2022-06-30T09:18:36.818+02:00,2022-06-30T08:20:05.567+02:00,926,1.452099,0,0,719.4605,0,0,2022-06-30T09:18:24.071+02:00
231,2022-06-30T09:18:37.094+02:00,3111.5129665,-148.06175399780275,5.539231109619141,95.99717285156251,3111.5030145,1.707964785362788,1.305953626961184,0.2663774111220154,-13.36804103851318,-7.891015529632568,-0.0593373253941535,-1.047610282897949,-9.092870712280272,2.072486877441406,XArbitraryZVertical,-0.3846830553700582,0.4751380731680834,0.6465113986439043,0.4563835177369928,0.9310943484306335,-0.2632383406162262,-0.2525255084037781,0,0,0,-1,-1,3111.2373865,running,2,2022-06-30T09:18:36.818+02:00,2022-06-30T08:20:05.567+02:00,926,1.452099,0,0,719.4605,0,0,2022-06-30T09:18:24.071+02:00
232,2022-06-30T09:18:37.104+02:00,3111.5229175,-166.8625076293945,20.8511897277832,99.82725814819338,3111.5129665,1.8714952306347,1.231396189520157,0.2520512260000735,-18.31201934814453,4.685659885406494,5.656203746795654,-4.488431453704834,-5.181379795074463,3.038008689880371,XArbitraryZVertical,-0.4003770933781219,0.4224891720639368,0.6950631374186519,0.4220051656009149,0.913159966468811,-0.2493909001350403,-0.3224021792411804,0,0,0,-1,-1,3111.2373865,running,2,2022-06-30T09:18:36.818+02:00,2022-06-30T08:20:05.567+02:00,926,1.452099,0,0,719.4605,0,0,2022-06-30T09:18:24.071+02:00
233,2022-06-30T09:18:37.114+02:00,3111.5328695,-22.00094879150391,-7.436385955810548,47.46015609741212,3111.5229175,2.054507764250735,1.306097595568843,0.2780007030756977,-13.80365753173828,16.69083595275879,9.839900016784668,-16.02105522155762,0.839085578918457,10.03721809387207,XArbitraryZVertical,-0.4581157667467436,0.4053923757390187,0.7167538266437655,0.3347400735021638,0.9281145930290222,-0.2744336724281311,-0.251573920249939,0,0,0,-1,-1,3111.2373865,running,2,2022-06-30T09:18:36.818+02:00,2022-06-30T08:20:05.567+02:00,926,1.452099,0,0,719.4605,0,0,2022-06-30T09:18:24.071+02:00
234,2022-06-30T09:18:37.124+02:00,3111.5428205,-10.168803863525387,-18.468744049072264,34.946328735351564,3111.5328695,2.222948879431595,1.386442611188179,0.3553892041302502,-15.27402114868164,9.145978927612305,12.09928417205811,-17.93105506896973,2.473459243774414,10.34792709350586,XArbitraryZVertical,-0.5034890984285199,0.4007125773129347,0.7286877227006695,0.2343977226019335,0.9216248989105223,-0.3479552865028381,-0.1718563139438629,0,0,0,-1,-1,3111.2373865,running,2,2022-06-30T09:18:36.818+02:00,2022-06-30T08:20:05.567+02:00,926,1.452099,0,0,719.4605,0,0,2022-06-30T09:18:24.071+02:00
235,2022-06-30T09:18:37.134+02:00,3111.5527715,-30.942005767822263,-10.616073760986325,39.48204666137695,3111.5428205,2.42715984276533,1.339902308705405,0.4563349503104677,-16.78847122192383,-1.850989818572998,15.26411724090576,-3.116557359695435,-0.3173799514770508,5.043367385864258,XArbitraryZVertical,-0.5046754329631076,0.377607386324405,0.7644496389572505,0.1353965297827034,0.8738513588905334,-0.4406610429286957,-0.20543073117733,0,0,0,-1,-1,3111.2373865,running,2,2022-06-30T09:18:36.818+02:00,2022-06-30T08:20:05.567+02:00,926,1.452099,0,0,719.4605,0,0,2022-06-30T09:18:24.071+02:00
236,2022-06-30T09:18:37.144+02:00,3111.5627235,-60.08744750976563,33.77246978759766,50.234187469482436,3111.5527715,2.649779413371465,1.186039748861692,0.563464744449738,-14.02855396270752,-6.070670604705811,16.16859436035156,-1.820176601409912,-1.348525762557983,3.879627704620361,XArbitraryZVertical,-0.4645608649254325,0.3542991885971646,0.8104247280772404,0.0432097535444039,0.7836015820503235,-0.5341185331344604,-0.3173105716705322,0,0,0,-1,-1,3111.2373865,running,2,2022-06-30T09:18:36.818+02:00,2022-06-30T08:20:05.567+02:00,926,1.452099,0,0,719.4605,0,0,2022-06-30T09:18:24.071+02:00
237,2022-06-30T09:18:37.154+02:00,3111.5726745,-73.72199432373047,36.56551162719726,16.648828582763677,3111.5627235,2.885234476149694,0.9950480464770288,0.6392753740219952,-13.59607791900635,-5.17481517791748,15.1464147567749,-3.827277421951294,-0.4855542778968811,4.461620330810547,XArbitraryZVertical,-0.4140641283809786,0.3317794078672667,0.8465823589670136,-0.0420911584397775,0.6731488108634949,-0.5966140627861023,-0.4369466304779053,0,0,0,-1,-1,3111.2373865,running,2,2022-06-30T09:18:36.818+02:00,2022-06-30T08:20:05.567+02:00,926,1.452099,0,0,719.4605,0,0,2022-06-30T09:18:24.071+02:00
238,2022-06-30T09:18:37.164+02:00,3111.5826265,-69.54133804321289,19.01810165405274,-2.192191314697266,3111.5726745,3.09356998693607,0.8144489253947256,0.6919931766024591,-4.850876331329346,-5.506125926971436,13.18247604370117,-6.685161590576172,4.08073091506958,5.649123191833496,XArbitraryZVertical,-0.3650069825982782,0.3202569780669862,0.8667836824679058,-0.1135404316843192,0.5600399374961853,-0.6380731463432312,-0.5284107327461243,0,0,0,-1,-1,3111.2373865,running,2,2022-06-30T09:18:36.818+02:00,2022-06-30T08:20:05.567+02:00,926,1.452099,0,0,719.4605,0,0,2022-06-30T09:18:24.071+02:00
239,2022-06-30T09:18:37.174+02:00,3111.5925775,-77.21932159423828,4.692142639160156,-0.44068359375000005,3111.5826265,-3.060940035619524,0.6668334630964166,0.7648029951509833,1.644726037979126,-7.084810733795166,10.84189891815186,-7.961243629455566,4.419766426086426,2.264086484909058,XArbitraryZVertical,-0.317603293386926,0.3400723019973115,0.8710423332557324,-0.1573663254907811,0.4462599754333496,-0.6923948526382446,-0.566957950592041,0,0,0,-1,-1,3111.2373865,running,2,2022-06-30T09:18:36.818+02:00,2022-06-30T08:20:05.567+02:00,926,1.452099,0,0,719.4605,0,0,2022-06-30T09:18:24.071+02:00
240,2022-06-30T09:18:37.184+02:00,3111.6025295,-81.3441439819336,-11.344159698486324,2.1047731018066407,3111.5925775,-2.963514042019133,0.5234673979409971,0.8422886165804171,3.357146263122559,-7.475447177886963,9.260589599609377,-7.421623706817627,2.684813261032104,0.3531412482261658,XArbitraryZVertical,-0.270324113466535,0.3723194965330074,0.8686421631696124,-0.1837496255954204,0.3328027129173279,-0.7461687326431274,-0.5766061544418335,0,0,0,-1,-1,3111.2373865,running,2,2022-06-30T09:18:36.818+02:00,2022-06-30T08:20:05.567+02:00,926,1.452099,0,0,719.4605,0,0,2022-06-30T09:18:24.071+02:00
241,2022-06-30T09:18:37.194+02:00,3111.6124805,-69.36590286254882,-17.368382263183594,1.701511688232422,3111.6025295,-2.858582504783786,0.369854017529098,0.9101490042598426,2.814088106155396,-7.134398460388184,8.853584289550781,-8.093303680419922,1.267897367477417,0.5272128582000732,XArbitraryZVertical,-0.2244420646464959,0.4044236013576668,0.8626902428572774,-0.2045307149888395,0.2218138575553894,-0.7895951867103577,-0.5721346139907837,0,0,0,-1,-1,3111.2373865,running,2,2022-06-30T09:18:36.818+02:00,2022-06-30T08:20:05.567+02:00,926,1.452099,0,0,719.4605,0,0,2022-06-30T09:18:24.071+02:00
242,2022-06-30T09:18:37.204+02:00,3111.6224315,-61.44976455688476,-16.0324104309082,0.9994715881347657,3111.6124805,-2.72818052764094,0.1945784918319062,0.9551492431369109,1.538077354431152,-7.110591411590576,8.662622451782227,-8.403619766235352,-0.3399873971939087,0.7811431884765625,XArbitraryZVertical,-0.178317470823399,0.4300095560404567,0.8559329828034159,-0.2251075322433023,0.1116588264703751,-0.8163999319076538,-0.5665892958641052,0,0,0,-1,-1,3111.2373865,running,2,2022-06-30T09:18:36.818+02:00,2022-06-30T08:20:05.567+02:00,926,1.452099,0,0,719.4605,0,0,2022-06-30T09:18:24.071+02:00
243,2022-06-30T09:18:37.214+02:00,3111.6323835,-62.07246963500976,-11.758797454833989,0.2501298522949219,3111.6224315,-2.581462402367271,0.0024984774470764,0.9722953566263072,0.1727742850780487,-7.168330669403076,8.400895118713379,-7.07234525680542,-0.94429612159729,0.7368495464324951,XArbitraryZVertical,-0.1302104197680926,0.4487135370081276,0.8495289252662823,-0.2449529216724476,0.0014076521620154,-0.8261811137199402,-0.5634028315544128,0,0,0,-1,-1,3111.2373865,running,2,2022-06-30T09:18:36.818+02:00,2022-06-30T08:20:05.567+02:00,926,1.452099,0,0,719.4605,0,0,2022-06-30T09:18:24.071+02:00
244,2022-06-30T09:18:37.224+02:00,3111.6423345,-61.679536743164064,-12.07808349609375,-4.1939785766601565,3111.6323835,-2.437786781175493,-0.184667653461606,0.9569597731117994,-1.808580160140991,-6.662559986114502,8.331809997558594,-6.158225536346436,-0.8168485164642334,0.668097198009491,XArbitraryZVertical,-0.0811951244837267,0.4585850010920263,0.8443798448835184,-0.264820642368594,-0.1057664975523949,-0.8174441456794739,-0.5662143230438232,0,0,0,-1,-1,3111.2373865,running,2,2022-06-30T09:18:36.818+02:00,2022-06-30T08:20:05.567+02:00,926,1.452099,0,0,719.4605,0,0,2022-06-30T09:18:24.071+02:00
245,2022-06-30T09:18:37.233+02:00,3111.6522865,-57.27644302368164,-13.26526473999024,-6.5168481445312505,3111.6423345,-2.316768278870478,-0.3483964781648683,0.9077102500678608,-3.876998662948608,-6.792749881744385,8.216876029968262,-6.117324352264404,-0.4105579257011414,0.6040678024291992,XArbitraryZVertical,-0.0303616497980222,0.4580316376101567,0.8414044150676474,-0.2851732832030673,-0.2101439237594604,-0.7880963683128357,-0.5785703659057617,0,0,0,-1,-1,3111.2373865,running,2,2022-06-30T09:18:36.818+02:00,2022-06-30T08:20:05.567+02:00,926,1.452099,0,0,719.4605,0,0,2022-06-30T09:18:24.071+02:00
246,2022-06-30T09:18:37.243+02:00,3111.6622375,-53.71938995361329,-9.691147155761719,-6.189329223632813,3111.6522865,-2.232501612433416,-0.4839064345929739,0.8315687869342332,-5.675389766693115,-7.455775737762451,7.995063781738281,-5.973973274230957,-0.4922120571136475,0.1688430905342102,XArbitraryZVertical,0.0247577999964976,0.4485589298669299,0.8404607120960919,-0.3029977691135817,-0.3134406208992004,-0.7389891743659973,-0.59636390209198,0,0,0,-1,-1,3111.2373865,running,2,2022-06-30T09:18:36.818+02:00,2022-06-30T08:20:05.567+02:00,926,1.452099,0,0,719.4605,0,0,2022-06-30T09:18:24.071+02:00
247,2022-06-30T09:18:37.253+02:00,3111.6721895,-52.85897918701172,-3.699257354736328,-7.33160385131836,3111.6622375,-2.183209541890406,-0.5951058257810631,0.7367901702567375,-6.936136722564697,-7.814559936523438,7.792000770568848,-5.423382759094238,-0.6803046464920044,-0.0509997606277465,XArbitraryZVertical,0.0839640575992777,0.4316208639293664,0.8401327515178666,-0.317538038388164,-0.4151940047740936,-0.6719141006469727,-0.6133069396018982,0,0,0,-1,-1,3111.2373865,running,2,2022-06-30T09:18:36.818+02:00,2022-06-30T08:20:05.567+02:00,926,1.452099,0,0,719.4605,0,0,2022-06-30T09:18:24.071+02:00
248,2022-06-30T09:18:37.263+02:00,3111.6821405,-51.50414657592775,2.148182830810547,-8.940907287597657,3111.6721895,-2.16009789408569,-0.6876382619226602,0.6358627552827286,-7.037980079650879,-7.77190113067627,7.188731670379639,-4.965317249298096,-0.3940128087997437,-0.009199321269989,XArbitraryZVertical,0.1437005258230662,0.4104747752201252,0.8384089091334215,-0.3285288732712384,-0.510665237903595,-0.5938718914985657,-0.6217212080955505,0,0,0,-1,-1,3111.2373865,running,2,2022-06-30T09:18:36.818+02:00,2022-06-30T08:20:05.567+02:00,926,1.452099,0,0,719.4605,0,0,2022-06-30T09:18:24.071+02:00
249,2022-06-30T09:18:37.273+02:00,3111.6920915,-50.02133010864257,5.279670867919922,-9.814640350341802,3111.6821405,-2.152118299321693,-0.7682670029778825,0.5415633794599113,-6.091112613677979,-7.521152019500732,6.41433572769165,-4.792820930480957,0.1383856534957886,-0.1311471462249756,XArbitraryZVertical,0.2000558775301445,0.3897062946451933,0.8338184367785232,-0.3359368930798758,-0.5954539775848389,-0.5154762864112854,-0.616213321685791,0,0,0,-1,-1,3111.2373865,running,2,2022-06-30T09:18:36.818+02:00,2022-06-30T08:20:05.567+02:00,926,1.452099,0,0,719.4605,0,0,2022-06-30T09:18:24.071+02:00
250,2022-06-30T09:18:37.283+02:00,3111.7020435,-49.44847137451172,6.897805938720704,-8.081993408203125,3111.6920915,-2.147729246559829,-0.8431102713105775,0.4617899411085021,-4.436614036560059,-7.037200927734375,5.69452953338623,-4.581665515899658,0.6645300388336182,-0.3159336447715759,XArbitraryZVertical,0.250595955296224,0.3734496674197093,0.825447197354352,-0.3411361654205972,-0.6685018539428711,-0.4455512762069702,-0.5954740047454834,0,0,0,-1,-1,3111.2373865,running,2,2022-06-30T09:18:36.818+02:00,2022-06-30T08:20:05.567+02:00,926,1.452099,0,0,719.4605,0,0,2022-06-30T09:18:24.071+02:00
251,2022-06-30T09:18:37.294+02:00,3111.7119945,-50.145272369384756,7.950866088867188,-6.487808532714844,3111.7020435,-2.140411048908215,-0.9115466913806128,0.3974120493841355,-2.897810220718384,-6.017722606658936,5.138128757476807,-4.370165348052979,0.9252259135246276,-0.4356859922409058,XArbitraryZVertical,0.2934806146449145,0.3625954833503508,0.8139457505216648,-0.3462455695201296,-0.7288487553596497,-0.3870333731174469,-0.5647872686386108,0,0,0,-1,-1,3111.2373865,running,2,2022-06-30T09:18:36.818+02:00,2022-06-30T08:20:05.567+02:00,926,1.452099,0,0,719.4605,0,0,2022-06-30T09:18:24.071+02:00
252,2022-06-30T09:18:37.303+02:00,3111.7219465,-48.35619277954101,3.9320233154296877,-11.144175567626949,3111.7119945,-2.134372169397427,-0.96642486579799,0.3421989525947917,-2.895618200302124,-4.546554088592529,4.412734985351562,-4.265469551086426,1.038699388504028,-0.2885551452636719,XArbitraryZVertical,0.328237920088341,0.3530029058945591,0.8024207447325511,-0.3518093707777596,-0.7751492857933044,-0.3355593681335449,-0.5352976322174072,0,0,0,-1,-1,3111.2373865,running,2,2022-06-30T09:18:36.818+02:00,2022-06-30T08:20:05.567+02:00,926,1.452099,0,0,719.4605,0,0,2022-06-30T09:18:24.071+02:00
253,2022-06-30T09:18:37.313+02:00,3111.7318975,-42.07166152954101,-1.8446141052246094,-16.208594055175784,3111.7219465,-2.137930911215894,-1.004674885817434,0.2933075851657411,-2.966126680374146,-3.454792737960815,3.439374685287476,-4.303705215454102,1.099605798721313,-0.147890567779541,XArbitraryZVertical,0.3559715391511382,0.3414032829554614,0.793990867078335,-0.3553964588552932,-0.8079433441162109,-0.2891201376914978,-0.5134561061859131,0,0,0,-1,-1,3111.2373865,running,2,2022-06-30T09:18:36.818+02:00,2022-06-30T08:20:05.567+02:00,926,1.452099,0,0,719.4605,0,0,2022-06-30T09:18:24.071+02:00
254,2022-06-30T09:18:37.323+02:00,3111.7418495,-35.9541828918457,-4.774172058105469,-15.99873046875,3111.7318975,-2.144256304029858,-1.034949457182996,0.2520040898512485,-2.403082609176636,-3.026495218276978,3.071341753005981,-4.096596717834473,0.650162935256958,-0.6415590047836304,XArbitraryZVertical,0.3787671749037563,0.3306266418924529,0.7869168697637341,-0.3577476263532935,-0.8326783776283264,-0.2493452429771423,-0.4944429099559784,0,0,0,-1,-1,3111.2373865,running,2,2022-06-30T09:18:36.818+02:00,2022-06-30T08:20:05.567+02:00,926,1.452099,0,0,719.4605,0,0,2022-06-30T09:18:24.071+02:00
255,2022-06-30T09:18:37.333+02:00,3111.7518005,-31.513666992187503,-5.1254914855957034,-14.256653137207032,3111.7418495,-2.148842412344759,-1.062021257729022,0.214918912791953,-2.165941715240479,-2.603536367416382,2.93033766746521,-3.43540096282959,0.0252339541912078,-1.176351189613342,XArbitraryZVertical,0.3986763433901599,0.3211020490667595,0.7797219184721976,-0.3605335617502424,-0.8532494902610779,-0.2132682055234909,-0.4759013056755066,0,0,0,-1,-1,3111.2373865,running,2,2022-06-30T09:18:36.818+02:00,2022-06-30T08:20:05.567+02:00,926,1.452099,0,0,719.4605,0,0,2022-06-30T09:18:24.071+02:00
256,2022-06-30T09:18:37.343+02:00,3111.7617515,-28.03475143432618,-4.023782501220703,-12.993130645751949,3111.7518005,-2.155571626962503,-1.083621573242976,0.1796012234497887,-2.449398517608643,-1.994110465049744,2.667770147323608,-2.795608758926392,-0.3080267310142517,-1.170258283615112,XArbitraryZVertical,0.4160807831499346,0.3107669959453863,0.77359112805495,-0.3631217407063124,-0.8694453239440918,-0.178637221455574,-0.4606013000011444,0,0,0,-1,-1,3111.2373865,running,2,2022-06-30T09:18:36.818+02:00,2022-06-30T08:20:05.567+02:00,926,1.452099,0,0,719.4605,0,0,2022-06-30T09:18:24.071+02:00
257,2022-06-30T09:18:37.353+02:00,3111.7717035,-25.18437881469726,-2.604434051513672,-11.858939208984376,3111.7617515,-2.168632257035474,-1.098255994699749,0.1446293407515415,-3.124226808547974,-1.367312908172607,2.368870973587036,-2.331283569335938,-0.378350704908371,-1.002880215644836,XArbitraryZVertical,0.4313711143400584,0.297859201623363,0.7696806572699286,-0.3644046523165768,-0.8811185359954834,-0.1441256552934647,-0.4503977298736572,0,0,0,-1,-1,3111.2373865,running,2,2022-06-30T09:18:36.818+02:00,2022-06-30T08:20:05.567+02:00,926,1.452099,0,0,719.4605,0,0,2022-06-30T09:18:24.071+02:00
258,2022-06-30T09:18:37.363+02:00,3111.7816545,-22.366039581298825,-1.1220666503906251,-11.472442932128907,3111.7717035,-2.189623045411797,-1.10688424893402,0.1097567118246078,-3.738588571548462,-0.9170998930931092,1.998613715171814,-1.968844890594482,-0.3006351888179779,-0.8797207474708557,XArbitraryZVertical,0.4451069823483954,0.281959022605424,0.7682281901863218,-0.363599395534935,-0.888927698135376,-0.1095364764332771,-0.4447577595710754,0,0,0,-1,-1,3111.2373865,running,2,2022-06-30T09:18:36.818+02:00,2022-06-30T08:20:05.567+02:00,926,1.452099,0,0,719.4605,0,0,2022-06-30T09:18:24.071+02:00
259,2022-06-30T09:18:37.373+02:00,3111.7916065,-20.05918670654297,-0.12693603515625002,-13.242661743164064,3111.7816545,-2.216464423491162,-1.111626501857464,0.0762131694316815,-4.029646873474121,-0.5370433926582336,1.6612868309021,-1.673396229743958,-0.1893483996391296,-0.7669451236724854,XArbitraryZVertical,0.4574013972246219,0.2642445334392927,0.7686200477809539,-0.3608076877453402,-0.8938186764717102,-0.0761394128203392,-0.4419175684452057,0,0,0,-1,-1,3111.2373865,running,2,2022-06-30T09:18:36.818+02:00,2022-06-30T08:20:05.567+02:00,926,1.452099,0,0,719.4605,0,0,2022-06-30T09:18:24.071+02:00
260,2022-06-30T09:18:37.383+02:00,3111.8015575,-18.172360382080075,1.265917510986328,-13.90473495483399,3111.7916065,-2.245346784974954,-1.113793259273849,0.0447154945946003,-3.912128686904907,-0.2717199921607971,1.478787302970886,-1.383440375328064,-0.0696794092655181,-0.7286447882652283,XArbitraryZVertical,0.4680241817337794,0.2460559681039741,0.7700093525328073,-0.3570650957674919,-0.896481990814209,-0.0447005964815616,-0.440819650888443,0,0,0,-1,-1,3111.2373865,running,2,2022-06-30T09:18:36.818+02:00,2022-06-30T08:20:05.567+02:00,926,1.452099,0,0,719.4605,0,0,2022-06-30T09:18:24.071+02:00
