,loggingTime(txt),accelerometerTimestamp_sinceReboot(s),accelerometerAccelerationX(G),accelerometerAccelerationY(G),accelerometerAccelerationZ(G),motionTimestamp_sinceReboot(s),motionYaw(rad),motionRoll(rad),motionPitch(rad),motionRotationRateX(rad/s),motionRotationRateY(rad/s),motionRotationRateZ(rad/s),motionUserAccelerationX(G),motionUserAccelerationY(G),motionUserAccelerationZ(G),motionAttitudeReferenceFrame(txt),motionQuaternionX(R),motionQuaternionY(R),motionQuaternionZ(R),motionQuaternionW(R),motionGravityX(G),motionGravityY(G),motionGravityZ(G),motionMagneticFieldX(µT),motionMagneticFieldY(µT),motionMagneticFieldZ(µT),motionHeading(°),motionMagneticFieldCalibrationAccuracy(Z),activityTimestamp_sinceReboot(s),activity(txt),activityActivityConfidence(Z),activityActivityStartDate(txt),pedometerStartDate(txt),pedometerNumberofSteps(N),pedometerAverageActivePace(s/m),pedometerCurrentPace(s/m),pedometerCurrentCadence(steps/s),pedometerDistance(m),pedometerFloorAscended(N),pedometerFloorDescended(N),pedometerEndDate(txt)
250,2022-06-30T09:19:32.866+02:00,3167.2853875,3.386707305908203,-3.7176690673828126,-7.607180786132813,3167.2754355,-3.023692591886516,0.7856372352163596,0.8273104554980879,-3.036605834960938,7.461125373840332,-3.120639562606812,0.0500836372375488,0.2149803042411804,-0.3382910192012787,XArbitraryZVertical,-0.3717773082415518,0.3500476958053976,0.8353809189313944,-0.203438000389834,0.4787253439426422,-0.7361136078834534,-0.4784964919090271,0,0,0,-1,-1,3162.18954225,unknown,2,2022-06-30T09:19:27.770+02:00,2022-06-30T08:20:05.567+02:00,926,1.452099,0,0,719.4605,0,0,2022-06-30T09:18:24.071+02:00
251,2022-06-30T09:19:32.876+02:00,3167.2953385,2.6888584899902344,-3.2084280395507814,-6.915319519042969,3167.2853875,-3.022163356483649,0.8627216127473976,0.7791839847354395,-3.70168137550354,8.226414680480957,-3.839427947998047,-0.0842794775962829,0.2244887351989746,-0.3396362066268921,XArbitraryZVertical,-0.4066771743327798,0.3213219842635072,0.8293511149370866,-0.2086686784042107,0.5404566526412964,-0.7026990652084351,-0.4627317190170288,0,0,0,-1,-1,3167.2869705,unknown,2,2022-06-30T09:19:32.867+02:00,2022-06-30T08:20:05.567+02:00,926,1.452099,0,0,719.4605,0,0,2022-06-30T09:18:24.071+02:00
252,2022-06-30T09:19:32.886+02:00,3167.3052895,2.5283921813964847,-2.809208221435547,-6.479276275634766,3167.2953385,-3.014784230577646,0.9437136305752636,0.7212203523882501,-4.358314514160156,9.04697036743164,-4.642183303833008,-0.2628868222236633,0.2813345193862915,-0.3347755670547485,XArbitraryZVertical,-0.4443649255464175,0.2867087173484708,0.8215991083149391,-0.2128682809420628,0.6081172823905945,-0.6603016257286072,-0.4406758546829224,0,0,0,-1,-1,3167.2869705,unknown,2,2022-06-30T09:19:32.867+02:00,2022-06-30T08:20:05.567+02:00,926,1.452099,0,0,719.4605,0,0,2022-06-30T09:18:24.071+02:00
253,2022-06-30T09:19:32.896+02:00,3167.3152415,1.9654129028320313,-1.4780264282226563,-5.749543762207032,3167.3052895,-3.001366887307077,1.030057660982932,0.6537827817099924,-4.89436674118042,9.996349334716797,-5.521957874298096,-0.4064440131187439,0.2811367511749268,-0.2963069677352905,XArbitraryZVertical,-0.484907152796328,0.2460811376238245,0.8110880828997676,-0.2155118998988218,0.6805379986763,-0.6081934571266174,-0.4086182415485382,0,0,0,-1,-1,3167.2869705,unknown,2,2022-06-30T09:19:32.867+02:00,2022-06-30T08:20:05.567+02:00,926,1.452099,0,0,719.4605,0,0,2022-06-30T09:18:24.071+02:00
254,2022-06-30T09:19:32.906+02:00,3167.3251925,1.4645544433593751,-1.3275892639160156,-5.99757797241211,3167.3152415,-2.980465737498863,1.122625441977532,0.5767943362983111,-5.453861236572266,11.00024127960205,-6.478972434997559,-0.4976975917816162,0.2589781284332275,-0.2972627878189087,XArbitraryZVertical,-0.5280359847816719,0.1989251280693637,0.7967792103494153,-0.2162171719976328,0.7554341554641724,-0.5453397035598755,-0.3632135987281799,0,0,0,-1,-1,3167.2869705,unknown,2,2022-06-30T09:19:32.867+02:00,2022-06-30T08:20:05.567+02:00,926,1.452099,0,0,719.4605,0,0,2022-06-30T09:18:24.071+02:00
255,2022-06-30T09:19:32.916+02:00,3167.3351435,1.2891192626953125,0.2851570129394531,-3.3127610778808596,3167.3251925,-2.952527983722632,1.223381205090777,0.4911127625424847,-5.695430278778076,12.05728435516357,-7.543146133422852,-0.6287776827812195,0.320942223072052,-0.2858615815639496,XArbitraryZVertical,-0.5733245610561488,0.145550291765712,0.7773974414771477,-0.2139334256393038,0.8291259407997131,-0.4716074168682098,-0.3002281188964844,0,0,0,-1,-1,3167.2869705,unknown,2,2022-06-30T09:19:32.867+02:00,2022-06-30T08:20:05.567+02:00,926,1.452099,0,0,719.4605,0,0,2022-06-30T09:18:24.071+02:00
256,2022-06-30T09:19:32.926+02:00,3167.3450955,1.4935940551757814,2.8740234375,1.7736616516113282,3167.3351435,-2.916377360497205,1.333136016402543,0.3966734012648506,-6.103280067443848,13.06167984008789,-8.767142295837402,-0.7471333146095276,0.2510221004486084,-0.3942248821258545,XArbitraryZVertical,-0.6197336934920683,0.0857662211626691,0.7519704027184502,-0.2076415046414153,0.8964255452156067,-0.3863521814346313,-0.2171486020088196,0,0,0,-1,-1,3167.2869705,unknown,2,2022-06-30T09:19:32.867+02:00,2022-06-30T08:20:05.567+02:00,926,1.452099,0,0,719.4605,0,0,2022-06-30T09:18:24.071+02:00
257,2022-06-30T09:19:32.936+02:00,3167.3550465,-0.3990701293945313,5.2611094665527345,8.34993621826172,3167.3450955,-2.865867822771797,1.451247635019844,0.2929068045083519,-7.153654098510742,14.04462623596191,-10.10200309753418,-0.8191664218902588,0.3178046047687531,-0.2235072553157806,XArbitraryZVertical,-0.6652720388838059,0.0179126517590005,0.7197470448500312,-0.1976268872094374,0.9505751132965088,-0.2887364327907562,-0.1141844987869263,0,0,0,-1,-1,3167.2869705,unknown,2,2022-06-30T09:19:32.867+02:00,2022-06-30T08:20:05.567+02:00,926,1.452099,0,0,719.4605,0,0,2022-06-30T09:18:24.071+02:00
258,2022-06-30T09:19:32.946+02:00,3167.3649975,-3.2683035278320314,8.185428314208984,15.344291381835939,3167.3550465,-2.790832465036473,1.579071165356802,0.1812629930908747,-8.80505084991455,15.10589122772217,-11.54134559631348,-0.8313308954238892,0.4732408821582794,0.1726627349853516,XArbitraryZVertical,-0.7073856226286345,-0.0606231748639055,0.6793147949951271,-0.1856388148840475,0.9835830926895142,-0.1802720129489899,0.0081391772255301,0,0,0,-1,-1,3167.2869705,unknown,2,2022-06-30T09:19:32.867+02:00,2022-06-30T08:20:05.567+02:00,926,1.452099,0,0,719.4605,0,0,2022-06-30T09:18:24.071+02:00
259,2022-06-30T09:19:32.956+02:00,3167.3749495,-10.0782421875,12.092154235839844,23.176604003906252,3167.3649975,-2.682265604266686,1.723096675955022,0.0674438128702706,-11.03474044799805,16.47596549987793,-13.06913185119629,-1.026857614517212,0.603693425655365,0.6997989416122437,XArbitraryZVertical,-0.7435052708443696,-0.1512731759991361,0.6279780563811297,-0.1730889979977694,0.9861774444580078,-0.0673926919698715,0.1513673216104507,0,0,0,-1,-1,3167.2869705,unknown,2,2022-06-30T09:19:32.867+02:00,2022-06-30T08:20:05.567+02:00,926,1.452099,0,0,719.4605,0,0,2022-06-30T09:18:24.071+02:00
260,2022-06-30T09:19:32.966+02:00,3167.3849005,-23.459515686035157,15.2420539855957,40.33572143554688,3167.3749495,-2.530490655830975,1.895079528552955,-0.0363224472896737,-13.85069179534912,18.46463966369629,-14.39004707336426,-1.280414819717407,0.7980818748474121,1.245729207992554,XArbitraryZVertical,-0.7710557337759676,-0.2543279147977664,0.5609911408073545,-0.1614908898413584,0.9472541809082032,0.0363144613802433,0.3184192776679993,0,0,0,-1,-1,3167.2869705,unknown,2,2022-06-30T09:19:32.867+02:00,2022-06-30T08:20:05.567+02:00,926,1.452099,0,0,719.4605,0,0,2022-06-30T09:18:24.071+02:00
261,2022-06-30T09:19:32.976+02:00,3167.3948515,-43.46765853881837,12.605287170410158,68.57584579467775,3167.3849005,-2.327477503868717,2.105491887247542,-0.1046639573937999,-17.70370101928711,20.70997619628906,-15.15579128265381,-1.88305926322937,1.128162384033203,1.855758666992188,XArbitraryZVertical,-0.7864503458634535,-0.3672752516575041,0.4720947518933428,-0.1540494373517731,0.855715274810791,0.1044729724526405,0.5067905187606812,0,0,0,-1,-1,3167.2869705,unknown,2,2022-06-30T09:19:32.867+02:00,2022-06-30T08:20:05.567+02:00,926,1.452099,0,0,719.4605,0,0,2022-06-30T09:18:24.071+02:00
262,2022-06-30T09:19:32.986+02:00,3167.4048035,-65.006368560791,-7.7284286499023445,90.78890350341798,3167.3948515,-2.066993290702495,2.356987901668181,-0.0952838211686877,-25.05862617492676,24.1988353729248,-15.63023853302002,-3.094728946685791,1.45858633518219,3.40723705291748,XArbitraryZVertical,-0.7836099978391327,-0.4880410931241629,0.350596451739578,-0.1576493699591708,0.7033405303955078,0.09513970464468,0.7044574618339539,0,0,0,-1,-1,3167.2869705,unknown,2,2022-06-30T09:19:32.867+02:00,2022-06-30T08:20:05.567+02:00,926,1.452099,0,0,719.4605,0,0,2022-06-30T09:18:24.071+02:00
263,2022-06-30T09:19:32.996+02:00,3167.4147545,-90.17742507934571,-49.30761428833007,71.21590576171876,3167.4048035,-1.770736271742321,2.640043323130516,0.0394320914329144,-30.56551361083984,30.5302677154541,-16.50485038757324,-4.911365032196045,1.324364185333252,6.114245414733887,XArbitraryZVertical,-0.7528841941458911,-0.6092980484689892,0.1799818209306711,-0.171837196201927,0.4804110825061798,-0.0394218750298023,0.8761574625968933,0,0,0,-1,-1,3167.2869705,unknown,2,2022-06-30T09:19:32.867+02:00,2022-06-30T08:20:05.567+02:00,926,1.452099,0,0,719.4605,0,0,2022-06-30T09:18:24.071+02:00
264,2022-06-30T09:19:33.006+02:00,3167.4247055,-142.31116241455072,-73.4690203857422,56.414834747314444,3167.4147545,-1.522820118295496,2.942294162736164,0.2263091358369249,-19.16157722473145,35.00293731689453,-16.43605422973633,-6.819474697113037,-0.5634294152259827,8.299518585205078,XArbitraryZVertical,-0.6902609380428758,-0.7079165336275414,-0.0131287402818888,-0.149069860771428,0.1929335296154022,-0.2243823111057281,0.9552119374275208,0,0,0,-1,-1,3167.2869705,unknown,2,2022-06-30T09:19:32.867+02:00,2022-06-30T08:20:05.567+02:00,926,1.452099,0,0,719.4605,0,0,2022-06-30T09:18:24.071+02:00
265,2022-06-30T09:19:33.016+02:00,3167.4346575,-224.26588668823246,-56.20661773681641,109.41706604003907,3167.4247055,-1.340983494544724,-3.05015031401539,0.3154953120764877,-0.8193301558494568,32.35942459106445,-17.61293792724609,-9.105589866638184,-4.715973377227783,6.312849998474121,XArbitraryZVertical,-0.6073891985264198,-0.7774407123996138,-0.151004550787717,-0.0621456582007216,-0.0868079364299774,-0.3102873861789703,0.946671426296234,0,0,0,-1,-1,3167.2869705,unknown,2,2022-06-30T09:19:32.867+02:00,2022-06-30T08:20:05.567+02:00,926,1.452099,0,0,719.4605,0,0,2022-06-30T09:18:24.071+02:00
266,2022-06-30T09:19:33.026+02:00,3167.4446085,-245.34490264892577,-17.25222381591797,173.57454986572262,3167.4346575,-1.146195546360838,-2.857588461445518,0.2800302164868792,14.4630651473999,18.80899620056152,-18.19460105895996,-14.23745727539062,-7.212812423706055,4.828198909759521,XArbitraryZVertical,-0.5149313571360467,-0.8343381515261965,-0.1920693139827024,0.0428375782695044,-0.2692870795726776,-0.2763846814632416,0.9225488901138306,0,0,0,-1,-1,3167.2869705,unknown,2,2022-06-30T09:19:32.867+02:00,2022-06-30T08:20:05.567+02:00,926,1.452099,0,0,719.4605,0,0,2022-06-30T09:18:24.071+02:00
267,2022-06-30T09:19:33.036+02:00,3167.4545595,-248.1389923095703,38.161941833496094,157.0483163452149,3167.4446085,-0.8774085097803754,-2.787747114570273,0.2101047112619766,13.04120063781738,6.335600852966309,-27.32147026062012,-22.52205848693848,-5.520960807800293,10.23620700836182,XArbitraryZVertical,-0.3991232825994288,-0.8940973601804006,-0.1677948387871736,0.1146106219020223,-0.3388877511024475,-0.2085623145103455,0.9174189567565918,0,0,0,-1,-1,3167.2869705,unknown,2,2022-06-30T09:19:32.867+02:00,2022-06-30T08:20:05.567+02:00,926,1.452099,0,0,719.4605,0,0,2022-06-30T09:18:24.071+02:00
268,2022-06-30T09:19:33.046+02:00,3167.4645115,-229.2002256774903,47.65445205688476,108.04232482910157,3167.4545595,-0.5500663526593204,-2.885095508065904,0.2080313035987875,8.998367309570312,-12.18506526947021,-32.69586563110352,-24.76144981384277,-1.55210280418396,16.7472038269043,XArbitraryZVertical,-0.25511247701652,-0.952959783260522,-0.1336517536401002,0.0944592004066144,-0.2482240945100784,-0.2065340578556061,0.946429431438446,0,0,0,-1,-1,3167.2869705,unknown,2,2022-06-30T09:19:32.867+02:00,2022-06-30T08:20:05.567+02:00,926,1.452099,0,0,719.4605,0,0,2022-06-30T09:18:24.071+02:00
269,2022-06-30T09:19:33.056+02:00,3167.4744625,-252.72590377807623,37.885466766357425,59.77848999023438,3167.4645115,-0.1989612324786256,3.124660305227707,0.126091702654271,18.08170127868652,-29.49055671691895,-34.54489517211914,-25.3112907409668,4.01586389541626,15.0170841217041,XArbitraryZVertical,-0.0996465049125835,-0.9929904269212813,-0.0618511953614948,-0.0146646083057391,0.0167971197515726,-0.1257578432559967,0.9919188022613524,0,0,0,-1,-1,3167.2869705,unknown,2,2022-06-30T09:19:32.867+02:00,2022-06-30T08:20:05.567+02:00,926,1.452099,0,0,719.4605,0,0,2022-06-30T09:18:24.071+02:00
270,2022-06-30T09:19:33.066+02:00,3167.4844135,-314.44031799316406,122.831720123291,-37.272491455078125,3167.4744625,0.0586167723800541,2.794089788963036,-0.2018609827712254,34.708740234375,-34.76286315917969,-26.24071311950684,-23.69757270812988,4.657249450683594,10.09235382080078,XArbitraryZVertical,0.0461276954454399,-0.9789993305803356,0.0941591972703359,-0.1748330410820744,0.3336361646652222,0.2004928737878799,0.921134889125824,0,0,0,-1,-1,3167.2869705,unknown,2,2022-06-30T09:19:32.867+02:00,2022-06-30T08:20:05.567+02:00,926,1.452099,0,0,719.4605,0,0,2022-06-30T09:18:24.071+02:00
271,2022-06-30T09:19:33.076+02:00,3167.4943655,-272.89361480712887,312.8730770874024,50.86258071899413,3167.4844135,-0.0440246999566929,2.398754713665225,-0.5385494674398498,34.87946319580078,-34.89141845703125,8.219404220581055,-26.34271049499512,3.349031686782837,5.461332321166992,XArbitraryZVertical,0.0767592208158305,-0.9001421815579826,0.2555330270584742,-0.3443182682329556,0.5806417465209961,0.5128912925720215,0.6322958469390869,0,0,0,-1,-1,3167.2869705,unknown,2,2022-06-30T09:19:32.867+02:00,2022-06-30T08:20:05.567+02:00,926,1.452099,0,0,719.4605,0,0,2022-06-30T09:18:24.071+02:00
272,2022-06-30T09:19:33.086+02:00,3167.5043165,-290.98634078979495,266.59471343994136,313.9732891845703,3167.4943655,-0.4608690465989327,1.814242145940813,-0.6303403744031302,34.87009048461914,-34.90416717529297,12.13258361816406,-32.8370475769043,11.9316520690918,-3.994163990020752,XArbitraryZVertical,0.0148476047400311,-0.7727497673200168,0.3714940609244572,-0.5144216079762135,0.7840067744255066,0.5894197821617126,0.1947253048419952,0,0,0,-1,-1,3167.2869705,unknown,2,2022-06-30T09:19:32.867+02:00,2022-06-30T08:20:05.567+02:00,926,1.452099,0,0,719.4605,0,0,2022-06-30T09:18:24.071+02:00
273,2022-06-30T09:19:33.095+02:00,3167.5142675,-290.4118354797363,-307.59804656982425,298.7288401794434,3167.5043165,-0.8860132716172683,1.273610422165357,-0.5906569249257098,34.78915405273438,-14.18620681762695,-4.899816989898682,-28.61206817626953,31.33637237548828,5.427986621856689,XArbitraryZVertical,-0.0324396419758646,-0.6142790684372471,0.4860825642721012,-0.6207516268329792,0.7941661477088928,0.5569067597389221,-0.243217796087265,0,0,0,-1,-1,3167.2869705,unknown,2,2022-06-30T09:19:32.867+02:00,2022-06-30T08:20:05.567+02:00,926,1.452099,0,0,719.4605,0,0,2022-06-30T09:18:24.071+02:00
274,2022-06-30T09:19:33.105+02:00,3167.5242195,-43.924807891845695,-263.8190354919434,-6.409671020507813,3167.5142675,-1.210674198410419,1.155676654049714,-0.4144164123765725,27.853759765625,12.36097431182861,16.33068466186523,-30.49982452392578,26.77315521240234,32.37459182739258,XArbitraryZVertical,-0.1624620853746079,-0.5376111191314435,0.5588617033330782,-0.6101261099809463,0.837608814239502,0.4026558101177216,-0.3691607117652893,0,0,0,-1,-1,3167.2869705,unknown,2,2022-06-30T09:19:32.867+02:00,2022-06-30T08:20:05.567+02:00,926,1.452099,0,0,719.4605,0,0,2022-06-30T09:18:24.071+02:00
275,2022-06-30T09:19:33.115+02:00,3167.5341705,-41.26244430541993,-78.14424819946288,-38.531972351074224,3167.5242195,-1.331581767210449,1.177096200652578,-0.1719606859432249,10.56477069854736,-1.513770699501038,16.68740272521973,-30.51352882385254,-31.52667427062988,30.82941246032715,XArbitraryZVertical,-0.285470179031532,-0.4790945801276622,0.5493489355124036,-0.6222466941672967,0.909875512123108,0.171114444732666,-0.3779503107070923,0,0,0,-1,-1,3167.2869705,unknown,2,2022-06-30T09:19:32.867+02:00,2022-06-30T08:20:05.567+02:00,926,1.452099,0,0,719.4605,0,0,2022-06-30T09:18:24.071+02:00
276,2022-06-30T09:19:33.125+02:00,3167.5441215,-111.45447921752933,-55.716237487792974,77.78604309082031,3167.5341705,-1.291032444038432,1.131420809762799,-0.0464588110999653,-4.724194526672363,-8.556351661682129,9.658928871154783,-5.381595134735107,-26.93931007385254,-0.2284657657146454,XArbitraryZVertical,-0.3067226402101053,-0.4398448819075724,0.5176927971545165,-0.6666722649174954,0.9040409922599792,0.0464420989155769,-0.4249154031276703,0,0,0,-1,-1,3167.2869705,unknown,2,2022-06-30T09:19:32.867+02:00,2022-06-30T08:20:05.567+02:00,926,1.452099,0,0,719.4605,0,0,2022-06-30T09:18:24.071+02:00
277,2022-06-30T09:19:33.135+02:00,3167.5540735,-142.87159698486323,-31.211595153808595,153.79692764282225,3167.5441215,-1.189266453632833,1.058083375126739,-0.0298818158386643,-11.29720211029053,-1.64865243434906,8.247319221496582,-5.077189445495605,-7.995652198791504,-3.437501668930054,XArbitraryZVertical,-0.2720233976521504,-0.4252542597315716,0.4898122034849058,-0.7108066554712266,0.8710278868675232,0.0298773683607578,-0.4903241693973541,0,0,0,-1,-1,3167.2869705,unknown,2,2022-06-30T09:19:32.867+02:00,2022-06-30T08:20:05.567+02:00,926,1.452099,0,0,719.4605,0,0,2022-06-30T09:18:24.071+02:00
278,2022-06-30T09:19:33.145+02:00,3167.5640245,-26.689199523925783,11.859687652587887,135.99908843994137,3167.5540735,-1.027651042879211,1.129291038934524,0.033974858947117,-13.8350248336792,15.13836860656738,15.18676280975342,-12.26490020751953,-5.645566940307617,8.356314659118652,XArbitraryZVertical,-0.275475323501242,-0.4588967257916717,0.4072430414473606,-0.7400541628184895,0.9035876989364624,-0.0339683219790458,-0.4270542860031128,0,0,0,-1,-1,3167.2869705,unknown,2,2022-06-30T09:19:32.867+02:00,2022-06-30T08:20:05.567+02:00,926,1.452099,0,0,719.4605,0,0,2022-06-30T09:18:24.071+02:00
279,2022-06-30T09:19:33.155+02:00,3167.5739755,-11.819271697998051,-10.299332427978511,50.560059814453126,3167.5640245,-0.7902237485028246,1.254566784104406,0.13185589094665,-22.16127777099609,11.45902442932129,22.12510871887207,-15.50603771209717,-3.05013632774353,15.98585224151611,XArbitraryZVertical,-0.2746607368911739,-0.5200178661784068,0.2752679501852702,-0.7605066853518173,0.9421647191047668,-0.1314741522073746,-0.3082858026027679,0,0,0,-1,-1,3167.2869705,unknown,2,2022-06-30T09:19:32.867+02:00,2022-06-30T08:20:05.567+02:00,926,1.452099,0,0,719.4605,0,0,2022-06-30T09:18:24.071+02:00
280,2022-06-30T09:19:33.165+02:00,3167.5839275,-43.36721740722656,48.371910095214844,55.83509033203125,3167.5739755,-0.5078033761643158,1.223793719355401,0.2791285981934024,-19.90486145019531,-6.580645561218262,20.01259231567383,-3.624610900878906,1.484456300735474,14.19022941589355,XArbitraryZVertical,-0.2531020928249218,-0.5219964431836558,0.1262619075267245,-0.8046844003373249,0.903999090194702,-0.2755180895328522,-0.3269180953502655,0,0,0,-1,-1,3167.2869705,unknown,2,2022-06-30T09:19:32.867+02:00,2022-06-30T08:20:05.567+02:00,926,1.452099,0,0,719.4605,0,0,2022-06-30T09:18:24.071+02:00
281,2022-06-30T09:19:33.175+02:00,3167.5938785,-96.58694641113281,54.7119758605957,39.95266799926757,3167.5839275,-0.2720711949896099,1.015742120608538,0.3552848283804927,-13.88711452484131,-18.23744773864746,14.79208564758301,-2.001614093780518,-0.7020238637924194,5.648008346557617,XArbitraryZVertical,-0.2178939357457943,-0.453302812760473,0.0314912193177153,-0.8637402752012128,0.7967953085899353,-0.3478574156761169,-0.49407759308815,0,0,0,-1,-1,3167.2869705,unknown,2,2022-06-30T09:19:32.867+02:00,2022-06-30T08:20:05.567+02:00,926,1.452099,0,0,719.4605,0,0,2022-06-30T09:18:24.071+02:00
282,2022-06-30T09:19:33.185+02:00,3167.6038295,-118.7916215515137,-6.2932131958007815,33.097223968505865,3167.5938785,-0.1235923287804194,0.8008855649055137,0.4143655508513091,0.5602379441261292,-13.14168643951416,10.1478796005249,-5.077927589416504,5.333486557006836,6.328814506530762,XArbitraryZVertical,-0.2126281902023356,-0.369062621544705,-0.0243806809731416,-0.9044267791372091,0.6572121977806091,-0.402609258890152,-0.6371640563011169,0,0,0,-1,-1,3167.2869705,unknown,2,2022-06-30T09:19:32.867+02:00,2022-06-30T08:20:05.567+02:00,926,1.452099,0,0,719.4605,0,0,2022-06-30T09:18:24.071+02:00
283,2022-06-30T09:19:33.195+02:00,3167.6137815,-66.7158137512207,-45.98138122558594,27.386000518798824,3167.6038295,-0.0732682251995169,0.6719693498261893,0.5045685224028482,4.767372608184814,-8.927884101867676,9.430572509765623,-10.39071559906006,6.060593128204346,4.75771951675415,XArbitraryZVertical,-0.247194669676405,-0.310416772408746,-0.0487596363868019,-0.9166018017533064,0.5449509024620056,-0.4834297895431519,-0.6850724220275879,0,0,0,-1,-1,3167.2869705,unknown,2,2022-06-30T09:19:32.867+02:00,2022-06-30T08:20:05.567+02:00,926,1.452099,0,0,719.4605,0,0,2022-06-30T09:18:24.071+02:00
284,2022-06-30T09:19:33.205+02:00,3167.6237325,-55.492452850341806,-29.93325347900391,23.452480316162116,3167.6137815,-0.0132515212062429,0.5513150188871981,0.588384514347095,2.704101800918579,-9.173160552978516,8.50715160369873,-12.54496192932129,-0.0864922404289245,4.082415103912354,XArbitraryZVertical,-0.2807394115291166,-0.2586315224902394,-0.0728197221104304,-0.9214078115113448,0.4357234835624695,-0.5550179481506348,-0.7085902094841003,0,0,0,-1,-1,3167.2869705,unknown,2,2022-06-30T09:19:32.867+02:00,2022-06-30T08:20:05.567+02:00,926,1.452099,0,0,719.4605,0,0,2022-06-30T09:18:24.071+02:00
285,2022-06-30T09:19:33.215+02:00,3167.6336835,-58.98678634643556,-16.288228454589845,21.991817779541012,3167.6237325,0.0729599960033752,0.4084314890085293,0.6386985978458103,0.071920096874237,-9.236886024475098,8.745396614074707,-7.119673728942871,-4.091043949127197,3.528473377227783,XArbitraryZVertical,-0.3001979993899425,-0.2036299652162051,-0.0975345356289152,-0.9267702978141296,0.3188770711421967,-0.5961511135101318,-0.7368320226669312,0,0,0,-1,-1,3167.2869705,unknown,2,2022-06-30T09:19:32.867+02:00,2022-06-30T08:20:05.567+02:00,926,1.452099,0,0,719.4605,0,0,2022-06-30T09:18:24.071+02:00
286,2022-06-30T09:19:33.225+02:00,3167.6436355,-52.52532302856445,-21.864282989501948,18.834882659912115,3167.6336835,0.1805709958781408,0.2597509787258158,0.6605846534870254,-1.634565472602844,-7.418813705444336,9.039676666259766,-5.859532833099365,-2.437721729278564,3.153815269470215,XArbitraryZVertical,-0.3092324203088914,-0.1510066259246139,-0.1264028064777697,-0.93037349652778,0.2028094381093979,-0.6135786175727844,-0.7631446123123169,0,0,0,-1,-1,3167.2869705,unknown,2,2022-06-30T09:19:32.867+02:00,2022-06-30T08:20:05.567+02:00,926,1.452099,0,0,719.4605,0,0,2022-06-30T09:18:24.071+02:00
287,2022-06-30T09:19:33.235+02:00,3167.6535865,-43.37485153198243,-16.497343597412115,15.996335449218751,3167.6436355,0.3004518202580091,0.1200181655484419,0.6526629566513223,-3.605432033538818,-6.070631980895996,9.339757919311523,-6.108046531677246,-1.053065776824951,3.030529975891113,XArbitraryZVertical,-0.3078872926828607,-0.1040588365346927,-0.1605169543811343,-0.9319932856803124,0.0951220095157623,-0.6073042154312134,-0.7887543439865112,0,0,0,-1,-1,3167.2869705,unknown,2,2022-06-30T09:19:32.867+02:00,2022-06-30T08:20:05.567+02:00,926,1.452099,0,0,719.4605,0,0,2022-06-30T09:18:24.071+02:00
288,2022-06-30T09:19:33.245+02:00,3167.6635375,-43.85071197509766,-4.3929148864746095,14.016702117919927,3167.6535865,0.4167415393672721,-0.009117438411259,0.6113841107805462,-5.644749164581299,-6.148064136505127,8.930519104003906,-5.346797943115234,-1.654773712158203,2.73878812789917,XArbitraryZVertical,-0.2953396209320847,-0.0580030682870879,-0.1959313044777425,-0.9332851434745582,-0.0074657504446804,-0.5740013718605042,-0.8188202977180481,0,0,0,-1,-1,3167.2869705,unknown,2,2022-06-30T09:19:32.867+02:00,2022-06-30T08:20:05.567+02:00,926,1.452099,0,0,719.4605,0,0,2022-06-30T09:18:24.071+02:00
289,2022-06-30T09:19:33.255+02:00,3167.6734895,-48.73415679931641,3.935765533447266,11.820918273925782,3167.6635375,0.5127642644616175,-0.1247971539363794,0.5441533303247306,-6.577244281768799,-6.43873119354248,8.075020790100098,-4.314998626708984,-1.163992643356323,2.479527473449707,XArbitraryZVertical,-0.274673770600685,-0.0099122374337387,-0.2275692927438577,-0.9341671969344848,-0.1064952537417412,-0.5176938772201538,-0.8489121198654175,0,0,0,-1,-1,3167.2869705,unknown,2,2022-06-30T09:19:32.867+02:00,2022-06-30T08:20:05.567+02:00,926,1.452099,0,0,719.4605,0,0,2022-06-30T09:18:24.071+02:00
290,2022-06-30T09:19:33.265+02:00,3167.6834405,-49.22318984985351,8.171357574462892,11.972403259277344,3167.6734895,0.5847829602004928,-0.2233786055296571,0.4666329941999802,-6.54137659072876,-6.262590408325195,7.043629169464111,-4.272160053253174,0.0020821094512939,2.299716949462891,XArbitraryZVertical,-0.2512692941140033,0.0376068102720104,-0.254009968016576,-0.9332354343855702,-0.1978418231010437,-0.4498818218708038,-0.870898962020874,0,0,0,-1,-1,3167.2869705,unknown,2,2022-06-30T09:19:32.867+02:00,2022-06-30T08:20:05.567+02:00,926,1.452099,0,0,719.4605,0,0,2022-06-30T09:18:24.071+02:00
291,2022-06-30T09:19:33.275+02:00,3167.6933915,-43.56375869750976,7.134014739990235,13.950839080810551,3167.6834405,0.6350617987680318,-0.3044074703668919,0.3872376662266901,-6.42681884765625,-5.845091819763184,6.069838047027588,-4.690269470214844,0.7788313627243042,2.088371276855469,XArbitraryZVertical,-0.2271328640687325,0.0819653688288805,-0.2751313103106416,-0.9305886682529952,-0.2775348126888275,-0.3776320517063141,-0.8833847045898438,0,0,0,-1,-1,3167.2869705,unknown,2,2022-06-30T09:19:32.867+02:00,2022-06-30T08:20:05.567+02:00,926,1.452099,0,0,719.4605,0,0,2022-06-30T09:18:24.071+02:00
292,2022-06-30T09:19:33.285+02:00,3167.7033435,-40.037541503906255,5.128934326171875,16.980688476562502,3167.6933915,0.6697312872700024,-0.3740779090465721,0.3072531814631307,-6.682873725891113,-5.807216167449951,5.47817850112915,-4.669353485107422,1.135403633117676,2.107680320739746,XArbitraryZVertical,-0.202394036770037,0.1241405104186541,-0.292233278951351,-0.926404710831006,-0.3483012616634369,-0.3024415969848633,-0.8872515559196472,0,0,0,-1,-1,3167.2869705,unknown,2,2022-06-30T09:19:32.867+02:00,2022-06-30T08:20:05.567+02:00,926,1.452099,0,0,719.4605,0,0,2022-06-30T09:18:24.071+02:00
293,2022-06-30T09:19:33.294+02:00,3167.7132945,-38.37554763793945,4.366270294189453,18.916013946533198,3167.7033435,0.6906982930186063,-0.4380403630586167,0.221864254981724,-7.477494716644287,-5.912078380584717,5.072980880737305,-4.026981830596924,0.9472672343254088,2.305491924285889,XArbitraryZVertical,-0.1747803441521467,0.1666071933538386,-0.3057740246990377,-0.9209756112992776,-0.4137688875198364,-0.2200485616922379,-0.8833877444267273,0,0,0,-1,-1,3167.2869705,unknown,2,2022-06-30T09:19:32.867+02:00,2022-06-30T08:20:05.567+02:00,926,1.452099,0,0,719.4605,0,0,2022-06-30T09:18:24.071+02:00
294,2022-06-30T09:19:33.304+02:00,3167.7232455,-36.42225952148438,6.783593444824219,20.07924499511719,3167.7132945,0.6997928323732611,-0.4984593135991849,0.1304075995462716,-8.0875244140625,-5.874114036560059,4.813425540924072,-3.607285737991333,0.652865469455719,2.601819515228271,XArbitraryZVertical,-0.1436930214756256,0.209573750044168,-0.316405150245883,-0.9139578145871678,-0.4740135669708252,-0.1300382912158966,-0.8708623051643372,0,0,0,-1,-1,3167.2869705,unknown,2,2022-06-30T09:19:32.867+02:00,2022-06-30T08:20:05.567+02:00,926,1.452099,0,0,719.4605,0,0,2022-06-30T09:18:24.071+02:00
295,2022-06-30T09:19:33.314+02:00,3167.7331975,-35.69192825317383,10.031090240478512,19.1553662109375,3167.7232455,0.6976950403918794,-0.5567227913409875,0.035817476995823,-8.546931266784668,-5.87239408493042,4.362756252288818,-3.383813142776489,0.4808934926986694,2.776684999465942,XArbitraryZVertical,-0.1100903771736471,0.252302781283016,-0.3239804679869674,-0.9051298151060384,-0.5280678272247314,-0.0358098186552524,-0.8484468460083008,0,0,0,-1,-1,3167.2869705,unknown,2,2022-06-30T09:19:32.867+02:00,2022-06-30T08:20:05.567+02:00,926,1.452099,0,0,719.4605,0,0,2022-06-30T09:18:24.071+02:00
296,2022-06-30T09:19:33.324+02:00,3167.7431485,-36.26852920532226,13.737382965087887,15.782579956054688,3167.7331975,0.6830173721357213,-0.6150072947657533,-0.0575004794586618,-8.62927532196045,-5.741199016571045,3.50572657585144,-3.136757850646973,0.6340290307998657,2.862233638763428,XArbitraryZVertical,-0.0755128507399889,0.294258611369028,-0.3272657171564045,-0.8947663253744145,-0.5760109424591064,0.0574687980115413,-0.8154193758964539,0,0,0,-1,-1,3167.2869705,unknown,2,2022-06-30T09:19:32.867+02:00,2022-06-30T08:20:05.567+02:00,926,1.452099,0,0,719.4605,0,0,2022-06-30T09:18:24.071+02:00
297,2022-06-30T09:19:33.334+02:00,3167.7530995,-38.14861953735351,19.902911682128906,10.412946166992189,3167.7431485,0.656850615795597,-0.6728978616021951,-0.1420237434095237,-8.045682907104492,-5.349400997161865,2.492547035217285,-3.021341800689697,0.8809905052185059,2.726782321929932,XArbitraryZVertical,-0.0428238709977399,0.3333069674221774,-0.3258729400029374,-0.8836738763979144,-0.6169795989990234,0.1415467709302902,-0.7741451859474182,0,0,0,-1,-1,3167.2869705,unknown,2,2022-06-30T09:19:32.867+02:00,2022-06-30T08:20:05.567+02:00,926,1.452099,0,0,719.4605,0,0,2022-06-30T09:18:24.071+02:00
298,2022-06-30T09:19:33.344+02:00,3167.7630515,-39.38280303955079,24.913292541503907,4.013753356933594,3167.7530995,0.621591305438707,-0.7299280662798059,-0.2115315665942599,-7.067319393157959,-4.845766544342041,1.142923355102539,-3.045145034790039,1.19038724899292,2.337437629699707,XArbitraryZVertical,-0.0146497180126544,0.3680754193623098,-0.3199517594742415,-0.8728899020584545,-0.6519530415534973,0.2099575698375702,-0.7286117672920227,0,0,0,-1,-1,3167.2869705,unknown,2,2022-06-30T09:19:32.867+02:00,2022-06-30T08:20:05.567+02:00,926,1.452099,0,0,719.4605,0,0,2022-06-30T09:18:24.071+02:00
299,2022-06-30T09:19:33.354+02:00,3167.7730025,-36.74139587402344,26.99905517578125,-0.4716691589355469,3167.7630515,0.5805017132557369,-0.7856443973661605,-0.2586844843440336,-5.194902896881104,-4.407558917999268,-0.4736132919788361,-3.205000877380371,1.773030042648315,1.744873881340027,XArbitraryZVertical,0.0055349359820051,0.3978238491350932,-0.3094942121299036,-0.863665920024039,-0.6837477684020996,0.2558090388774872,-0.6834111213684082,0,0,0,-1,-1,3167.2869705,unknown,2,2022-06-30T09:19:32.867+02:00,2022-06-30T08:20:05.567+02:00,926,1.452099,0,0,719.4605,0,0,2022-06-30T09:18:24.071+02:00
300,2022-06-30T09:19:33.364+02:00,3167.7829535,-30.7282502746582,22.394031372070312,1.4061758422851562,3167.7730025,0.5428364322139573,-0.8378051224004316,-0.2775191532282232,-2.808750629425049,-4.059224128723145,-1.736875534057617,-3.299816131591797,2.265610694885254,1.0526442527771,XArbitraryZVertical,0.0137269065217285,0.4219765519289811,-0.2967641173879388,-0.8565502824254354,-0.7147409915924072,0.2739705741405487,-0.643494725227356,0,0,0,-1,-1,3167.2869705,unknown,2,2022-06-30T09:19:32.867+02:00,2022-06-30T08:20:05.567+02:00,926,1.452099,0,0,719.4605,0,0,2022-06-30T09:18:24.071+02:00
301,2022-06-30T09:19:33.374+02:00,3167.7929055,-26.728867034912113,12.260254669189449,5.5199212646484375,3167.7829535,0.5120668925924596,-0.8852557440456101,-0.2758675652175254,-1.640840768814087,-3.802913427352905,-2.314464569091797,-3.000492095947266,2.479815483093262,0.5610738396644592,XArbitraryZVertical,0.0127573053332319,0.4418826618968571,-0.283638633066701,-0.8509560728164147,-0.744808554649353,0.2723818123340607,-0.6091539263725281,0,0,0,-1,-1,3167.2869705,unknown,2,2022-06-30T09:19:32.867+02:00,2022-06-30T08:20:05.567+02:00,926,1.452099,0,0,719.4605,0,0,2022-06-30T09:18:24.071+02:00
302,2022-06-30T09:19:33.384+02:00,3167.8028565,-25.036336669921877,6.436165924072266,9.296268310546875,3167.7929055,0.4842779089920759,-0.9296336603936508,-0.2668193483667499,-1.615252017974854,-3.600550651550293,-2.37455153465271,-2.359296798706055,2.019111156463623,0.7203039526939392,XArbitraryZVertical,0.0089049248474651,0.4598254470229792,-0.2703208189508268,-0.8458179385755775,-0.7730428576469421,0.2636646628379822,-0.5769625306129456,0,0,0,-1,-1,3167.2869705,unknown,2,2022-06-30T09:19:32.867+02:00,2022-06-30T08:20:05.567+02:00,926,1.452099,0,0,719.4605,0,0,2022-06-30T09:18:24.071+02:00
303,2022-06-30T09:19:33.394+02:00,3167.8128075,-23.85439453125,6.314918060302735,9.947414245605469,3167.8028565,0.4538150090085198,-0.9715297239106868,-0.2606922633687407,-2.585311889648438,-3.227319478988647,-2.009072780609131,-1.926806449890137,0.9920215606689452,1.107662677764893,XArbitraryZVertical,0.0078530674076529,0.4769158417501956,-0.2563822509251215,-0.8406888617774871,-0.7978488802909851,0.2577494978904724,-0.5449792146682739,0,0,0,-1,-1,3167.2869705,unknown,2,2022-06-30T09:19:32.867+02:00,2022-06-30T08:20:05.567+02:00,926,1.452099,0,0,719.4605,0,0,2022-06-30T09:18:24.071+02:00
304,2022-06-30T09:19:33.404+02:00,3167.8227595,-23.65171600341797,10.97876953125,8.34185302734375,3167.8128075,0.4153696604009683,-1.011796760545424,-0.2637936572837463,-4.017681121826172,-2.89542555809021,-1.575148820877075,-1.733664989471436,0.3953372240066528,1.459625005722046,XArbitraryZVertical,0.013516108861185,0.4937823102169013,-0.2411619777687865,-0.8353664780004669,-0.8184592127799988,0.2607448399066925,-0.5119926929473877,0,0,0,-1,-1,3167.2869705,unknown,2,2022-06-30T09:19:32.867+02:00,2022-06-30T08:20:05.567+02:00,926,1.452099,0,0,719.4605,0,0,2022-06-30T09:18:24.071+02:00
305,2022-06-30T09:19:33.414+02:00,3167.8327105,-24.287593688964844,16.415912933349613,5.2664982604980475,3167.8227595,0.3667307541566651,-1.052408091514214,-0.2747939620722682,-5.094832420349121,-2.664403915405273,-1.400685906410217,-1.595611572265625,0.3723738193511963,1.490898847579956,XArbitraryZVertical,0.0257331361168906,0.5107762080963971,-0.2238247780290653,-0.8296674782861067,-0.8360294103622437,0.271348625421524,-0.4768909513950348,0,0,0,-1,-1,3167.2869705,unknown,2,2022-06-30T09:19:32.867+02:00,2022-06-30T08:20:05.567+02:00,926,1.452099,0,0,719.4605,0,0,2022-06-30T09:18:24.071+02:00
306,2022-06-30T09:19:33.424+02:00,3167.8426615,-23.798710327148438,20.43999481201172,2.601739654541016,3167.8327105,0.3126454723163868,-1.092392045688484,-0.287120243426649,-5.137741088867188,-2.349257946014404,-1.406070590019226,-1.559590578079224,0.8359490036964417,1.29185962677002,XArbitraryZVertical,0.040723326732978,0.5268613322143738,-0.2050757808718163,-0.8238341667132951,-0.85139000415802,0.2831915318965912,-0.4415175020694733,0,0,0,-1,-1,3167.2869705,unknown,2,2022-06-30T09:19:32.867+02:00,2022-06-30T08:20:05.567+02:00,926,1.452099,0,0,719.4605,0,0,2022-06-30T09:18:24.071+02:00
307,2022-06-30T09:19:33.434+02:00,3167.8526135,-22.219793701171877,22.351070709228512,0.7203021240234375,3167.8426615,0.2611672464424102,-1.12883239821198,-0.296068523985214,-4.489331245422363,-1.990821838378906,-1.404043674468994,-1.611214876174927,1.381623506546021,0.9459563493728638,XArbitraryZVertical,0.0546650187069411,0.5407945363859241,-0.1870399264398982,-0.818272009219256,-0.8645849823951721,0.2917620539665222,-0.4091060161590576,0,0,0,-1,-1,3167.2869705,unknown,2,2022-06-30T09:19:32.867+02:00,2022-06-30T08:20:05.567+02:00,926,1.452099,0,0,719.4605,0,0,2022-06-30T09:18:24.071+02:00
308,2022-06-30T09:19:33.444+02:00,3167.8625645,-19.982246704101563,21.977447662353512,-0.8746311950683594,3167.8526135,0.2164928440382191,-1.159811212738598,-0.2993509307999079,-3.588295221328735,-1.604935765266418,-1.55965518951416,-1.550005435943604,1.788687467575073,0.6469589471817017,XArbitraryZVertical,0.065473158755078,0.5521236317169641,-0.170592353479922,-0.8134930977564142,-0.8759590983390808,0.2949000597000122,-0.3817455172538757,0,0,0,-1,-1,3167.2869705,unknown,2,2022-06-30T09:19:32.867+02:00,2022-06-30T08:20:05.567+02:00,926,1.452099,0,0,719.4605,0,0,2022-06-30T09:18:24.071+02:00
309,2022-06-30T09:19:33.454+02:00,3167.8725155,-17.755327606201178,19.75337265014649,-0.8155041503906251,3167.8625645,0.1801406200117804,-1.184494334546691,-0.2964840451166602,-2.640434265136719,-1.190328001976013,-1.66896915435791,-1.37912130355835,1.986236929893494,0.4337527453899384,XArbitraryZVertical,0.0723869423373288,0.5608891069344643,-0.1559264738747316,-0.8098459600884399,-0.8858934640884399,0.2921594679355621,-0.3603270947933197,0,0,0,-1,-1,3167.2869705,unknown,2,2022-06-30T09:19:32.867+02:00,2022-06-30T08:20:05.567+02:00,926,1.452099,0,0,719.4605,0,0,2022-06-30T09:18:24.071+02:00
