,loggingTime(txt),accelerometerTimestamp_sinceReboot(s),accelerometerAccelerationX(G),accelerometerAccelerationY(G),accelerometerAccelerationZ(G),motionTimestamp_sinceReboot(s),motionYaw(rad),motionRoll(rad),motionPitch(rad),motionRotationRateX(rad/s),motionRotationRateY(rad/s),motionRotationRateZ(rad/s),motionUserAccelerationX(G),motionUserAccelerationY(G),motionUserAccelerationZ(G),motionAttitudeReferenceFrame(txt),motionQuaternionX(R),motionQuaternionY(R),motionQuaternionZ(R),motionQuaternionW(R),motionGravityX(G),motionGravityY(G),motionGravityZ(G),motionMagneticFieldX(µT),motionMagneticFieldY(µT),motionMagneticFieldZ(µT),motionHeading(°),motionMagneticFieldCalibrationAccuracy(Z),activityTimestamp_sinceReboot(s),activity(txt),activityActivityConfidence(Z),activityActivityStartDate(txt),pedometerStartDate(txt),pedometerNumberofSteps(N),pedometerAverageActivePace(s/m),pedometerCurrentPace(s/m),pedometerCurrentCadence(steps/s),pedometerDistance(m),pedometerFloorAscended(N),pedometerFloorDescended(N),pedometerEndDate(txt)
198,2022-06-30T09:23:58.001+02:00,3432.419853125,2.631827087402344,-2.4037014770507814,0.024698638916015626,3432.409901125,1.700013525393953,1.055826546755607,0.6632577516524358,-3.400047540664673,7.182998657226562,-1.540188789367676,-0.3116791844367981,0.342082142829895,0.1434172391891479,XArbitraryZVertical,0.1722012158103385,-0.5256430948651281,-0.721883757613501,-0.4158484940481618,0.6857942938804626,-0.6156871914863586,-0.3880921602249146,0,0,0,-1,-1,3432.25933175,unknown,2,2022-06-30T09:23:57.840+02:00,2022-06-30T08:20:05.567+02:00,1065,1.414741,0,0,836.4535,0,0,2022-06-30T09:23:57.840+02:00
199,2022-06-30T09:23:58.011+02:00,3432.429804125,2.168989562988281,-2.6369165039062503,0.7014413452148438,3432.419853125,1.730449757278031,1.111391489761419,0.6315455674754334,-3.913248777389526,7.657563209533691,-1.817087411880493,-0.4115417003631592,0.3387758135795593,0.220344215631485,XArbitraryZVertical,0.2106439875794484,-0.5260090713076121,-0.7209612843274891,-0.3989466738500114,0.7234314680099487,-0.5903928875923157,-0.3578871488571167,0,0,0,-1,-1,3432.25933175,unknown,2,2022-06-30T09:23:57.840+02:00,2022-06-30T08:20:05.567+02:00,1065,1.414741,0,0,836.4535,0,0,2022-06-30T09:23:57.840+02:00
200,2022-06-30T09:23:58.021+02:00,3432.439756125,2.036964111328125,-2.7662475585937503,0.9907896423339845,3432.429804125,1.766362697711293,1.169489456474692,0.596343126362638,-4.403167247772217,8.168831825256348,-2.161771297454834,-0.4933793544769287,0.316595196723938,0.3257158994674683,XArbitraryZVertical,0.2522552652529794,-0.5241832278478481,-0.7188587261983174,-0.3805803975353868,0.7616595029830933,-0.5616205334663391,-0.3231984376907349,0,0,0,-1,-1,3432.25933175,unknown,2,2022-06-30T09:23:57.840+02:00,2022-06-30T08:20:05.567+02:00,1065,1.414741,0,0,836.4535,0,0,2022-06-30T09:23:57.840+02:00
201,2022-06-30T09:23:58.031+02:00,3432.449707125,1.9920574951171877,-2.212548980712891,1.808090057373047,3432.439756125,1.807377284842508,1.231408062398983,0.5579256667856286,-4.8485107421875,8.75442886352539,-2.54727578163147,-0.5788637399673462,0.2606291174888611,0.3539287149906158,XArbitraryZVertical,0.2970949414140135,-0.5201168140202063,-0.7149499476569078,-0.3606379326826927,0.7999637126922607,-0.5294275879859924,-0.2824261784553528,0,0,0,-1,-1,3432.25933175,unknown,2,2022-06-30T09:23:57.840+02:00,2022-06-30T08:20:05.567+02:00,1065,1.414741,0,0,836.4535,0,0,2022-06-30T09:23:57.840+02:00
202,2022-06-30T09:23:58.041+02:00,3432.459658125,2.6649082946777347,-1.9077827453613283,3.054847412109375,3432.449707125,1.853480056064964,1.297969551186367,0.5164424176908489,-5.252147197723389,9.343427658081056,-3.022475004196167,-0.6297764778137207,0.2118075788021088,0.3353106379508972,XArbitraryZVertical,0.3451196646311772,-0.5135523334589859,-0.7086397390042165,-0.3390961820466779,0.8374183177947998,-0.4937896728515625,-0.2343128323554993,0,0,0,-1,-1,3432.25933175,unknown,2,2022-06-30T09:23:57.840+02:00,2022-06-30T08:20:05.567+02:00,1065,1.414741,0,0,836.4535,0,0,2022-06-30T09:23:57.840+02:00
203,2022-06-30T09:23:58.051+02:00,3432.469610125,3.879632263183594,-1.35797607421875,4.884792022705079,3432.459658125,1.904460405750661,1.369907917435663,0.4719535381566705,-5.637497901916504,9.96235466003418,-3.556778430938721,-0.669705867767334,0.2290873527526855,0.3620374202728271,XArbitraryZVertical,0.396141352593299,-0.5041911479797888,-0.6992313041630253,-0.3161312666486542,0.8727700710296631,-0.454627126455307,-0.1777266263961792,0,0,0,-1,-1,3432.25933175,unknown,2,2022-06-30T09:23:57.840+02:00,2022-06-30T08:20:05.567+02:00,1065,1.414741,0,0,836.4535,0,0,2022-06-30T09:23:57.840+02:00
204,2022-06-30T09:23:58.061+02:00,3432.479561125,5.31499740600586,-0.6616241455078126,7.398963775634766,3432.469610125,1.961471705167827,1.447958982350812,0.4249316459698191,-6.08864164352417,10.67664813995361,-4.121092319488525,-0.6325496435165405,0.2177856266498566,0.4230331182479858,XArbitraryZVertical,0.4500917788795409,-0.4915297405737762,-0.6862145791209809,-0.2914197201606504,0.9042019844055176,-0.412258505821228,-0.1116318106651306,0,0,0,-1,-1,3432.25933175,unknown,2,2022-06-30T09:23:57.840+02:00,2022-06-30T08:20:05.567+02:00,1065,1.414741,0,0,836.4535,0,0,2022-06-30T09:23:57.840+02:00
205,2022-06-30T09:23:58.071+02:00,3432.489513125,6.327791290283203,0.016615447998046876,10.755733337402344,3432.479561125,2.026216044286832,1.533224295816675,0.3760934420513958,-6.680201053619385,11.52606582641602,-4.718463897705078,-0.5339727401733398,0.228862464427948,0.5328778028488159,XArbitraryZVertical,0.5069557225184574,-0.4748968423454927,-0.6689877294592109,-0.2644319243093796,0.9294500946998596,-0.3672897517681122,-0.0349377691745758,0,0,0,-1,-1,3432.25933175,unknown,2,2022-06-30T09:23:57.840+02:00,2022-06-30T08:20:05.567+02:00,1065,1.414741,0,0,836.4535,0,0,2022-06-30T09:23:57.840+02:00
206,2022-06-30T09:23:58.081+02:00,3432.499464125,6.096222839355469,-0.05553451538085938,15.341297607421875,3432.489513125,2.101657624518519,1.627194751848596,0.327042990557916,-7.507251262664795,12.56068992614746,-5.279407024383545,-0.4036967754364014,0.2538006901741028,0.7008459568023682,XArbitraryZVertical,0.5667383182580593,-0.4533189611972879,-0.6469378931886772,-0.2340535827758811,0.945490837097168,-0.3212441504001617,0.0533808022737503,0,0,0,-1,-1,3432.25933175,unknown,2,2022-06-30T09:23:57.840+02:00,2022-06-30T08:20:05.567+02:00,1065,1.414741,0,0,836.4535,0,0,2022-06-30T09:23:57.840+02:00
207,2022-06-30T09:23:58.091+02:00,3432.509415125,5.051994323730469,-0.3842509460449219,23.1360383605957,3432.499464125,2.191619367012304,1.731161450227559,0.2814033045886323,-8.740588188171387,13.74717426300049,-5.728312969207764,-0.3033055663108826,0.279398113489151,0.9430071115493774,XArbitraryZVertical,0.6289121519423024,-0.4256389393339385,-0.6195819713325567,-0.1985431478197186,0.9483406543731688,-0.2777040302753448,0.1533980071544647,0,0,0,-1,-1,3432.25933175,unknown,2,2022-06-30T09:23:57.840+02:00,2022-06-30T08:20:05.567+02:00,1065,1.414741,0,0,836.4535,0,0,2022-06-30T09:23:57.840+02:00
208,2022-06-30T09:23:58.100+02:00,3432.519367125,3.0958621215820314,-0.9422904968261719,32.66222854614257,3432.509415125,2.301699680613446,1.846952177125711,0.2443141661250387,-10.6071662902832,15.28051471710205,-6.215228080749512,-0.3121098279953003,0.2362303137779236,1.299280762672424,XArbitraryZVertical,0.6930027884013287,-0.3899079555730144,-0.5861796399849843,-0.1552816950362537,0.9335393905639648,-0.2418909221887589,0.2645621597766876,0,0,0,-1,-1,3432.25933175,unknown,2,2022-06-30T09:23:57.840+02:00,2022-06-30T08:20:05.567+02:00,1065,1.414741,0,0,836.4535,0,0,2022-06-30T09:23:57.840+02:00
209,2022-06-30T09:23:58.110+02:00,3432.529318125,-3.116818542480469,-2.4069946289062503,45.641438140869134,3432.519367125,2.436813044767439,1.97748086570855,0.2241055985378813,-13.02691555023193,17.21785926818848,-6.477050304412842,-0.3804861307144165,0.1830655336380005,1.972739219665527,XArbitraryZVertical,0.7578703047389664,-0.3441945860798317,-0.544963545424574,-0.1008830846121691,0.8954702019691467,-0.2222344130277634,0.3856746256351471,0,0,0,-1,-1,3432.25933175,unknown,2,2022-06-30T09:23:57.840+02:00,2022-06-30T08:20:05.567+02:00,1065,1.414741,0,0,836.4535,0,0,2022-06-30T09:23:57.840+02:00
210,2022-06-30T09:23:58.120+02:00,3432.539269125,-9.513915710449218,-7.123686218261719,58.08236709594726,3432.529318125,2.5978283656912,2.123313347116241,0.2336890284835186,-15.94800090789795,19.37469673156738,-6.352728843688965,-0.5124871134757996,0.1355141550302505,2.818917274475098,XArbitraryZVertical,0.820095688069104,-0.2876212557297804,-0.4936560602211648,-0.0319499940383942,0.8280693888664246,-0.231567844748497,0.5105658769607544,0,0,0,-1,-1,3432.25933175,unknown,2,2022-06-30T09:23:57.840+02:00,2022-06-30T08:20:05.567+02:00,1065,1.414741,0,0,836.4535,0,0,2022-06-30T09:23:57.840+02:00
211,2022-06-30T09:23:58.130+02:00,3432.549221125,-17.91579391479493,-21.003423156738283,59.52177383422851,3432.539269125,2.77890135059444,2.281490790359877,0.2864627933867417,-18.39554405212402,21.54347610473633,-5.958264350891113,-1.044742345809937,0.0371999740600585,4.026766300201416,XArbitraryZVertical,0.8741513810228766,-0.2207882675644174,-0.429281085878558,0.0531947236077975,0.7270237803459167,-0.2825609445571899,0.6257761716842651,0,0,0,-1,-1,3432.25933175,unknown,2,2022-06-30T09:23:57.840+02:00,2022-06-30T08:20:05.567+02:00,1065,1.414741,0,0,836.4535,0,0,2022-06-30T09:23:57.840+02:00
212,2022-06-30T09:23:58.140+02:00,3432.559172125,-40.910975189209,-43.17037673950195,54.12774078369141,3432.549221125,2.957327162121977,2.450520589234874,0.3727459943154634,-17.31738471984863,24.16842269897461,-6.210502147674561,-1.563414812088013,-0.3619912564754486,5.203081607818604,XArbitraryZVertical,0.914904853006154,-0.1475592570198233,-0.3474641455742703,0.1429826980248836,0.5935963988304138,-0.3641742169857025,0.7176492214202881,0,0,0,-1,-1,3432.25933175,unknown,2,2022-06-30T09:23:57.840+02:00,2022-06-30T08:20:05.567+02:00,1065,1.414741,0,0,836.4535,0,0,2022-06-30T09:23:57.840+02:00
213,2022-06-30T09:23:58.150+02:00,3432.569124125,-72.60621459960937,-61.79943740844726,62.2989486694336,3432.559172125,3.107916083881844,2.646964103710989,0.4619081582455689,-12.64252853393555,27.42035484313965,-6.596816539764404,-2.251236438751221,-1.695364475250244,5.279550075531006,XArbitraryZVertical,0.9427524271989208,-0.0719202549721276,-0.2420041806107921,0.2178976638332254,0.4249575436115265,-0.4456571042537689,0.7879093289375305,0,0,0,-1,-1,3432.25933175,unknown,2,2022-06-30T09:23:57.840+02:00,2022-06-30T08:20:05.567+02:00,1065,1.414741,0,0,836.4535,0,0,2022-06-30T09:23:57.840+02:00
214,2022-06-30T09:23:58.160+02:00,3432.579075125,-115.54487319946288,-61.53927841186525,90.27247741699219,3432.569124125,-3.059510897321724,2.876401959679679,0.5210971610145503,-5.797177791595459,29.4955940246582,-8.030207633972168,-4.397640705108643,-3.902817726135254,4.680653095245361,XArbitraryZVertical,0.9583580707225392,0.0052672815897143,-0.1171606163334864,0.2603756503559361,0.2273065894842148,-0.4978319704532623,0.8369558453559875,0,0,0,-1,-1,3432.25933175,unknown,2,2022-06-30T09:23:57.840+02:00,2022-06-30T08:20:05.567+02:00,1065,1.414741,0,0,836.4535,0,0,2022-06-30T09:23:57.840+02:00
215,2022-06-30T09:23:58.170+02:00,3432.589026125,-164.3716873168945,-45.804000091552744,130.11647140502933,3432.579075125,-2.939169553816526,3.11097093119911,0.5264950185262066,1.928612589836121,29.13051223754883,-13.1580171585083,-7.427716255187988,-5.797130584716797,5.486387252807617,XArbitraryZVertical,0.9608987165217068,0.0935830009008505,0.011581825100179,0.260349185033664,0.0264705941081047,-0.5025061368942261,0.8641682267189026,0,0,0,-1,-1,3432.25933175,unknown,2,2022-06-30T09:23:57.840+02:00,2022-06-30T08:20:05.567+02:00,1065,1.414741,0,0,836.4535,0,0,2022-06-30T09:23:57.840+02:00
216,2022-06-30T09:23:58.180+02:00,3432.598978125,-161.40889846801755,-19.291732635498054,163.6367156982422,3432.589026125,-2.732610926539838,-3.025650056773578,0.4844430313156847,7.36390209197998,19.54312133789062,-22.13497734069824,-11.6759033203125,-5.807401180267334,8.323094367980957,XArbitraryZVertical,0.9461613021438804,0.2104170400619038,0.1037017066137794,0.223045657042328,-0.102371871471405,-0.4657155573368073,0.8789930939674377,0,0,0,-1,-1,3432.25933175,unknown,2,2022-06-30T09:23:57.840+02:00,2022-06-30T08:20:05.567+02:00,1065,1.414741,0,0,836.4535,0,0,2022-06-30T09:23:57.840+02:00
217,2022-06-30T09:23:58.190+02:00,3432.608929125,-168.26643814086913,6.909331970214844,151.22767044067382,3432.598978125,-2.446641888179167,-3.016852157044499,0.455751561316314,4.75640869140625,8.057866096496582,-28.24078941345215,-16.64380645751953,-4.228976249694824,12.37270259857178,XArbitraryZVertical,0.9093531251211264,0.3443164521093212,0.1338677270409134,0.191318178056209,-0.1117180809378624,-0.4401372969150543,0.8909538388252258,0,0,0,-1,-1,3432.25933175,unknown,2,2022-06-30T09:23:57.840+02:00,2022-06-30T08:20:05.567+02:00,1065,1.414741,0,0,836.4535,0,0,2022-06-30T09:23:57.840+02:00
218,2022-06-30T09:23:58.200+02:00,3432.618881125,-182.50048828125,21.41970748901368,124.82063415527344,3432.608929125,-2.104448656662581,3.13833938235897,0.428227889133372,5.701700210571289,-4.117063522338867,-32.92916488647461,-16.45646667480469,-1.551278352737427,15.77090454101562,XArbitraryZVertical,0.84886527693051,0.4840217497179189,0.1039338548692075,0.1853338077301636,0.0029595068190246,-0.4152593612670898,0.9096986055374146,0,0,0,-1,-1,3432.25933175,unknown,2,2022-06-30T09:23:57.840+02:00,2022-06-30T08:20:05.567+02:00,1065,1.414741,0,0,836.4535,0,0,2022-06-30T09:23:57.840+02:00
219,2022-06-30T09:23:58.210+02:00,3432.628832125,-201.7914724731445,20.408560180664065,81.39369094848634,3432.618881125,-1.754086718664307,2.908591201388457,0.2953322668783223,14.418381690979,-16.2197380065918,-34.83070755004883,-17.37344551086426,0.9953726530075072,14.48481178283691,XArbitraryZVertical,0.7662649106094425,0.6150322504452552,0.0050445348576257,0.1858708656327114,0.2209022492170334,-0.2910577356815338,0.9308531880378724,0,0,0,-1,-1,3432.25933175,unknown,2,2022-06-30T09:23:57.840+02:00,2022-06-30T08:20:05.567+02:00,1065,1.414741,0,0,836.4535,0,0,2022-06-30T09:23:57.840+02:00
220,2022-06-30T09:23:58.220+02:00,3432.638783125,-301.1196684265137,51.85786102294922,-43.86642929077149,3432.628832125,-1.511826279652674,2.646286079707171,-0.0322366783561663,31.84930419921875,-28.4173412322998,-33.43773651123047,-19.07856941223145,2.151225090026855,11.84444999694824,XArbitraryZVertical,0.6620639391406281,0.7080638185642201,-0.1794957121367416,0.167625610115429,0.475054532289505,0.0322310961782932,0.8793660402297974,0,0,0,-1,-1,3432.25933175,unknown,2,2022-06-30T09:23:57.840+02:00,2022-06-30T08:20:05.567+02:00,1065,1.414741,0,0,836.4535,0,0,2022-06-30T09:23:57.840+02:00
221,2022-06-30T09:23:58.230+02:00,3432.648735125,-304.38123596191406,258.8520643615722,-109.42455047607427,3432.638783125,-1.513569803548881,2.308819611528963,-0.4537235899029136,34.93262100219727,-34.79209136962891,-14.90223789215088,-21.23492431640625,1.642067551612854,7.692261695861816,XArbitraryZVertical,0.5456934091963044,0.7103480098940496,-0.4201363207892784,0.1452927498860912,0.664948046207428,0.4383154213428497,0.6047511696815491,0,0,0,-1,-1,3432.25933175,unknown,2,2022-06-30T09:23:57.840+02:00,2022-06-30T08:20:05.567+02:00,1065,1.414741,0,0,836.4535,0,0,2022-06-30T09:23:57.840+02:00
222,2022-06-30T09:23:58.240+02:00,3432.658686125,-254.0507986450195,312.78790420532226,291.55800201416014,3432.648735125,-1.837492202763389,1.780889250986415,-0.6741635758525801,34.91088104248047,-34.85141372680664,-4.14378023147583,-31.45922660827637,4.661980152130127,-4.634529113769531,XArbitraryZVertical,0.4568489492620633,0.610534226321802,-0.6278804142178374,0.1558949298199852,0.7640513777732849,0.6242440938949585,0.1629260033369064,0,0,0,-1,-1,3432.25933175,unknown,2,2022-06-30T09:23:57.840+02:00,2022-06-30T08:20:05.567+02:00,1065,1.414741,0,0,836.4535,0,0,2022-06-30T09:23:57.840+02:00
223,2022-06-30T09:23:58.250+02:00,3432.668638125,-315.57421005249023,-47.40566940307618,313.97403762817385,3432.658686125,-2.268201666405135,1.179943234309633,-0.6283564619532876,34.86117553710938,-29.07654190063477,1.809779405593872,-31.77563285827637,25.79873466491699,-10.84617900848389,XArbitraryZVertical,0.3708402193037155,0.4564791752520226,-0.7888334488320315,0.1784544104102311,0.7479837536811829,0.5878159403800964,-0.3082085847854614,0,0,0,-1,-1,3432.25933175,unknown,2,2022-06-30T09:23:57.840+02:00,2022-06-30T08:20:05.567+02:00,1065,1.414741,0,0,836.4535,0,0,2022-06-30T09:23:57.840+02:00
224,2022-06-30T09:23:58.260+02:00,3432.678589125,-111.07711395263678,-312.9456761169434,161.37147628784183,3432.668638125,-2.581121013891715,0.9299143368310598,-0.4090447530174559,34.6102294921875,9.453632354736328,10.47214317321777,-26.63256454467773,31.48686408996582,30.26906585693359,XArbitraryZVertical,0.3717021682127924,0.2958873455352897,-0.8662570188621742,0.1545537263384043,0.735440194606781,0.397733062505722,-0.5485763549804688,0,0,0,-1,-1,3432.25933175,unknown,2,2022-06-30T09:23:57.840+02:00,2022-06-30T08:20:05.567+02:00,1065,1.414741,0,0,836.4535,0,0,2022-06-30T09:23:57.840+02:00
225,2022-06-30T09:23:58.270+02:00,3432.688540125,-71.91480239868163,-126.9272035217285,13.684093780517575,3432.678589125,-2.73199679455417,0.9549644991341693,-0.0775837239665964,24.16620635986328,6.245193958282471,19.64567947387695,-32.98246383666992,-4.90988826751709,32.5814094543457,XArbitraryZVertical,0.4425975214090826,0.1271116527494427,-0.8725644114638557,0.1630378470378332,0.8138377070426941,0.0775059163570404,-0.575900137424469,0,0,0,-1,-1,3432.25933175,unknown,2,2022-06-30T09:23:57.840+02:00,2022-06-30T08:20:05.567+02:00,1065,1.414741,0,0,836.4535,0,0,2022-06-30T09:23:57.840+02:00
226,2022-06-30T09:23:58.280+02:00,3432.698492125,-41.77452941894531,-98.47601806640625,14.61530731201172,3432.688540125,-2.777959519642418,1.06276838081049,0.1030041706900494,1.442807793617249,13.86445713043213,7.813976764678955,-12.19192028045654,-31.79785919189453,16.93356895446777,XArbitraryZVertical,0.5057386257205154,0.0478540150125052,-0.8420552312955175,0.1813323741079025,0.8690747022628784,-0.1028221249580383,-0.4838768839836121,0,0,0,-1,-1,3432.25933175,unknown,2,2022-06-30T09:23:57.840+02:00,2022-06-30T08:20:05.567+02:00,1065,1.414741,0,0,836.4535,0,0,2022-06-30T09:23:57.840+02:00
227,2022-06-30T09:23:58.290+02:00,3432.708443125,-63.38449127197266,-59.406064453125005,19.12093780517578,3432.698492125,-2.707190139814798,1.137710433983624,0.160259568778981,-8.184794425964355,5.553338050842285,7.759339332580566,-8.226808547973633,-12.77897834777832,1.809209227561951,XArbitraryZVertical,0.5388565992249437,0.0498550577580081,-0.8107913125202836,0.223082124633312,0.8960440158843994,-0.1595744490623474,-0.4142960906028748,0,0,0,-1,-1,3432.25933175,unknown,2,2022-06-30T09:23:57.840+02:00,2022-06-30T08:20:05.567+02:00,1065,1.414741,0,0,836.4535,0,0,2022-06-30T09:23:57.840+02:00
228,2022-06-30T09:23:58.299+02:00,3432.718395125,-63.970223236083996,-19.04923690795899,42.79091583251953,3432.708443125,-2.586167259494273,1.178921533065142,0.1688419608938362,-12.12719058990479,7.347393989562988,3.363418340682983,-5.169414520263672,-9.870288848876951,1.866328954696655,XArbitraryZVertical,0.5519250098553022,0.0844591840066387,-0.7836936621033336,0.2721575750678639,0.911052703857422,-0.1680408865213394,-0.3764908611774445,0,0,0,-1,-1,3432.25933175,unknown,2,2022-06-30T09:23:57.840+02:00,2022-06-30T08:20:05.567+02:00,1065,1.414741,0,0,836.4535,0,0,2022-06-30T09:23:57.840+02:00
229,2022-06-30T09:23:58.309+02:00,3432.728346125,-72.19112777709962,-13.529315643310552,59.135876312255874,3432.718395125,-2.454351581808162,1.220471748247789,0.1680861545575048,-11.66621685028076,6.022078037261963,5.831808567047119,-7.38723611831665,-5.888368129730225,2.287493467330933,XArbitraryZVertical,0.5608322078954905,0.1276099665602448,-0.752675134838324,0.3204108786715636,0.9260241389274596,-0.1672957837581635,-0.3383658528327942,0,0,0,-1,-1,3432.25933175,unknown,2,2022-06-30T09:23:57.840+02:00,2022-06-30T08:20:05.567+02:00,1065,1.414741,0,0,836.4535,0,0,2022-06-30T09:23:57.840+02:00
230,2022-06-30T09:23:58.319+02:00,3432.738297125,-66.7824252319336,-8.2771875,62.577369689941406,3432.728346125,-2.331079508669764,1.262297904092324,0.1942299144820934,-10.17404937744141,7.508760929107666,6.866558074951172,-7.455794334411621,-1.748807311058044,4.659888744354248,XArbitraryZVertical,0.570585679333237,0.1596009147424439,-0.7159025081865378,0.3693821914862063,0.9348748922348022,-0.1930109858512878,-0.2979190647602081,0,0,0,-1,-1,3432.25933175,unknown,2,2022-06-30T09:23:57.840+02:00,2022-06-30T08:20:05.567+02:00,1065,1.414741,0,0,836.4535,0,0,2022-06-30T09:23:57.840+02:00
231,2022-06-30T09:23:58.329+02:00,3432.748249125,-46.16834243774414,-3.343297576904297,46.02883255004882,3432.738297125,-2.198565348266576,1.311742293031076,0.23882070225687,-12.05347728729248,8.32269287109375,8.483512878417969,-8.29813003540039,-1.14257824420929,6.277018070220947,XArbitraryZVertical,0.5823196261751462,0.1909345944933021,-0.6680113148827087,0.4221478048034378,0.9391974210739136,-0.2365569621324539,-0.2488956600427628,0,0,0,-1,-1,3432.25933175,unknown,2,2022-06-30T09:23:57.840+02:00,2022-06-30T08:20:05.567+02:00,1065,1.414741,0,0,836.4535,0,0,2022-06-30T09:23:57.840+02:00
232,2022-06-30T09:23:58.339+02:00,3432.758200125,-44.56846939086913,2.569556579589844,29.580586853027345,3432.748249125,-2.049044314846653,1.346533770081448,0.3026578128265321,-13.38263034820557,6.041167259216309,10.86869716644287,-7.73823070526123,-0.5456919074058533,6.591216564178467,XArbitraryZVertical,0.5879347600039235,0.2195290716985041,-0.6115437704934533,0.4818234747247595,0.9306442141532898,-0.2980582714080811,-0.2122794091701508,0,0,0,-1,-1,3432.25933175,unknown,2,2022-06-30T09:23:57.840+02:00,2022-06-30T08:20:05.567+02:00,1065,1.414741,0,0,836.4535,0,0,2022-06-30T09:23:57.840+02:00
233,2022-06-30T09:23:58.350+02:00,3432.768151125,-63.13496017456056,11.840377807617188,15.845299530029303,3432.758200125,-1.87685002430289,1.331648916547769,0.3851962872842943,-14.50604915618896,3.060887336730957,12.53015899658203,-5.606603622436523,0.0349357426166534,4.91154956817627,XArbitraryZVertical,0.5780175241950138,0.2369326263664197,-0.5527259038766298,0.5515911038159276,0.9003503918647766,-0.37574103474617,-0.2195173501968384,0,0,0,-1,-1,3432.25933175,unknown,2,2022-06-30T09:23:57.840+02:00,2022-06-30T08:20:05.567+02:00,1065,1.414741,0,0,836.4535,0,0,2022-06-30T09:23:57.840+02:00
234,2022-06-30T09:23:58.359+02:00,3432.778103125,-53.520753021240246,8.025860137939453,4.41881103515625,3432.768151125,-1.688071640717072,1.268270668880997,0.4711911793400181,-13.89829635620117,-0.250383734703064,13.05894184112549,-5.393731117248535,0.7158800363540649,3.280816555023193,XArbitraryZVertical,0.5554922724516019,0.2422712953371909,-0.4935143938678204,0.6238401134115045,0.8505639433860779,-0.4539479911327362,-0.2654659152030945,0,0,0,-1,-1,3432.25933175,unknown,2,2022-06-30T09:23:57.840+02:00,2022-06-30T08:20:05.567+02:00,1065,1.414741,0,0,836.4535,0,0,2022-06-30T09:23:57.840+02:00
235,2022-06-30T09:23:58.369+02:00,3432.788054125,-46.92307296752931,9.493707733154299,3.3226405334472657,3432.778103125,-1.503032426425144,1.156138711700697,0.5481622820905019,-11.06040000915527,-4.009502410888672,12.47592926025391,-7.216930389404297,1.728089570999146,1.959068059921265,XArbitraryZVertical,0.5247624110186953,0.2295651140849087,-0.4424125360563864,0.6900690684357318,0.7811545133590698,-0.5211196541786194,-0.3438485264778137,0,0,0,-1,-1,3432.25933175,unknown,2,2022-06-30T09:23:57.840+02:00,2022-06-30T08:20:05.567+02:00,1065,1.414741,0,0,836.4535,0,0,2022-06-30T09:23:57.840+02:00
236,2022-06-30T09:23:58.379+02:00,3432.798006125,-49.484696044921876,9.864486694335938,6.983727264404298,3432.788054125,-1.337160288135316,1.01251354581062,0.606882858041536,-8.243215560913086,-6.436666011810303,10.99425029754639,-6.152442932128906,1.388439893722534,0.8855761289596558,XArbitraryZVertical,0.4919110069665374,0.2011352209761491,-0.4036537865081058,0.7447360382020837,0.6967087984085083,-0.5703096985816956,-0.4351363778114319,0,0,0,-1,-1,3432.25933175,unknown,2,2022-06-30T09:23:57.840+02:00,2022-06-30T08:20:05.567+02:00,1065,1.414741,0,0,836.4535,0,0,2022-06-30T09:23:57.840+02:00
237,2022-06-30T09:23:58.389+02:00,3432.807957125,-49.14699829101563,3.4146990966796875,7.876919860839844,3432.798006125,-1.191098132655579,0.8551003144845515,0.6494269612064358,-5.780272483825684,-7.838757038116455,10.01998329162598,-5.384203910827637,1.572487950325012,0.8612717986106873,XArbitraryZVertical,0.4607819794442831,0.1624619349961034,-0.3742798188568577,0.7881629481006168,0.6010157465934753,-0.6047301292419434,-0.5225721597671509,0,0,0,-1,-1,3432.25933175,unknown,2,2022-06-30T09:23:57.840+02:00,2022-06-30T08:20:05.567+02:00,1065,1.414741,0,0,836.4535,0,0,2022-06-30T09:23:57.840+02:00
238,2022-06-30T09:23:58.399+02:00,3432.817908125,-46.74763778686525,0.6370751953125,8.438701629638672,3432.807957125,-1.063243525779735,0.6940145035388818,0.6840279119517555,-3.489660501480103,-8.569757461547852,9.23494815826416,-5.540045261383057,1.637473821640015,1.307655453681946,XArbitraryZVertical,0.4342802280922013,0.1162862325506921,-0.350787631868485,0.8214781693105192,0.4957334697246552,-0.6319199204444885,-0.5957564115524292,0,0,0,-1,-1,3432.25933175,unknown,2,2022-06-30T09:23:57.840+02:00,2022-06-30T08:20:05.567+02:00,1065,1.414741,0,0,836.4535,0,0,2022-06-30T09:23:57.840+02:00
239,2022-06-30T09:23:58.409+02:00,3432.827860125,-48.087501525878906,1.159189453125,8.883726196289063,3432.817908125,-0.9480918144081064,0.5330305723637284,0.7110896443700802,-2.445271730422974,-8.87710189819336,8.411588668823242,-5.394885063171387,1.00074291229248,1.455491304397583,XArbitraryZVertical,0.4114878935064918,0.0663790116176015,-0.3312607004565175,0.8464857112431857,0.3849973082542419,-0.6526597142219543,-0.6525430679321289,0,0,0,-1,-1,3432.25933175,unknown,2,2022-06-30T09:23:57.840+02:00,2022-06-30T08:20:05.567+02:00,1065,1.414741,0,0,836.4535,0,0,2022-06-30T09:23:57.840+02:00
240,2022-06-30T09:23:58.419+02:00,3432.837811125,-52.061138305664066,3.207679595947266,8.19620590209961,3432.827860125,-0.8390943998483268,0.3723618252443469,0.7250525046285213,-2.38010311126709,-8.965785026550293,7.612799644470215,-5.037608623504639,0.7281157970428467,1.557387351989746,XArbitraryZVertical,0.3887856734211037,0.0161017125908589,-0.3143362294026941,0.8658979621782424,0.2723037302494049,-0.6631747484207153,-0.6971728801727295,0,0,0,-1,-1,3432.25933175,unknown,2,2022-06-30T09:23:57.840+02:00,2022-06-30T08:20:05.567+02:00,1065,1.414741,0,0,836.4535,0,0,2022-06-30T09:23:57.840+02:00
241,2022-06-30T09:23:58.429+02:00,3432.847763125,-53.53632064819337,3.733536071777344,7.001390533447266,3432.837811125,-0.7399957700096839,0.2180620763013413,0.7212218672073054,-2.681756019592285,-8.860025405883789,6.439199447631836,-5.064355850219727,0.778466522693634,1.638793706893921,XArbitraryZVertical,0.363832920879496,-0.0319099795104079,-0.300549127900378,0.8810661659151593,0.1624697297811508,-0.6603027582168579,-0.7332147359848022,0,0,0,-1,-1,3432.25933175,unknown,2,2022-06-30T09:23:57.840+02:00,2022-06-30T08:20:05.567+02:00,1065,1.414741,0,0,836.4535,0,0,2022-06-30T09:23:57.840+02:00
242,2022-06-30T09:23:58.439+02:00,3432.857714125,-53.81638824462891,2.132465515136719,3.6922219848632816,3432.847763125,-0.6586085377646909,0.0771784345770037,0.7033926123177503,-2.659285068511963,-8.7485933303833,5.314995765686035,-5.365747928619385,0.9737890958786012,1.595877170562744,XArbitraryZVertical,0.3374501850938355,-0.0770480681292201,-0.290788070440312,0.8919827226983956,0.0588018856942653,-0.6468088030815125,-0.7603819370269775,0,0,0,-1,-1,3432.25933175,unknown,2,2022-06-30T09:23:57.840+02:00,2022-06-30T08:20:05.567+02:00,1065,1.414741,0,0,836.4535,0,0,2022-06-30T09:23:57.840+02:00
243,2022-06-30T09:23:58.449+02:00,3432.867665125,-54.618121032714846,-1.1067984008789062,-2.7198440551757814,3432.857714125,-0.5946746783952876,-0.0500305530707691,0.6782781375189739,-2.514679193496704,-8.651251792907715,4.594855785369873,-5.418381214141846,1.008037567138672,1.491379618644714,XArbitraryZVertical,0.3110672835160231,-0.1199881150617706,-0.2841574669810138,0.8989408581555006,-0.0389402545988559,-0.6274532079696655,-0.777679979801178,0,0,0,-1,-1,3432.25933175,unknown,2,2022-06-30T09:23:57.840+02:00,2022-06-30T08:20:05.567+02:00,1065,1.414741,0,0,836.4535,0,0,2022-06-30T09:23:57.840+02:00
244,2022-06-30T09:23:58.459+02:00,3432.877617125,-54.924833221435556,-1.9399658203125,-3.2256422424316407,3432.867665125,-0.543131233928288,-0.1682500148652563,0.6491911616964453,-2.454830646514893,-8.727262496948242,4.178782939910889,-5.352478504180908,0.8219186663627625,1.161698460578918,XArbitraryZVertical,0.2847889360131601,-0.1619654225806396,-0.2791492404306803,0.902628561687194,-0.1333920061588287,-0.6045423150062561,-0.7853249311447144,0,0,0,-1,-1,3432.25933175,unknown,2,2022-06-30T09:23:57.840+02:00,2022-06-30T08:20:05.567+02:00,1065,1.414741,0,0,836.4535,0,0,2022-06-30T09:23:57.840+02:00
245,2022-06-30T09:23:58.469+02:00,3432.887568125,-53.04474288940431,-2.477498016357422,-0.27916946411132815,3432.877617125,-0.5011024419389312,-0.2801265414584006,0.6144029700000564,-2.915650367736816,-8.737165451049805,4.071859359741211,-5.341681957244873,0.4636469483375549,0.5080150365829468,XArbitraryZVertical,0.2570884710564795,-0.2031552237338894,-0.2749136055028805,0.9039116170003456,-0.2259144932031631,-0.5764707922935486,-0.7852669358253479,0,0,0,-1,-1,3432.25933175,unknown,2,2022-06-30T09:23:57.840+02:00,2022-06-30T08:20:05.567+02:00,1065,1.414741,0,0,836.4535,0,0,2022-06-30T09:23:57.840+02:00
246,2022-06-30T09:23:58.479+02:00,3432.897520125,-50.60751113891601,-3.1991473388671876,3.7245547485351564,3432.887568125,-0.4681236488124307,-0.3844857209223439,0.5697227497592099,-3.822356462478638,-8.518574714660645,4.067719459533691,-5.283023357391357,0.3416443467140198,0.451762318611145,XArbitraryZVertical,0.2257986524182442,-0.2423388770656958,-0.2707121410859147,0.9038815197068372,-0.3158383965492249,-0.5393986105918884,-0.7805736660957336,0,0,0,-1,-1,3432.25933175,unknown,2,2022-06-30T09:23:57.840+02:00,2022-06-30T08:20:05.567+02:00,1065,1.414741,0,0,836.4535,0,0,2022-06-30T09:23:57.840+02:00
247,2022-06-30T09:23:58.489+02:00,3432.907471125,-48.79463104248047,-2.895428924560547,7.401957550048828,3432.897520125,-0.4466029824999334,-0.4788218828914214,0.5127953813808143,-5.042035579681396,-8.18647575378418,4.094406127929688,-5.005738735198975,0.2380664050579071,0.7449226379394531,XArbitraryZVertical,0.1894517102249834,-0.2782409634762262,-0.2667439507344404,0.9030712945080324,-0.4014726579189301,-0.4906149804592133,-0.7733800411224365,0,0,0,-1,-1,3432.25933175,unknown,2,2022-06-30T09:23:57.840+02:00,2022-06-30T08:20:05.567+02:00,1065,1.414741,0,0,836.4535,0,0,2022-06-30T09:23:57.840+02:00
248,2022-06-30T09:23:58.499+02:00,3432.917422125,-46.992528533935555,0.08876541137695312,9.31991912841797,3432.907471125,-0.4395390220160688,-0.5608817105792573,0.4442791286213761,-6.286038875579834,-7.61460542678833,3.817085266113281,-4.678474426269531,0.1036959290504456,1.144250512123108,XArbitraryZVertical,0.147761442077186,-0.3096385752753106,-0.2638530661810551,0.9014832407693292,-0.4802933633327484,-0.4298070967197418,-0.764581024646759,0,0,0,-1,-1,3432.25933175,unknown,2,2022-06-30T09:23:57.840+02:00,2022-06-30T08:20:05.567+02:00,1065,1.414741,0,0,836.4535,0,0,2022-06-30T09:23:57.840+02:00
249,2022-06-30T09:23:58.508+02:00,3432.927374125,-45.88408355712891,4.684508514404297,8.030799865722656,3432.917422125,-0.4496387501867779,-0.6298161129380765,0.3676782338978545,-7.490820407867432,-7.041841983795166,3.257019281387329,-4.424338340759277,0.0642987191677093,1.508655786514282,XArbitraryZVertical,0.1015572071196165,-0.3355954961906418,-0.263591068757372,0.8986553853547955,-0.5496302247047424,-0.3594498038291931,-0.7541235685348511,0,0,0,-1,-1,3432.25933175,unknown,2,2022-06-30T09:23:57.840+02:00,2022-06-30T08:20:05.567+02:00,1065,1.414741,0,0,836.4535,0,0,2022-06-30T09:23:57.840+02:00
250,2022-06-30T09:23:58.519+02:00,3432.937325125,-45.25389404296875,8.501870269775392,2.349364471435547,3432.927374125,-0.4768381587157417,-0.688957665528866,0.2878585270051443,-8.286126136779785,-6.603516578674316,2.47181510925293,-4.180692672729492,0.2929475903511047,1.690191149711609,XArbitraryZVertical,0.052257121406065,-0.3566442277777191,-0.2670617498145189,0.8937294290242117,-0.6095751523971558,-0.2838995158672333,-0.7401481866836548,0,0,0,-1,-1,3432.25933175,unknown,2,2022-06-30T09:23:57.840+02:00,2022-06-30T08:20:05.567+02:00,1065,1.414741,0,0,836.4535,0,0,2022-06-30T09:23:57.840+02:00
251,2022-06-30T09:23:58.528+02:00,3432.947277125,-43.93603454589844,9.641749877929689,-6.913523254394532,3432.937325125,-0.5170027106739438,-0.7435958743944918,0.2118652069122405,-8.258344650268555,-6.403630256652832,1.66081964969635,-4.01547384262085,0.6878072023391724,1.53821587562561,XArbitraryZVertical,0.0028890239949556,-0.37443403767838,-0.2739671785180242,0.8858515049619621,-0.6618028879165649,-0.2102837711572647,-0.7195816040039062,0,0,0,-1,-1,3432.25933175,unknown,2,2022-06-30T09:23:57.840+02:00,2022-06-30T08:20:05.567+02:00,1065,1.414741,0,0,836.4535,0,0,2022-06-30T09:23:57.840+02:00
252,2022-06-30T09:23:58.538+02:00,3432.957228125,-41.93050506591797,10.609038391113282,-11.424692230224615,3432.947277125,-0.5627399964756937,-0.7995645051282285,0.1476399261393465,-7.201311111450195,-6.503355026245117,0.8425244092941284,-3.903785467147827,1.013757228851318,0.9289231300354004,XArbitraryZVertical,-0.0425149189510289,-0.3917580783768976,-0.2826569428411093,0.8745416630896082,-0.7092518210411072,-0.1471041440963745,-0.6894361972808838,0,0,0,-1,-1,3432.25933175,unknown,2,2022-06-30T09:23:57.840+02:00,2022-06-30T08:20:05.567+02:00,1065,1.414741,0,0,836.4535,0,0,2022-06-30T09:23:57.840+02:00
253,2022-06-30T09:23:58.548+02:00,3432.967179125,-40.10115921020507,10.298733673095699,-11.041489105224615,3432.957228125,-0.6080856700651147,-0.8594275510895922,0.1002180366341217,-5.965629100799561,-6.629942893981934,0.0869966819882392,-3.725030422210693,1.08289909362793,-0.0551468729972839,XArbitraryZVertical,-0.0811225281653255,-0.4106354449645465,-0.2917304184320309,0.8600529463867218,-0.7536682486534119,-0.1000503599643707,-0.649595320224762,0,0,0,-1,-1,3432.25933175,unknown,2,2022-06-30T09:23:57.840+02:00,2022-06-30T08:20:05.567+02:00,1065,1.414741,0,0,836.4535,0,0,2022-06-30T09:23:57.840+02:00
254,2022-06-30T09:23:58.558+02:00,3432.977131125,-37.81466400146485,7.959248657226563,-7.881111145019531,3432.967179125,-0.6514089116113666,-0.9210180704423524,0.0675902957585607,-4.909134864807129,-6.404316902160645,-0.4226231575012207,-3.479861736297607,1.148989796638489,-0.5609679222106934,XArbitraryZVertical,-0.1134401498062038,-0.4304847625328631,-0.3007059272030977,0.8434394521492938,-0.7943999171257019,-0.0675388425588607,-0.603628396987915,0,0,0,-1,-1,3432.25933175,unknown,2,2022-06-30T09:23:57.840+02:00,2022-06-30T08:20:05.567+02:00,1065,1.414741,0,0,836.4535,0,0,2022-06-30T09:23:57.840+02:00
255,2022-06-30T09:23:58.568+02:00,3432.987082125,-35.30513259887695,7.257657623291016,-4.082460479736328,3432.977131125,-0.690418138954805,-0.9794100591849624,0.0459441418210913,-4.03777551651001,-5.724894046783447,-0.5304946899414062,-3.258491277694702,1.095747470855713,-0.5686097741127014,XArbitraryZVertical,-0.1400520408912358,-0.4493588378310068,-0.3087107140004408,0.8265348865273268,-0.8292926549911499,-0.0459279790520668,-0.5569241046905518,0,0,0,-1,-1,3432.25933175,unknown,2,2022-06-30T09:23:57.840+02:00,2022-06-30T08:20:05.567+02:00,1065,1.414741,0,0,836.4535,0,0,2022-06-30T09:23:57.840+02:00
256,2022-06-30T09:23:58.579+02:00,3432.997033125,-33.15994354248047,8.317603454589845,-1.0964698791503906,3432.987082125,-0.7248596964883167,-1.030336305139063,0.0294881222146268,-3.629808187484741,-4.723719596862793,-0.3968692421913147,-2.997606515884399,0.840823769569397,-0.2890682816505432,XArbitraryZVertical,-0.1626633026015656,-0.4651744361495632,-0.3152890020942465,0.8110154979315506,-0.8570992350578308,-0.0294838491827249,-0.5143067836761475,0,0,0,-1,-1,3432.25933175,unknown,2,2022-06-30T09:23:57.840+02:00,2022-06-30T08:20:05.567+02:00,1065,1.414741,0,0,836.4535,0,0,2022-06-30T09:23:57.840+02:00
257,2022-06-30T09:23:58.588+02:00,3433.006985125,-30.307175903320314,8.622968444824219,0.08307723999023438,3432.997033125,-0.7584418352636447,-1.070713658945659,0.0149299351076604,-3.741975545883179,-3.552560329437256,-0.4154222309589386,-2.721446990966797,0.7547513842582703,0.0632918179035186,XArbitraryZVertical,-0.1828856105860101,-0.4762672928331701,-0.3219301405092752,0.7975482915506166,-0.8774451017379761,-0.0149293802678585,-0.4794446527957916,0,0,0,-1,-1,3432.25933175,unknown,2,2022-06-30T09:23:57.840+02:00,2022-06-30T08:20:05.567+02:00,1065,1.414741,0,0,836.4535,0,0,2022-06-30T09:23:57.840+02:00
