,loggingTime(txt),accelerometerTimestamp_sinceReboot(s),accelerometerAccelerationX(G),accelerometerAccelerationY(G),accelerometerAccelerationZ(G),motionTimestamp_sinceReboot(s),motionYaw(rad),motionRoll(rad),motionPitch(rad),motionRotationRateX(rad/s),motionRotationRateY(rad/s),motionRotationRateZ(rad/s),motionUserAccelerationX(G),motionUserAccelerationY(G),motionUserAccelerationZ(G),motionAttitudeReferenceFrame(txt),motionQuaternionX(R),motionQuaternionY(R),motionQuaternionZ(R),motionQuaternionW(R),motionGravityX(G),motionGravityY(G),motionGravityZ(G),motionMagneticFieldX(µT),motionMagneticFieldY(µT),motionMagneticFieldZ(µT),motionHeading(°),motionMagneticFieldCalibrationAccuracy(Z),activityTimestamp_sinceReboot(s),activity(txt),activityActivityConfidence(Z),activityActivityStartDate(txt),pedometerStartDate(txt),pedometerNumberofSteps(N),pedometerAverageActivePace(s/m),pedometerCurrentPace(s/m),pedometerCurrentCadence(steps/s),pedometerDistance(m),pedometerFloorAscended(N),pedometerFloorDescended(N),pedometerEndDate(txt)
233,2022-06-30T09:32:25.939+02:00,3940.357914875,6.295757904052735,7.8903918457031255,7.685018920898438,3940.352938875,2.3910255871229,1.388494983523678,-0.2589895962505182,-0.4345478117465973,3.839539289474487,0.7018609642982483,-0.3139581084251404,0.5744171142578125,0.8958739638328552,XArbitraryZVertical,0.626671288254111,-0.1402126768725644,-0.6787779553874707,-0.3562078982985459,0.950631022453308,0.2561039626598358,-0.175246998667717,0,0,0,-1,-1,3936.707608916667,unknown,2,2022-06-30T09:32:22.288+02:00,2022-06-30T08:20:05.567+02:00,1197,1.417665,0,0,932.105,0,0,2022-06-30T09:31:56.805+02:00
234,2022-06-30T09:32:25.949+02:00,3940.367865875,6.538103942871094,7.661218414306641,8.981023864746094,3940.362889875,2.397819785422114,1.430117774266369,-0.252262803643662,-0.6578925251960754,4.182785511016846,0.8285139799118042,-0.3170146346092224,0.5547259449958801,0.9191636443138124,XArbitraryZVertical,0.6405051714176643,-0.1478665357779116,-0.6678824711101901,-0.3490297480216376,0.9587839841842652,0.2495957762002945,-0.1357772201299667,0,0,0,-1,-1,3936.707608916667,unknown,2,2022-06-30T09:32:22.288+02:00,2022-06-30T08:20:05.567+02:00,1197,1.417665,0,0,932.105,0,0,2022-06-30T09:31:56.805+02:00
235,2022-06-30T09:32:25.959+02:00,3940.377816875,6.994953918457032,7.636968841552735,10.194849700927739,3940.372840875,2.406886184542279,1.475537331394472,-0.2447866319391893,-0.905013144016266,4.490984916687012,0.8549118041992188,-0.2993172407150269,0.5386111736297607,1.007776498794556,XArbitraryZVertical,0.6555105905457237,-0.1554545010193739,-0.6559416066033877,-0.3404120998886551,0.9657905101776124,0.2423493266105652,-0.0922795310616493,0,0,0,-1,-1,3936.707608916667,unknown,2,2022-06-30T09:32:22.288+02:00,2022-06-30T08:20:05.567+02:00,1197,1.417665,0,0,932.105,0,0,2022-06-30T09:31:56.805+02:00
236,2022-06-30T09:32:25.969+02:00,3940.387767875,7.964936828613282,8.125253448486328,11.321856079101563,3940.382791875,2.417640923256092,1.524229786265735,-0.2367998255367557,-1.089654088020325,4.783582210540771,0.8989362716674805,-0.2579967975616455,0.5438956022262573,1.084481239318848,XArbitraryZVertical,0.6714491364822333,-0.1628825221912927,-0.6428837475250143,-0.3306445656129456,0.971039891242981,0.2345929592847824,-0.0452506840229034,0,0,0,-1,-1,3936.707608916667,unknown,2,2022-06-30T09:32:22.288+02:00,2022-06-30T08:20:05.567+02:00,1197,1.417665,0,0,932.105,0,0,2022-06-30T09:31:56.805+02:00
237,2022-06-30T09:32:25.979+02:00,3940.397718875,8.452023925781251,8.805888061523438,12.618759155273438,3940.392743875,2.430268199084828,1.576184620327477,-0.2277492185876531,-1.340655922889709,5.068934440612793,0.9496086835861206,-0.1622428297996521,0.6024772524833679,1.14886474609375,XArbitraryZVertical,0.6882344997743023,-0.1701700217490431,-0.628730256301963,-0.3194895930207554,0.9741628170013428,0.2257854342460632,0.0052491258829832,0,0,0,-1,-1,3936.707608916667,unknown,2,2022-06-30T09:32:22.288+02:00,2022-06-30T08:20:05.567+02:00,1197,1.417665,0,0,932.105,0,0,2022-06-30T09:31:56.805+02:00
238,2022-06-30T09:32:25.989+02:00,3940.407669875,8.666677551269531,9.519005126953125,14.086007995605469,3940.402694875,2.445122897913123,1.631512586428056,-0.2175664420564195,-1.661998748779297,5.391512393951416,0.9949649572372437,-0.1130542755126953,0.6817903518676758,1.227067589759827,XArbitraryZVertical,0.7058756431631682,-0.1770983409878581,-0.6133949004442677,-0.3067937808226819,0.974626362323761,0.2158540785312653,0.0592484921216964,0,0,0,-1,-1,3936.707608916667,unknown,2,2022-06-30T09:32:22.288+02:00,2022-06-30T08:20:05.567+02:00,1197,1.417665,0,0,932.105,0,0,2022-06-30T09:31:56.805+02:00
239,2022-06-30T09:32:25.999+02:00,3940.417620875,8.338410186767579,9.583820343017578,16.071928253173823,3940.412645875,2.463369916075974,1.69089959917399,-0.2057995593444287,-2.127302169799805,5.770589828491211,1.01716685295105,-0.0883929729461669,0.7659873962402344,1.318596363067627,XArbitraryZVertical,0.7245911706909293,-0.1833325835522444,-0.596737963710035,-0.2919942682218996,0.9718462228775024,0.2043499052524567,0.1172863990068436,0,0,0,-1,-1,3936.707608916667,unknown,2,2022-06-30T09:32:22.288+02:00,2022-06-30T08:20:05.567+02:00,1197,1.417665,0,0,932.105,0,0,2022-06-30T09:31:56.805+02:00
240,2022-06-30T09:32:26.009+02:00,3940.427572875,7.555538177490234,9.367520141601563,18.63160537719726,3940.422596875,2.485803440227258,1.755257576829812,-0.1924403173343738,-2.65392804145813,6.293055057525635,0.9417314529418944,-0.1148980855941772,0.785689651966095,1.458289861679077,XArbitraryZVertical,0.744644814208825,-0.1884666598719246,-0.5783358656556794,-0.2747946283743517,0.964888870716095,0.191254734992981,0.1800311654806137,0,0,0,-1,-1,3936.707608916667,unknown,2,2022-06-30T09:32:22.288+02:00,2022-06-30T08:20:05.567+02:00,1197,1.417665,0,0,932.105,0,0,2022-06-30T09:31:56.805+02:00
241,2022-06-30T09:32:26.019+02:00,3940.437523875,7.055278472900391,9.56181610107422,22.078038482666013,3940.432547875,2.512979224210483,1.826002997902857,-0.1778141323999053,-3.214284181594849,6.923526763916016,0.7410553097724915,-0.1821672320365906,0.7780168652534485,1.650781393051147,XArbitraryZVertical,0.7663850669210622,-0.1920584281203011,-0.5574039220505129,-0.2550851095968982,0.9523545503616332,0.1768786013126373,0.2484650164842606,0,0,0,-1,-1,3936.707608916667,unknown,2,2022-06-30T09:32:22.288+02:00,2022-06-30T08:20:05.567+02:00,1197,1.417665,0,0,932.105,0,0,2022-06-30T09:31:56.805+02:00
242,2022-06-30T09:32:26.029+02:00,3940.447474875,7.1102142333984375,10.674003295898437,26.091193084716803,3940.442498875,2.544569444784725,1.903185951418763,-0.1618810735054652,-3.691074132919312,7.483005523681641,0.5078801512718201,-0.2137144207954407,0.8135263919830322,1.928528070449829,XArbitraryZVertical,0.789579614631327,-0.193861712604634,-0.5335393050033349,-0.2330611446500784,0.9329068064689636,0.1611749678850174,0.3220366537570953,0,0,0,-1,-1,3936.707608916667,unknown,2,2022-06-30T09:32:22.288+02:00,2022-06-30T08:20:05.567+02:00,1197,1.417665,0,0,932.105,0,0,2022-06-30T09:31:56.805+02:00
243,2022-06-30T09:32:26.040+02:00,3940.457425875,6.540199584960938,12.628788299560552,30.550270385742188,3940.452449875,2.579999880030077,1.985188019554356,-0.1442593701402681,-4.14389181137085,7.901166439056396,0.2066786140203476,-0.1810609698295593,0.9443145990371704,2.261202096939087,XArbitraryZVertical,0.8134703710026085,-0.1936269615665884,-0.5070246271868404,-0.2090468323461555,0.9058532118797302,0.1437595337629318,0.3984508812427521,0,0,0,-1,-1,3936.707608916667,unknown,2,2022-06-30T09:32:22.288+02:00,2022-06-30T08:20:05.567+02:00,1197,1.417665,0,0,932.105,0,0,2022-06-30T09:31:56.805+02:00
244,2022-06-30T09:32:26.050+02:00,3940.467376875,5.208868103027344,14.313834228515626,35.64567443847656,3940.462400875,2.618932925057806,2.071258764269392,-0.1248505922279973,-4.51283597946167,8.342697143554688,-0.144150510430336,-0.2038447856903076,1.162812232971191,2.638100624084473,XArbitraryZVertical,0.8375792753834583,-0.1910738061103575,-0.4778451654661594,-0.1833461547892819,0.8705317378044128,0.1245264932513237,0.4760964810848236,0,0,0,-1,-1,3936.707608916667,unknown,2,2022-06-30T09:32:22.288+02:00,2022-06-30T08:20:05.567+02:00,1197,1.417665,0,0,932.105,0,0,2022-06-30T09:31:56.805+02:00
245,2022-06-30T09:32:26.058+02:00,3940.477327875,3.8862185668945313,15.62840057373047,40.583306579589845,3940.472352875,2.659815661913894,2.16081992751346,-0.1036910797402928,-4.675148010253906,8.69285774230957,-0.4331059455871582,-0.2954894304275513,1.35560142993927,3.080213785171509,XArbitraryZVertical,0.8613515606123435,-0.186466194099886,-0.4458476713670853,-0.1566006362256568,0.8264646530151367,0.103505365550518,0.5533922910690308,0,0,0,-1,-1,3936.707608916667,unknown,2,2022-06-30T09:32:22.288+02:00,2022-06-30T08:20:05.567+02:00,1197,1.417665,0,0,932.105,0,0,2022-06-30T09:31:56.805+02:00
246,2022-06-30T09:32:26.068+02:00,3940.487278875,1.7289047241210938,16.283438415527346,46.50095077514649,3940.482303875,2.702446323595303,2.252713730767605,-0.0788220270914481,-5.212857723236084,8.990751266479492,-0.6379709243774414,-0.3778067231178284,1.514369130134583,3.508606672286987,XArbitraryZVertical,0.8841804351748116,-0.1799665168639602,-0.4115548700639988,-0.1282954345583739,0.7739552855491638,0.0787404328584671,0.6283259987831116,0,0,0,-1,-1,3936.707608916667,unknown,2,2022-06-30T09:32:22.288+02:00,2022-06-30T08:20:05.567+02:00,1197,1.417665,0,0,932.105,0,0,2022-06-30T09:31:56.805+02:00
247,2022-06-30T09:32:26.079+02:00,3940.497229875,-0.6692582702636719,15.998580780029302,53.27421569824219,3940.492254875,2.749859498702889,2.347382306788614,-0.0479603645578683,-6.049775123596191,9.462023735046388,-1.12331748008728,-0.5362513661384583,1.611940026283264,4.040115833282471,XArbitraryZVertical,0.9060964236310752,-0.1703246894964525,-0.3749431000237055,-0.0969356626370357,0.7124902606010437,0.0479419790208339,0.7000424861907959,0,0,0,-1,-1,3936.707608916667,unknown,2,2022-06-30T09:32:22.288+02:00,2022-06-30T08:20:05.567+02:00,1197,1.417665,0,0,932.105,0,0,2022-06-30T09:31:56.805+02:00
248,2022-06-30T09:32:26.088+02:00,3940.507181875,-1.276395721435547,15.93496307373047,60.60297546386719,3940.502205875,2.80538929980612,2.446645407163281,-0.009617305450474,-7.188611030578613,10.18582630157471,-1.900042295455933,-0.7085376381874084,1.621227264404297,4.662551403045654,XArbitraryZVertical,0.9272458624934256,-0.1556957397407888,-0.3349632503734744,-0.0614302332909294,0.6403154134750366,0.009617157280445,0.7680521011352539,0,0,0,-1,-1,3936.707608916667,unknown,2,2022-06-30T09:32:22.288+02:00,2022-06-30T08:20:05.567+02:00,1197,1.417665,0,0,932.105,0,0,2022-06-30T09:31:56.805+02:00
249,2022-06-30T09:32:26.098+02:00,3940.517132875,1.0684780883789062,16.25200378417969,66.74709869384766,3940.512156875,2.87092208427526,2.551237175193701,0.0382864014187362,-8.387591361999512,10.99066066741943,-2.924192667007446,-0.6863604187965393,1.662636518478394,5.34753942489624,XArbitraryZVertical,0.9470770828943992,-0.1345812557181616,-0.2906680931921027,-0.0210964377942538,0.5562485456466675,-0.0382770486176013,0.8301342129707336,0,0,0,-1,-1,3936.707608916667,unknown,2,2022-06-30T09:32:22.288+02:00,2022-06-30T08:20:05.567+02:00,1197,1.417665,0,0,932.105,0,0,2022-06-30T09:31:56.805+02:00
250,2022-06-30T09:32:26.108+02:00,3940.527083875,6.479425964355469,16.325500946044926,71.76526336669922,3940.522107875,2.946919890697322,2.65728838716048,0.0963326925409239,-9.379932403564451,11.22581386566162,-4.254941940307617,-0.3545171618461609,1.752861380577087,5.923089981079102,XArbitraryZVertical,0.9639861904883862,-0.1057287595180279,-0.2429233033857368,0.0232450468092468,0.4634340703487396,-0.0961837694048881,0.8808959126472473,0,0,0,-1,-1,3936.707608916667,unknown,2,2022-06-30T09:32:22.288+02:00,2022-06-30T08:20:05.567+02:00,1197,1.417665,0,0,932.105,0,0,2022-06-30T09:31:56.805+02:00
251,2022-06-30T09:32:26.118+02:00,3940.537034875,11.931837615966803,14.796879730224614,75.72527847290038,3940.532058875,3.033587121906535,2.755088634741488,0.1619518121300721,-9.748293876647947,10.558669090271,-5.917381763458252,0.2884716093540192,1.825414299964905,6.401409149169922,XArbitraryZVertical,0.9759046898286912,-0.0683100735432865,-0.1954277966354926,0.0689336833770292,0.3720200657844543,-0.1612447798252106,0.9141124486923218,0,0,0,-1,-1,3936.707608916667,unknown,2,2022-06-30T09:32:22.288+02:00,2022-06-30T08:20:05.567+02:00,1197,1.417665,0,0,932.105,0,0,2022-06-30T09:31:56.805+02:00
252,2022-06-30T09:32:26.128+02:00,3940.546985875,13.84171600341797,11.789333953857426,78.96094985961915,3940.542010875,3.133031738790436,2.833604263198828,0.2282965806687927,-9.337422370910645,8.973398208618164,-8.0843505859375,0.9210162162780762,1.734665513038635,6.79097318649292,XArbitraryZVertical,0.9816516405409996,-0.0216728852492267,-0.1528684126309693,0.1118993863100274,0.2952767014503479,-0.2263186275959015,0.9282193183898926,0,0,0,-1,-1,3936.707608916667,unknown,2,2022-06-30T09:32:22.288+02:00,2022-06-30T08:20:05.567+02:00,1197,1.417665,0,0,932.105,0,0,2022-06-30T09:31:56.805+02:00
253,2022-06-30T09:32:26.138+02:00,3940.556936875,8.825497283935547,8.780291290283204,82.61919250488282,3940.551961875,-3.031544810744036,2.880055925830012,0.2878136557843923,-8.529563903808594,6.366930484771729,-10.7907886505127,1.163050174713135,1.485623598098755,7.122767448425293,XArbitraryZVertical,0.9807569935570668,0.0352911111623476,-0.1210331306691319,0.1490681594105285,0.2479297369718552,-0.2838564813137054,0.926259458065033,0,0,0,-1,-1,3936.707608916667,unknown,2,2022-06-30T09:32:22.288+02:00,2022-06-30T08:20:05.567+02:00,1197,1.417665,0,0,932.105,0,0,2022-06-30T09:31:56.805+02:00
254,2022-06-30T09:32:26.148+02:00,3940.566887875,-2.5176145935058596,9.049431610107423,85.96189132690431,3940.561912875,-2.882819957887292,2.88039119417159,0.3297893302122756,-6.588651180267334,2.523975372314453,-14.71535110473633,0.6553176045417786,1.218878626823425,7.507917404174805,XArbitraryZVertical,0.9726180918072131,0.1049932855439526,-0.1063905338106006,0.177965177171294,0.2443250119686127,-0.3238437175750732,0.9140191078186036,0,0,0,-1,-1,3936.707608916667,unknown,2,2022-06-30T09:32:22.288+02:00,2022-06-30T08:20:05.567+02:00,1197,1.417665,0,0,932.105,0,0,2022-06-30T09:31:56.805+02:00
255,2022-06-30T09:32:26.158+02:00,3940.576839875,-12.339589691162114,21.137993316650387,97.86873092651368,3940.571863875,-2.699051866053236,2.809977901747734,0.3311432378770225,-3.952146768569946,-5.099170684814453,-18.52318954467773,-0.5645204782485962,1.247594475746155,7.868531227111816,XArbitraryZVertical,0.95505014083675,0.186959633059497,-0.1231466243729674,0.194320301824206,0.3078825175762177,-0.3251243531703949,0.8941493630409241,0,0,0,-1,-1,3936.707608916667,unknown,2,2022-06-30T09:32:22.288+02:00,2022-06-30T08:20:05.567+02:00,1197,1.417665,0,0,932.105,0,0,2022-06-30T09:31:56.805+02:00
256,2022-06-30T09:32:26.168+02:00,3940.586790875,-25.827890625000002,43.39371231079101,112.18765457153319,3940.581814875,-2.492648276519396,2.651439926551273,0.2985466447698046,-6.44689416885376,-13.49239444732666,-19.80562973022461,-1.707795262336731,2.448870658874512,9.133191108703612,XArbitraryZVertical,0.9207757062175058,0.2716418339397872,-0.1814160703421632,0.2132396832465579,0.4499366581439972,-0.2941314578056335,0.8432343602180481,0,0,0,-1,-1,3936.707608916667,unknown,2,2022-06-30T09:32:22.288+02:00,2022-06-30T08:20:05.567+02:00,1197,1.417665,0,0,932.105,0,0,2022-06-30T09:31:56.805+02:00
257,2022-06-30T09:32:26.178+02:00,3940.596741875,-66.33485595703125,51.55474136352539,109.03131820678713,3940.591765875,-2.270988328073278,2.431936927034442,0.2718865175530239,-13.23490047454834,-17.50740051269531,-18.67276191711426,-3.260450839996338,4.691965103149414,10.70532989501953,XArbitraryZVertical,0.8622689342073087,0.3490738110351747,-0.2585334860068736,0.2603849288481809,0.6276379227638245,-0.2685491442680359,0.7307204604148865,0,0,0,-1,-1,3936.707608916667,unknown,2,2022-06-30T09:32:22.288+02:00,2022-06-30T08:20:05.567+02:00,1197,1.417665,0,0,932.105,0,0,2022-06-30T09:31:56.805+02:00
258,2022-06-30T09:32:26.188+02:00,3940.606692875,-100.63647537231444,35.140475006103514,88.19569610595704,3940.601716875,-2.022882310313365,2.170929602046687,0.2176085109167497,-14.196608543396,-23.1147575378418,-22.08699417114258,-7.567760944366455,5.471220016479492,10.56287002563477,XArbitraryZVertical,0.7721646201723406,0.4236491989866757,-0.3420995946122146,0.3274920777302111,0.8057979345321655,-0.2158951461315155,0.5514336824417114,0,0,0,-1,-1,3936.707608916667,unknown,2,2022-06-30T09:32:22.288+02:00,2022-06-30T08:20:05.567+02:00,1197,1.417665,0,0,932.105,0,0,2022-06-30T09:31:56.805+02:00
259,2022-06-30T09:32:26.198+02:00,3940.616643875,-122.52500793457033,32.409404296875,91.63554290771486,3940.611668875,-1.835085393971344,1.8769239319202,0.0619652550916371,-4.479477405548096,-29.83103561401367,-22.08577156066895,-11.21023845672607,3.644032955169678,8.689597129821777,XArbitraryZVertical,0.6513893999268883,0.4754860087853238,-0.4539303198681867,0.3788829234018224,0.9516778588294984,-0.061925608664751,0.3007901906967163,0,0,0,-1,-1,3936.707608916667,unknown,2,2022-06-30T09:32:22.288+02:00,2022-06-30T08:20:05.567+02:00,1197,1.417665,0,0,932.105,0,0,2022-06-30T09:31:56.805+02:00
260,2022-06-30T09:32:26.208+02:00,3940.626594875,-183.8430464172363,67.57293136596681,112.11804931640626,3940.621619875,-1.842703812115373,1.559325272186848,-0.1290764707599611,12.48029899597168,-33.22289657592773,-16.19150733947754,-13.48142337799072,3.174992322921753,9.352409362792969,XArbitraryZVertical,0.5310126669537131,0.460801320474045,-0.5926155134840191,0.3930581106695477,0.9916160702705384,0.1287183463573456,-0.0113753816112875,0,0,0,-1,-1,3936.707608916667,unknown,2,2022-06-30T09:32:22.288+02:00,2022-06-30T08:20:05.567+02:00,1197,1.417665,0,0,932.105,0,0,2022-06-30T09:31:56.805+02:00
261,2022-06-30T09:32:26.218+02:00,3940.636545875,-261.1806221008301,90.28460220336915,130.45626480102538,3940.631570875,-2.066192344791703,1.173448037189549,-0.2289625251384359,26.04271697998047,-34.88263702392578,-14.13493728637695,-19.63839721679688,6.661201000213623,11.80583095550537,XArbitraryZVertical,0.4236785375036554,0.3633988877781474,-0.7429558681097508,0.369397311824164,0.8980260491371155,0.2269672453403473,-0.3768754899501801,0,0,0,-1,-1,3936.707608916667,unknown,2,2022-06-30T09:32:22.288+02:00,2022-06-30T08:20:05.567+02:00,1197,1.417665,0,0,932.105,0,0,2022-06-30T09:31:56.805+02:00
262,2022-06-30T09:32:26.228+02:00,3940.646497875,-314.9916215515137,17.605489196777345,137.14271026611323,3940.641521875,-2.412932758850218,0.752653985089781,-0.1977089704334808,33.18474578857422,-33.17157363891602,-14.64051818847656,-27.2941780090332,9.0068998336792,14.01395320892334,XArbitraryZVertical,0.3090024818758444,0.2160743915489219,-0.8776583960551938,0.295880403383314,0.6702616214752197,0.1964234560728073,-0.7156586647033691,0,0,0,-1,-1,3936.707608916667,unknown,2,2022-06-30T09:32:22.288+02:00,2022-06-30T08:20:05.567+02:00,1197,1.417665,0,0,932.105,0,0,2022-06-30T09:31:56.805+02:00
263,2022-06-30T09:32:26.237+02:00,3940.656448875,-311.59653167724616,-57.71308502197266,21.859193572998052,3940.651472875,-2.63124662506711,0.4246123015714004,0.0630534021787536,34.83994674682617,-27.42751884460449,5.36196231842041,-32.5203857421875,1.857658863067627,14.8892765045166,XArbitraryZVertical,0.2115682665073572,0.0233447132962776,-0.9437476867470108,0.2530499257445293,0.411148875951767,-0.0630116313695907,-0.9093877673149108,0,0,0,-1,-1,3936.707608916667,unknown,2,2022-06-30T09:32:22.288+02:00,2022-06-30T08:20:05.567+02:00,1197,1.417665,0,0,932.105,0,0,2022-06-30T09:31:56.805+02:00
264,2022-06-30T09:32:26.247+02:00,3940.666399875,-244.54062515258786,-24.429049530029303,104.9901718139649,3940.661423875,-2.693826257133394,0.2617507153122403,0.4078640574799443,34.72874450683594,-7.595685005187988,3.575340032577515,-32.00069808959961,-5.486437797546387,3.114959001541138,XArbitraryZVertical,0.1691870757052347,-0.1674049487495829,-0.9408041531905929,0.2413274193613429,0.2375449985265732,-0.3966495096683502,-0.8867026567459106,0,0,0,-1,-1,3936.707608916667,unknown,2,2022-06-30T09:32:22.288+02:00,2022-06-30T08:20:05.567+02:00,1197,1.417665,0,0,932.105,0,0,2022-06-30T09:31:56.805+02:00
265,2022-06-30T09:32:26.258+02:00,3940.676350875,-125.50201721191407,-154.36799011230468,79.7255598449707,3940.671374875,-2.755484220607026,0.3316143576948195,0.7521570070287251,34.59098434448242,14.19333457946777,6.905932903289795,-25.16542434692383,-1.807003736495972,11.39279556274414,XArbitraryZVertical,0.2201598983379814,-0.3260567706168896,-0.8886840803832172,0.2354936325730039,0.2377366125583649,-0.6832154393196106,-0.6904332041740417,0,0,0,-1,-1,3936.707608916667,unknown,2,2022-06-30T09:32:22.288+02:00,2022-06-30T08:20:05.567+02:00,1197,1.417665,0,0,932.105,0,0,2022-06-30T09:31:56.805+02:00
266,2022-06-30T09:32:26.267+02:00,3940.686301875,-14.762900390625001,-156.96538879394532,-3.3787738037109376,3940.681326875,-2.84046566300637,0.569518399459963,1.06946384508339,21.68397331237793,15.41379165649414,10.21218109130859,-13.05242252349854,-14.85883617401123,8.531706809997559,XArbitraryZVertical,0.3123368448143544,-0.4472993081619244,-0.7949406070604067,0.2654028701012766,0.259149432182312,-0.8769429326057434,-0.4047380387783051,0,0,0,-1,-1,3936.707608916667,unknown,2,2022-06-30T09:32:22.288+02:00,2022-06-30T08:20:05.567+02:00,1197,1.417665,0,0,932.105,0,0,2022-06-30T09:31:56.805+02:00
267,2022-06-30T09:32:26.277+02:00,3940.696252875,24.832909698486326,-141.8056636047363,-34.413736267089845,3940.691277875,-2.62588268954861,0.4961909439087922,1.181546783198881,-8.149581909179688,12.65231418609619,15.85213756561279,-1.685551762580872,-15.07535552978516,-0.0106929540634155,XArbitraryZVertical,0.3348870081602486,-0.4700921228835772,-0.7435858394462975,0.3375562758213755,0.1806693822145462,-0.9251940846443176,-0.333728164434433,0,0,0,-1,-1,3936.707608916667,unknown,2,2022-06-30T09:32:22.288+02:00,2022-06-30T08:20:05.567+02:00,1197,1.417665,0,0,932.105,0,0,2022-06-30T09:31:56.805+02:00
268,2022-06-30T09:32:26.287+02:00,3940.706203875,13.609848175048825,-49.220196075439446,4.496649169921875,3940.701228875,-2.253674968435547,0.2772244181724419,1.112758430507007,-15.92486095428467,11.52854061126709,6.849091053009033,2.410366296768188,-13.55829334259033,-3.082719802856445,XArbitraryZVertical,0.3306142822228776,-0.4219493053823414,-0.7281561274404031,0.4271320314655798,0.1210215017199516,-0.8969218730926514,-0.425305962562561,0,0,0,-1,-1,3936.707608916667,unknown,2,2022-06-30T09:32:22.288+02:00,2022-06-30T08:20:05.567+02:00,1197,1.417665,0,0,932.105,0,0,2022-06-30T09:31:56.805+02:00
269,2022-06-30T09:32:26.297+02:00,3940.716155875,9.364825744628908,-22.64984939575195,16.16877685546875,3940.711179875,-2.106195156090384,0.2332190632701579,0.9375202677838912,-20.32854080200195,3.824283361434937,-0.3144295215606689,1.250576019287109,-4.211256504058838,1.034142017364502,XArbitraryZVertical,0.3122534410819163,-0.3385468232499312,-0.7439479226131287,0.4841751141263696,0.1367686986923218,-0.8060930967330933,-0.5757676959037781,0,0,0,-1,-1,3936.707608916667,unknown,2,2022-06-30T09:32:22.288+02:00,2022-06-30T08:20:05.567+02:00,1197,1.417665,0,0,932.105,0,0,2022-06-30T09:31:56.805+02:00
270,2022-06-30T09:32:26.307+02:00,3940.726106875,-15.755935363769533,-17.37272323608399,-24.942032775878907,3940.721130875,-2.06590531470071,0.1753872407967786,0.7899976288105216,-8.580533981323242,-8.223797798156738,0.6188664436340332,0.8318068385124207,-1.598501682281494,2.341242790222168,XArbitraryZVertical,0.265797784721109,-0.2877966211048535,-0.7723730054121294,0.4999645150606727,0.1228138729929924,-0.7103515863418579,-0.6930493116378784,0,0,0,-1,-1,3936.707608916667,unknown,2,2022-06-30T09:32:22.288+02:00,2022-06-30T08:20:05.567+02:00,1197,1.417665,0,0,932.105,0,0,2022-06-30T09:31:56.805+02:00
271,2022-06-30T09:32:26.317+02:00,3940.736057875,-95.39811859130862,32.37886779785156,23.9120246887207,3940.731081875,-1.961803686657792,-0.0089362869433706,0.7613051635040897,0.5954185128211975,-7.184282302856445,12.52279281616211,-1.599640011787415,-1.081053018569946,-1.818603515625,XArbitraryZVertical,0.2032209354652394,-0.3110427444739077,-0.7724341471533989,0.5150719658540959,-0.0064692157320678,-0.6898669004440308,-0.7239073514938354,0,0,0,-1,-1,3936.707608916667,unknown,2,2022-06-30T09:32:22.288+02:00,2022-06-30T08:20:05.567+02:00,1197,1.417665,0,0,932.105,0,0,2022-06-30T09:31:56.805+02:00
272,2022-06-30T09:32:26.327+02:00,3940.746008875,-102.94407669067381,20.315902862548825,16.6072151184082,3940.741032875,-1.828822536191045,-0.0815248035512595,0.7690429991278792,2.197987079620361,9.980024337768556,6.06797456741333,-9.666061401367188,3.996045827865601,3.153705358505249,XArbitraryZVertical,0.1988010206208145,-0.3199737082127464,-0.7430738141712047,0.5531151463365348,-0.0585169419646263,-0.6954478621482849,-0.716189980506897,0,0,0,-1,-1,3936.707608916667,unknown,2,2022-06-30T09:32:22.288+02:00,2022-06-30T08:20:05.567+02:00,1197,1.417665,0,0,932.105,0,0,2022-06-30T09:31:56.805+02:00
273,2022-06-30T09:32:26.337+02:00,3940.755959875,-14.980248413085938,-26.000631408691408,9.209897918701174,3940.750984875,-1.734355037357047,-0.0309890373014144,0.7953801633248717,3.788549661636353,12.08905220031738,7.64043140411377,-10.47210025787354,2.785067558288574,2.392563819885254,XArbitraryZVertical,0.2396469442202404,-0.3045171665105871,-0.7067963600315872,0.5918425689460212,-0.0216892678290605,-0.7141298055648804,-0.6996772885322571,0,0,0,-1,-1,3936.707608916667,unknown,2,2022-06-30T09:32:22.288+02:00,2022-06-30T08:20:05.567+02:00,1197,1.417665,0,0,932.105,0,0,2022-06-30T09:31:56.805+02:00
274,2022-06-30T09:32:26.347+02:00,3940.765910875,-12.866643676757812,-38.81608154296875,2.9258157348632814,3940.760935875,-1.61923319113055,-0.0133045330121724,0.8368631985340772,4.658920764923096,8.08791732788086,7.578966617584229,-1.518127202987671,-1.907875537872314,1.608563899993896,XArbitraryZVertical,0.2758682010088177,-0.2983767826439598,-0.6634092152485462,0.628296312982057,-0.008911051787436,-0.7425457835197449,-0.6697360873222351,0,0,0,-1,-1,3936.707608916667,unknown,2,2022-06-30T09:32:22.288+02:00,2022-06-30T08:20:05.567+02:00,1197,1.417665,0,0,932.105,0,0,2022-06-30T09:31:56.805+02:00
275,2022-06-30T09:32:26.357+02:00,3940.775861875,-9.628577270507813,-34.215997467041014,2.9063562011718753,3940.770886875,-1.510932630568349,-0.0341877403083673,0.8701868972242642,1.824129939079285,4.261909961700439,6.777700424194336,-1.289548277854919,-3.192337989807129,0.942555606365204,XArbitraryZVertical,0.2961557935253377,-0.3002303063887599,-0.6269024574054781,0.6550930535970882,-0.0220359861850738,-0.764449417591095,-0.644307017326355,0,0,0,-1,-1,3936.707608916667,unknown,2,2022-06-30T09:32:22.288+02:00,2022-06-30T08:20:05.567+02:00,1197,1.417665,0,0,932.105,0,0,2022-06-30T09:31:56.805+02:00
276,2022-06-30T09:32:26.367+02:00,3940.785813875,-16.161142730712886,-22.501058807373052,0.8827143859863281,3940.780837875,-1.402692145933675,-0.0856101548852647,0.868161339414798,-1.019518613815308,2.216167688369751,7.248495101928711,-0.9262497425079346,-2.724727630615234,0.9401291012763976,XArbitraryZVertical,0.2959647025898016,-0.30078700273526,-0.5986178232984634,0.680873603051036,-0.0552563667297363,-0.7631420493125916,-0.6438641548156738,0,0,0,-1,-1,3936.707608916667,unknown,2,2022-06-30T09:32:22.288+02:00,2022-06-30T08:20:05.567+02:00,1197,1.417665,0,0,932.105,0,0,2022-06-30T09:31:56.805+02:00
277,2022-06-30T09:32:26.377+02:00,3940.795764875,-22.356160125732426,-12.406051483154302,0.029189300537109376,3940.790788875,-1.294990669755302,-0.1498154877255676,0.8476916050740498,-1.210061430931091,1.424909591674805,7.254969596862793,-1.548650145530701,-1.543931245803833,0.744284987449646,XArbitraryZVertical,0.2859600497762435,-0.3017864959202485,-0.5728236280736966,0.7064169145352626,-0.0987648218870163,-0.7497549057006836,-0.6543035507202148,0,0,0,-1,-1,3936.707608916667,unknown,2,2022-06-30T09:32:22.288+02:00,2022-06-30T08:20:05.567+02:00,1197,1.417665,0,0,932.105,0,0,2022-06-30T09:31:56.805+02:00
278,2022-06-30T09:32:26.387+02:00,3940.805715875,-24.40300369262695,-8.420289916992187,0.670455780029297,3940.800739875,-1.192571736164153,-0.2096812455863897,0.825410547861323,-0.7093761563301086,1.930196404457092,7.115720272064209,-2.13773775100708,-0.5298072099685669,0.6663755178451538,XArbitraryZVertical,0.2762159339987527,-0.3033230530067567,-0.5463283666904111,0.7302227614976936,-0.1411775946617126,-0.7348263263702393,-0.6633997559547424,0,0,0,-1,-1,3936.707608916667,unknown,2,2022-06-30T09:32:22.288+02:00,2022-06-30T08:20:05.567+02:00,1197,1.417665,0,0,932.105,0,0,2022-06-30T09:31:56.805+02:00
279,2022-06-30T09:32:26.397+02:00,3940.815666875,-22.129980468750002,-11.567495269775387,0.3189866638183594,3940.810690875,-1.094299805651756,-0.2578663923392797,0.8053876939883874,-0.0327683612704277,2.709482669830322,6.987740993499756,-2.310879468917847,-0.1372383832931519,0.7382685542106628,XArbitraryZVertical,0.2703655376399752,-0.303216791945971,-0.5176990907783462,0.7529605889018928,-0.1766846030950546,-0.721099317073822,-0.6699240803718567,0,0,0,-1,-1,3936.707608916667,unknown,2,2022-06-30T09:32:22.288+02:00,2022-06-30T08:20:05.567+02:00,1197,1.417665,0,0,932.105,0,0,2022-06-30T09:31:56.805+02:00
280,2022-06-30T09:32:26.407+02:00,3940.825618416667,-18.589842224121096,-14.923516387939449,-0.31329849243164065,3940.820643416667,-0.9992512251793622,-0.2980529257524239,0.7885556409749687,0.3645693957805634,2.771685600280762,6.769418716430664,-2.048867225646973,-0.4698178768157959,0.7063097953796387,XArbitraryZVertical,0.2677711831330544,-0.3023278029529823,-0.4874986540937633,0.7741070707410804,-0.2069920003414154,-0.7093359231948853,-0.6737929582595825,0,0,0,-1,-1,3936.707608916667,unknown,2,2022-06-30T09:32:22.288+02:00,2022-06-30T08:20:05.567+02:00,1197,1.417665,0,0,932.105,0,0,2022-06-30T09:31:56.805+02:00
281,2022-06-30T09:32:26.417+02:00,3940.835569416667,-16.5018342590332,-14.621893615722657,-1.1132350158691406,3940.830594416667,-0.9096903153176013,-0.3353109881616477,0.7709817951910996,0.2271574884653091,2.373150110244751,6.484611511230469,-1.658976197242737,-0.8244161009788513,0.6453467607498169,XArbitraryZVertical,0.2651177556782207,-0.3017797461509082,-0.4577416445470854,0.7931672259806287,-0.236012727022171,-0.6968397498130798,-0.6772831082344055,0,0,0,-1,-1,3936.707608916667,unknown,2,2022-06-30T09:32:22.288+02:00,2022-06-30T08:20:05.567+02:00,1197,1.417665,0,0,932.105,0,0,2022-06-30T09:31:56.805+02:00
282,2022-06-30T09:32:26.427+02:00,3940.845520416667,-15.601606292724615,-11.799662475585938,-2.1710852050781253,3940.840545416667,-0.8276051047824444,-0.3704572812059321,0.7507340323224428,0.1076870188117027,1.954003691673279,6.122345447540283,-1.417423486709595,-0.8083337545394897,0.5681066513061523,XArbitraryZVertical,0.2610313179036549,-0.3017775526959801,-0.4295190346914336,0.8101274145297033,-0.2647207081317902,-0.6821756362915039,-0.6815859079360962,0,0,0,-1,-1,3936.707608916667,unknown,2,2022-06-30T09:32:22.288+02:00,2022-06-30T08:20:05.567+02:00,1197,1.417665,0,0,932.105,0,0,2022-06-30T09:31:56.805+02:00
283,2022-06-30T09:32:26.437+02:00,3940.855472416667,-15.16212020874024,-9.1775651550293,-2.980751495361328,3940.850496416667,-0.7531733379280259,-0.4030159294760629,0.7298204592850747,0.1936727613210678,1.605197787284851,5.68903923034668,-1.298077583312988,-0.5360843539237976,0.464269757270813,XArbitraryZVertical,0.2563859591930606,-0.3024479705244774,-0.4030036641111366,0.8248512434022817,-0.2923001945018768,-0.666735827922821,-0.6855829358100891,0,0,0,-1,-1,3936.707608916667,unknown,2,2022-06-30T09:32:22.288+02:00,2022-06-30T08:20:05.567+02:00,1197,1.417665,0,0,932.105,0,0,2022-06-30T09:31:56.805+02:00
284,2022-06-30T09:32:26.446+02:00,3940.865423416667,-14.757960662841802,-8.530760192871094,-3.4143997192382813,3940.860447416667,-0.6854747482986232,-0.4333481539305353,0.710343723840592,0.3794924318790436,1.270177483558655,5.258813381195068,-1.227226972579956,-0.2834375500679016,0.3842113614082336,XArbitraryZVertical,0.2521282124184357,-0.3039765549025809,-0.3781363396080025,0.8372828092547066,-0.3183510005474091,-0.6520944237709045,-0.6880592107772827,0,0,0,-1,-1,3936.707608916667,unknown,2,2022-06-30T09:32:22.288+02:00,2022-06-30T08:20:05.567+02:00,1197,1.417665,0,0,932.105,0,0,2022-06-30T09:31:56.805+02:00
285,2022-06-30T09:32:26.457+02:00,3940.875374416667,-14.45873291015625,-9.482930145263673,-4.194876708984375,3940.870398416667,-0.623215423047215,-0.462612882891661,0.692590130311575,0.5322914719581604,0.9195870757102966,4.914177894592285,-1.160918474197388,-0.231066107749939,0.3406496047973633,XArbitraryZVertical,0.2483524432066004,-0.3065451691767918,-0.3547721541196012,0.8476367033773142,-0.3434607982635498,-0.6385326981544495,-0.6887022256851196,0,0,0,-1,-1,3936.707608916667,unknown,2,2022-06-30T09:32:22.288+02:00,2022-06-30T08:20:05.567+02:00,1197,1.417665,0,0,932.105,0,0,2022-06-30T09:31:56.805+02:00
286,2022-06-30T09:32:26.466+02:00,3940.885325416667,-14.759158172607426,-10.72265213012695,-5.401816864013672,3940.880349416667,-0.565715203630253,-0.491886938908599,0.675556496937248,0.5158852934837341,0.4907657206058502,4.609734058380127,-1.105321168899536,-0.3413282036781311,0.2602303028106689,XArbitraryZVertical,0.2445335503527648,-0.3102937121865572,-0.332883780005871,0.8562182831703276,-0.3685557842254639,-0.625331699848175,-0.6878423094749451,0,0,0,-1,-1,3936.707608916667,unknown,2,2022-06-30T09:32:22.288+02:00,2022-06-30T08:20:05.567+02:00,1197,1.417665,0,0,932.105,0,0,2022-06-30T09:31:56.805+02:00
287,2022-06-30T09:32:26.476+02:00,3940.895276416667,-15.756833496093751,-10.964549102783199,-6.354585571289062,3940.890301416667,-0.5137216330356666,-0.5213684967665062,0.6581181341355113,0.3883234858512878,0.0486790165305137,4.273839473724365,-1.110458135604858,-0.4814040660858154,0.1353883147239685,XArbitraryZVertical,0.2400258655556922,-0.315232668858028,-0.312849934448767,0.8632154439890087,-0.3940432667732239,-0.6116291284561157,-0.6860318779945374,0,0,0,-1,-1,3936.707608916667,unknown,2,2022-06-30T09:32:22.288+02:00,2022-06-30T08:20:05.567+02:00,1197,1.417665,0,0,932.105,0,0,2022-06-30T09:31:56.805+02:00
288,2022-06-30T09:32:26.486+02:00,3940.905227416667,-17.156123657226562,-10.522518310546875,-6.465953979492188,3940.900252416667,-0.4680631187414455,-0.5498265685450698,0.6391589648120888,0.0470756031572818,-0.1782470792531967,3.953762054443359,-1.186812400817871,-0.5211707353591919,0.0365412235260009,XArbitraryZVertical,0.2343619649994106,-0.3208129737238345,-0.2948521244673024,0.8690315123404153,-0.4193889200687408,-0.5965206623077393,-0.6843070387840271,0,0,0,-1,-1,3936.707608916667,unknown,2,2022-06-30T09:32:22.288+02:00,2022-06-30T08:20:05.567+02:00,1197,1.417665,0,0,932.105,0,0,2022-06-30T09:31:56.805+02:00
289,2022-06-30T09:32:26.496+02:00,3940.915178416667,-18.164875946044926,-10.126292266845699,-6.7650320434570315,3940.910203416667,-0.42938558634396,-0.5741166753840715,0.6179868857409471,-0.2879016101360321,-0.0946477353572845,3.640726089477539,-1.306194067001343,-0.4932366609573364,0.0252537131309509,XArbitraryZVertical,0.2274967615455093,-0.3256673215802128,-0.2787763046601747,0.8743396748554214,-0.4426462948322296,-0.5793955326080322,-0.684372067451477,0,0,0,-1,-1,3936.707608916667,unknown,2,2022-06-30T09:32:22.288+02:00,2022-06-30T08:20:05.567+02:00,1197,1.417665,0,0,932.105,0,0,2022-06-30T09:31:56.805+02:00
290,2022-06-30T09:32:26.506+02:00,3940.925130416667,-18.06563232421875,-9.549242248535156,-6.516997833251954,3940.920154416667,-0.3967988602164433,-0.5925225500925031,0.5949648013132659,-0.6135203838348389,0.1353393942117691,3.415711879730225,-1.389174461364746,-0.4717625379562378,-0.0026111602783203,XArbitraryZVertical,0.2198297408940563,-0.3289039183163152,-0.26412860943467,0.8796210505322961,-0.462494969367981,-0.5604795813560486,-0.686994194984436,0,0,0,-1,-1,3936.707608916667,unknown,2,2022-06-30T09:32:22.288+02:00,2022-06-30T08:20:05.567+02:00,1197,1.417665,0,0,932.105,0,0,2022-06-30T09:31:56.805+02:00
291,2022-06-30T09:32:26.516+02:00,3940.935081416667,-16.95134948730469,-9.119635620117188,-6.385870513916016,3940.930105416667,-0.3691791419718526,-0.6050372207936018,0.5698838708458958,-0.9172621965408324,0.4067871570587158,3.249747037887573,-1.362650036811829,-0.4338852167129517,0.0281774997711181,XArbitraryZVertical,0.2113008135066854,-0.3303065719284703,-0.2504680828672283,0.8851640511473814,-0.4789027869701385,-0.5395342707633972,-0.692499041557312,0,0,0,-1,-1,3936.707608916667,unknown,2,2022-06-30T09:32:22.288+02:00,2022-06-30T08:20:05.567+02:00,1197,1.417665,0,0,932.105,0,0,2022-06-30T09:31:56.805+02:00
292,2022-06-30T09:32:26.526+02:00,3940.945032416667,-15.166760559082032,-8.338559875488281,-6.887926483154297,3940.940056416667,-0.3455627348613027,-0.6122030912145404,0.5441158933690852,-0.993358314037323,0.649385929107666,3.010346651077271,-1.23628568649292,-0.4119649529457092,0.0492424368858337,XArbitraryZVertical,0.2025057610308091,-0.3299890085264114,-0.2376714354478426,0.8908485856700492,-0.4916808009147644,-0.5176618695259094,-0.7001973390579224,0,0,0,-1,-1,3936.707608916667,unknown,2,2022-06-30T09:32:22.288+02:00,2022-06-30T08:20:05.567+02:00,1197,1.417665,0,0,932.105,0,0,2022-06-30T09:31:56.805+02:00
