,loggingTime(txt),accelerometerTimestamp_sinceReboot(s),accelerometerAccelerationX(G),accelerometerAccelerationY(G),accelerometerAccelerationZ(G),motionTimestamp_sinceReboot(s),motionYaw(rad),motionRoll(rad),motionPitch(rad),motionRotationRateX(rad/s),motionRotationRateY(rad/s),motionRotationRateZ(rad/s),motionUserAccelerationX(G),motionUserAccelerationY(G),motionUserAccelerationZ(G),motionAttitudeReferenceFrame(txt),motionQuaternionX(R),motionQuaternionY(R),motionQuaternionZ(R),motionQuaternionW(R),motionGravityX(G),motionGravityY(G),motionGravityZ(G),motionMagneticFieldX(µT),motionMagneticFieldY(µT),motionMagneticFieldZ(µT),motionHeading(°),motionMagneticFieldCalibrationAccuracy(Z),activityTimestamp_sinceReboot(s),activity(txt),activityActivityConfidence(Z),activityActivityStartDate(txt),pedometerStartDate(txt),pedometerNumberofSteps(N),pedometerAverageActivePace(s/m),pedometerCurrentPace(s/m),pedometerCurrentCadence(steps/s),pedometerDistance(m),pedometerFloorAscended(N),pedometerFloorDescended(N),pedometerEndDate(txt)
230,2022-06-30T09:33:21.376+02:00,3995.795208791667,4.403842163085938,12.752730560302739,6.4427522277832034,3995.790233791667,2.269250760228713,1.139742909479036,-0.18845719772465,0.375481903553009,6.382285118103027,-1.878890752792358,-0.3569940328598022,1.269962668418884,0.9544061422348022,XArbitraryZVertical,0.5203104247937501,-0.1551191505645446,-0.738310126357524,-0.4001416192239543,0.892440140247345,0.1873436272144318,-0.4104302227497101,0,0,0,-1,-1,3995.298543791667,unknown,2,2022-06-30T09:33:20.879+02:00,2022-06-30T08:20:05.567+02:00,1197,1.429728,0,0,932.105,0,0,2022-06-30T09:33:00.498+02:00
231,2022-06-30T09:33:21.387+02:00,3995.805159791667,3.6287539672851565,12.20906112670899,6.8478099060058595,3995.800184791667,2.262366623192426,1.20279270795356,-0.2056634678188657,-0.4261023998260498,6.555294036865234,-1.843252897262573,-0.4644705653190613,1.09575629234314,1.008925557136536,XArbitraryZVertical,0.5453139614696279,-0.1629317297197327,-0.7174861366171909,-0.4016211174077213,0.9133840799331664,0.2042166888713837,-0.3521718680858612,0,0,0,-1,-1,3995.298543791667,unknown,2,2022-06-30T09:33:20.879+02:00,2022-06-30T08:20:05.567+02:00,1197,1.429728,0,0,932.105,0,0,2022-06-30T09:33:00.498+02:00
232,2022-06-30T09:33:21.396+02:00,3995.815110791667,3.5474729919433594,13.0721662902832,8.208480377197265,3995.810135791667,2.262806610054764,1.26883509772926,-0.2250516054117981,-0.9300318360328674,6.690971851348877,-1.795764923095703,-0.5607751607894897,1.021396398544312,0.9879376888275146,XArbitraryZVertical,0.5714866121718437,-0.1686895570459848,-0.6959890365067216,-0.4006820293653785,0.9306786060333252,0.2231566607952118,-0.28989377617836,0,0,0,-1,-1,3995.298543791667,unknown,2,2022-06-30T09:33:20.879+02:00,2022-06-30T08:20:05.567+02:00,1197,1.429728,0,0,932.105,0,0,2022-06-30T09:33:00.498+02:00
233,2022-06-30T09:33:21.406+02:00,3995.825061791667,3.655847625732422,13.703852691650386,9.167835388183594,3995.820086791667,2.268971791205044,1.337615006490748,-0.2446098582301139,-1.221071720123291,6.844611167907715,-1.682077884674072,-0.582355797290802,1.090357422828674,1.060941576957703,XArbitraryZVertical,0.5982145337748086,-0.1733254876463867,-0.6737820186263559,-0.3976374546894606,0.9439737796783448,0.242177814245224,-0.2241952866315842,0,0,0,-1,-1,3995.298543791667,unknown,2,2022-06-30T09:33:20.879+02:00,2022-06-30T08:20:05.567+02:00,1197,1.429728,0,0,932.105,0,0,2022-06-30T09:33:00.498+02:00
234,2022-06-30T09:33:21.416+02:00,3995.835012791667,3.7717066955566407,13.792618103027344,11.910132751464845,3995.830037791667,2.278953179004133,1.408600372160045,-0.2628535319945817,-1.454455971717834,6.917501926422119,-1.532857775688171,-0.5803130269050598,1.13709020614624,1.090479016304016,XArbitraryZVertical,0.6248781739400407,-0.1776448965866159,-0.6508259377503628,-0.3929317421452532,0.952978491783142,0.2598371207714081,-0.1559391170740128,0,0,0,-1,-1,3995.298543791667,unknown,2,2022-06-30T09:33:20.879+02:00,2022-06-30T08:20:05.567+02:00,1197,1.429728,0,0,932.105,0,0,2022-06-30T09:33:00.498+02:00
235,2022-06-30T09:33:21.426+02:00,3995.844963791667,4.458328857421876,13.402978363037114,13.482014007568365,3995.839988791667,2.293904037341069,1.481981129898749,-0.2796179754714594,-1.829501271247864,7.028645992279053,-1.457656264305115,-0.5728969573974609,1.129987239837646,1.299334406852722,XArbitraryZVertical,0.6515708008517461,-0.1811870046899521,-0.6272672776128239,-0.3862157722075121,0.9573726654052734,0.2759884893894196,-0.0852535218000412,0,0,0,-1,-1,3995.298543791667,unknown,2,2022-06-30T09:33:20.879+02:00,2022-06-30T08:20:05.567+02:00,1197,1.429728,0,0,932.105,0,0,2022-06-30T09:33:00.498+02:00
236,2022-06-30T09:33:21.436+02:00,3995.854914791667,4.421804809570313,13.676309967041012,17.164356536865238,3995.849939791667,2.314781446495822,1.558836110398506,-0.2943431008974352,-2.431120634078979,7.242854118347168,-1.261652708053589,-0.5024568438529968,1.076145887374878,1.385759115219116,XArbitraryZVertical,0.6786008254615938,-0.1837882879911575,-0.6029518249230571,-0.3770568890113899,0.9569244980812072,0.2901112735271454,-0.0114455698058009,0,0,0,-1,-1,3995.298543791667,unknown,2,2022-06-30T09:33:20.879+02:00,2022-06-30T08:20:05.567+02:00,1197,1.429728,0,0,932.105,0,0,2022-06-30T09:33:00.498+02:00
237,2022-06-30T09:33:21.446+02:00,3995.864865791667,2.648442535400391,14.013708343505865,20.5299577331543,3995.859890791667,2.346011453095582,1.642070808324118,-0.3056338672909085,-3.486792325973511,7.645422458648682,-1.232206702232361,-0.500490665435791,1.09322190284729,1.681765794754028,XArbitraryZVertical,0.7070301339492087,-0.1845678822940674,-0.577776767867909,-0.3636166066371663,0.951235055923462,0.3008977174758911,0.0679138302803039,0,0,0,-1,-1,3995.298543791667,unknown,2,2022-06-30T09:33:20.879+02:00,2022-06-30T08:20:05.567+02:00,1197,1.429728,0,0,932.105,0,0,2022-06-30T09:33:00.498+02:00
238,2022-06-30T09:33:21.456+02:00,3995.87481675,1.3623170471191406,14.94102996826172,22.965542907714845,3995.869841791667,2.387840258683931,1.733177961365393,-0.313741534721935,-4.217986106872559,8.10529899597168,-1.319985508918762,-0.6686991453170776,1.119893312454224,1.938981175422668,XArbitraryZVertical,0.7371605591278433,-0.1829833264219592,-0.5507824559569912,-0.3460492341287736,0.938672661781311,0.3086196780204773,0.1537771821022034,0,0,0,-1,-1,3995.298543791667,unknown,2,2022-06-30T09:33:20.879+02:00,2022-06-30T08:20:05.567+02:00,1197,1.429728,0,0,932.105,0,0,2022-06-30T09:33:00.498+02:00
239,2022-06-30T09:33:21.466+02:00,3995.88476775,-1.609303436279297,16.236286468505863,27.35531433105469,3995.87979275,2.437627800508944,1.831508587360202,-0.3168106585993424,-4.988132476806641,8.546828269958496,-1.290428280830383,-0.7792521715164185,1.211503624916077,2.096093416213989,XArbitraryZVertical,0.7682132320023052,-0.1797741758939484,-0.5215567955811311,-0.3248202422761531,0.9181222319602966,0.3115375339984894,0.2449406534433365,0,0,0,-1,-1,3995.298543791667,unknown,2,2022-06-30T09:33:20.879+02:00,2022-06-30T08:20:05.567+02:00,1197,1.429728,0,0,932.105,0,0,2022-06-30T09:33:00.498+02:00
240,2022-06-30T09:33:21.476+02:00,3995.89471875,-4.533622283935547,15.749199371337887,31.35754165649414,3995.88974375,2.494263432791266,1.936307103307782,-0.3131944729271431,-5.468440532684326,8.97599983215332,-1.355955123901367,-1.05255651473999,1.346976161003113,2.448474168777466,XArbitraryZVertical,0.7996214255358102,-0.1750002911826203,-0.4899508695538719,-0.2998808892099822,0.8885089159011841,0.3080992698669434,0.3400390446186066,0,0,0,-1,-1,3995.298543791667,unknown,2,2022-06-30T09:33:20.879+02:00,2022-06-30T08:20:05.567+02:00,1197,1.429728,0,0,932.105,0,0,2022-06-30T09:33:00.498+02:00
241,2022-06-30T09:33:21.486+02:00,3995.90466975,-6.866970062255859,16.75810134887695,36.06659912109375,3995.89969475,2.55409373451892,2.045786228821578,-0.3029734417225122,-5.847584247589111,9.37611198425293,-1.440552115440369,-1.310936212539673,1.307063817977905,2.759987831115723,XArbitraryZVertical,0.8304571117654937,-0.169088273344923,-0.4555775775864611,-0.2723952742293475,0.8487929701805115,0.2983595430850983,0.4364997148513794,0,0,0,-1,-1,3995.298543791667,unknown,2,2022-06-30T09:33:20.879+02:00,2022-06-30T08:20:05.567+02:00,1197,1.429728,0,0,932.105,0,0,2022-06-30T09:33:00.498+02:00
242,2022-06-30T09:33:21.496+02:00,3995.91462075,-9.510772247314453,17.260456695556638,40.67776016235351,3995.90964575,2.617065962854257,2.159163929033624,-0.2844969408524261,-6.492917537689209,9.7299222946167,-1.544723033905029,-1.498407125473022,1.427592992782593,3.143819332122803,XArbitraryZVertical,0.8603457079411011,-0.1617170689852982,-0.4185561567610689,-0.2417923371272565,0.7984098792076111,0.2806746363639832,0.5326942801475525,0,0,0,-1,-1,3995.298543791667,unknown,2,2022-06-30T09:33:20.879+02:00,2022-06-30T08:20:05.567+02:00,1197,1.429728,0,0,932.105,0,0,2022-06-30T09:33:00.498+02:00
243,2022-06-30T09:33:21.506+02:00,3995.92457175,-11.55926239013672,17.374519500732426,45.59129241943359,3995.91959675,2.682805336586205,2.274779689380771,-0.256869514704926,-6.990952014923096,9.971718788146973,-1.701879262924194,-1.706757783889771,1.505422115325928,3.520538091659546,XArbitraryZVertical,0.8887190043327242,-0.1522824979267659,-0.3791638751986581,-0.2079026496608756,0.7372601628303528,0.2540540397167206,0.6260228753089905,0,0,0,-1,-1,3995.298543791667,unknown,2,2022-06-30T09:33:20.879+02:00,2022-06-30T08:20:05.567+02:00,1197,1.429728,0,0,932.105,0,0,2022-06-30T09:33:00.498+02:00
244,2022-06-30T09:33:21.516+02:00,3995.93452275,-13.030403137207031,17.963394927978513,51.742600708007814,3995.92954775,2.749007662489958,2.390817444202491,-0.2204274280070279,-7.432453632354736,10.18349647521973,-1.946454644203186,-1.844013690948486,1.552456498146057,3.933961391448975,XArbitraryZVertical,0.9148277688435708,-0.1408005032597373,-0.3374525768688699,-0.1714386713089608,0.665699303150177,0.2186467349529266,0.7134692668914795,0,0,0,-1,-1,3995.298543791667,unknown,2,2022-06-30T09:33:20.879+02:00,2022-06-30T08:20:05.567+02:00,1197,1.429728,0,0,932.105,0,0,2022-06-30T09:33:00.498+02:00
245,2022-06-30T09:33:21.526+02:00,3995.94447375,-15.236066436767574,17.709822235107428,58.416472320556636,3995.93949775,2.815958731521614,2.506023543784109,-0.1749689803879504,-8.066134452819824,10.30506229400635,-2.412952423095703,-1.9128497838974,1.657053709030151,4.482028007507324,XArbitraryZVertical,0.9382074060969252,-0.1264536796050405,-0.2936973416185421,-0.1323565605730964,0.5845720171928406,0.1740775853395462,0.7924473285675049,0,0,0,-1,-1,3995.298543791667,unknown,2,2022-06-30T09:33:20.879+02:00,2022-06-30T08:20:05.567+02:00,1197,1.429728,0,0,932.105,0,0,2022-06-30T09:33:00.498+02:00
246,2022-06-30T09:33:21.536+02:00,3995.95442475,-15.648758239746094,17.22108856201172,64.78228454589843,3995.94944875,2.885757458226371,2.623345279782593,-0.1149513640118906,-8.679347038269043,10.3797779083252,-3.097211837768555,-2.045205354690552,1.690584540367126,5.091832637786865,XArbitraryZVertical,0.9590120086586892,-0.1085076990384322,-0.2466370535690809,-0.0877061029283314,0.4920893609523773,0.1146983727812767,0.8629559278488159,0,0,0,-1,-1,3995.298543791667,unknown,2,2022-06-30T09:33:20.879+02:00,2022-06-30T08:20:05.567+02:00,1197,1.429728,0,0,932.105,0,0,2022-06-30T09:33:00.498+02:00
247,2022-06-30T09:33:21.545+02:00,3995.96437575,-14.527290344238281,16.348253631591803,69.85059494018556,3995.95939975,2.957190616630908,2.735130672858702,-0.0476399488916266,-9.149187088012695,10.37124729156494,-4.011171340942383,-1.990098118782043,1.707841038703918,5.686215400695801,XArbitraryZVertical,0.975425405260813,-0.0853631772693112,-0.1987727802236671,-0.0418062121003963,0.3949134647846222,0.0476219318807125,0.9174832105636596,0,0,0,-1,-1,3995.298543791667,unknown,2,2022-06-30T09:33:20.879+02:00,2022-06-30T08:20:05.567+02:00,1197,1.429728,0,0,932.105,0,0,2022-06-30T09:33:00.498+02:00
248,2022-06-30T09:33:21.555+02:00,3995.97432675,-12.742851104736324,14.824123077392574,73.42635910034181,3995.96935075,3.031875738464319,2.840167437244655,0.0255093380549114,-9.289234161376951,10.19228267669678,-5.197268486022949,-1.777650713920593,1.69199550151825,6.16574239730835,XArbitraryZVertical,0.9869917709519436,-0.056117083788399,-0.1505960563799692,0.0043589768275497,0.296784907579422,-0.0255065709352493,0.9546037912368774,0,0,0,-1,-1,3995.298543791667,unknown,2,2022-06-30T09:33:20.879+02:00,2022-06-30T08:20:05.567+02:00,1197,1.429728,0,0,932.105,0,0,2022-06-30T09:33:00.498+02:00
249,2022-06-30T09:33:21.565+02:00,3995.98427775,-10.940598907470699,14.00846923828125,76.86470901489257,3995.97930175,3.112753948845635,2.93535694270525,0.101940652711466,-9.191704750061035,9.7185640335083,-6.837028503417969,-1.502679586410522,1.612888097763062,6.511120796203613,XArbitraryZVertical,0.993217342843971,-0.0195674574185267,-0.1035215413602746,0.0491900785725452,0.2037137299776077,-0.1017641872167587,0.9737271666526794,0,0,0,-1,-1,3995.298543791667,unknown,2,2022-06-30T09:33:20.879+02:00,2022-06-30T08:20:05.567+02:00,1197,1.429728,0,0,932.105,0,0,2022-06-30T09:33:00.498+02:00
250,2022-06-30T09:33:21.575+02:00,3995.99422875,-10.321186981201176,11.514206085205075,82.06474548339844,3995.98925275,-3.077987763630412,3.015703118965351,0.1791089123660954,-8.75616455078125,8.853392601013184,-8.86548900604248,-1.23879873752594,1.606131553649902,6.859126567840576,XArbitraryZVertical,0.9936965635213016,0.0259840603320322,-0.0597813355010517,0.0912046704327438,0.1235487535595894,-0.1781528145074844,0.9762160778045654,0,0,0,-1,-1,3995.298543791667,unknown,2,2022-06-30T09:33:20.879+02:00,2022-06-30T08:20:05.567+02:00,1197,1.429728,0,0,932.105,0,0,2022-06-30T09:33:00.498+02:00
251,2022-06-30T09:33:21.585+02:00,3996.00417975,-13.599519653320312,9.532028045654299,89.85544464111327,3995.99920375,-2.967715309379971,3.072943989576515,0.2560214590153521,-8.4783296585083,7.220688343048096,-11.27566528320312,-1.118468046188354,1.426955223083496,7.400290966033936,XArbitraryZVertical,0.9878703403115608,0.0817035329024018,-0.0228300429447901,0.1300597280381725,0.0663589239120483,-0.2532337009906769,0.9651265740394592,0,0,0,-1,-1,3995.298543791667,unknown,2,2022-06-30T09:33:20.879+02:00,2022-06-30T08:20:05.567+02:00,1197,1.429728,0,0,932.105,0,0,2022-06-30T09:33:00.498+02:00
252,2022-06-30T09:33:21.595+02:00,3996.01413075,-23.396347045898438,8.366102600097657,95.1153565979004,3996.00915475,-2.831521836413133,3.094155611550116,0.3318249174979333,-7.798823833465576,4.831079483032227,-14.11504554748535,-1.431124448776245,1.297433495521545,8.215190887451172,XArbitraryZVertical,0.9747695824169992,0.1483820139404871,0.0023847558433157,0.1667374696507948,0.0448325090110302,-0.3257689476013184,0.9443859457969666,0,0,0,-1,-1,3995.298543791667,unknown,2,2022-06-30T09:33:20.879+02:00,2022-06-30T08:20:05.567+02:00,1197,1.429728,0,0,932.105,0,0,2022-06-30T09:33:00.498+02:00
253,2022-06-30T09:33:21.605+02:00,3996.02408175,-40.52373046875,10.332563323974615,97.93115112304687,3996.01910575,-2.660340069617981,3.064798268303694,0.3900422311366517,-5.387526512145996,1.307087540626526,-17.33773612976074,-2.455905914306641,1.233041286468506,8.773588180541992,XArbitraryZVertical,0.953849184343685,0.2263963469886415,0.0095725417678302,0.19704011071121,0.0709568038582801,-0.3802274763584137,0.9221671223640442,0,0,0,-1,-1,3995.298543791667,unknown,2,2022-06-30T09:33:20.879+02:00,2022-06-30T08:20:05.567+02:00,1197,1.429728,0,0,932.105,0,0,2022-06-30T09:33:00.498+02:00
254,2022-06-30T09:33:21.615+02:00,3996.03403275,-62.300295867919935,22.490281219482426,94.83139709472657,3996.02905675,-2.453359115776024,2.970241686959733,0.4072666735397193,-2.734876155853271,-4.295128345489502,-20.21431541442871,-4.287426471710205,1.449369430541992,9.078027725219728,XArbitraryZVertical,0.9243799545696554,0.3128926325025558,-0.0109148521662076,0.2179468535303634,0.1565668731927872,-0.3961010575294495,0.9047601819038392,0,0,0,-1,-1,3995.298543791667,unknown,2,2022-06-30T09:33:20.879+02:00,2022-06-30T08:20:05.567+02:00,1197,1.429728,0,0,932.105,0,0,2022-06-30T09:33:00.498+02:00
255,2022-06-30T09:33:21.625+02:00,3996.04398375,-89.81188522338867,38.04877716064453,91.62895660400389,3996.03900775,-2.22326639884218,2.807051944677176,0.3732732193511522,-1.322226047515869,-10.65113639831543,-23.03640747070312,-6.656418800354004,2.657252311706543,8.787291526794434,XArbitraryZVertical,0.8822539795092492,0.401729621276925,-0.0655652210216477,0.236521565088982,0.3057257831096649,-0.3646652102470398,0.8795175552368164,0,0,0,-1,-1,3995.298543791667,unknown,2,2022-06-30T09:33:20.879+02:00,2022-06-30T08:20:05.567+02:00,1197,1.429728,0,0,932.105,0,0,2022-06-30T09:33:00.498+02:00
256,2022-06-30T09:33:21.635+02:00,3996.05393475,-112.67219696044927,48.65931243896485,74.77505447387695,3996.04895875,-1.985937739809038,2.589285467249897,0.2771705046039787,-0.6462934017181396,-18.01755523681641,-26.01520538330078,-9.659765243530272,4.152205467224121,8.521537780761719,XArbitraryZVertical,0.8187600561157834,0.4889215632024191,-0.1536066852666122,0.2588294837965249,0.5046286582946777,-0.2736352384090424,0.8188246488571167,0,0,0,-1,-1,3995.298543791667,unknown,2,2022-06-30T09:33:20.879+02:00,2022-06-30T08:20:05.567+02:00,1197,1.429728,0,0,932.105,0,0,2022-06-30T09:33:00.498+02:00
257,2022-06-30T09:33:21.645+02:00,3996.06388575,-129.63851531982428,35.86167526245118,46.42685485839844,3996.05890975,-1.775448158852198,2.313782110937046,0.1093127011030338,0.8480194807052612,-29.22799682617188,-27.09454727172852,-12.21749973297119,5.069269180297852,6.949877738952637,XArbitraryZVertical,0.722947530536142,0.5599758272281766,-0.279916975059336,0.2922678282387962,0.7320564389228821,-0.1090951263904572,0.6724520921707153,0,0,0,-1,-1,3995.298543791667,unknown,2,2022-06-30T09:33:20.879+02:00,2022-06-30T08:20:05.567+02:00,1197,1.429728,0,0,932.105,0,0,2022-06-30T09:33:00.498+02:00
258,2022-06-30T09:33:21.655+02:00,3996.07383675,-174.7181716918945,23.55501708984375,60.05646194458007,3996.06886075,-1.676900773978645,1.981316628172652,-0.1208654393839342,9.17848300933838,-34.95031356811523,-22.23478317260742,-14.12515926361084,3.53505277633667,4.336430549621582,XArbitraryZVertical,0.5986738205132817,0.5828183181198694,-0.4406314699954207,0.3282628979210673,0.9102243185043336,0.1205713748931885,0.3961750566959381,0,0,0,-1,-1,3995.298543791667,unknown,2,2022-06-30T09:33:20.879+02:00,2022-06-30T08:20:05.567+02:00,1197,1.429728,0,0,932.105,0,0,2022-06-30T09:33:00.498+02:00
259,2022-06-30T09:33:21.665+02:00,3996.08378775,-270.94391921997067,60.2392318725586,81.99738555908203,3996.07881175,-1.790444286919252,1.604342004916911,-0.3279560192499721,22.44046783447266,-34.91286087036133,-14.60005569458008,-18.75638198852539,2.07901406288147,6.090211868286133,XArbitraryZVertical,0.4824780005143106,0.5320628648859794,-0.6085652226659873,0.3373016498539009,0.9461700320243835,0.322108656167984,0.0317518264055252,0,0,0,-1,-1,3995.298543791667,unknown,2,2022-06-30T09:33:20.879+02:00,2022-06-30T08:20:05.567+02:00,1197,1.429728,0,0,932.105,0,0,2022-06-30T09:33:00.498+02:00
260,2022-06-30T09:33:21.675+02:00,3996.09373875,-315.25387619018557,112.801378326416,199.6461337280274,3996.08876275,-2.114373735393096,1.1386593964419,-0.3857811089215147,34.51700210571289,-34.83737182617188,-9.619247436523438,-28.46048927307129,5.76431131362915,8.746582984924316,XArbitraryZVertical,0.3814791531815211,0.400571926907447,-0.7707582764078219,0.3161448027782251,0.8413338661193848,0.3762829601764679,-0.3880315721035004,0,0,0,-1,-1,3995.298543791667,unknown,2,2022-06-30T09:33:20.879+02:00,2022-06-30T08:20:05.567+02:00,1197,1.429728,0,0,932.105,0,0,2022-06-30T09:33:00.498+02:00
261,2022-06-30T09:33:21.685+02:00,3996.10368975,-315.4299101257324,46.59615280151368,262.1714117431641,3996.09871375,-2.4318659677869,0.6908739311396278,-0.2171006528236253,34.89997100830078,-34.86614990234375,0.199527233839035,-32.75822448730469,11.28321170806885,21.10388565063477,XArbitraryZVertical,0.2802222924005134,0.2125471651542896,-0.8898553658269113,0.290614328223777,0.6222531199455261,0.2153992503881454,-0.7525983452796936,0,0,0,-1,-1,3995.298543791667,unknown,2,2022-06-30T09:33:20.879+02:00,2022-06-30T08:20:05.567+02:00,1197,1.429728,0,0,932.105,0,0,2022-06-30T09:33:00.498+02:00
262,2022-06-30T09:33:21.695+02:00,3996.11364075,-315.1791815185547,54.06771560668945,212.28285552978514,3996.10866475,-2.567164612306207,0.3620976613819853,0.1027105522998911,34.83692169189453,-26.53709983825684,5.613845348358154,-32.50628662109375,4.852392673492432,27.65514183044434,XArbitraryZVertical,0.1867617264320943,0.0025154929044943,-0.9394996507249248,0.2871484133547186,0.3523697853088379,-0.1025300547480583,-0.9302274584770204,0,0,0,-1,-1,3995.298543791667,unknown,2,2022-06-30T09:33:20.879+02:00,2022-06-30T08:20:05.567+02:00,1197,1.429728,0,0,932.105,0,0,2022-06-30T09:33:00.498+02:00
263,2022-06-30T09:33:21.705+02:00,3996.12359175,-278.8269763183594,-170.60502502441406,210.57730224609375,3996.11861575,-2.592974038224061,0.2146892994953588,0.4542569828999,34.68951034545898,-3.837331056594849,10.403977394104,-32.31979370117188,5.950284481048584,22.51739311218262,XArbitraryZVertical,0.161130539568897,-0.187237518270436,-0.9259562176715662,0.285629530731713,0.1914385259151459,-0.4387947618961334,-0.8779581189155579,0,0,0,-1,-1,3995.298543791667,unknown,2,2022-06-30T09:33:20.879+02:00,2022-06-30T08:20:05.567+02:00,1197,1.429728,0,0,932.105,0,0,2022-06-30T09:33:00.498+02:00
264,2022-06-30T09:33:21.715+02:00,3996.13354275,-82.61455215454102,-208.97039382934568,29.416378326416012,3996.12856675,-2.480078161982255,0.1753650320315032,0.761925882396943,18.01009941101074,8.123769760131836,19.36584854125977,-28.54895782470703,-16.70061492919922,22.17798805236816,XArbitraryZVertical,0.1971721000418427,-0.3239096602806196,-0.8640426713279863,0.3311132235384721,0.1262286752462387,-0.6903161406517029,-0.7124114036560059,0,0,0,-1,-1,3995.298543791667,unknown,2,2022-06-30T09:33:20.879+02:00,2022-06-30T08:20:05.567+02:00,1197,1.429728,0,0,932.105,0,0,2022-06-30T09:33:00.498+02:00
265,2022-06-30T09:33:21.725+02:00,3996.14349375,-5.182073822021485,-189.89705703735348,-44.31010665893556,3996.13851775,-2.216880787075529,0.0148270554704356,0.9256071290638384,11.2838191986084,-0.7907119393348694,18.55381202697754,-8.430378913879395,-20.50278663635254,3.599895238876343,XArbitraryZVertical,0.2050779710354806,-0.3966122328117149,-0.7993551877557433,0.4020858865956612,0.0089159179478883,-0.79898601770401,-0.6012835502624512,0,0,0,-1,-1,3995.298543791667,unknown,2,2022-06-30T09:33:20.879+02:00,2022-06-30T08:20:05.567+02:00,1197,1.429728,0,0,932.105,0,0,2022-06-30T09:33:00.498+02:00
266,2022-06-30T09:33:21.735+02:00,3996.15344375,-13.768518218994137,-88.49402572631837,-5.089266815185547,3996.14846875,-1.952148709991298,-0.2022811270480926,0.9406035346838304,-3.851528882980347,1.919578909873962,11.48095607757568,-0.4098505079746246,-18.54958534240723,-3.939545154571533,XArbitraryZVertical,0.1780431312230388,-0.4238608568441545,-0.7602384097033132,0.4589991824633374,-0.1183931231498718,-0.8079138994216919,-0.5772852301597595,0,0,0,-1,-1,3995.298543791667,unknown,2,2022-06-30T09:33:20.879+02:00,2022-06-30T08:20:05.567+02:00,1197,1.429728,0,0,932.105,0,0,2022-06-30T09:33:00.498+02:00
267,2022-06-30T09:33:21.745+02:00,3996.16339575,-24.26079940795899,-66.83152313232422,-5.263354797363282,3996.15841975,-1.867479941284286,-0.2344669597444485,0.8869798565334046,-2.992413759231567,4.338896751403809,1.614210367202759,-1.2567458152771,-8.245630264282227,0.0956867337226867,XArbitraryZVertical,0.168560345232038,-0.4054039255221827,-0.7509556965708113,0.4932551516347767,-0.1467724442481995,-0.7751672863960266,-0.6144701242446899,0,0,0,-1,-1,3995.298543791667,unknown,2,2022-06-30T09:33:20.879+02:00,2022-06-30T08:20:05.567+02:00,1197,1.429728,0,0,932.105,0,0,2022-06-30T09:33:00.498+02:00
268,2022-06-30T09:33:21.755+02:00,3996.17334575,-43.943818359375,-55.668786163330076,6.213578796386719,3996.16837075,-1.863779778813192,-0.2108364239399199,0.8729922165411217,-0.138964831829071,1.83198881149292,0.9349764585494996,-2.33859920501709,-6.046336650848389,0.0917790532112121,XArbitraryZVertical,0.1741560265432753,-0.3943544751575292,-0.749970088135286,0.5016962537594893,-0.1344687044620514,-0.7662549614906311,-0.6283084750175476,0,0,0,-1,-1,3995.298543791667,unknown,2,2022-06-30T09:33:20.879+02:00,2022-06-30T08:20:05.567+02:00,1197,1.429728,0,0,932.105,0,0,2022-06-30T09:33:00.498+02:00
269,2022-06-30T09:33:21.764+02:00,3996.18329675,-86.87095092773438,-36.58706680297851,30.784533233642577,3996.17832175,-1.819555377466373,-0.1993960831409964,0.8655250093103622,-1.103895664215088,7.110221862792969,4.059065818786621,-4.351089954376221,-4.913262367248535,1.268789052963257,XArbitraryZVertical,0.1848630054215445,-0.3848732648009586,-0.7386640176160505,0.5216068955544885,-0.1284018009901047,-0.7614356875419617,-0.6353964805603027,0,0,0,-1,-1,3995.298543791667,unknown,2,2022-06-30T09:33:20.879+02:00,2022-06-30T08:20:05.567+02:00,1197,1.429728,0,0,932.105,0,0,2022-06-30T09:33:00.498+02:00
270,2022-06-30T09:33:21.774+02:00,3996.19324775,-36.97955062866212,-22.1684504699707,21.470302276611324,3996.18827275,-1.777537364724946,-0.143375168406418,0.8307495104556814,-4.171447277069092,9.884761810302734,2.84937596321106,-8.75899600982666,-2.991131782531738,3.805480480194092,XArbitraryZVertical,0.2028460630805163,-0.353767866524546,-0.7266794728130094,0.5528460679348185,-0.0963502079248428,-0.7384369969367981,-0.667403519153595,0,0,0,-1,-1,3995.298543791667,unknown,2,2022-06-30T09:33:20.879+02:00,2022-06-30T08:20:05.567+02:00,1197,1.429728,0,0,932.105,0,0,2022-06-30T09:33:00.498+02:00
271,2022-06-30T09:33:21.784+02:00,3996.20319875,-18.40033630371094,-25.639432525634763,9.48757049560547,3996.19822375,-1.743421903256636,-0.0842860571236146,0.7948731728956226,-2.470960140228271,6.681074619293213,2.618556976318359,-3.710614681243896,-1.546006321907043,2.886503219604492,XArbitraryZVertical,0.2191218085870877,-0.3210001899767559,-0.7156376164333218,0.5803510934982274,-0.0589620061218738,-0.7137748003005981,-0.6978890299797058,0,0,0,-1,-1,3995.298543791667,unknown,2,2022-06-30T09:33:20.879+02:00,2022-06-30T08:20:05.567+02:00,1197,1.429728,0,0,932.105,0,0,2022-06-30T09:33:00.498+02:00
272,2022-06-30T09:33:21.794+02:00,3996.21314975,-27.975175323486326,-19.645147705078127,8.751101989746093,3996.20817475,-1.714041553436175,-0.0507435895684205,0.7747074803299716,-1.130715131759644,4.516151428222656,1.765447497367859,-1.839423894882202,-1.914094924926758,1.680838704109192,XArbitraryZVertical,0.2294679766107406,-0.3008180311263342,-0.7059411944509303,0.5987488686985881,-0.0362471155822277,-0.6995070576667786,-0.7137058973312378,0,0,0,-1,-1,3995.298543791667,unknown,2,2022-06-30T09:33:20.879+02:00,2022-06-30T08:20:05.567+02:00,1197,1.429728,0,0,932.105,0,0,2022-06-30T09:33:00.498+02:00
273,2022-06-30T09:33:21.804+02:00,3996.22310075,-36.14982604980469,-10.691965942382813,12.913496246337887,3996.21812575,-1.690856934511975,-0.0268918688765495,0.7650235315389072,-0.989780604839325,3.689077377319336,1.892159104347229,-2.832303047180176,-1.310009717941284,1.613164901733398,XArbitraryZVertical,0.2382633253141724,-0.2875377242905536,-0.6974456709573654,0.6116553840956885,-0.0193965453654527,-0.6925539970397949,-0.7211052775382996,0,0,0,-1,-1,3995.298543791667,unknown,2,2022-06-30T09:33:20.879+02:00,2022-06-30T08:20:05.567+02:00,1197,1.429728,0,0,932.105,0,0,2022-06-30T09:33:00.498+02:00
274,2022-06-30T09:33:21.814+02:00,3996.23305175,-31.970816345214846,-11.679612121582032,9.630672912597657,3996.22807675,-1.657474516098105,-0.0131335229200881,0.7556116164095797,-0.6166871786117554,3.67857551574707,2.998116731643677,-3.675438404083252,-0.4041711091995239,2.044150352478027,XArbitraryZVertical,0.2447887816315673,-0.2760139170076281,-0.6867193261734836,0.6263477007274485,-0.0095589905977249,-0.68573397397995,-0.7277895212173462,0,0,0,-1,-1,3995.298543791667,unknown,2,2022-06-30T09:33:20.879+02:00,2022-06-30T08:20:05.567+02:00,1197,1.429728,0,0,932.105,0,0,2022-06-30T09:33:00.498+02:00
275,2022-06-30T09:33:21.824+02:00,3996.24300275,-21.240979156494138,-13.1009065246582,5.631589050292969,3996.23802775,-1.612049918005224,-0.0110036206371271,0.75253460984525,0.0148492250591516,2.924726486206055,3.563044309616089,-3.250970363616943,-0.5070914626121521,1.711634874343872,XArbitraryZVertical,0.2507172332497083,-0.2686699155114576,-0.672453205909489,0.6424672491231461,-0.0080320285633206,-0.6834911108016968,-0.729914665222168,0,0,0,-1,-1,3995.298543791667,unknown,2,2022-06-30T09:33:20.879+02:00,2022-06-30T08:20:05.567+02:00,1197,1.429728,0,0,932.105,0,0,2022-06-30T09:33:00.498+02:00
276,2022-06-30T09:33:21.834+02:00,3996.25295375,-15.797249450683594,-13.982423400878908,5.624853057861328,3996.24797875,-1.563934081826281,-0.0190508134857909,0.7544821001282315,0.4870806634426117,2.119893312454224,3.428725004196167,-2.151357173919678,-0.6505533456802368,1.302560567855835,XArbitraryZVertical,0.2551077272999359,-0.265843910237934,-0.657586542582154,0.6571354246697679,-0.0138800852000713,-0.6849114298820496,-0.7284941077232361,0,0,0,-1,-1,3995.298543791667,unknown,2,2022-06-30T09:33:20.879+02:00,2022-06-30T08:20:05.567+02:00,1197,1.429728,0,0,932.105,0,0,2022-06-30T09:33:00.498+02:00
277,2022-06-30T09:33:21.844+02:00,3996.26290475,-12.701986083984375,-14.956597595214845,5.081333312988281,3996.25792975,-1.519389540139938,-0.0312926553428534,0.7613550125773408,1.048663139343262,1.595714449882507,3.027059555053711,-1.587671637535095,-0.7354207634925842,1.296927213668823,XArbitraryZVertical,0.2593538171490327,-0.2663867146432445,-0.6435348155495235,0.6690565181192822,-0.0226491130888462,-0.6899029612541199,-0.7235474586486816,0,0,0,-1,-1,3995.298543791667,unknown,2,2022-06-30T09:33:20.879+02:00,2022-06-30T08:20:05.567+02:00,1197,1.429728,0,0,932.105,0,0,2022-06-30T09:33:00.498+02:00
278,2022-06-30T09:33:21.854+02:00,3996.27285575,-10.611882476806636,-16.133300628662113,3.4395474243164066,3996.26788075,-1.480110235208391,-0.0445968425972372,0.7726146911307752,1.428974270820618,1.210937261581421,2.565730571746826,-1.262874841690063,-0.8266180753707886,1.233351230621338,XArbitraryZVertical,0.2642227496290721,-0.2692550564684018,-0.6306831249883704,0.6781791711467041,-0.0319246836006641,-0.6980099678039551,-0.715376079082489,0,0,0,-1,-1,3995.298543791667,unknown,2,2022-06-30T09:33:20.879+02:00,2022-06-30T08:20:05.567+02:00,1197,1.429728,0,0,932.105,0,0,2022-06-30T09:33:00.498+02:00
279,2022-06-30T09:33:21.864+02:00,3996.28280675,-9.161997528076174,-16.176410980224613,1.5922389221191406,3996.27783175,-1.446400001234633,-0.0583458520687604,0.7877514115523252,1.854936838150024,0.7699075937271118,2.093983173370361,-1.040604948997498,-0.935808539390564,1.05485725402832,XArbitraryZVertical,0.2697615623337364,-0.2740592452620226,-0.6192452212619595,0.6845843053813295,-0.0411361977458,-0.7087688446044922,-0.7042404413223267,0,0,0,-1,-1,3995.298543791667,unknown,2,2022-06-30T09:33:20.879+02:00,2022-06-30T08:20:05.567+02:00,1197,1.429728,0,0,932.105,0,0,2022-06-30T09:33:00.498+02:00
280,2022-06-30T09:33:21.874+02:00,3996.29275775,-8.51429443359375,-15.170203399658199,0.08577163696289063,3996.28778275,-1.417544958495558,-0.0736890710006591,0.8063788306133934,2.121426105499268,0.3040735721588135,1.715953946113586,-0.8829891681671143,-0.9271862506866456,0.8525464534759521,XArbitraryZVertical,0.2756037030294445,-0.2809330565254744,-0.6092750006020833,0.6884063238903351,-0.0509552918374538,-0.7217856645584106,-0.6902384161949158,0,0,0,-1,-1,3995.298543791667,unknown,2,2022-06-30T09:33:20.879+02:00,2022-06-30T08:20:05.567+02:00,1197,1.429728,0,0,932.105,0,0,2022-06-30T09:33:00.498+02:00
281,2022-06-30T09:33:21.884+02:00,3996.30270875,-8.905580749511719,-14.017749938964844,-1.794917449951172,3996.29773375,-1.392570558584106,-0.0907585289054847,0.8270860977163921,2.302266359329224,-0.070963978767395,1.366709113121033,-0.8065584301948547,-0.8104405403137207,0.6829802989959717,XArbitraryZVertical,0.2813563711619222,-0.2893444792920394,-0.6006879338343953,0.690139417466543,-0.0613613054156303,-0.7359617352485657,-0.6742367148399353,0,0,0,-1,-1,3995.298543791667,unknown,2,2022-06-30T09:33:20.879+02:00,2022-06-30T08:20:05.567+02:00,1197,1.429728,0,0,932.105,0,0,2022-06-30T09:33:00.498+02:00
282,2022-06-30T09:33:21.894+02:00,3996.31265975,-10.306667175292969,-12.396920471191407,-2.771187286376953,3996.30768475,-1.372094455232448,-0.1084865400171768,0.8487638753355067,2.265852212905884,-0.4261154234409332,0.928623378276825,-0.8362467885017395,-0.6784608364105225,0.4740581512451172,XArbitraryZVertical,0.2868326481290579,-0.2986872260550798,-0.5937138125818143,0.6899398464643552,-0.0715594291687011,-0.7504640221595764,-0.657025933265686,0,0,0,-1,-1,3995.298543791667,unknown,2,2022-06-30T09:33:20.879+02:00,2022-06-30T08:20:05.567+02:00,1197,1.429728,0,0,932.105,0,0,2022-06-30T09:33:00.498+02:00
283,2022-06-30T09:33:21.904+02:00,3996.32261075,-12.388388214111325,-10.987451477050781,-3.664080505371094,3996.31763575,-1.357809126397297,-0.1247127586841957,0.8689165596849412,1.957525968551636,-0.6325526833534241,0.4742359817028046,-0.97031569480896,-0.5000728368759155,0.3581541776657104,XArbitraryZVertical,0.2914528180242831,-0.3077910799396934,-0.5889107462345239,0.6881163665863513,-0.0803127661347389,-0.7636298537254333,-0.6406398415565491,0,0,0,-1,-1,3995.298543791667,unknown,2,2022-06-30T09:33:20.879+02:00,2022-06-30T08:20:05.567+02:00,1197,1.429728,0,0,932.105,0,0,2022-06-30T09:33:00.498+02:00
284,2022-06-30T09:33:21.914+02:00,3996.33256175,-14.242432708740239,-9.75686050415039,-4.451892242431641,3996.32758675,-1.349196321304965,-0.1374272886612481,0.8862765718464982,1.653113603591919,-0.5589474439620972,0.1907326430082321,-1.176210284233093,-0.3453031778335571,0.2528352737426758,XArbitraryZVertical,0.2953248701333718,-0.3156159509358157,-0.585914869747508,0.6854733197896627,-0.0866221636533737,-0.7747228145599365,-0.6263396143913269,0,0,0,-1,-1,3995.298543791667,unknown,2,2022-06-30T09:33:20.879+02:00,2022-06-30T08:20:05.567+02:00,1197,1.429728,0,0,932.105,0,0,2022-06-30T09:33:00.498+02:00
285,2022-06-30T09:33:21.924+02:00,3996.34251275,-15.038028259277345,-8.389154663085938,-4.78090805053711,3996.33753775,-1.343938489534531,-0.1457697979619544,0.9009497532101064,1.351268291473389,-0.2762456834316254,0.0643065571784973,-1.361644506454468,-0.2106665372848511,0.1604698300361633,XArbitraryZVertical,0.2990224336511816,-0.3216286739812773,-0.5837498906725668,0.682917868025037,-0.0901833102107048,-0.7839169502258301,-0.614281177520752,0,0,0,-1,-1,3995.298543791667,unknown,2,2022-06-30T09:33:20.879+02:00,2022-06-30T08:20:05.567+02:00,1197,1.429728,0,0,932.105,0,0,2022-06-30T09:33:00.498+02:00
286,2022-06-30T09:33:21.934+02:00,3996.35246375,-14.979050903320314,-7.132966918945312,-5.306465148925781,3996.34748875,-1.340615100902376,-0.1496877502473955,0.9124281603889444,0.9864547848701476,0.0143182333558797,0.0093303844332695,-1.441686868667603,-0.0641721487045288,0.117635190486908,XArbitraryZVertical,0.3025631231651829,-0.3255194558679169,-0.5819451718011317,0.6810524829520556,-0.0912413671612739,-0.7909916639328003,-0.6049852967262268,0,0,0,-1,-1,3995.298543791667,unknown,2,2022-06-30T09:33:20.879+02:00,2022-06-30T08:20:05.567+02:00,1197,1.429728,0,0,932.105,0,0,2022-06-30T09:33:00.498+02:00
287,2022-06-30T09:33:21.944+02:00,3996.36241475,-14.590758361816407,-5.905369720458984,-5.890550537109375,3996.35743975,-1.338935501017629,-0.1495781957554691,0.920582270483045,0.6789215207099915,0.2728409171104431,-0.0543461963534355,-1.436705350875854,0.0688421130180358,0.057673692703247,XArbitraryZVertical,0.3058110303410967,-0.3273849616575433,-0.5804545298190188,0.6799788547528166,-0.0902109071612358,-0.7959542274475098,-0.5985974073410034,0,0,0,-1,-1,3995.298543791667,unknown,2,2022-06-30T09:33:20.879+02:00,2022-06-30T08:20:05.567+02:00,1197,1.429728,0,0,932.105,0,0,2022-06-30T09:33:00.498+02:00
288,2022-06-30T09:33:21.954+02:00,3996.37236575,-14.243929595947263,-5.104684753417969,-5.890251159667969,3996.36739075,-1.339054143996755,-0.1454748354668169,0.9259913726135824,0.3960439562797546,0.5371010899543762,-0.1184452846646309,-1.400206565856934,0.197242259979248,-0.0057696104049682,XArbitraryZVertical,0.3089299571278632,-0.3274375195914704,-0.5792585797546549,0.6795634709134873,-0.08712849766016,-0.7992169857025146,-0.5946938991546631,0,0,0,-1,-1,3995.298543791667,unknown,2,2022-06-30T09:33:20.879+02:00,2022-06-30T08:20:05.567+02:00,1197,1.429728,0,0,932.105,0,0,2022-06-30T09:33:00.498+02:00
289,2022-06-30T09:33:21.963+02:00,3996.38231675,-13.943504333496094,-4.927902374267578,-5.93291244506836,3996.37734175,-1.340416664244334,-0.1374931110272356,0.92918582778141,0.2397059053182602,0.8616837859153748,-0.1251874268054962,-1.369951605796814,0.2807774543762207,-0.0075945854187011,XArbitraryZVertical,0.3121652852929333,-0.3257815519809213,-0.5781189075277897,0.679851356924986,-0.0820287540555,-0.8011329174041748,-0.5928384065628052,0,0,0,-1,-1,3995.298543791667,unknown,2,2022-06-30T09:33:20.879+02:00,2022-06-30T08:20:05.567+02:00,1197,1.429728,0,0,932.105,0,0,2022-06-30T09:33:00.498+02:00
