,loggingTime(txt),accelerometerTimestamp_sinceReboot(s),accelerometerAccelerationX(G),accelerometerAccelerationY(G),accelerometerAccelerationZ(G),motionTimestamp_sinceReboot(s),motionYaw(rad),motionRoll(rad),motionPitch(rad),motionRotationRateX(rad/s),motionRotationRateY(rad/s),motionRotationRateZ(rad/s),motionUserAccelerationX(G),motionUserAccelerationY(G),motionUserAccelerationZ(G),motionAttitudeReferenceFrame(txt),motionQuaternionX(R),motionQuaternionY(R),motionQuaternionZ(R),motionQuaternionW(R),motionGravityX(G),motionGravityY(G),motionGravityZ(G),motionMagneticFieldX(µT),motionMagneticFieldY(µT),motionMagneticFieldZ(µT),motionHeading(°),motionMagneticFieldCalibrationAccuracy(Z),activityTimestamp_sinceReboot(s),activity(txt),activityActivityConfidence(Z),activityActivityStartDate(txt),pedometerStartDate(txt),pedometerNumberofSteps(N),pedometerAverageActivePace(s/m),pedometerCurrentPace(s/m),pedometerCurrentCadence(steps/s),pedometerDistance(m),pedometerFloorAscended(N),pedometerFloorDescended(N),pedometerEndDate(txt)
237,2022-06-30T09:16:31.146+02:00,2985.564450541667,5.8598643493652345,-2.3640339660644534,-1.9881655883789064,2985.554498541667,3.022069326138982,1.001834243780293,0.4930468236479514,-4.001778125762939,6.817986965179443,-1.089412927627563,-0.0127183198928833,0.1687162816524506,0.0701856613159179,XArbitraryZVertical,-0.4520953071447555,0.2414855425393354,0.856104584611747,-0.0661788024277233,0.7421192526817322,-0.4733120203018188,-0.4745891392230988,0,0,0,-1,-1,2983.843994416667,unknown,2,2022-06-30T09:16:29.424+02:00,2022-06-30T08:20:05.567+02:00,873,1.488614,0,0,680.226,0,0,2022-06-30T09:16:29.423+02:00
238,2022-06-30T09:16:31.156+02:00,2985.574402541667,4.957091674804688,-2.0457957458496097,-0.6527925109863282,2985.564450541667,3.055491333430504,1.057274777039799,0.461038813843219,-4.454402446746826,7.385661602020264,-1.351806163787842,-0.1026784777641296,0.1584256291389465,0.1032567024230957,XArbitraryZVertical,-0.482069875947788,0.2182433663887882,0.8448345653717926,-0.0789508156578532,0.7800775766372681,-0.4448786973953247,-0.439956933259964,0,0,0,-1,-1,2983.843994416667,unknown,2,2022-06-30T09:16:29.424+02:00,2022-06-30T08:20:05.567+02:00,873,1.488614,0,0,680.226,0,0,2022-06-30T09:16:29.423+02:00
239,2022-06-30T09:16:31.165+02:00,2985.584353541667,4.738546142578126,-1.5540682983398437,0.3511697387695313,2985.574402541667,3.093874216456689,1.11732569779622,0.4257940103918041,-5.014392852783203,7.977299213409424,-1.701855778694153,-0.2213312983512878,0.1720622181892395,0.1963047087192535,XArbitraryZVertical,-0.5136639002110576,0.1914774228242897,0.8312559854238614,-0.0921911373205534,0.8186673521995544,-0.4130440354347229,-0.3989715874195099,0,0,0,-1,-1,2983.843994416667,unknown,2,2022-06-30T09:16:29.424+02:00,2022-06-30T08:20:05.567+02:00,873,1.488614,0,0,680.226,0,0,2022-06-30T09:16:29.423+02:00
240,2022-06-30T09:16:31.175+02:00,2985.594305541667,4.874014434814454,-0.5289999389648438,1.4709910583496095,2985.584353541667,3.137464553016817,1.18265655687508,0.3868474688147074,-5.522467136383057,8.598008155822754,-2.178761959075928,-0.3519042730331421,0.1687290966510773,0.2839564383029938,XArbitraryZVertical,-0.5467380424919711,0.1607099814338223,0.8149386946725762,-0.1054738760729573,0.8572145700454712,-0.3772707283496857,-0.3504996299743652,0,0,0,-1,-1,2983.843994416667,unknown,2,2022-06-30T09:16:29.424+02:00,2022-06-30T08:20:05.567+02:00,873,1.488614,0,0,680.226,0,0,2022-06-30T09:16:29.423+02:00
241,2022-06-30T09:16:31.185+02:00,2985.604257541667,5.1492919921875,-0.3758683776855469,2.625989227294922,2985.594305541667,-3.097364332704084,1.254397398536573,0.3440410530974576,-5.984427452087402,9.268147468566896,-2.77205491065979,-0.4116377830505371,0.1788775622844696,0.3287103474140167,XArbitraryZVertical,-0.5811404168755281,0.1257751471149019,0.7953081503633306,-0.1180730829280857,0.8946701288223267,-0.3372940719127655,-0.2929128706455231,0,0,0,-1,-1,2983.843994416667,unknown,2,2022-06-30T09:16:29.424+02:00,2022-06-30T08:20:05.567+02:00,873,1.488614,0,0,680.226,0,0,2022-06-30T09:16:29.423+02:00
242,2022-06-30T09:16:31.195+02:00,2985.614209541667,5.864355010986328,-0.0034428405761718754,4.951553192138672,2985.604257541667,-3.043438036276861,1.333337031292793,0.2975383529673571,-6.48329496383667,10.00704288482666,-3.412648439407349,-0.4323912262916565,0.2392432689666748,0.3748465776443481,XArbitraryZVertical,-0.6165190313409695,0.0863438518514999,0.7717732214183096,-0.1296730992119505,0.9292328357696532,-0.2931676208972931,-0.2248980402946472,0,0,0,-1,-1,2983.843994416667,unknown,2,2022-06-30T09:16:29.424+02:00,2022-06-30T08:20:05.567+02:00,873,1.488614,0,0,680.226,0,0,2022-06-30T09:16:29.423+02:00
243,2022-06-30T09:16:31.205+02:00,2985.624160541667,7.08252182006836,0.4267625427246094,7.924670562744141,2985.614209541667,-2.981596301100809,1.420621277345588,0.2478619176375497,-7.21564769744873,10.86498260498047,-4.105142116546631,-0.4336255788803101,0.2070171386003494,0.4127243757247925,XArbitraryZVertical,-0.6524881360284581,0.0417102745516028,0.7434970782523853,-0.1404691029127655,0.9585280418395996,-0.2453317791223526,-0.145038977265358,0,0,0,-1,-1,2983.843994416667,unknown,2,2022-06-30T09:16:29.424+02:00,2022-06-30T08:20:05.567+02:00,873,1.488614,0,0,680.226,0,0,2022-06-30T09:16:29.423+02:00
244,2022-06-30T09:16:31.215+02:00,2985.634112541667,8.084987182617187,1.542242889404297,12.206965484619136,2985.624160541667,-2.90865279899632,1.51773303270237,0.1959317018077385,-8.13363265991211,11.86309051513672,-4.830354690551758,-0.3816924691200256,0.1943296641111374,0.5567695498466492,XArbitraryZVertical,-0.6884080314442289,-0.0090872843745252,0.7094239146572288,-0.1507637613478864,0.9794862866401672,-0.1946804970502853,-0.0520236082375049,0,0,0,-1,-1,2983.843994416667,unknown,2,2022-06-30T09:16:29.424+02:00,2022-06-30T08:20:05.567+02:00,873,1.488614,0,0,680.226,0,0,2022-06-30T09:16:29.423+02:00
245,2022-06-30T09:16:31.225+02:00,2985.644064541667,6.628066864013673,3.2418086242675783,18.211429138183593,2985.634112541667,-2.819879751007975,1.626738991029832,0.144989675152361,-9.49863338470459,13.03555965423584,-5.449183464050293,-0.2659898400306702,0.1879851371049881,0.7524892091751099,XArbitraryZVertical,-0.7233127360096235,-0.0669484416950186,0.667973965309359,-0.1617017326669918,0.9879595041275024,-0.144482210278511,0.0553268156945705,0,0,0,-1,-1,2983.843994416667,unknown,2,2022-06-30T09:16:29.424+02:00,2022-06-30T08:20:05.567+02:00,873,1.488614,0,0,680.226,0,0,2022-06-30T09:16:29.423+02:00
246,2022-06-30T09:16:31.235+02:00,2985.654016541667,3.367098083496094,4.243974609375,26.29027908325195,2985.644064541667,-2.709594619354979,1.7495045919832,0.1004071008430443,-11.36596012115479,14.32860374450684,-6.045289993286133,-0.1549600958824158,0.2574498355388641,1.067476153373718,XArbitraryZVertical,-0.7555045675249482,-0.1328326116702867,0.617245166925536,-0.1748626427171422,0.9791179895401,-0.1002384722232819,0.1768633127212524,0,0,0,-1,-1,2983.843994416667,unknown,2,2022-06-30T09:16:29.424+02:00,2022-06-30T08:20:05.567+02:00,873,1.488614,0,0,680.226,0,0,2022-06-30T09:16:29.423+02:00
247,2022-06-30T09:16:31.245+02:00,2985.663967541667,-1.4790742492675781,4.784500579833985,35.53400665283203,2985.654016541667,-2.574048338268051,1.888096596969552,0.0702681457043211,-13.56857681274414,15.82542419433594,-6.513506412506104,-0.2720928192138672,0.4006699323654175,1.545182466506958,XArbitraryZVertical,-0.7828349082344606,-0.2068475222380991,0.5547439588626626,-0.1914229663351932,0.9477366209030152,-0.0702103301882743,0.3112327754497528,0,0,0,-1,-1,2983.843994416667,unknown,2,2022-06-30T09:16:29.424+02:00,2022-06-30T08:20:05.567+02:00,873,1.488614,0,0,680.226,0,0,2022-06-30T09:16:29.423+02:00
248,2022-06-30T09:16:31.255+02:00,2985.673919541667,-12.102333068847656,1.3748908996582032,49.615374298095695,2985.663967541667,-2.411335748588899,2.044634023135837,0.0670476621090187,-16.39322280883789,17.85038566589355,-6.655881881713867,-0.5445933938026428,0.4996145665645599,2.224668025970459,XArbitraryZVertical,-0.802858039271744,-0.2881989041408626,0.4765328508869653,-0.2127835266580562,0.8878244161605835,-0.0669974386692047,0.4552792906761169,0,0,0,-1,-1,2983.843994416667,unknown,2,2022-06-30T09:16:29.424+02:00,2022-06-30T08:20:05.567+02:00,873,1.488614,0,0,680.226,0,0,2022-06-30T09:16:29.423+02:00
249,2022-06-30T09:16:31.265+02:00,2985.683871541667,-22.24419296264649,-9.206904144287112,62.05540512084962,2985.673919541667,-2.226681251315436,2.218787234501467,0.1049799393477275,-18.88191604614258,20.2009334564209,-6.634025573730469,-0.9436810612678528,0.5925037860870361,3.021960258483887,XArbitraryZVertical,-0.8125701290302112,-0.3739802006646488,0.3781288452588765,-0.2385102575422803,0.7929086089134216,-0.104787215590477,0.6002628207206726,0,0,0,-1,-1,2983.843994416667,unknown,2,2022-06-30T09:16:29.424+02:00,2022-06-30T08:20:05.567+02:00,873,1.488614,0,0,680.226,0,0,2022-06-30T09:16:29.423+02:00
250,2022-06-30T09:16:31.275+02:00,2985.693823541667,-41.315284423828125,-31.511721038818365,65.82277084350586,2985.683871541667,-2.039383940996167,2.406532290529923,0.1836977269856336,-18.90542221069336,22.91825294494629,-6.987951755523682,-1.893021941184998,0.3228181004524231,4.328322887420654,XArbitraryZVertical,-0.8089571730273662,-0.4585227341358658,0.2600043646187354,-0.2602746875249157,0.6593484878540039,-0.1826663315296173,0.729309618473053,0,0,0,-1,-1,2983.843994416667,unknown,2,2022-06-30T09:16:29.424+02:00,2022-06-30T08:20:05.567+02:00,873,1.488614,0,0,680.226,0,0,2022-06-30T09:16:29.423+02:00
251,2022-06-30T09:16:31.285+02:00,2985.703775541667,-70.82851135253907,-55.56160903930663,77.20450241088868,2985.693823541667,-1.870550745969969,2.612332292357763,0.2809158344603076,-16.06587409973145,26.13508224487305,-8.085760116577148,-2.752606391906738,-0.6612868309020996,5.496383666992188,XArbitraryZVertical,-0.7908341841665517,-0.5378235199054586,0.1282059647028856,-0.2624697281447139,0.485104113817215,-0.2772356867790222,0.829345703125,0,0,0,-1,-1,2983.843994416667,unknown,2,2022-06-30T09:16:29.424+02:00,2022-06-30T08:20:05.567+02:00,873,1.488614,0,0,680.226,0,0,2022-06-30T09:16:29.423+02:00
252,2022-06-30T09:16:31.295+02:00,2985.713726541667,-115.33306365966803,-59.94778793334962,106.01673706054687,2985.703775541667,-1.728393970340742,2.838278530824132,0.3686369656404009,-10.83919906616211,28.26354026794434,-9.543614387512209,-4.490167140960693,-2.851860046386719,5.819524765014648,XArbitraryZVertical,-0.7570861150556568,-0.6098685434924915,-0.0046682749234193,-0.2342205378801188,0.2786189019680023,-0.3603442907333374,0.8902380466461182,0,0,0,-1,-1,2983.843994416667,unknown,2,2022-06-30T09:16:29.424+02:00,2022-06-30T08:20:05.567+02:00,873,1.488614,0,0,680.226,0,0,2022-06-30T09:16:29.423+02:00
253,2022-06-30T09:16:31.305+02:00,2985.723678541667,-174.3830186462403,-46.79913070678712,140.90663314819338,2985.713726541667,-1.592803532292489,3.071430784075671,0.4248243256284769,-4.526058673858643,28.16208267211914,-13.52211761474609,-7.283905029296875,-5.251612186431885,6.96111011505127,XArbitraryZVertical,-0.7035192699574184,-0.6778609662469057,-0.1228223671654072,-0.1745849493738141,0.0638728439807891,-0.412160724401474,0.9088696837425232,0,0,0,-1,-1,2983.843994416667,unknown,2,2022-06-30T09:16:29.424+02:00,2022-06-30T08:20:05.567+02:00,873,1.488614,0,0,680.226,0,0,2022-06-30T09:16:29.423+02:00
254,2022-06-30T09:16:31.315+02:00,2985.733630541667,-170.48722000122066,-9.959089965820313,176.28421508789063,2985.723678541667,-1.391591472516488,-3.061257290745854,0.4333694945467791,2.988684177398682,17.94123840332031,-22.72585105895996,-11.68385314941406,-5.690954685211182,9.902378082275392,XArbitraryZVertical,-0.6188755636382424,-0.7545247734095458,-0.1900220131891288,-0.1075971974326211,-0.0728304609656333,-0.419931173324585,0.9046291708946228,0,0,0,-1,-1,2983.843994416667,unknown,2,2022-06-30T09:16:29.424+02:00,2022-06-30T08:20:05.567+02:00,873,1.488614,0,0,680.226,0,0,2022-06-30T09:16:29.423+02:00
255,2022-06-30T09:16:31.325+02:00,2985.743582541667,-175.96373153686528,15.082186431884763,167.3901603698731,2985.733630541667,-1.112723239371131,-3.055963850226098,0.4235193988442177,3.289309740066528,6.279430866241455,-28.20089530944824,-17.69807815551758,-4.359582424163818,13.45526313781738,XArbitraryZVertical,-0.5081912633212524,-0.834203625073269,-0.2004165477782558,-0.0753604296850375,-0.0779679864645004,-0.4109714329242706,0.9083080887794496,0,0,0,-1,-1,2983.843994416667,unknown,2,2022-06-30T09:16:29.424+02:00,2022-06-30T08:20:05.567+02:00,873,1.488614,0,0,680.226,0,0,2022-06-30T09:16:29.423+02:00
256,2022-06-30T09:16:31.335+02:00,2985.753533541667,-178.89613357543942,24.05812088012695,136.10506805419928,2985.743582541667,-0.778764101316863,3.086086214454535,0.3897949247282811,5.360390663146973,-8.0011625289917,-32.64530181884766,-17.43023872375488,-0.6351995468139648,17.04628562927246,XArbitraryZVertical,-0.3772581395633902,-0.9052390377546236,-0.168765038956036,-0.0986769010430737,0.0513163954019546,-0.3799987435340881,0.9235628247261048,0,0,0,-1,-1,2983.843994416667,unknown,2,2022-06-30T09:16:29.424+02:00,2022-06-30T08:20:05.567+02:00,873,1.488614,0,0,680.226,0,0,2022-06-30T09:16:29.423+02:00
257,2022-06-30T09:16:31.345+02:00,2985.763485541667,-218.20169723510747,27.82159469604493,83.95411651611329,2985.753533541667,-0.44657934113989,2.833166111612233,0.2431064115620772,13.07658386230469,-20.87141418457031,-34.8304328918457,-18.23181343078613,1.778148293495178,16.1384220123291,XArbitraryZVertical,-0.2353590181914597,-0.9523673541725856,-0.0830779934115457,-0.1752159600332394,0.2946335971355438,-0.2407188564538956,0.9247949123382568,0,0,0,-1,-1,2983.843994416667,unknown,2,2022-06-30T09:16:29.424+02:00,2022-06-30T08:20:05.567+02:00,873,1.488614,0,0,680.226,0,0,2022-06-30T09:16:29.423+02:00
258,2022-06-30T09:16:31.355+02:00,2985.773437541667,-314.3708624267578,64.32229110717775,-49.03772552490235,2985.763485541667,-0.2243612688599875,2.550564515030542,-0.0887951860203597,29.69474983215332,-30.91557312011719,-34.77679443359375,-18.79111862182617,2.363729000091553,13.04701805114746,XArbitraryZVertical,-0.0941429230353659,-0.9511495605215308,0.0747621828807412,-0.2843627889133035,0.555019736289978,0.0886785462498664,0.8270967602729797,0,0,0,-1,-1,2983.843994416667,unknown,2,2022-06-30T09:16:29.424+02:00,2022-06-30T08:20:05.567+02:00,873,1.488614,0,0,680.226,0,0,2022-06-30T09:16:29.423+02:00
259,2022-06-30T09:16:31.365+02:00,2985.783389541667,-303.3965835571289,288.5181234741211,-30.090576324462887,2985.773437541667,-0.2611825973458418,2.193542843580101,-0.5091905113248546,34.92131805419922,-34.81201553344727,-12.60991954803467,-22.9520149230957,2.348573446273804,8.048739433288574,XArbitraryZVertical,0.0018577232297831,-0.8686966286644312,0.2797016033276407,-0.4088150781964958,0.7092333436012268,0.4874705970287323,0.5092745423316956,0,0,0,-1,-1,2983.843994416667,unknown,2,2022-06-30T09:16:29.424+02:00,2022-06-30T08:20:05.567+02:00,873,1.488614,0,0,680.226,0,0,2022-06-30T09:16:29.423+02:00
260,2022-06-30T09:16:31.374+02:00,2985.793340541667,-254.85806991577152,312.78431167602537,306.8819357299805,2985.783389541667,-0.6227665586014625,1.633160947117645,-0.7040863913940355,34.91664123535156,-34.84454345703125,-6.326862812042236,-32.80668258666992,5.909470558166504,-5.046252727508545,XArbitraryZVertical,0.0151528511991795,-0.7235483718646072,0.4361350383309057,-0.5348218069903241,0.7607215046882629,0.6473377346992493,0.0475037097930908,0,0,0,-1,-1,2983.843994416667,unknown,2,2022-06-30T09:16:29.424+02:00,2022-06-30T08:20:05.567+02:00,873,1.488614,0,0,680.226,0,0,2022-06-30T09:16:29.423+02:00
261,2022-06-30T09:16:31.384+02:00,2985.803292541667,-315.5391828918457,-115.99184371948245,313.9728401184082,2985.793340541667,-1.039357928833841,1.043845047656773,-0.6018459659258377,34.8605842590332,-27.67484664916992,-1.246570587158203,-31.63974761962891,28.84444808959961,-2.652800321578979,XArbitraryZVertical,-0.0134360316263727,-0.5408798902060691,0.5394021452882845,-0.6452237835386073,0.7124719619750977,0.566165030002594,-0.4145368337631226,0,0,0,-1,-1,2983.843994416667,unknown,2,2022-06-30T09:16:29.424+02:00,2022-06-30T08:20:05.567+02:00,873,1.488614,0,0,680.226,0,0,2022-06-30T09:16:29.423+02:00
262,2022-06-30T09:16:31.394+02:00,2985.813244541667,-104.1388920593262,-312.92816253662113,122.05019531250001,2985.803292541667,-1.319896142661725,0.8649847306175639,-0.3576850125508141,34.56192398071289,15.48195552825928,15.22557163238525,-26.69233131408691,31.53412437438965,31.89016151428223,XArbitraryZVertical,-0.1252653333890296,-0.4248639439061526,0.6066525251491331,-0.6601302311446697,0.7129161357879639,0.3501067161560059,-0.6075984239578247,0,0,0,-1,-1,2983.843994416667,unknown,2,2022-06-30T09:16:29.424+02:00,2022-06-30T08:20:05.567+02:00,873,1.488614,0,0,680.226,0,0,2022-06-30T09:16:29.423+02:00
263,2022-06-30T09:16:31.404+02:00,2985.823196541667,-41.80341934204101,-118.22609756469726,22.25796432495118,2985.813244541667,-1.442171066951934,0.9380483695031488,-0.0101356596763976,23.14307403564453,5.583458423614502,19.42354202270508,-32.97141647338867,-11.8339729309082,32.59671783447266,XArbitraryZVertical,-0.2950220141550197,-0.3424846213384085,0.5906182039268815,-0.668458282425807,0.806364119052887,0.0101354857906699,-0.5913326144218445,0,0,0,-1,-1,2983.843994416667,unknown,2,2022-06-30T09:16:29.424+02:00,2022-06-30T08:20:05.567+02:00,873,1.488614,0,0,680.226,0,0,2022-06-30T09:16:29.423+02:00
264,2022-06-30T09:16:31.415+02:00,2985.833148541667,-45.634702148437505,-64.74097045898438,-1.2554393005371094,2985.823196541667,-1.421883302794327,1.012716313214341,0.1539807205001448,-5.729657173156738,9.293047904968262,10.67176818847656,-11.45382213592529,-31.74552345275879,12.96469974517822,XArbitraryZVertical,-0.3665134741402563,-0.3225234687568972,0.5407068742215021,-0.6850420354376254,0.8382369875907898,-0.1533729583024979,-0.5232929587364197,0,0,0,-1,-1,2983.843994416667,unknown,2,2022-06-30T09:16:29.424+02:00,2022-06-30T08:20:05.567+02:00,873,1.488614,0,0,680.226,0,0,2022-06-30T09:16:29.423+02:00
265,2022-06-30T09:16:31.424+02:00,2985.8430995,-55.70216674804688,-31.234796905517577,36.26433792114258,2985.833148541667,-1.307020195546696,1.054644705760942,0.1670032606587383,-11.95642471313477,0.7625327706336975,3.749608278274536,-5.118931293487549,-11.88536262512207,2.755576133728027,XArbitraryZVertical,-0.3621050056345159,-0.3543229815217196,0.4902343358342752,-0.7092288538110328,0.8576247692108154,-0.1662280559539795,-0.4866703748703003,0,0,0,-1,-1,2983.843994416667,unknown,2,2022-06-30T09:16:29.424+02:00,2022-06-30T08:20:05.567+02:00,873,1.488614,0,0,680.226,0,0,2022-06-30T09:16:29.423+02:00
266,2022-06-30T09:16:31.434+02:00,2985.8530515,-105.32517517089845,5.008584594726563,85.44157333374024,2985.8430995,-1.160474110910872,0.9966577731612576,0.1396825866951407,-14.41815757751465,-6.179709911346436,7.274785995483398,-5.483337879180908,-6.460258960723877,0.4098466038703918,XArbitraryZVertical,-0.3126536699219661,-0.3651530220263226,0.4524797072467396,-0.7511145879380747,0.8314824104309082,-0.1392288058996201,-0.537821888923645,0,0,0,-1,-1,2983.843994416667,unknown,2,2022-06-30T09:16:29.424+02:00,2022-06-30T08:20:05.567+02:00,873,1.488614,0,0,680.226,0,0,2022-06-30T09:16:29.423+02:00
267,2022-06-30T09:16:31.444+02:00,2985.8630035,-116.92590133666995,0.008232879638671876,84.64837280273439,2985.8530515,-0.9978129946080918,0.9541411295528412,0.1305508040614266,-12.57627201080322,4.064781188964844,8.776895523071289,-6.48697566986084,-3.053795337677002,4.270059108734131,XArbitraryZVertical,-0.2701159457139781,-0.3746240034864402,0.3978359246434768,-0.7927300473785673,0.8088750839233398,-0.1301802843809128,-0.5733884572982788,0,0,0,-1,-1,2983.843994416667,unknown,2,2022-06-30T09:16:29.424+02:00,2022-06-30T08:20:05.567+02:00,873,1.488614,0,0,680.226,0,0,2022-06-30T09:16:29.423+02:00
268,2022-06-30T09:16:31.454+02:00,2985.8729555,-41.124580993652344,-8.108488311767578,71.43280471801758,2985.8630035,-0.8462155581670839,1.004081617550285,0.1675386143964813,-9.464470863342283,9.371259689331056,13.04069709777832,-11.56836795806885,0.6773145794868469,9.23898696899414,XArbitraryZVertical,-0.2637709879641567,-0.4071262093574414,0.3219540404939096,-0.8130306414084318,0.8318564295768738,-0.1667559295892715,-0.529346227645874,0,0,0,-1,-1,2983.843994416667,unknown,2,2022-06-30T09:16:29.424+02:00,2022-06-30T08:20:05.567+02:00,873,1.488614,0,0,680.226,0,0,2022-06-30T09:16:29.423+02:00
269,2022-06-30T09:16:31.464+02:00,2985.8829065,-33.17296646118164,1.0171348571777343,45.81567581176757,2985.8729555,-0.6895118923589967,1.047700062592022,0.2278954978451584,-10.91745090484619,4.787399768829346,13.83747386932373,-12.76292991638184,0.2267667502164841,9.115431785583496,XArbitraryZVertical,-0.2606213886787763,-0.4344565254634148,0.2372189877216115,-0.8288855602424005,0.8438781499862671,-0.22592793405056,-0.4866480529308319,0,0,0,-1,-1,2983.843994416667,unknown,2,2022-06-30T09:16:29.424+02:00,2022-06-30T08:20:05.567+02:00,873,1.488614,0,0,680.226,0,0,2022-06-30T09:16:29.423+02:00
270,2022-06-30T09:16:31.474+02:00,2985.8928585,-83.61776596069336,21.349653167724615,31.38179122924805,2985.8829065,-0.4949028002012499,1.004400405615462,0.3033376282210664,-13.53929233551025,-2.866975069046021,17.48481941223145,-4.99742317199707,-0.52784663438797,7.793727397918701,XArbitraryZVertical,-0.24494526940432,-0.428898375611279,0.1417144382967534,-0.8578840868238777,0.8053147196769714,-0.298707127571106,-0.5120959877967834,0,0,0,-1,-1,2983.843994416667,unknown,2,2022-06-30T09:16:29.424+02:00,2022-06-30T08:20:05.567+02:00,873,1.488614,0,0,680.226,0,0,2022-06-30T09:16:29.423+02:00
271,2022-06-30T09:16:31.484+02:00,2985.9028105,-94.51854766845702,19.52599548339844,24.509432373046877,2985.8928585,-0.2816282619257074,0.8926685525817273,0.3621782731340463,-12.24862766265869,-5.274307727813721,15.7116813659668,-4.109775543212891,0.4579951763153076,5.256942272186279,XArbitraryZVertical,-0.2204422669179458,-0.3975998650142182,0.0475566066773494,-0.8894143602663911,0.7282290458679199,-0.3543120324611664,-0.5866391062736511,0,0,0,-1,-1,2983.843994416667,unknown,2,2022-06-30T09:16:29.424+02:00,2022-06-30T08:20:05.567+02:00,873,1.488614,0,0,680.226,0,0,2022-06-30T09:16:29.423+02:00
272,2022-06-30T09:16:31.494+02:00,2985.9127625,-75.69414321899414,11.901450805664062,15.947387237548824,2985.9028105,-0.0923608823573095,0.7599836033459982,0.4041490408409775,-7.574775695800781,-7.150614261627197,13.96624279022217,-9.157136917114258,2.569551467895508,3.865411043167114,XArbitraryZVertical,-0.2029612344815016,-0.3543739389457555,-0.0323648954329608,-0.91223811579397,0.6334092020988464,-0.3932364881038666,-0.6664516925811768,0,0,0,-1,-1,2983.843994416667,unknown,2,2022-06-30T09:16:29.424+02:00,2022-06-30T08:20:05.567+02:00,873,1.488614,0,0,680.226,0,0,2022-06-30T09:16:29.423+02:00
273,2022-06-30T09:16:31.504+02:00,2985.9227135,-77.25434875488281,12.263248443603512,19.99137771606445,2985.9127625,0.0453551491480008,0.6241995977182453,0.4521171184113946,-1.264968156814575,-8.531929016113281,11.56855773925781,-10.16064357757568,2.427288055419922,3.228314876556396,XArbitraryZVertical,-0.2064697828875708,-0.3040053245478351,-0.0898367680950101,-0.9256783099182234,0.5257251262664795,-0.4368709027767181,-0.7299019694328308,0,0,0,-1,-1,2983.843994416667,unknown,2,2022-06-30T09:16:29.424+02:00,2022-06-30T08:20:05.567+02:00,873,1.488614,0,0,680.226,0,0,2022-06-30T09:16:29.423+02:00
274,2022-06-30T09:16:31.514+02:00,2985.9326655,-81.79261138916016,1.016685791015625,20.3482356262207,2985.9227135,0.1417007823441755,0.4930732998400825,0.5182357344435763,3.181023120880127,-8.693994522094727,10.0181884765625,-8.127202987670898,1.70854389667511,2.390843152999878,XArbitraryZVertical,-0.2311575186946661,-0.2528980147266129,-0.1287335760738393,-0.93061080738712,0.411183774471283,-0.4953483045101166,-0.7652176022529602,0,0,0,-1,-1,2983.843994416667,unknown,2,2022-06-30T09:16:29.424+02:00,2022-06-30T08:20:05.567+02:00,873,1.488614,0,0,680.226,0,0,2022-06-30T09:16:29.423+02:00
275,2022-06-30T09:16:31.524+02:00,2985.9426175,-79.66224151611328,-8.428223419189454,17.055233459472657,2985.9326655,0.2235411819209729,0.3642858689824563,0.5976964713904357,5.17997932434082,-8.475982666015625,9.387761116027832,-8.169576644897461,1.81281590461731,2.810245990753174,XArbitraryZVertical,-0.2684343846776923,-0.2043243645281873,-0.1578285911400803,-0.9280542435543804,0.2945149540901184,-0.5627397894859314,-0.7723890542984009,0,0,0,-1,-1,2983.843994416667,unknown,2,2022-06-30T09:16:29.424+02:00,2022-06-30T08:20:05.567+02:00,873,1.488614,0,0,680.226,0,0,2022-06-30T09:16:29.423+02:00
276,2022-06-30T09:16:31.534+02:00,2985.9525695,-77.46810424804688,-11.332334289550781,13.093422088623052,2985.9426175,0.315284180755574,0.226431236401663,0.6738105499927146,4.900158405303955,-8.207300186157227,9.316177368164062,-8.513113975524902,0.7276058793067932,2.835736274719238,XArbitraryZVertical,-0.3076401840394015,-0.1568642787280908,-0.1840982645166705,-0.9202493845518492,0.1754364669322968,-0.623968243598938,-0.761502206325531,0,0,0,-1,-1,2983.843994416667,unknown,2,2022-06-30T09:16:29.424+02:00,2022-06-30T08:20:05.567+02:00,873,1.488614,0,0,680.226,0,0,2022-06-30T09:16:29.423+02:00
277,2022-06-30T09:16:31.544+02:00,2985.9625215,-71.98949707031251,-11.84501815795899,12.075389099121095,2985.9525695,0.4272336509009903,0.0746814175839094,0.729258295691987,3.457129001617432,-7.760612487792969,9.307785034179688,-8.17615032196045,-0.1928294897079468,2.482146263122559,XArbitraryZVertical,-0.3408605667270708,-0.1096305344095708,-0.2109304779852665,-0.9095624003434952,0.0556358583271503,-0.6663167476654053,-0.7435904145240784,0,0,0,-1,-1,2983.843994416667,unknown,2,2022-06-30T09:16:29.424+02:00,2022-06-30T08:20:05.567+02:00,873,1.488614,0,0,680.226,0,0,2022-06-30T09:16:29.423+02:00
278,2022-06-30T09:16:31.554+02:00,2985.9724725,-65.12147918701172,-12.014016723632814,15.099400634765626,2985.9625215,0.5519978244190921,-0.0876599245860372,0.7510610589786235,0.9066469073295592,-8.021111488342285,9.229324340820312,-7.83285665512085,-0.472767174243927,2.062860012054443,XArbitraryZVertical,-0.3636545179423927,-0.060630958216651,-0.2378124696902684,-0.8986237117072432,-0.063994325697422,-0.6824147701263428,-0.7281585335731506,0,0,0,-1,-1,2983.843994416667,unknown,2,2022-06-30T09:16:29.424+02:00,2022-06-30T08:20:05.567+02:00,873,1.488614,0,0,680.226,0,0,2022-06-30T09:16:29.423+02:00
279,2022-06-30T09:16:31.564+02:00,2985.9824245,-63.54765197753907,-8.803942108154297,17.736915893554688,2985.9724725,0.6710087250809177,-0.2498556852433136,0.729154113544265,-2.310540676116943,-8.293572425842285,8.861475944519043,-7.153985023498535,-0.5412041544914246,1.953508377075195,XArbitraryZVertical,-0.3723790858949311,-0.0065561045791906,-0.2632577295094033,-0.8899360869843796,-0.1843943148851395,-0.6662390828132629,-0.722581684589386,0,0,0,-1,-1,2983.843994416667,unknown,2,2022-06-30T09:16:29.424+02:00,2022-06-30T08:20:05.567+02:00,873,1.488614,0,0,680.226,0,0,2022-06-30T09:16:29.423+02:00
280,2022-06-30T09:16:31.573+02:00,2985.9923765,-62.30598403930664,-1.1638298034667969,17.647102661132813,2985.9824245,0.7612867342515635,-0.3915169420039524,0.668253514548847,-4.751987934112549,-8.49458122253418,8.217645645141602,-6.338762760162354,-0.6050542593002319,2.264697074890137,XArbitraryZVertical,-0.3669244519451485,0.0510914007328148,-0.2850453948227367,-0.8840278170021354,-0.2995126843452454,-0.6196160912513733,-0.7255122065544128,0,0,0,-1,-1,2983.843994416667,unknown,2,2022-06-30T09:16:29.424+02:00,2022-06-30T08:20:05.567+02:00,873,1.488614,0,0,680.226,0,0,2022-06-30T09:16:29.423+02:00
281,2022-06-30T09:16:31.583+02:00,2986.0023285,-60.92226150512695,4.305945739746094,13.563294982910158,2985.9923765,0.8205642976694811,-0.5118110459440172,0.5869604532714748,-5.534018516540527,-8.627812385559082,7.59752082824707,-6.070059299468994,-0.3436127901077271,2.533978700637817,XArbitraryZVertical,-0.3532835032138751,0.1105609282819331,-0.3022323242119431,-0.8784205046538,-0.4077853560447693,-0.5538327693939209,-0.7259340882301331,0,0,0,-1,-1,2983.843994416667,unknown,2,2022-06-30T09:16:29.424+02:00,2022-06-30T08:20:05.567+02:00,873,1.488614,0,0,680.226,0,0,2022-06-30T09:16:29.423+02:00
282,2022-06-30T09:16:31.593+02:00,2986.0122795,-60.16977630615235,4.917573852539062,9.12113250732422,2986.0023285,0.8584225710853683,-0.6173069103776468,0.5030564352716597,-5.127039432525635,-8.631233215332031,6.915432453155518,-5.844142436981201,0.3634685277938843,2.513307332992554,XArbitraryZVertical,-0.3380540908601281,0.1688503537423515,-0.3152642949491949,-0.8705271741117624,-0.5071303844451904,-0.4821055829524994,-0.7144179940223694,0,0,0,-1,-1,2983.843994416667,unknown,2,2022-06-30T09:16:29.424+02:00,2022-06-30T08:20:05.567+02:00,873,1.488614,0,0,680.226,0,0,2022-06-30T09:16:29.423+02:00
283,2022-06-30T09:16:31.603+02:00,2986.0222315,-60.09029159545899,4.411326599121094,6.853947143554688,2986.0122795,0.8839451685996114,-0.7146827012291286,0.4258940796719043,-4.247125625610352,-8.610867500305176,6.278224468231201,-5.613388061523438,0.8520695567131042,2.070429086685181,XArbitraryZVertical,-0.3251976126158705,0.2243468989043486,-0.3248325293188388,-0.8593013564620343,-0.5968326926231384,-0.4131351709365845,-0.6878299713134766,0,0,0,-1,-1,2983.843994416667,unknown,2,2022-06-30T09:16:29.424+02:00,2022-06-30T08:20:05.567+02:00,873,1.488614,0,0,680.226,0,0,2022-06-30T09:16:29.423+02:00
284,2022-06-30T09:16:31.613+02:00,2986.0321835,-58.94577163696289,3.8467007446289063,3.912414093017578,2986.0222315,0.9017269836476136,-0.8060013175502503,0.3572119255751762,-3.502331256866455,-8.349882125854492,5.622447967529297,-5.457536220550537,0.8509454131126404,1.578461647033691,XArbitraryZVertical,-0.315265888211869,0.2761635236083387,-0.3317469536727907,-0.8451538094540543,-0.6759783029556274,-0.3496635258197784,-0.6486822366714478,0,0,0,-1,-1,2983.843994416667,unknown,2,2022-06-30T09:16:29.424+02:00,2022-06-30T08:20:05.567+02:00,873,1.488614,0,0,680.226,0,0,2022-06-30T09:16:29.423+02:00
285,2022-06-30T09:16:31.623+02:00,2986.0421355,-56.419026031494134,3.094514923095703,1.3783337402343752,2986.0321835,0.9137215791902604,-0.8916355261426027,0.2967869957672102,-2.80790114402771,-8.108514785766602,5.004883766174316,-5.381330013275146,0.7421258687973022,1.2993483543396,XArbitraryZVertical,-0.3078415791220344,0.3238738190561679,-0.3364279320866509,-0.8289484257361536,-0.7440823912620544,-0.2924491763114929,-0.6006786227226257,0,0,0,-1,-1,2983.843994416667,unknown,2,2022-06-30T09:16:29.424+02:00,2022-06-30T08:20:05.567+02:00,873,1.488614,0,0,680.226,0,0,2022-06-30T09:16:29.423+02:00
286,2022-06-30T09:16:31.633+02:00,2986.0520865,-53.96727447509766,1.5705340576171876,-0.9660910034179688,2986.0421355,0.9218883879666392,-0.973846449080348,0.2441620545923431,-2.265510559082031,-7.988934993743896,4.443684577941895,-5.206219673156738,0.6338638067245483,0.9442694187164308,XArbitraryZVertical,-0.3029661685823632,0.3680848628458606,-0.3391387667752086,-0.810993208943771,-0.8025237917900085,-0.2417433112859726,-0.5454500913619995,0,0,0,-1,-1,2983.843994416667,unknown,2,2022-06-30T09:16:29.424+02:00,2022-06-30T08:20:05.567+02:00,873,1.488614,0,0,680.226,0,0,2022-06-30T09:16:29.423+02:00
287,2022-06-30T09:16:31.643+02:00,2986.0620385,-51.160910339355475,0.1490899658203125,-3.463946685791016,2986.0520865,0.9266775181723012,-1.054344627656752,0.1980292757191041,-1.82122004032135,-8.002654075622559,3.919202566146851,-4.898592948913574,0.5121825933456421,0.6246504187583923,XArbitraryZVertical,-0.3001735505487833,0.4096612032462477,-0.3398775830598235,-0.7915534590718745,-0.8525819778442383,-0.1967374980449677,-0.4841470718383789,0,0,0,-1,-1,2983.843994416667,unknown,2,2022-06-30T09:16:29.424+02:00,2022-06-30T08:20:05.567+02:00,873,1.488614,0,0,680.226,0,0,2022-06-30T09:16:29.423+02:00
288,2022-06-30T09:16:31.653+02:00,2986.0719905,-48.60632263183594,-1.4085708618164063,-6.408174133300782,2986.0620385,0.9288291896433152,-1.134675764415315,0.1580613911965247,-1.523961186408997,-8.04555606842041,3.408261299133301,-4.606153011322021,0.3174994587898254,0.3186806738376617,XArbitraryZVertical,-0.299472998008498,0.4491499522475599,-0.3386176747902002,-0.7706609426046789,-0.8950983285903931,-0.1574040651321411,-0.4171604812145233,0,0,0,-1,-1,2983.843994416667,unknown,2,2022-06-30T09:16:29.424+02:00,2022-06-30T08:20:05.567+02:00,873,1.488614,0,0,680.226,0,0,2022-06-30T09:16:29.423+02:00
289,2022-06-30T09:16:31.663+02:00,2986.0819425,-45.91911071777344,-3.1437625122070316,-8.2915576171875,2986.0719905,0.9278169646120838,-1.213323426394471,0.1231806617358033,-1.381026148796082,-7.718104839324951,3.007104396820068,-4.285493850708008,0.1380672752857208,-0.0058464705944061,XArbitraryZVertical,-0.2998417525851169,0.4862782858453772,-0.3355223158591727,-0.7490348062409072,-0.9296859502792358,-0.1228693872690201,-0.3472566902637482,0,0,0,-1,-1,2983.843994416667,unknown,2,2022-06-30T09:16:29.424+02:00,2022-06-30T08:20:05.567+02:00,873,1.488614,0,0,680.226,0,0,2022-06-30T09:16:29.423+02:00
290,2022-06-30T09:16:31.673+02:00,2986.0918945,-41.99142837524413,-3.2392639160156254,-8.724906463623046,2986.0819425,0.9247129813191146,-1.286411149366007,0.0917057443649009,-1.201273083686829,-7.013050556182861,2.821146726608276,-3.998971939086914,-0.0520078241825103,-0.3738398551940918,XArbitraryZVertical,-0.3000749357638779,0.5198661493496196,-0.331945891521325,-0.7276717765616012,-0.9558011293411256,-0.091577261686325,-0.279388427734375,0,0,0,-1,-1,2983.843994416667,unknown,2,2022-06-30T09:16:29.424+02:00,2022-06-30T08:20:05.567+02:00,873,1.488614,0,0,680.226,0,0,2022-06-30T09:16:29.423+02:00
291,2022-06-30T09:16:31.683+02:00,2986.1018455,-38.03710144042969,-2.3691233825683593,-7.427105255126953,2986.0918945,0.9202900273329924,-1.351857545211453,0.062122844194377,-1.147714853286743,-6.191863536834717,2.70572566986084,-3.706601619720459,-0.2583820819854736,-0.6284394860267639,XArbitraryZVertical,-0.2993989783611908,0.5495205213994063,-0.3288611382557248,-0.7072749289907402,-0.974245548248291,-0.0620828941464424,-0.2167748957872391,0,0,0,-1,-1,2983.843994416667,unknown,2,2022-06-30T09:16:29.424+02:00,2022-06-30T08:20:05.567+02:00,873,1.488614,0,0,680.226,0,0,2022-06-30T09:16:29.423+02:00
292,2022-06-30T09:16:31.693+02:00,2986.1117975,-34.98839126586914,-0.6879693603515625,-7.5064402770996095,2986.1018455,0.9144700889954792,-1.408113060362326,0.0347065093907968,-1.045173525810242,-5.169673919677734,2.472816944122314,-3.294270038604736,-0.2955005466938019,-0.7275194525718689,XArbitraryZVertical,-0.2975940637443561,0.5748940935451765,-0.3263682763213697,-0.6887804243037974,-0.9862021207809448,-0.0346995405852794,-0.1618691086769104,0,0,0,-1,-1,2983.843994416667,unknown,2,2022-06-30T09:16:29.424+02:00,2022-06-30T08:20:05.567+02:00,873,1.488614,0,0,680.226,0,0,2022-06-30T09:16:29.423+02:00
293,2022-06-30T09:16:31.703+02:00,2986.1217495,-32.65234909057618,0.8434959411621095,-8.382119293212892,2986.1117975,0.9079406838503996,-1.454667593242647,0.0112412031505141,-0.9104872345924376,-4.253976821899414,1.960225462913513,-2.884178638458252,-0.2302597463130951,-0.641234278678894,XArbitraryZVertical,-0.2953432320049492,0.5956862292943141,-0.3242015740294723,-0.6729217900728767,-0.9932019710540771,-0.011240966618061,-0.1158605813980103,0,0,0,-1,-1,2983.843994416667,unknown,2,2022-06-30T09:16:29.424+02:00,2022-06-30T08:20:05.567+02:00,873,1.488614,0,0,680.226,0,0,2022-06-30T09:16:29.423+02:00
294,2022-06-30T09:16:31.713+02:00,2986.1317015,-31.150671844482428,1.931433563232422,-9.883946228027344,2986.1217495,0.9010396029073506,-1.493622725601508,-0.0057567092804889,-0.7971587777137756,-3.594603776931763,1.317237138748169,-2.569597482681274,-0.07588592171669,-0.6880862712860107,XArbitraryZVertical,-0.2938881722832511,0.6124392771643659,-0.3213055144055997,-0.6597808164334861,-0.997007131576538,0.0057566775940358,-0.0770957469940185,0,0,0,-1,-1,2983.843994416667,unknown,2,2022-06-30T09:16:29.424+02:00,2022-06-30T08:20:05.567+02:00,873,1.488614,0,0,680.226,0,0,2022-06-30T09:16:29.423+02:00
295,2022-06-30T09:16:31.723+02:00,2986.1416525,-30.302236175537114,2.126477966308594,-11.8074462890625,2986.1317015,0.8942670179766179,-1.526198100550745,-0.016871621192857,-0.7295578122138977,-2.925317049026489,0.8643569350242615,-2.329612493515015,0.0691125690937042,-0.8098688125610352,XArbitraryZVertical,-0.293339710760942,0.6258300590512567,-0.3177280151512836,-0.649105201609004,-0.9988635778427124,0.0168708208948373,-0.0445771031081676,0,0,0,-1,-1,2983.843994416667,unknown,2,2022-06-30T09:16:29.424+02:00,2022-06-30T08:20:05.567+02:00,873,1.488614,0,0,680.226,0,0,2022-06-30T09:16:29.423+02:00
296,2022-06-30T09:16:31.733+02:00,2986.1516045,-29.952862701416013,-0.080233154296875,-14.154116363525388,2986.1416525,0.8865250425254769,-1.551561557567686,-0.0249043889019024,-0.8971686363220215,-2.132022142410278,0.7314920425415039,-2.175894737243652,0.17198246717453,-0.9883097410202026,XArbitraryZVertical,-0.2922863289125334,0.6363606615336423,-0.3140261805204146,-0.6410939621511361,-0.99950510263443,0.0249018147587776,-0.0192276202142238,0,0,0,-1,-1,2983.843994416667,unknown,2,2022-06-30T09:16:29.424+02:00,2022-06-30T08:20:05.567+02:00,873,1.488614,0,0,680.226,0,0,2022-06-30T09:16:29.423+02:00
