loggingTime(txt),locationTimestamp_since1970(s),locationLatitude(WGS84),locationLongitude(WGS84),locationAltitude(m),locationSpeed(m/s),locationSpeedAccuracy(m/s),locationCourse(°),locationCourseAccuracy(°),locationVerticalAccuracy(m),locationHorizontalAccuracy(m),locationFloor(Z),accelerometerTimestamp_sinceReboot(s),accelerometerAccelerationX(G),accelerometerAccelerationY(G),accelerometerAccelerationZ(G),motionTimestamp_sinceReboot(s),motionYaw(rad),motionRoll(rad),motionPitch(rad),motionRotationRateX(rad/s),motionRotationRateY(rad/s),motionRotationRateZ(rad/s),motionUserAccelerationX(G),motionUserAccelerationY(G),motionUserAccelerationZ(G),motionAttitudeReferenceFrame(txt),motionQuaternionX(R),motionQuaternionY(R),motionQuaternionZ(R),motionQuaternionW(R),motionGravityX(G),motionGravityY(G),motionGravityZ(G),motionMagneticFieldX(µT),motionMagneticFieldY(µT),motionMagneticFieldZ(µT),motionHeading(°),motionMagneticFieldCalibrationAccuracy(Z),activityTimestamp_sinceReboot(s),activity(txt),activityActivityConfidence(Z),activityActivityStartDate(txt),pedometerStartDate(txt),pedometerNumberofSteps(N),pedometerAverageActivePace(s/m),pedometerCurrentPace(s/m),pedometerCurrentCadence(steps/s),pedometerDistance(m),pedometerFloorAscended(N),pedometerFloorDescended(N),pedometerEndDate(txt),altimeterTimestamp_sinceReboot(s),altimeterReset(bool),altimeterRelativeAltitude(m),altimeterPressure(kPa),batteryState(N),batteryLevel(R)
2022-06-02T11:07:33.707+02:00,1654160853.000259,53.2290433128372,10.39848793038811,36.83508,0.2687733,0.7115527,131.7370277298109,45.71954500393949,2.400000095367432,7.999579855010836,-9999,3937.810556666667,-0.175445556640625,-0.14569091796875,-0.959991455078125,3937.810556666667,0.4606234886318706,-0.09818333307254183,0.07958930606781671,0.32933309674263,-0.2736931145191193,-0.7840044498443604,-0.08162118494510651,-0.01485507935285568,0.01403677463531494,XArbitraryZVertical,0.04988032841244382,-0.03866736968754148,0.2259247884593287,0.9720980649999731,-0.0977153554558754,-0.0795053094625473,-0.9920336008071899,0,0,0,-1,-1,3922.954816041667,unknown,2,2022-06-02T11:07:18.817+02:00,2022-06-02T10:17:13.754+02:00,757,1.530461,0,0,607.4087,0,0,2022-06-02T11:07:31.596+02:00,675853651.596262,0,3.28125,101.3422,1,0.74
2022-06-02T11:07:33.711+02:00,1654160853.000259,53.2290433128372,10.39848793038811,36.83508,0.2687733,0.7115527,131.7370277298109,45.71954500393949,2.400000095367432,7.999579855010836,-9999,3937.820551666667,-0.16259765625,-0.1933746337890625,-0.9387664794921875,3937.810556666667,0.4606234886318706,-0.09818333307254183,0.07958930606781671,0.32933309674263,-0.2736931145191193,-0.7840044498443604,-0.08162118494510651,-0.01485507935285568,0.01403677463531494,XArbitraryZVertical,0.04988032841244382,-0.03866736968754148,0.2259247884593287,0.9720980649999731,-0.0977153554558754,-0.0795053094625473,-0.9920336008071899,0,0,0,-1,-1,3922.954816041667,unknown,2,2022-06-02T11:07:18.817+02:00,2022-06-02T10:17:13.754+02:00,757,1.530461,0,0,607.4087,0,0,2022-06-02T11:07:31.596+02:00,675853651.596262,0,3.28125,101.3422,1,0.74
2022-06-02T11:07:33.717+02:00,1654160853.000259,53.2290433128372,10.39848793038811,36.83508,0.2687733,0.7115527,131.7370277298109,45.71954500393949,2.400000095367432,7.999579855010836,-9999,3937.830545666667,-0.176788330078125,-0.1930694580078125,-0.933502197265625,3937.830545666667,0.4460996089295534,-0.1034126017847898,0.08498102443940472,0.06670325994491577,-0.3515822887420654,-0.7198362350463867,-0.0648839995265007,-0.1097165942192078,0.05773389339447021,XArbitraryZVertical,0.05279234887764165,-0.04097371596315555,0.2185688698661182,0.973530592068286,-0.1028558611869812,-0.08487877249717712,-0.9910682439804077,0,0,0,-1,-1,3922.954816041667,unknown,2,2022-06-02T11:07:18.817+02:00,2022-06-02T10:17:13.754+02:00,757,1.530461,0,0,607.4087,0,0,2022-06-02T11:07:31.596+02:00,675853651.596262,0,3.28125,101.3422,1,0.74
2022-06-02T11:07:33.722+02:00,1654160853.000259,53.2290433128372,10.39848793038811,36.83508,0.2687733,0.7115527,131.7370277298109,45.71954500393949,2.400000095367432,7.999579855010836,-9999,3937.840540666667,-0.2002716064453125,-0.1695404052734375,-0.948211669921875,3937.830545666667,0.4460996089295534,-0.1034126017847898,0.08498102443940472,0.06670325994491577,-0.3515822887420654,-0.7198362350463867,-0.0648839995265007,-0.1097165942192078,0.05773389339447021,XArbitraryZVertical,0.05279234887764165,-0.04097371596315555,0.2185688698661182,0.973530592068286,-0.1028558611869812,-0.08487877249717712,-0.9910682439804077,0,0,0,-1,-1,3922.954816041667,unknown,2,2022-06-02T11:07:18.817+02:00,2022-06-02T10:17:13.754+02:00,757,1.530461,0,0,607.4087,0,0,2022-06-02T11:07:31.596+02:00,675853651.596262,0,3.28125,101.3422,1,0.74
2022-06-02T11:07:33.724+02:00,1654160853.000259,53.2290433128372,10.39848793038811,36.83508,0.2687733,0.7115527,131.7370277298109,45.71954500393949,2.400000095367432,7.999579855010836,-9999,3937.850535666667,-0.20635986328125,-0.1324005126953125,-0.977508544921875,3937.850535666667,0.4321124629825119,-0.1090467883007948,0.08625179541725754,-0.05683448538184166,-0.3218173682689667,-0.6806086897850037,-0.09689601510763168,-0.06548172235488892,0.02851200103759766,XArbitraryZVertical,0.0537196409480649,-0.04395118294386215,0.2115667707254303,0.9748958651761366,-0.1084262356162071,-0.08614489436149597,-0.9903649687767029,0,0,0,-1,-1,3922.954816041667,unknown,2,2022-06-02T11:07:18.817+02:00,2022-06-02T10:17:13.754+02:00,757,1.530461,0,0,607.4087,0,0,2022-06-02T11:07:31.596+02:00,675853651.596262,0,3.28125,101.3422,1,0.74
2022-06-02T11:07:33.727+02:00,1654160853.000259,53.2290433128372,10.39848793038811,36.83508,0.2687733,0.7115527,131.7370277298109,45.71954500393949,2.400000095367432,7.999579855010836,-9999,3937.860529666667,-0.2094879150390625,-0.1079559326171875,-1.017578125,3937.850535666667,0.4321124629825119,-0.1090467883007948,0.08625179541725754,-0.05683448538184166,-0.3218173682689667,-0.6806086897850037,-0.09689601510763168,-0.06548172235488892,0.02851200103759766,XArbitraryZVertical,0.0537196409480649,-0.04395118294386215,0.2115667707254303,0.9748958651761366,-0.1084262356162071,-0.08614489436149597,-0.9903649687767029,0,0,0,-1,-1,3922.954816041667,unknown,2,2022-06-02T11:07:18.817+02:00,2022-06-02T10:17:13.754+02:00,757,1.530461,0,0,607.4087,0,0,2022-06-02T11:07:31.596+02:00,675853651.596262,0,3.28125,101.3422,1,0.74
2022-06-02T11:07:33.734+02:00,1654160853.000259,53.2290433128372,10.39848793038811,36.83508,0.2687733,0.7115527,131.7370277298109,45.71954500393949,2.400000095367432,7.999579855010836,-9999,3937.870524666667,-0.2102508544921875,-0.097198486328125,-1.051742553710938,3937.860529666667,0.4253789743836787,-0.1116233488498838,0.0863935685095254,-0.06242845579981804,-0.3093527257442474,-0.6592459082603455,-0.09742828458547592,-0.03152700513601303,-0.007579922676086426,XArbitraryZVertical,0.05390873018688126,-0.04537351421603701,0.2082096640085878,0.9755427842998787,-0.1109762489795685,-0.08628613501787186,-0.9900701642036438,0,0,0,-1,-1,3922.954816041667,unknown,2,2022-06-02T11:07:18.817+02:00,2022-06-02T10:17:13.754+02:00,757,1.530461,0,0,607.4087,0,0,2022-06-02T11:07:31.596+02:00,675853651.596262,0,3.28125,101.3422,1,0.74
2022-06-02T11:07:33.744+02:00,1654160853.000259,53.2290433128372,10.39848793038811,36.83508,0.2687733,0.7115527,131.7370277298109,45.71954500393949,2.400000095367432,7.999579855010836,-9999,3937.880519666667,-0.2146759033203125,-0.0914154052734375,-1.064804077148438,3937.870524666667,0.4189098119558108,-0.1141665609942064,0.08656347730147149,-0.04684243723750114,-0.3127700984477997,-0.6222383379936218,-0.1001156121492386,-0.01689240336418152,-0.04366183280944824,XArbitraryZVertical,0.05410522485641687,-0.04677114251009617,0.204979070121849,0.9761499182707923,-0.1134921684861183,-0.08645541220903397,-0.9897701740264893,0,0,0,-1,-1,3922.954816041667,unknown,2,2022-06-02T11:07:18.817+02:00,2022-06-02T10:17:13.754+02:00,757,1.530461,0,0,607.4087,0,0,2022-06-02T11:07:31.596+02:00,675853651.596262,0,3.28125,101.3422,1,0.74
2022-06-02T11:07:33.760+02:00,1654160853.000259,53.2290433128372,10.39848793038811,36.83508,0.2687733,0.7115527,131.7370277298109,45.71954500393949,2.400000095367432,7.999579855010836,-9999,3937.890513666667,-0.2398681640625,-0.091156005859375,-1.064376831054688,3937.880519666667,0.4126334224675108,-0.1168633876626214,0.08703696627619888,-0.004739993717521429,-0.32757169008255,-0.6348345875740051,-0.09398782998323441,-0.005403853952884674,-0.07150858640670776,XArbitraryZVertical,0.05446138511856302,-0.0482088189451043,0.2018261570448928,0.9767169759719042,-0.116156205534935,-0.08692711591720581,-0.9894197583198547,0,0,0,-1,-1,3922.954816041667,unknown,2,2022-06-02T11:07:18.817+02:00,2022-06-02T10:17:13.754+02:00,757,1.530461,0,0,607.4087,0,0,2022-06-02T11:07:31.596+02:00,675853651.596262,0,3.28125,101.3422,1,0.74
2022-06-02T11:07:33.764+02:00,1654160853.000259,53.2290433128372,10.39848793038811,36.83508,0.2687733,0.7115527,131.7370277298109,45.71954500393949,2.400000095367432,7.999579855010836,-9999,3937.900508666667,-0.246307373046875,-0.0836181640625,-1.047134399414062,3937.890513666667,0.406287271067114,-0.119522164759028,0.08797299866722565,0.04577457904815674,-0.3061529397964478,-0.6412512063980103,-0.1061683744192123,-0.00180111825466156,-0.07762420177459717,XArbitraryZVertical,0.05502916696118589,-0.0495852636401905,0.198622104062436,0.9772729004335077,-0.1187766864895821,-0.08785957098007202,-0.9890261888504028,0,0,0,-1,-1,3922.954816041667,unknown,2,2022-06-02T11:07:18.817+02:00,2022-06-02T10:17:13.754+02:00,757,1.530461,0,0,607.4087,0,0,2022-06-02T11:07:31.596+02:00,675853651.596262,0,3.28125,101.3422,1,0.74
2022-06-02T11:07:33.774+02:00,1654160853.000259,53.2290433128372,10.39848793038811,36.83508,0.2687733,0.7115527,131.7370277298109,45.71954500393949,2.400000095367432,7.999579855010836,-9999,3937.910503666667,-0.235260009765625,-0.0920562744140625,-1.0234375,3937.900508666667,0.4001202683579118,-0.1218212842618287,0.08952678850165297,0.119269035756588,-0.2559171915054321,-0.6182491779327393,-0.1259604841470718,0.002676248550415039,-0.0675385594367981,XArbitraryZVertical,0.05585965850798446,-0.05072280045642335,0.1954913911157883,0.9777985350262399,-0.1210335269570351,-0.08940724283456802,-0.9886137843132019,0,0,0,-1,-1,3922.954816041667,unknown,2,2022-06-02T11:07:18.817+02:00,2022-06-02T10:17:13.754+02:00,757,1.530461,0,0,607.4087,0,0,2022-06-02T11:07:31.596+02:00,675853651.596262,0,3.28125,101.3422,1,0.74
2022-06-02T11:07:33.784+02:00,1654160853.000259,53.2290433128372,10.39848793038811,36.83508,0.2687733,0.7115527,131.7370277298109,45.71954500393949,2.400000095367432,7.999579855010836,-9999,3937.920497666667,-0.2253875732421875,-0.113555908203125,-1.005081176757812,3937.910503666667,0.3943002041162438,-0.1236003320241844,0.09172166518332966,0.1732284128665924,-0.201525866985321,-0.5874351263046265,-0.1180618181824684,0.005152039229869843,-0.04857385158538818,XArbitraryZVertical,0.05695557623637647,-0.05153805383355109,0.1925193870702057,0.9782822747406252,-0.1227676346898079,-0.09159310907125473,-0.988199770450592,0,0,0,-1,-1,3922.954816041667,unknown,2,2022-06-02T11:07:18.817+02:00,2022-06-02T10:17:13.754+02:00,757,1.530461,0,0,607.4087,0,0,2022-06-02T11:07:31.596+02:00,675853651.596262,0,3.28125,101.3422,1,0.74
2022-06-02T11:07:33.794+02:00,1654160853.000259,53.2290433128372,10.39848793038811,36.83508,0.2687733,0.7115527,131.7370277298109,45.71954500393949,2.400000095367432,7.999579855010836,-9999,3937.930492666667,-0.211639404296875,-0.1248321533203125,-0.9861297607421875,3937.920497666667,0.3887920314817264,-0.1249171345100982,0.09428118706392104,0.1981196403503418,-0.1609198451042175,-0.5647369623184204,-0.1053614541888237,-0.007481992244720459,-0.02559578418731689,XArbitraryZVertical,0.05818952681923444,-0.05208904655399993,0.1896971855566169,0.978731652792363,-0.1240391731262207,-0.09414157271385193,-0.9878014326095581,0,0,0,-1,-1,3922.954816041667,unknown,2,2022-06-02T11:07:18.817+02:00,2022-06-02T10:17:13.754+02:00,757,1.530461,0,0,607.4087,0,0,2022-06-02T11:07:31.596+02:00,675853651.596262,0,3.28125,101.3422,1,0.74
2022-06-02T11:07:33.804+02:00,1654160853.000259,53.2290433128372,10.39848793038811,36.83508,0.2687733,0.7115527,131.7370277298109,45.71954500393949,2.400000095367432,7.999579855010836,-9999,3937.940487666667,-0.195556640625,-0.11578369140625,-0.9744415283203125,3937.930492666667,0.3836109263540105,-0.1259252824633149,0.09696948690031043,0.207813024520874,-0.1357377916574478,-0.523814857006073,-0.09637176990509033,-0.02522224187850952,-0.008413136005401611,XArbitraryZVertical,0.05946334093197438,-0.05247380272818519,0.1870366622972147,0.9791464596979166,-0.1250027269124985,-0.09681759029626846,-0.9874212145805359,0,0,0,-1,-1,3922.954816041667,unknown,2,2022-06-02T11:07:18.817+02:00,2022-06-02T10:17:13.754+02:00,757,1.530461,0,0,607.4087,0,0,2022-06-02T11:07:31.596+02:00,675853651.596262,0,3.28125,101.3422,1,0.74
2022-06-02T11:07:33.814+02:00,1654160853.000259,53.2290433128372,10.39848793038811,36.83508,0.2687733,0.7115527,131.7370277298109,45.71954500393949,2.400000095367432,7.999579855010836,-9999,3937.950481666667,-0.1983795166015625,-0.095367431640625,-0.975189208984375,3937.950481666667,0.3745037128142851,-0.1272169563764343,0.1023363602172174,0.2265924960374832,-0.07355284690856934,-0.4492179453372955,-0.06820191442966461,-0.007797040045261383,0.01451557874679565,XArbitraryZVertical,0.06196802627177218,-0.05287066477439351,0.1823455781883146,0.9798544619433213,-0.1262103021144867,-0.1021578311920166,-0.9867293238639832,0,0,0,-1,-1,3922.954816041667,unknown,2,2022-06-02T11:07:18.817+02:00,2022-06-02T10:17:13.754+02:00,757,1.530461,0,0,607.4087,0,0,2022-06-02T11:07:31.596+02:00,675853651.596262,0,3.28125,101.3422,1,0.74
2022-06-02T11:07:33.824+02:00,1654160853.000259,53.2290433128372,10.39848793038811,36.83508,0.2687733,0.7115527,131.7370277298109,45.71954500393949,2.400000095367432,7.999579855010836,-9999,3937.960476666667,-0.203948974609375,-0.0710601806640625,-0.9775238037109375,3937.950481666667,0.3745037128142851,-0.1272169563764343,0.1023363602172174,0.2265924960374832,-0.07355284690856934,-0.4492179453372955,-0.06820191442966461,-0.007797040045261383,0.01451557874679565,XArbitraryZVertical,0.06196802627177218,-0.05287066477439351,0.1823455781883146,0.9798544619433213,-0.1262103021144867,-0.1021578311920166,-0.9867293238639832,0,0,0,-1,-1,3922.954816041667,unknown,2,2022-06-02T11:07:18.817+02:00,2022-06-02T10:17:13.754+02:00,757,1.530461,0,0,607.4087,0,0,2022-06-02T11:07:31.596+02:00,675853651.596262,0,3.28125,101.3422,1,0.74
2022-06-02T11:07:33.834+02:00,1654160853.000259,53.2290433128372,10.39848793038811,36.83508,0.2687733,0.7115527,131.7370277298109,45.71954500393949,2.400000095367432,7.999579855010836,-9999,3937.970471666667,-0.187774658203125,-0.095550537109375,-0.9823150634765625,3937.960476666667,0.3703092142231078,-0.1273305139010546,0.1051621472137292,0.22548808157444,-0.03575380519032478,-0.4512680470943451,-0.07735858857631683,0.02763684093952179,0.008031129837036133,XArbitraryZVertical,0.06325045312601978,-0.05279235105653081,0.1801849741164528,0.9801763650515815,-0.126285195350647,-0.1049684211611748,-0.9864246845245361,0,0,0,-1,-1,3922.954816041667,unknown,2,2022-06-02T11:07:18.817+02:00,2022-06-02T10:17:13.754+02:00,757,1.530461,0,0,607.4087,0,0,2022-06-02T11:07:31.596+02:00,675853651.596262,0,3.28125,101.3422,1,0.74
2022-06-02T11:07:33.847+02:00,1654160853.000259,53.2290433128372,10.39848793038811,36.83508,0.2687733,0.7115527,131.7370277298109,45.71954500393949,2.400000095367432,7.999579855010836,-9999,3937.980465666667,-0.179595947265625,-0.09759521484375,-0.9844970703125,3937.970471666667,0.3661515298032769,-0.1272995944704863,0.1078483307347349,0.2046231180429459,-0.03588170185685158,-0.4418148100376129,-0.07242046296596527,0.02605059742927551,0.008819937705993652,XArbitraryZVertical,0.06445309453328264,-0.05266042023150402,0.1780510645240807,0.9804949805552389,-0.1262184381484985,-0.1076393872499466,-0.9861453771591187,0,0,0,-1,-1,3922.954816041667,unknown,2,2022-06-02T11:07:18.817+02:00,2022-06-02T10:17:13.754+02:00,757,1.530461,0,0,607.4087,0,0,2022-06-02T11:07:31.596+02:00,675853651.596262,0,3.28125,101.3422,1,0.74
2022-06-02T11:07:33.854+02:00,1654160853.000259,53.2290433128372,10.39848793038811,36.83508,0.2687733,0.7115527,131.7370277298109,45.71954500393949,2.400000095367432,7.999579855010836,-9999,3937.990460666667,-0.17559814453125,-0.0970306396484375,-0.9857330322265625,3937.980465666667,0.3619931509213384,-0.1271455576427444,0.110381401222417,0.1957814246416092,-0.0192814189940691,-0.4426768720149994,-0.05600579082965851,0.009373053908348083,0.0004633069038391113,XArbitraryZVertical,0.06557059571371623,-0.05248726530926435,0.1759255597754467,0.9808138127723501,-0.1260315626859665,-0.110157385468483,-0.9858911633491516,0,0,0,-1,-1,3922.954816041667,unknown,2,2022-06-02T11:07:18.817+02:00,2022-06-02T10:17:13.754+02:00,757,1.530461,0,0,607.4087,0,0,2022-06-02T11:07:31.596+02:00,675853651.596262,0,3.28125,101.3422,1,0.74
2022-06-02T11:07:33.864+02:00,1654160853.000259,53.2290433128372,10.39848793038811,36.83508,0.2687733,0.7115527,131.7370277298109,45.71954500393949,2.400000095367432,7.999579855010836,-9999,3938.000455666667,-0.1587677001953125,-0.10943603515625,-0.9913330078125,3937.990460666667,0.3579459626572003,-0.1267808749773645,0.1128642894919143,0.195889338850975,0.01338105276226997,-0.4175050854682922,-0.05240249633789062,0.01846280694007874,0.001135110855102539,XArbitraryZVertical,0.06664901200016479,-0.05221640724023299,0.1738627949550178,0.9811233634090093,-0.1256370395421982,-0.1126248240470886,-0.9856626987457275,0,0,0,-1,-1,3922.954816041667,unknown,2,2022-06-02T11:07:18.817+02:00,2022-06-02T10:17:13.754+02:00,757,1.530461,0,0,607.4087,0,0,2022-06-02T11:07:31.596+02:00,675853651.596262,0,3.28125,101.3422,1,0.74
2022-06-02T11:07:33.874+02:00,1654160853.000259,53.2290433128372,10.39848793038811,36.83508,0.2687733,0.7115527,131.7370277298109,45.71954500393949,2.400000095367432,7.999579855010836,-9999,3938.010449666667,-0.14599609375,-0.129486083984375,-0.999969482421875,3938.000455666667,0.354242447704078,-0.1260922450343871,0.1152617083614261,0.1854148656129837,0.0439075380563736,-0.3729954063892365,-0.0439298078417778,0.01353569328784943,-0.001643240451812744,XArbitraryZVertical,0.06766790601829183,-0.05178712422497898,0.1719823707506684,0.981407707101312,-0.124923937022686,-0.1150066629052162,-0.9854782819747925,0,0,0,-1,-1,3922.954816041667,unknown,2,2022-06-02T11:07:18.817+02:00,2022-06-02T10:17:13.754+02:00,757,1.530461,0,0,607.4087,0,0,2022-06-02T11:07:31.596+02:00,675853651.596262,0,3.28125,101.3422,1,0.74
2022-06-02T11:07:33.884+02:00,1654160853.000259,53.2290433128372,10.39848793038811,36.83508,0.2687733,0.7115527,131.7370277298109,45.71954500393949,2.400000095367432,7.999579855010836,-9999,3938.020444666667,-0.1546783447265625,-0.1261749267578125,-1.007278442382812,3938.010449666667,0.350923688081975,-0.1252920329537747,0.1174532449984961,0.1696260571479797,0.04341565072536469,-0.3382944464683533,-0.02585986256599426,-0.002430297434329987,-0.01063090562820435,XArbitraryZVertical,0.06858802084275191,-0.05131204414309132,0.1703020959578382,0.9816617910489845,-0.1241035163402557,-0.1171833798289299,-0.9853255152702332,0,0,0,-1,-1,3922.954816041667,unknown,2,2022-06-02T11:07:18.817+02:00,2022-06-02T10:17:13.754+02:00,757,1.530461,0,0,607.4087,0,0,2022-06-02T11:07:31.596+02:00,675853651.596262,0,3.28125,101.3422,1,0.74
2022-06-02T11:07:33.894+02:00,1654160853.000259,53.2290433128372,10.39848793038811,36.83508,0.2687733,0.7115527,131.7370277298109,45.71954500393949,2.400000095367432,7.999579855010836,-9999,3938.030439666667,-0.1553955078125,-0.121612548828125,-1.008529663085938,3938.020444666667,0.347901124336353,-0.1244812152285988,0.1194551806274454,0.1550460457801819,0.0534893237054348,-0.30551677942276,-0.02510126680135727,-0.01205433160066605,-0.01982903480529785,XArbitraryZVertical,0.06942353785914769,-0.0508413250937608,0.1687746442166664,0.9818913403380556,-0.1232751831412315,-0.1191712915897369,-0.9851910471916199,0,0,0,-1,-1,3922.954816041667,unknown,2,2022-06-02T11:07:18.817+02:00,2022-06-02T10:17:13.754+02:00,757,1.530461,0,0,607.4087,0,0,2022-06-02T11:07:31.596+02:00,675853651.596262,0,3.28125,101.3422,1,0.74
2022-06-02T11:07:33.904+02:00,1654160853.000259,53.2290433128372,10.39848793038811,36.83508,0.2687733,0.7115527,131.7370277298109,45.71954500393949,2.400000095367432,7.999579855010836,-9999,3938.040433666667,-0.1595306396484375,-0.136199951171875,-0.99407958984375,3938.030439666667,0.3452766700376455,-0.1236661475911129,0.121321778032057,0.1551809906959534,0.04795194417238235,-0.2633177936077118,-0.0354381799697876,-0.002098828554153442,-0.02365922927856445,XArbitraryZVertical,0.07020390876452123,-0.05036898640786897,0.1674479443645477,0.9820873500596015,-0.1224444881081581,-0.121024377644062,-0.9850687384605408,0,0,0,-1,-1,3922.954816041667,unknown,2,2022-06-02T11:07:18.817+02:00,2022-06-02T10:17:13.754+02:00,757,1.530461,0,0,607.4087,0,0,2022-06-02T11:07:31.596+02:00,675853651.596262,0,3.28125,101.3422,1,0.74
2022-06-02T11:07:33.914+02:00,1654160853.000259,53.2290433128372,10.39848793038811,36.83508,0.2687733,0.7115527,131.7370277298109,45.71954500393949,2.400000095367432,7.999579855010836,-9999,3938.050428666667,-0.168304443359375,-0.136474609375,-0.977996826171875,3938.040433666667,0.3428252048431552,-0.1229724992708058,0.123155320788302,0.1538709998130798,0.03680421784520149,-0.2648555040359497,-0.03271570801734924,-0.002888217568397522,-0.0181354284286499,XArbitraryZVertical,0.07098381231973946,-0.04995513245587167,0.1662034189638978,0.9822638355791262,-0.1217337474226952,-0.1228442341089249,-0.9849315881729126,0,0,0,-1,-1,3922.954816041667,unknown,2,2022-06-02T11:07:18.817+02:00,2022-06-02T10:17:13.754+02:00,757,1.530461,0,0,607.4087,0,0,2022-06-02T11:07:31.596+02:00,675853651.596262,0,3.28125,101.3422,1,0.74
2022-06-02T11:07:33.924+02:00,1654160853.000259,53.2290433128372,10.39848793038811,36.83508,0.2687733,0.7115527,131.7370277298109,45.71954500393949,2.400000095367432,7.999579855010836,-9999,3938.060423666667,-0.1822357177734375,-0.1339263916015625,-0.9562835693359375,3938.050428666667,0.3403928319480936,-0.1223516989647639,0.1250577071969753,0.1600856781005859,0.03971785306930542,-0.2578312754631042,-0.04365560412406921,-0.01657968759536743,1.674890518188477e-05,XArbitraryZVertical,0.07180506518615856,-0.04957241209751291,0.1649635077953677,0.982432560551378,-0.1210935339331627,-0.1247319877147675,-0.9847732186317444,0,0,0,-1,-1,3922.954816041667,unknown,2,2022-06-02T11:07:18.817+02:00,2022-06-02T10:17:13.754+02:00,757,1.530461,0,0,607.4087,0,0,2022-06-02T11:07:31.596+02:00,675853651.596262,0,3.28125,101.3422,1,0.74
2022-06-02T11:07:33.934+02:00,1654160853.000259,53.2290433128372,10.39848793038811,36.83508,0.2687733,0.7115527,131.7370277298109,45.71954500393949,2.400000095367432,7.999579855010836,-9999,3938.070417666667,-0.1784515380859375,-0.1373443603515625,-0.9438934326171875,3938.060423666667,0.3380478885623902,-0.1215502257746512,0.126959427547871,0.168317511677742,0.068731389939785,-0.245649978518486,-0.05636048316955566,-0.00378301739692688,0.01917862892150879,XArbitraryZVertical,0.07261435880163782,-0.0490998646044034,0.1637733973416174,0.9825958520709153,-0.1202752441167831,-0.1266186386346817,-0.9846327304840088,0,0,0,-1,-1,3922.954816041667,unknown,2,2022-06-02T11:07:18.817+02:00,2022-06-02T10:17:13.754+02:00,757,1.530461,0,0,607.4087,0,0,2022-06-02T11:07:31.596+02:00,675853651.596262,0,3.28125,101.3422,1,0.74
2022-06-02T11:07:33.944+02:00,1654160853.000259,53.2290433128372,10.39848793038811,36.83508,0.2687733,0.7115527,131.7370277298109,45.71954500393949,2.400000095367432,7.999579855010836,-9999,3938.080412666667,-0.1836090087890625,-0.136260986328125,-0.937347412109375,3938.070417666667,0.3358235832356749,-0.1205022124297362,0.1289877420538816,0.1811315268278122,0.08864378929138184,-0.2476081401109695,-0.06354235112667084,-0.01059086620807648,0.03453481197357178,XArbitraryZVertical,0.07346984178457902,-0.04849291928722229,0.1626476049485216,0.982749321488537,-0.1192121580243111,-0.1286303550004959,-0.9845012426376343,0,0,0,-1,-1,3922.954816041667,unknown,2,2022-06-02T11:07:18.817+02:00,2022-06-02T10:17:13.754+02:00,757,1.530461,0,0,607.4087,0,0,2022-06-02T11:07:31.596+02:00,675853651.596262,0,3.28125,101.3422,1,0.74
2022-06-02T11:07:33.954+02:00,1654160853.000259,53.2290433128372,10.39848793038811,36.83508,0.2687733,0.7115527,131.7370277298109,45.71954500393949,2.400000095367432,7.999579855010836,-9999,3938.090407666667,-0.1747589111328125,-0.153228759765625,-0.9457244873046875,3938.080412666667,0.3334600337835653,-0.1192028401266574,0.1310699494049532,0.1686783283948898,0.1178256422281265,-0.2638510167598724,-0.06195462495088577,-0.003124624490737915,0.04497987031936646,XArbitraryZVertical,0.07432955722938728,-0.04776501363892693,0.1614615264203793,0.9829159404630439,-0.1179007142782211,-0.1306949853897095,-0.984387218952179,0,0,0,-1,-1,3922.954816041667,unknown,2,2022-06-02T11:07:18.817+02:00,2022-06-02T10:17:13.754+02:00,757,1.530461,0,0,607.4087,0,0,2022-06-02T11:07:31.596+02:00,675853651.596262,0,3.28125,101.3422,1,0.74
2022-06-02T11:07:33.964+02:00,1654160853.000259,53.2290433128372,10.39848793038811,36.83508,0.2687733,0.7115527,131.7370277298109,45.71954500393949,2.400000095367432,7.999579855010836,-9999,3938.100401666667,-0.1592559814453125,-0.1641082763671875,-0.9544525146484375,3938.090407666667,0.3310815753572553,-0.1176660952772433,0.1328457589106836,0.1261302083730698,0.1285003870725632,-0.2481652647256851,-0.06549384444952011,-0.01253369450569153,0.04422599077224731,XArbitraryZVertical,0.07502130175585744,-0.04694883118324249,0.1602885176174201,0.9830946254676753,-0.1163603961467743,-0.1324553638696671,-0.9843352437019348,0,0,0,-1,-1,3922.954816041667,unknown,2,2022-06-02T11:07:18.817+02:00,2022-06-02T10:17:13.754+02:00,757,1.530461,0,0,607.4087,0,0,2022-06-02T11:07:31.596+02:00,675853651.596262,0,3.28125,101.3422,1,0.74
2022-06-02T11:07:33.974+02:00,1654160853.000259,53.2290433128372,10.39848793038811,36.83508,0.2687733,0.7115527,131.7370277298109,45.71954500393949,2.400000095367432,7.999579855010836,-9999,3938.110396666667,-0.139678955078125,-0.1451416015625,-0.9718170166015625,3938.100401666667,0.3286867116163205,-0.1161405826478579,0.1341186218638699,0.07898107171058655,0.1273017078638077,-0.2301002442836761,-0.05717331171035767,-0.02906389534473419,0.03645211458206177,XArbitraryZVertical,0.07546863862383528,-0.04618246140966337,0.1591250478976886,0.983285743252672,-0.1148390099406242,-0.1337168961763382,-0.9843433499336243,0,0,0,-1,-1,3922.954816041667,unknown,2,2022-06-02T11:07:18.817+02:00,2022-06-02T10:17:13.754+02:00,757,1.530461,0,0,607.4087,0,0,2022-06-02T11:07:31.596+02:00,675853651.596262,0,3.28125,101.3422,1,0.74
2022-06-02T11:07:33.984+02:00,1654160853.000259,53.2290433128372,10.39848793038811,36.83508,0.2687733,0.7115527,131.7370277298109,45.71954500393949,2.400000095367432,7.999579855010836,-9999,3938.120391666667,-0.1441650390625,-0.1555633544921875,-0.9829864501953125,3938.110396666667,0.3267236188760658,-0.1147295363816779,0.1349564650564958,0.05074849724769592,0.1163467839360237,-0.1941220015287399,-0.02779826521873474,-0.01189146935939789,0.02295172214508057,XArbitraryZVertical,0.07572313692488893,-0.04549320426227012,0.1581847885347354,0.9834499988165516,-0.1134370788931847,-0.1345471739768982,-0.9843927621841431,0,0,0,-1,-1,3922.954816041667,unknown,2,2022-06-02T11:07:18.817+02:00,2022-06-02T10:17:13.754+02:00,757,1.530461,0,0,607.4087,0,0,2022-06-02T11:07:31.596+02:00,675853651.596262,0,3.28125,101.3422,1,0.74
2022-06-02T11:07:33.994+02:00,1654160853.000259,53.2290433128372,10.39848793038811,36.83508,0.2687733,0.7115527,131.7370277298109,45.71954500393949,2.400000095367432,7.999579855010836,-9999,3938.130385666667,-0.1432952880859375,-0.149993896484375,-0.9903717041015625,3938.120391666667,0.3249638610261392,-0.1134273894452295,0.1355548436872433,0.02757154032588005,0.1043013036251068,-0.1651119142770767,-0.0321410745382309,-0.01944674551486969,0.003639757633209229,XArbitraryZVertical,0.0758745480746453,-0.04487007298687301,0.1573486844869471,0.9836011107329223,-0.1121460273861885,-0.1351400911808014,-0.9844594597816467,0,0,0,-1,-1,3922.954816041667,unknown,2,2022-06-02T11:07:18.817+02:00,2022-06-02T10:17:13.754+02:00,757,1.530461,0,0,607.4087,0,0,2022-06-02T11:07:31.596+02:00,675853651.596262,0,3.28125,101.3422,1,0.74
2022-06-02T11:07:34.004+02:00,1654160853.000259,53.2290433128372,10.39848793038811,36.83508,0.2687733,0.7115527,131.7370277298109,45.71954500393949,2.400000095367432,7.999579855010836,-9999,3938.140380666667,-0.1373443603515625,-0.1490020751953125,-1.004119873046875,3938.130385666667,0.3235358639467277,-0.1122286967640329,0.1360214352155559,0.0347282849252224,0.1012299507856369,-0.1316091567277908,-0.03294681757688522,-0.01549018919467926,-0.001568794250488281,XArbitraryZVertical,0.07597780687790405,-0.04429633693102342,0.1566763527272954,0.9837264676145687,-0.1109588071703911,-0.1356023848056793,-0.9845303893089294,0,0,0,-1,-1,3922.954816041667,unknown,2,2022-06-02T11:07:18.817+02:00,2022-06-02T10:17:13.754+02:00,757,1.530461,0,0,607.4087,0,0,2022-06-02T11:07:31.596+02:00,675853651.596262,0,3.28125,101.3422,1,0.74
2022-06-02T11:07:34.014+02:00,1654160853.000259,53.2290433128372,10.39848793038811,36.83508,0.2687733,0.7115527,131.7370277298109,45.71954500393949,2.400000095367432,7.999579855010836,-9999,3938.150375666667,-0.147491455078125,-0.139892578125,-1.009368896484375,3938.140380666667,0.3223813442550492,-0.1111891304275418,0.1365169299328412,0.04065275564789772,0.08286665380001068,-0.1070068776607513,-0.03138384222984314,-0.01626574993133545,-0.01191210746765137,XArbitraryZVertical,0.07611450970800941,-0.04378827726755439,0.1561316557518786,0.98382526872049,-0.1099277958273888,-0.1360932886600494,-0.9845783114433289,0,0,0,-1,-1,3922.954816041667,unknown,2,2022-06-02T11:07:18.817+02:00,2022-06-02T10:17:13.754+02:00,757,1.530461,0,0,607.4087,0,0,2022-06-02T11:07:31.596+02:00,675853651.596262,0,3.28125,101.3422,1,0.74
2022-06-02T11:07:34.024+02:00,1654160853.000259,53.2290433128372,10.39848793038811,36.83508,0.2687733,0.7115527,131.7370277298109,45.71954500393949,2.400000095367432,7.999579855010836,-9999,3938.160369666667,-0.158233642578125,-0.156982421875,-1.00006103515625,3938.150375666667,0.3215001228300324,-0.1102900824840313,0.1370639924557611,0.04852252826094627,0.08242350071668625,-0.08069271594285965,-0.03011053055524826,-0.00623282790184021,-0.02337771654129028,XArbitraryZVertical,0.07629402337082994,-0.04333489506322551,0.1557145336485327,0.983897394995472,-0.1090343594551086,-0.1366352289915085,-0.9846026301383972,0,0,0,-1,-1,3922.954816041667,unknown,2,2022-06-02T11:07:18.817+02:00,2022-06-02T10:17:13.754+02:00,757,1.530461,0,0,607.4087,0,0,2022-06-02T11:07:31.596+02:00,675853651.596262,0,3.28125,101.3422,1,0.74
2022-06-02T11:07:34.034+02:00,1654160853.000259,53.2290433128372,10.39848793038811,36.83508,0.2687733,0.7115527,131.7370277298109,45.71954500393949,2.400000095367432,7.999579855010836,-9999,3938.170364666667,-0.1758575439453125,-0.153594970703125,-0.9885101318359375,3938.160369666667,0.3208109262997588,-0.1094628311117243,0.1376188722856147,0.05241553857922554,0.06940144300460815,-0.07267872989177704,-0.04631423950195312,-0.009528398513793945,-0.02081513404846191,XArbitraryZVertical,0.0764874662074061,-0.04290902177289074,0.1553890250198801,0.9839525356977015,-0.1082115098834038,-0.1371848881244659,-0.9846169948577881,0,0,0,-1,-1,3922.954816041667,unknown,2,2022-06-02T11:07:18.817+02:00,2022-06-02T10:17:13.754+02:00,757,1.530461,0,0,607.4087,0,0,2022-06-02T11:07:31.596+02:00,675853651.596262,0,3.28125,101.3422,1,0.74
2022-06-02T11:07:34.044+02:00,1654160853.000259,53.2290433128372,10.39848793038811,36.83508,0.2687733,0.7115527,131.7370277298109,45.71954500393949,2.400000095367432,7.999579855010836,-9999,3938.180359666667,-0.19586181640625,-0.1433563232421875,-0.9763946533203125,3938.170364666667,0.3207251192552604,-0.1127565413515394,0.1390188648145798,0.07030505686998367,0.08386427164077759,-0.07221667468547821,-0.05304223299026489,-0.02086760103702545,-0.01042813062667847,XArbitraryZVertical,0.07742918776200505,-0.0444186637980039,0.1551740824836588,0.9838458021117393,-0.1114322394132614,-0.1385715156793594,-0.9840633869171143,0,0,0,-1,-1,3922.954816041667,unknown,2,2022-06-02T11:07:18.817+02:00,2022-06-02T10:17:13.754+02:00,757,1.530461,0,0,607.4087,0,0,2022-06-02T11:07:31.596+02:00,675853651.596262,0,3.28125,101.3422,1,0.74
2022-06-02T11:07:34.054+02:00,1654160853.000259,53.2290433128372,10.39848793038811,36.83508,0.2687733,0.7115527,131.7370277298109,45.71954500393949,2.400000095367432,7.999579855010836,-9999,3938.190353666667,-0.1994781494140625,-0.132720947265625,-0.96923828125,3938.180359666667,0.3205924232217218,-0.1152108567718813,0.1416069397892322,0.1131441295146942,0.1059871539473534,-0.07371176779270172,-0.07357242703437805,-0.004709377884864807,0.00243985652923584,XArbitraryZVertical,0.0788878836350381,-0.04542026614116364,0.1549258546274941,0.9837232995906844,-0.1138054952025414,-0.1411341577768326,-0.9834274053573608,0,0,0,-1,-1,3922.954816041667,unknown,2,2022-06-02T11:07:18.817+02:00,2022-06-02T10:17:13.754+02:00,757,1.530461,0,0,607.4087,0,0,2022-06-02T11:07:31.596+02:00,675853651.596262,0,3.28125,101.3422,1,0.74
2022-06-02T11:07:34.064+02:00,1654160853.000259,53.2290433128372,10.39848793038811,36.83508,0.2687733,0.7115527,131.7370277298109,45.71954500393949,2.400000095367432,7.999579855010836,-9999,3938.200348666667,-0.2002105712890625,-0.1383056640625,-0.9654541015625,3938.190353666667,0.3201970335588082,-0.1156131363910161,0.1435834882750648,0.1644662767648697,0.1446966677904129,-0.09159669280052185,-0.08440917730331421,0.005441084504127502,0.009622335433959961,XArbitraryZVertical,0.0798809019377681,-0.04547283219637695,0.1546480703549662,0.9836844990009178,-0.1141686961054802,-0.1430906355381012,-0.9831025004386902,0,0,0,-1,-1,3922.954816041667,unknown,2,2022-06-02T11:07:18.817+02:00,2022-06-02T10:17:13.754+02:00,757,1.530461,0,0,607.4087,0,0,2022-06-02T11:07:31.596+02:00,675853651.596262,0,3.28125,101.3422,1,0.74
2022-06-02T11:07:34.074+02:00,1654160853.000259,53.2290433128372,10.39848793038811,36.83508,0.2687733,0.7115527,131.7370277298109,45.71954500393949,2.400000095367432,7.999579855010836,-9999,3938.210343666667,-0.18756103515625,-0.1517486572265625,-0.9762420654296875,3938.200348666667,0.3196880475403511,-0.1155739570933158,0.1462910807425544,0.208956241607666,0.1997556537389755,-0.1068089380860329,-0.08780394494533539,0.01211807131767273,0.01830202341079712,XArbitraryZVertical,0.08119620237396405,-0.04525374756373186,0.1543067191471242,0.9836405577476175,-0.1140850856900215,-0.1457698345184326,-0.9827185273170471,0,0,0,-1,-1,3922.954816041667,unknown,2,2022-06-02T11:07:18.817+02:00,2022-06-02T10:17:13.754+02:00,757,1.530461,0,0,607.4087,0,0,2022-06-02T11:07:31.596+02:00,675853651.596262,0,3.28125,101.3422,1,0.74
2022-06-02T11:07:34.083+02:00,1654160854.000256,53.22904238157639,10.3984917625138,36.83326,0.1479272,0.6770604,128.4640967021892,43.77953842308307,2.400000095367432,7.999579855010836,-9999,3938.220337666667,-0.171722412109375,-0.1549224853515625,-0.987884521484375,3938.210343666667,0.3190675817684976,-0.1149676928195604,0.1487469990905437,0.211456686258316,0.2242900282144547,-0.1124324724078178,-0.0814221203327179,0.00411030650138855,0.01287025213241577,XArbitraryZVertical,0.08234171994876932,-0.0447813934265248,0.153942341883113,0.9836240345881112,-0.113447867333889,-0.1481990814208984,-0.9824289083480835,0,0,0,-1,-1,3922.954816041667,unknown,2,2022-06-02T11:07:18.817+02:00,2022-06-02T10:17:13.754+02:00,757,1.530461,0,0,607.4087,0,0,2022-06-02T11:07:31.596+02:00,675853651.596262,0,3.28125,101.3422,1,0.74
2022-06-02T11:07:34.093+02:00,1654160854.000256,53.22904238157639,10.3984917625138,36.83326,0.1479272,0.6770604,128.4640967021892,43.77953842308307,2.400000095367432,7.999579855010836,-9999,3938.230332666667,-0.1627197265625,-0.147705078125,-0.9972991943359375,3938.220337666667,0.3183691285358802,-0.1139363290411824,0.1509159329126203,0.1892547160387039,0.2333154827356339,-0.1146575435996056,-0.06587067246437073,-0.00586053729057312,0.0005037784576416016,XArbitraryZVertical,0.08331214797700817,-0.044127171463875,0.1535676227623256,0.9836304264001287,-0.1123977527022362,-0.1503437161445618,-0.9822237491607666,0,0,0,-1,-1,3922.954816041667,unknown,2,2022-06-02T11:07:18.817+02:00,2022-06-02T10:17:13.754+02:00,757,1.530461,0,0,607.4087,0,0,2022-06-02T11:07:31.596+02:00,675853651.596262,0,3.28125,101.3422,1,0.74
2022-06-02T11:07:34.103+02:00,1654160854.000256,53.22904238157639,10.3984917625138,36.83326,0.1479272,0.6770604,128.4640967021892,43.77953842308307,2.400000095367432,7.999579855010836,-9999,3938.240327666667,-0.1578521728515625,-0.1361846923828125,-1.000747680664062,3938.230332666667,0.3176144454181017,-0.1126389874662285,0.1520481767801053,0.167661264538765,0.24259153008461,-0.1162495836615562,-0.05478935688734055,-0.0009112805128097534,-0.01156014204025269,XArbitraryZVertical,0.08375223272439915,-0.04342899720050773,0.1532123109609546,0.9836795047701348,-0.1111041754484177,-0.1514630019664764,-0.98219895362854,0,0,0,-1,-1,3922.954816041667,unknown,2,2022-06-02T11:07:18.817+02:00,2022-06-02T10:17:13.754+02:00,757,1.530461,0,0,607.4087,0,0,2022-06-02T11:07:31.596+02:00,675853651.596262,0,3.28125,101.3422,1,0.74
2022-06-02T11:07:34.113+02:00,1654160854.000256,53.22904238157639,10.3984917625138,36.83326,0.1479272,0.6770604,128.4640967021892,43.77953842308307,2.400000095367432,7.999579855010836,-9999,3938.250321666667,-0.1493072509765625,-0.1397705078125,-1.006378173828125,3938.240327666667,0.3168446399706421,-0.112047078032771,0.1531252558951928,0.1295791268348694,0.2453423142433167,-0.1270654797554016,-0.04972804337739944,0.01164315640926361,-0.0161890983581543,XArbitraryZVertical,0.08421933458133013,-0.04308323756252849,0.1528223049931333,0.9837154404727081,-0.1105044782161713,-0.1525275558233261,-0.9821018576622009,0,0,0,-1,-1,3922.954816041667,unknown,2,2022-06-02T11:07:18.817+02:00,2022-06-02T10:17:13.754+02:00,757,1.530461,0,0,607.4087,0,0,2022-06-02T11:07:31.596+02:00,675853651.596262,0,3.28125,101.3422,1,0.74
2022-06-02T11:07:34.123+02:00,1654160854.000256,53.22904238157639,10.3984917625138,36.83326,0.1479272,0.6770604,128.4640967021892,43.77953842308307,2.400000095367432,7.999579855010836,-9999,3938.260316666667,-0.1587982177734375,-0.141937255859375,-1.01470947265625,3938.250321666667,0.3161072238861696,-0.1120043066622496,0.1547080887604671,0.09378384798765182,0.2418160289525986,-0.1279416531324387,-0.0422898605465889,0.01670151948928833,-0.02101844549179077,XArbitraryZVertical,0.08497765209237403,-0.04296588033156926,0.1524081965308141,0.9837197286454371,-0.110435351729393,-0.1540916860103607,-0.9818654656410217,0,0,0,-1,-1,3922.954816041667,unknown,2,2022-06-02T11:07:18.817+02:00,2022-06-02T10:17:13.754+02:00,757,1.530461,0,0,607.4087,0,0,2022-06-02T11:07:31.596+02:00,675853651.596262,0,3.28125,101.3422,1,0.74
2022-06-02T11:07:34.133+02:00,1654160854.000256,53.22904238157639,10.3984917625138,36.83326,0.1479272,0.6770604,128.4640967021892,43.77953842308307,2.400000095367432,7.999579855010836,-9999,3938.270311666667,-0.1608734130859375,-0.151947021484375,-1.012527465820312,3938.260316666667,0.3152930673509257,-0.112500325906275,0.1552048838447052,0.06063734740018845,0.2419377267360687,-0.1472642123699188,-0.04081963747739792,0.01482725143432617,-0.02873313426971436,XArbitraryZVertical,0.08524188587294304,-0.04320457092124885,0.1519699066426971,0.9837541201246655,-0.1109137535095215,-0.1545825302600861,-0.9817343950271606,0,0,0,-1,-1,3922.954816041667,unknown,2,2022-06-02T11:07:18.817+02:00,2022-06-02T10:17:13.754+02:00,757,1.530461,0,0,607.4087,0,0,2022-06-02T11:07:31.596+02:00,675853651.596262,0,3.28125,101.3422,1,0.74
2022-06-02T11:07:34.143+02:00,1654160854.000256,53.22904238157639,10.3984917625138,36.83326,0.1479272,0.6770604,128.4640967021892,43.77953842308307,2.400000095367432,7.999579855010836,-9999,3938.280305666667,-0.151397705078125,-0.1426849365234375,-1.008224487304688,3938.270311666667,0.3143145046781047,-0.1124698852275831,0.1551213501298506,0.02509932778775692,0.2429031282663345,-0.1357899904251099,-0.05198698490858078,0.00636763870716095,-0.03312671184539795,XArbitraryZVertical,0.08517739777795436,-0.04323798579121653,0.1514926725572835,0.9838318257011957,-0.110885314643383,-0.1544999927282333,-0.9817505478858948,0,0,0,-1,-1,3922.954816041667,unknown,2,2022-06-02T11:07:18.817+02:00,2022-06-02T10:17:13.754+02:00,757,1.530461,0,0,607.4087,0,0,2022-06-02T11:07:31.596+02:00,675853651.596262,0,3.28125,101.3422,1,0.74
2022-06-02T11:07:34.153+02:00,1654160854.000256,53.22904238157639,10.3984917625138,36.83326,0.1479272,0.6770604,128.4640967021892,43.77953842308307,2.400000095367432,7.999579855010836,-9999,3938.290300666667,-0.1551055908203125,-0.1426544189453125,-0.992828369140625,3938.280305666667,0.3132730562085106,-0.1121871054753344,0.154771611039089,0.00194766977801919,0.2421853989362717,-0.1531359553337097,-0.04496486485004425,0.004053711891174316,-0.03063088655471802,XArbitraryZVertical,0.08496170143198546,-0.04317112233865857,0.151004147683099,0.983928514780628,-0.1106137335300446,-0.1541544497013092,-0.9818355441093445,0,0,0,-1,-1,3922.954816041667,unknown,2,2022-06-02T11:07:18.817+02:00,2022-06-02T10:17:13.754+02:00,757,1.530461,0,0,607.4087,0,0,2022-06-02T11:07:31.596+02:00,675853651.596262,0,3.28125,101.3422,1,0.74
2022-06-02T11:07:34.164+02:00,1654160854.000256,53.22904238157639,10.3984917625138,36.83326,0.1479272,0.6770604,128.4640967021892,43.77953842308307,2.400000095367432,7.999579855010836,-9999,3938.300295666667,-0.150726318359375,-0.15460205078125,-0.981597900390625,3938.290300666667,0.3119610837013578,-0.1115469542497678,0.1546448233243585,-0.02375050261616707,0.240679919719696,-0.1613059937953949,-0.04287517815828323,0.01567769050598145,-0.01815074682235718,XArbitraryZVertical,0.08482292367418476,-0.04292195253312787,0.1503900730730164,0.984045555344131,-0.1099873632192612,-0.1540291756391525,-0.9819255471229553,0,0,0,-1,-1,3922.954816041667,unknown,2,2022-06-02T11:07:18.817+02:00,2022-06-02T10:17:13.754+02:00,757,1.530461,0,0,607.4087,0,0,2022-06-02T11:07:34.156+02:00,675853654.1559486,0,3.542969,101.3401,1,0.74
2022-06-02T11:07:34.173+02:00,1654160854.000256,53.22904238157639,10.3984917625138,36.83326,0.1479272,0.6770604,128.4640967021892,43.77953842308307,2.400000095367432,7.999579855010836,-9999,3938.310289666667,-0.152374267578125,-0.1546173095703125,-0.97430419921875,3938.300295666667,0.3105134004342664,-0.1105440825256968,0.1547546599204727,-0.03772876784205437,0.2401227802038193,-0.1725437343120575,-0.04517409205436707,0.005120337009429932,-0.005606591701507568,XArbitraryZVertical,0.08477075603338659,-0.04248116044092003,0.1497166109824437,0.9841717496170045,-0.1090006977319717,-0.1541377007961273,-0.9820185303688049,0,0,0,-1,-1,3922.954816041667,unknown,2,2022-06-02T11:07:18.817+02:00,2022-06-02T10:17:13.754+02:00,757,1.530461,0,0,607.4087,0,0,2022-06-02T11:07:34.156+02:00,675853654.1559486,0,3.542969,101.3401,1,0.74
2022-06-02T11:07:34.184+02:00,1654160854.000256,53.22904238157639,10.3984917625138,36.83326,0.1479272,0.6770604,128.4640967021892,43.77953842308307,2.400000095367432,7.999579855010836,-9999,3938.320284666667,-0.1426849365234375,-0.1717987060546875,-0.9716033935546875,3938.310289666667,0.3088031520155479,-0.1093183560675213,0.1544912807988169,-0.04500912129878998,0.2416459769010544,-0.2040868997573853,-0.04330642521381378,-0.001365482807159424,0.004423797130584717,XArbitraryZVertical,0.08451368920532072,-0.04197109655002103,0.1489355217450315,0.9843342231888623,-0.1078013554215431,-0.1538774520158768,-0.9821917414665222,0,0,0,-1,-1,3922.954816041667,unknown,2,2022-06-02T11:07:18.817+02:00,2022-06-02T10:17:13.754+02:00,757,1.530461,0,0,607.4087,0,0,2022-06-02T11:07:34.156+02:00,675853654.1559486,0,3.542969,101.3401,1,0.74
2022-06-02T11:07:34.193+02:00,1654160854.000256,53.22904238157639,10.3984917625138,36.83326,0.1479272,0.6770604,128.4640967021892,43.77953842308307,2.400000095367432,7.999579855010836,-9999,3938.330279666667,-0.1297149658203125,-0.165313720703125,-0.9792022705078125,3938.320284666667,0.3066613906846756,-0.1065783266387938,0.1541950471018849,-0.06037289649248123,0.2318460792303085,-0.2074528634548187,-0.04552018642425537,-0.008799299597740173,0.009506285190582275,XArbitraryZVertical,0.084120362967801,-0.04073588935140249,0.1480064184395269,0.984560021750259,-0.1051145642995834,-0.153584748506546,-0.9825286865234375,0,0,0,-1,-1,3922.954816041667,unknown,2,2022-06-02T11:07:18.817+02:00,2022-06-02T10:17:13.754+02:00,757,1.530461,0,0,607.4087,0,0,2022-06-02T11:07:34.156+02:00,675853654.1559486,0,3.542969,101.3401,1,0.74
2022-06-02T11:07:34.204+02:00,1654160854.000256,53.22904238157639,10.3984917625138,36.83326,0.1479272,0.6770604,128.4640967021892,43.77953842308307,2.400000095367432,7.999579855010836,-9999,3938.340273666667,-0.11993408203125,-0.1507415771484375,-0.9756927490234375,3938.330279666667,0.3043854927112753,-0.1039513454313891,0.1537454479793684,-0.06935913115739822,0.2187519818544388,-0.2283912897109985,-0.0332324206829071,-0.01804791390895844,0.008657395839691162,XArbitraryZVertical,0.08365984008964661,-0.0395729440317025,0.1470103750950485,0.9847958876047929,-0.1025402769446373,-0.1531404703855515,-0.9828700423240662,0,0,0,-1,-1,3922.954816041667,unknown,2,2022-06-02T11:07:18.817+02:00,2022-06-02T10:17:13.754+02:00,757,1.530461,0,0,607.4087,0,0,2022-06-02T11:07:34.156+02:00,675853654.1559486,0,3.542969,101.3401,1,0.74
2022-06-02T11:07:34.213+02:00,1654160854.000256,53.22904238157639,10.3984917625138,36.83326,0.1479272,0.6770604,128.4640967021892,43.77953842308307,2.400000095367432,7.999579855010836,-9999,3938.350268666667,-0.114410400390625,-0.1494140625,-0.98583984375,3938.340273666667,0.3019315337764379,-0.1014677276758896,0.1533253781273106,-0.06517930328845978,0.1978115439414978,-0.2420224249362946,-0.0241621732711792,-0.004012972116470337,0.00410538911819458,XArbitraryZVertical,0.08322345624297431,-0.03848464358323919,0.1459185786270851,0.9850383188763651,-0.1001053974032402,-0.1527253389358521,-0.9831855893135071,0,0,0,-1,-1,3922.954816041667,unknown,2,2022-06-02T11:07:18.817+02:00,2022-06-02T10:17:13.754+02:00,757,1.530461,0,0,607.4087,0,0,2022-06-02T11:07:34.156+02:00,675853654.1559486,0,3.542969,101.3401,1,0.74
2022-06-02T11:07:34.224+02:00,1654160854.000256,53.22904238157639,10.3984917625138,36.83326,0.1479272,0.6770604,128.4640967021892,43.77953842308307,2.400000095367432,7.999579855010836,-9999,3938.360263666667,-0.1028594970703125,-0.137786865234375,-0.9922943115234375,3938.350268666667,0.2993959433740473,-0.09910818982539775,0.1530157165527085,-0.04139257967472076,0.1889161169528961,-0.2496590912342072,-0.0206182673573494,0.00451582670211792,0.004675805568695068,XArbitraryZVertical,0.08285149080120073,-0.03745133731395192,0.1447769898490107,0.9852778985047099,-0.09778992831707001,-0.1524192988872528,-0.9834660291671753,0,0,0,-1,-1,3922.954816041667,unknown,2,2022-06-02T11:07:18.817+02:00,2022-06-02T10:17:13.754+02:00,757,1.530461,0,0,607.4087,0,0,2022-06-02T11:07:34.156+02:00,675853654.1559486,0,3.542969,101.3401,1,0.74
2022-06-02T11:07:34.234+02:00,1654160854.000256,53.22904238157639,10.3984917625138,36.83326,0.1479272,0.6770604,128.4640967021892,43.77953842308307,2.400000095367432,7.999579855010836,-9999,3938.370257666667,-0.0938873291015625,-0.14697265625,-0.99224853515625,3938.360263666667,0.2968942478514741,-0.09686450264909575,0.1529607486932935,-0.01200060360133648,0.1792054325342178,-0.2403356283903122,-0.01286029815673828,0.007528528571128845,-0.00611579418182373,XArbitraryZVertical,0.08261643252389131,-0.03645353721397578,0.1436388620357383,0.9855016739088583,-0.09558390825986862,-0.15236496925354,-0.9836913347244263,0,0,0,-1,-1,3922.954816041667,unknown,2,2022-06-02T11:07:18.817+02:00,2022-06-02T10:17:13.754+02:00,757,1.530461,0,0,607.4087,0,0,2022-06-02T11:07:34.156+02:00,675853654.1559486,0,3.542969,101.3401,1,0.74
2022-06-02T11:07:34.244+02:00,1654160854.000256,53.22904238157639,10.3984917625138,36.83326,0.1479272,0.6770604,128.4640967021892,43.77953842308307,2.400000095367432,7.999579855010836,-9999,3938.380252666667,-0.0887603759765625,-0.1578521728515625,-0.98651123046875,3938.370257666667,0.2944924101890222,-0.09474556413622981,0.1531578323923432,0.007442636415362358,0.1634553074836731,-0.2376616299152374,-0.005395740270614624,0.01468130946159363,-0.009760081768035889,XArbitraryZVertical,0.08251865274227459,-0.03549366377164433,0.1425369505686313,0.9857048517082686,-0.09349646419286728,-0.152559757232666,-0.9838617444038391,0,0,0,-1,-1,3922.954816041667,unknown,2,2022-06-02T11:07:18.817+02:00,2022-06-02T10:17:13.754+02:00,757,1.530461,0,0,607.4087,0,0,2022-06-02T11:07:34.156+02:00,675853654.1559486,0,3.542969,101.3401,1,0.74
2022-06-02T11:07:34.255+02:00,1654160854.000256,53.22904238157639,10.3984917625138,36.83326,0.1479272,0.6770604,128.4640967021892,43.77953842308307,2.400000095367432,7.999579855010836,-9999,3938.390246666667,-0.07440185546875,-0.1642608642578125,-0.9613800048828125,3938.380252666667,0.2921315129087931,-0.09277000753842524,0.1534988694164935,0.01642947271466255,0.1531392782926559,-0.2319936156272888,-0.0008594319224357605,-0.001674771308898926,-0.007721781730651855,XArbitraryZVertical,0.08250494662975076,-0.03459188907694746,0.1414449753072591,0.9858953676175479,-0.09154778718948364,-0.1528967916965485,-0.9839926958084106,0,0,0,-1,-1,3922.954816041667,unknown,2,2022-06-02T11:07:18.817+02:00,2022-06-02T10:17:13.754+02:00,757,1.530461,0,0,607.4087,0,0,2022-06-02T11:07:34.156+02:00,675853654.1559486,0,3.542969,101.3401,1,0.74
2022-06-02T11:07:34.264+02:00,1654160854.000256,53.22904238157639,10.3984917625138,36.83326,0.1479272,0.6770604,128.4640967021892,43.77953842308307,2.400000095367432,7.999579855010836,-9999,3938.400241666667,-0.07305908203125,-0.16839599609375,-0.946502685546875,3938.390246666667,0.2897752333487998,-0.09097572673941631,0.1539019017370828,0.02501324191689491,0.1368561834096909,-0.2409162819385529,0.008920162916183472,-0.006937503814697266,0.008965730667114258,XArbitraryZVertical,0.0825367662210368,-0.03377474370997607,0.1403460207507847,0.9860779741081876,-0.08977647870779037,-0.1532950699329376,-0.9840939044952393,0,0,0,-1,-1,3922.954816041667,unknown,2,2022-06-02T11:07:18.817+02:00,2022-06-02T10:17:13.754+02:00,757,1.530461,0,0,607.4087,0,0,2022-06-02T11:07:34.156+02:00,675853654.1559486,0,3.542969,101.3401,1,0.74
2022-06-02T11:07:34.274+02:00,1654160854.000256,53.22904238157639,10.3984917625138,36.83326,0.1479272,0.6770604,128.4640967021892,43.77953842308307,2.400000095367432,7.999579855010836,-9999,3938.410236666667,-0.073028564453125,-0.17999267578125,-0.928375244140625,3938.400241666667,0.2872251663215848,-0.08920157523872445,0.1544237759750607,0.03511274605989456,0.1384016126394272,-0.2659912705421448,0.01829060912132263,-0.01287627220153809,0.02901738882064819,XArbitraryZVertical,0.0826273207904671,-0.03296697224333738,0.1391473951573682,0.9862675733674819,-0.08802326768636703,-0.1538107544183731,-0.9841718077659607,0,0,0,-1,-1,3922.954816041667,unknown,2,2022-06-02T11:07:18.817+02:00,2022-06-02T10:17:13.754+02:00,757,1.530461,0,0,607.4087,0,0,2022-06-02T11:07:34.156+02:00,675853654.1559486,0,3.542969,101.3401,1,0.74
2022-06-02T11:07:34.284+02:00,1654160854.000256,53.22904238157639,10.3984917625138,36.83326,0.1479272,0.6770604,128.4640967021892,43.77953842308307,2.400000095367432,7.999579855010836,-9999,3938.420230666667,-0.0527191162109375,-0.1853485107421875,-0.9215087890625,3938.410236666667,0.2845713437157644,-0.08729474779833758,0.1550426084594133,0.04421406611800194,0.153171718120575,-0.2654846906661987,0.009554289281368256,-0.01914656162261963,0.04759734869003296,XArbitraryZVertical,0.08275697221513592,-0.03209133282026994,0.1379005288506312,0.9864608139035699,-0.08613814413547516,-0.1544221937656403,-0.984242856502533,0,0,0,-1,-1,3922.954816041667,unknown,2,2022-06-02T11:07:18.817+02:00,2022-06-02T10:17:13.754+02:00,757,1.530461,0,0,607.4087,0,0,2022-06-02T11:07:34.156+02:00,675853654.1559486,0,3.542969,101.3401,1,0.74
2022-06-02T11:07:34.294+02:00,1654160854.000256,53.22904238157639,10.3984917625138,36.83326,0.1479272,0.6770604,128.4640967021892,43.77953842308307,2.400000095367432,7.999579855010836,-9999,3938.430225666667,-0.0348663330078125,-0.17938232421875,-0.922119140625,3938.420230666667,0.2817987380079581,-0.08536212942627945,0.1557732217398351,0.05521372333168983,0.1374894231557846,-0.2941682636737823,0.02110058069229126,-0.02988409996032715,0.0599784255027771,XArbitraryZVertical,0.0829405411816717,-0.03120030647841152,0.1365933764977769,0.9866557002616727,-0.08422617614269257,-0.1551440060138702,-0.9842948317527771,0,0,0,-1,-1,3922.954816041667,unknown,2,2022-06-02T11:07:18.817+02:00,2022-06-02T10:17:13.754+02:00,757,1.530461,0,0,607.4087,0,0,2022-06-02T11:07:34.156+02:00,675853654.1559486,0,3.542969,101.3401,1,0.74
2022-06-02T11:07:34.304+02:00,1654160854.000256,53.22904238157639,10.3984917625138,36.83326,0.1479272,0.6770604,128.4640967021892,43.77953842308307,2.400000095367432,7.999579855010836,-9999,3938.440220666667,-0.0395965576171875,-0.169097900390625,-0.93621826171875,3938.430225666667,0.2787370151011751,-0.08360372742386171,0.1566195332300861,0.06771592795848846,0.1137992739677429,-0.3243367969989777,0.04188063740730286,-0.02669824659824371,0.06525808572769165,XArbitraryZVertical,0.08319109353521607,-0.0303996562006248,0.1351335575519499,0.9868606965037511,-0.08248426765203476,-0.1559800207614899,-0.9843102097511292,0,0,0,-1,-1,3922.954816041667,unknown,2,2022-06-02T11:07:18.817+02:00,2022-06-02T10:17:13.754+02:00,757,1.530461,0,0,607.4087,0,0,2022-06-02T11:07:34.156+02:00,675853654.1559486,0,3.542969,101.3401,1,0.74
2022-06-02T11:07:34.314+02:00,1654160854.000256,53.22904238157639,10.3984917625138,36.83326,0.1479272,0.6770604,128.4640967021892,43.77953842308307,2.400000095367432,7.999579855010836,-9999,3938.450214666667,-0.037109375,-0.150909423828125,-0.95697021484375,3938.440220666667,0.2754708368935254,-0.08191982980434365,0.1576294598451797,0.08481369167566299,0.1130189597606659,-0.3330245614051819,0.04474197328090668,-0.01628607511520386,0.05681520700454712,XArbitraryZVertical,0.08352688852496626,-0.02963372537518973,0.1335658475119891,0.987069011244098,-0.08081374317407608,-0.156977504491806,-0.9842901825904846,0,0,0,-1,-1,3922.954816041667,unknown,2,2022-06-02T11:07:18.817+02:00,2022-06-02T10:17:13.754+02:00,757,1.530461,0,0,607.4087,0,0,2022-06-02T11:07:34.156+02:00,675853654.1559486,0,3.542969,101.3401,1,0.74
2022-06-02T11:07:34.324+02:00,1654160854.000256,53.22904238157639,10.3984917625138,36.83326,0.1479272,0.6770604,128.4640967021892,43.77953842308307,2.400000095367432,7.999579855010836,-9999,3938.460209666667,-0.0266265869140625,-0.153778076171875,-0.97308349609375,3938.450214666667,0.2721726810357758,-0.08016592665737074,0.1587771650798696,0.09579520672559738,0.1259277760982513,-0.3323499262332916,0.03900322318077087,-0.003189817070960999,0.03826630115509033,XArbitraryZVertical,0.08392823843838831,-0.02882626506743063,0.1319822089233721,0.9872718834764672,-0.07907278835773468,-0.1581108719110489,-0.9842501878738403,0,0,0,-1,-1,3922.954816041667,unknown,2,2022-06-02T11:07:18.817+02:00,2022-06-02T10:17:13.754+02:00,757,1.530461,0,0,607.4087,0,0,2022-06-02T11:07:34.156+02:00,675853654.1559486,0,3.542969,101.3401,1,0.74
2022-06-02T11:07:34.334+02:00,1654160854.000256,53.22904238157639,10.3984917625138,36.83326,0.1479272,0.6770604,128.4640967021892,43.77953842308307,2.400000095367432,7.999579855010836,-9999,3938.470204666667,-0.0085296630859375,-0.1824188232421875,-0.9875946044921875,3938.460209666667,0.2688577309371837,-0.0783216899560817,0.1599542105397428,0.08643552660942078,0.126379981637001,-0.3355411887168884,0.04423809796571732,0.01445180177688599,0.01904398202896118,XArbitraryZVertical,0.08434079102510957,-0.02797435718100355,0.1303939145695045,0.9874722047246909,-0.07724285125732422,-0.1592729985713959,-0.9842081069946289,0,0,0,-1,-1,3922.954816041667,unknown,2,2022-06-02T11:07:18.817+02:00,2022-06-02T10:17:13.754+02:00,757,1.530461,0,0,607.4087,0,0,2022-06-02T11:07:34.156+02:00,675853654.1559486,0,3.542969,101.3401,1,0.74
2022-06-02T11:07:34.357+02:00,1654160854.000256,53.22904238157639,10.3984917625138,36.83326,0.1479272,0.6770604,128.4640967021892,43.77953842308307,2.400000095367432,7.999579855010836,-9999,3938.480198666667,-0.009796142578125,-0.18536376953125,-0.9935150146484375,3938.470204666667,0.2655926064081682,-0.07658412001469321,0.1609450233670177,0.06152158603072166,0.1069222539663315,-0.3240785300731659,0.06013964861631393,-0.01162391901016235,0.003622770309448242,XArbitraryZVertical,0.08467200089846785,-0.02718707358758692,0.1288308290459195,0.9876709707465625,-0.07552049309015274,-0.1602510809898376,-0.9841830134391785,0,0,0,-1,-1,3922.954816041667,unknown,2,2022-06-02T11:07:18.817+02:00,2022-06-02T10:17:13.754+02:00,757,1.530461,0,0,607.4087,0,0,2022-06-02T11:07:34.156+02:00,675853654.1559486,0,3.542969,101.3401,1,0.74
2022-06-02T11:07:34.360+02:00,1654160854.000256,53.22904238157639,10.3984917625138,36.83326,0.1479272,0.6770604,128.4640967021892,43.77953842308307,2.400000095367432,7.999579855010836,-9999,3938.490193666667,-0.0206146240234375,-0.1894989013671875,-0.9915008544921875,3938.480198666667,0.2623098316338118,-0.07519975989099831,0.1616612385202222,0.04006609320640564,0.08033964037895203,-0.3373860716819763,0.06594010442495346,-0.02307826280593872,-0.00709998607635498,XArbitraryZVertical,0.08489267727341268,-0.02659449528705892,0.1272509804776944,0.9878729391229386,-0.07414931803941727,-0.160958006978035,-0.9841719269752502,0,0,0,-1,-1,3922.954816041667,unknown,2,2022-06-02T11:07:18.817+02:00,2022-06-02T10:17:13.754+02:00,757,1.530461,0,0,607.4087,0,0,2022-06-02T11:07:34.156+02:00,675853654.1559486,0,3.542969,101.3401,1,0.74
2022-06-02T11:07:34.363+02:00,1654160854.000256,53.22904238157639,10.3984917625138,36.83326,0.1479272,0.6770604,128.4640967021892,43.77953842308307,2.400000095367432,7.999579855010836,-9999,3938.500188666667,-0.0159912109375,-0.1890411376953125,-0.9732818603515625,3938.490193666667,0.2588879420378684,-0.0737071049753915,0.1622406767796074,0.02398096583783627,0.09062817692756653,-0.3394244015216827,0.05462219566106796,-0.02897614240646362,-0.01344650983810425,XArbitraryZVertical,0.08503936100727782,-0.0259641509798741,0.1256103068701803,0.9880871047727671,-0.07267332822084427,-0.1615298688411713,-0.9841883182525635,0,0,0,-1,-1,3922.954816041667,unknown,2,2022-06-02T11:07:18.817+02:00,2022-06-02T10:17:13.754+02:00,757,1.530461,0,0,607.4087,0,0,2022-06-02T11:07:34.156+02:00,675853654.1559486,0,3.542969,101.3401,1,0.74
2022-06-02T11:07:34.374+02:00,1654160854.000256,53.22904238157639,10.3984917625138,36.83326,0.1479272,0.6770604,128.4640967021892,43.77953842308307,2.400000095367432,7.999579855010836,-9999,3938.510182666667,-0.0075836181640625,-0.1759796142578125,-0.9569549560546875,3938.500188666667,0.2553946515321696,-0.07216427465697337,0.1626240590974126,0.008285360410809517,0.09640483558177948,-0.3517244756221771,0.05320601910352707,-0.02669045329093933,0.002303898334503174,XArbitraryZVertical,0.08508760046195628,-0.02532537165817875,0.1239409940680156,0.9883102851178687,-0.07115033268928528,-0.1619081944227219,-0.9842374324798584,0,0,0,-1,-1,3922.954816041667,unknown,2,2022-06-02T11:07:18.817+02:00,2022-06-02T10:17:13.754+02:00,757,1.530461,0,0,607.4087,0,0,2022-06-02T11:07:34.156+02:00,675853654.1559486,0,3.542969,101.3401,1,0.74
2022-06-02T11:07:34.384+02:00,1654160854.000256,53.22904238157639,10.3984917625138,36.83326,0.1479272,0.6770604,128.4640967021892,43.77953842308307,2.400000095367432,7.999579855010836,-9999,3938.520177666667,0.0017547607421875,-0.1820220947265625,-0.942352294921875,3938.510182666667,0.2516747445668738,-0.07058678229995191,0.1629405643449291,0.005596999078989029,0.09150747954845428,-0.3846072852611542,0.05821096152067184,-0.02064082026481628,0.02076584100723267,XArbitraryZVertical,0.08510034505514123,-0.0246836385727088,0.1221624749355701,0.9885468009736751,-0.06959400326013565,-0.1622205227613449,-0.9842972755432129,0,0,0,-1,-1,3922.954816041667,unknown,2,2022-06-02T11:07:18.817+02:00,2022-06-02T10:17:13.754+02:00,757,1.530461,0,0,607.4087,0,0,2022-06-02T11:07:34.156+02:00,675853654.1559486,0,3.542969,101.3401,1,0.74
2022-06-02T11:07:34.394+02:00,1654160854.000256,53.22904238157639,10.3984917625138,36.83326,0.1479272,0.6770604,128.4640967021892,43.77953842308307,2.400000095367432,7.999579855010836,-9999,3938.530172666667,0.009307861328125,-0.1970672607421875,-0.942291259765625,3938.520177666667,0.247615648408031,-0.0689174411581648,0.1632857877856693,0.01322615705430508,0.1057370156049728,-0.4171029031276703,0.06436111032962799,-0.01286916434764862,0.03426766395568848,XArbitraryZVertical,0.08512030693758933,-0.0240092643688608,0.1202192435435061,0.9887999547521649,-0.06794691830873489,-0.1625611633062363,-0.984356164932251,0,0,0,-1,-1,3922.954816041667,unknown,2,2022-06-02T11:07:18.817+02:00,2022-06-02T10:17:13.754+02:00,757,1.530461,0,0,607.4087,0,0,2022-06-02T11:07:34.156+02:00,675853654.1559486,0,3.542969,101.3401,1,0.74
2022-06-02T11:07:34.404+02:00,1654160854.000256,53.22904238157639,10.3984917625138,36.83326,0.1479272,0.6770604,128.4640967021892,43.77953842308307,2.400000095367432,7.999579855010836,-9999,3938.540166666667,0.0085601806640625,-0.2008209228515625,-0.949249267578125,3938.530172666667,0.2432441561341326,-0.06701287387619867,0.1637218436942053,0.01647131890058517,0.1203739494085312,-0.4524043798446655,0.07374245673418045,-0.02850642800331116,0.0439833402633667,XArbitraryZVertical,0.08517066286576701,-0.02322644074808874,0.1181292615503818,0.9890661833767143,-0.06606727093458176,-0.1629914045333862,-0.9844129681587219,0,0,0,-1,-1,3922.954816041667,unknown,2,2022-06-02T11:07:18.817+02:00,2022-06-02T10:17:13.754+02:00,757,1.530461,0,0,607.4087,0,0,2022-06-02T11:07:34.156+02:00,675853654.1559486,0,3.542969,101.3401,1,0.74
2022-06-02T11:07:34.414+02:00,1654160854.000256,53.22904238157639,10.3984917625138,36.83326,0.1479272,0.6770604,128.4640967021892,43.77953842308307,2.400000095367432,7.999579855010836,-9999,3938.550161666667,0.009429931640625,-0.2104034423828125,-0.966156005859375,3938.540166666667,0.2385988301662068,-0.06495645176924615,0.1641405974349101,0.004378436598926783,0.1266840398311615,-0.4656546711921692,0.07197290658950806,-0.03569217026233673,0.03780806064605713,XArbitraryZVertical,0.08520435543933116,-0.02238156495554003,0.1159103651234565,0.9893452619681952,-0.06403832882642746,-0.1634045392274857,-0.9844785928726196,0,0,0,-1,-1,3922.954816041667,unknown,2,2022-06-02T11:07:18.817+02:00,2022-06-02T10:17:13.754+02:00,757,1.530461,0,0,607.4087,0,0,2022-06-02T11:07:34.156+02:00,675853654.1559486,0,3.542969,101.3401,1,0.74
2022-06-02T11:07:34.424+02:00,1654160854.000256,53.22904238157639,10.3984917625138,36.83326,0.1479272,0.6770604,128.4640967021892,43.77953842308307,2.400000095367432,7.999579855010836,-9999,3938.560156666667,0.0026702880859375,-0.204010009765625,-0.9920806884765625,3938.550161666667,0.2338887302732081,-0.06279421456968716,0.1642966041251926,-0.03403403609991074,0.1399533003568649,-0.4605172276496887,0.07228388637304306,-0.04252678155899048,0.03050297498703003,XArbitraryZVertical,0.08510571274348898,-0.02150299285834589,0.1136689090019313,0.9896332799489672,-0.06190790235996246,-0.1635584533214569,-0.9845892786979675,0,0,0,-1,-1,3922.954816041667,unknown,2,2022-06-02T11:07:18.817+02:00,2022-06-02T10:17:13.754+02:00,757,1.530461,0,0,607.4087,0,0,2022-06-02T11:07:34.156+02:00,675853654.1559486,0,3.542969,101.3401,1,0.74
2022-06-02T11:07:34.434+02:00,1654160854.000256,53.22904238157639,10.3984917625138,36.83326,0.1479272,0.6770604,128.4640967021892,43.77953842308307,2.400000095367432,7.999579855010836,-9999,3938.570150666667,0.0079345703125,-0.19952392578125,-1.011123657226562,3938.560156666667,0.2292315817777875,-0.0604793893605205,0.1639138196740747,-0.09678476303815842,0.1572566628456116,-0.4511721730232239,0.06478984653949738,-0.04572728276252747,0.005269706249237061,XArbitraryZVertical,0.08473710324554201,-0.02057765393160357,0.1114700601478526,0.9899346585862867,-0.05963236466050148,-0.1631808131933212,-0.9847923517227173,0,0,0,-1,-1,3922.954816041667,unknown,2,2022-06-02T11:07:18.817+02:00,2022-06-02T10:17:13.754+02:00,757,1.530461,0,0,607.4087,0,0,2022-06-02T11:07:34.156+02:00,675853654.1559486,0,3.542969,101.3401,1,0.74
2022-06-02T11:07:34.444+02:00,1654160854.000256,53.22904238157639,10.3984917625138,36.83326,0.1479272,0.6770604,128.4640967021892,43.77953842308307,2.400000095367432,7.999579855010836,-9999,3938.580145666667,0.0122833251953125,-0.19500732421875,-1.023269653320312,3938.570150666667,0.2246863192001227,-0.05810030443669342,0.1628831850677668,-0.1594497412443161,0.1610719114542007,-0.431177169084549,0.06300582736730576,-0.0385502427816391,-0.01799869537353516,XArbitraryZVertical,0.0840501261553506,-0.01965106226822829,0.1093402164942991,0.9902495681222585,-0.05729902908205986,-0.1621638983488083,-0.9850988388061523,0,0,0,-1,-1,3922.954816041667,unknown,2,2022-06-02T11:07:18.817+02:00,2022-06-02T10:17:13.754+02:00,757,1.530461,0,0,607.4087,0,0,2022-06-02T11:07:34.156+02:00,675853654.1559486,0,3.542969,101.3401,1,0.74
2022-06-02T11:07:34.454+02:00,1654160854.000256,53.22904238157639,10.3984917625138,36.83326,0.1479272,0.6770604,128.4640967021892,43.77953842308307,2.400000095367432,7.999579855010836,-9999,3938.590140666667,0.015533447265625,-0.1784820556640625,-1.016647338867188,3938.580145666667,0.2202076991134695,-0.05573004078700336,0.1613273543488168,-0.1945054680109024,0.1590614914894104,-0.4333836138248444,0.06619313359260559,-0.03686606884002686,-0.03418600559234619,XArbitraryZVertical,0.08310873051591679,-0.01875225907706343,0.1072503498139399,0.9905748648662328,-0.0549779124557972,-0.160628467798233,-0.9854825735092163,0,0,0,-1,-1,3922.954816041667,unknown,2,2022-06-02T11:07:18.817+02:00,2022-06-02T10:17:13.754+02:00,757,1.530461,0,0,607.4087,0,0,2022-06-02T11:07:34.156+02:00,675853654.1559486,0,3.542969,101.3401,1,0.74
2022-06-02T11:07:34.464+02:00,1654160854.000256,53.22904238157639,10.3984917625138,36.83326,0.1479272,0.6770604,128.4640967021892,43.77953842308307,2.400000095367432,7.999579855010836,-9999,3938.600134666667,0.0181427001953125,-0.1900177001953125,-1.005599975585938,3938.590140666667,0.2157557776522541,-0.05347012949997843,0.1595129080735531,-0.2108004093170166,0.1361646950244904,-0.4199053049087524,0.06468328833580017,-0.02934934198856354,-0.03711646795272827,XArbitraryZVertical,0.0820495183700236,-0.0179168872882772,0.1051707609896908,0.9909015059795565,-0.05276616290211678,-0.1588373184204102,-0.985893726348877,0,0,0,-1,-1,3922.954816041667,unknown,2,2022-06-02T11:07:18.817+02:00,2022-06-02T10:17:13.754+02:00,757,1.530461,0,0,607.4087,0,0,2022-06-02T11:07:34.156+02:00,675853654.1559486,0,3.542969,101.3401,1,0.74
2022-06-02T11:07:34.474+02:00,1654160854.000256,53.22904238157639,10.3984917625138,36.83326,0.1479272,0.6770604,128.4640967021892,43.77953842308307,2.400000095367432,7.999579855010836,-9999,3938.610129666667,0.032073974609375,-0.202117919921875,-0.9859161376953125,3938.600134666667,0.2112765541974061,-0.05115365758637134,0.1574939724451693,-0.2360748797655106,0.1618905663490295,-0.4372528791427612,0.06774096190929413,-0.02417135238647461,-0.02799642086029053,XArbitraryZVertical,0.0808897438657426,-0.01706072540187442,0.1030801988225281,0.9912315729118748,-0.05049852281808853,-0.1568436920642853,-0.986331582069397,0,0,0,-1,-1,3922.954816041667,unknown,2,2022-06-02T11:07:18.817+02:00,2022-06-02T10:17:13.754+02:00,757,1.530461,0,0,607.4087,0,0,2022-06-02T11:07:34.156+02:00,675853654.1559486,0,3.542969,101.3401,1,0.74
2022-06-02T11:07:34.484+02:00,1654160854.000256,53.22904238157639,10.3984917625138,36.83326,0.1479272,0.6770604,128.4640967021892,43.77953842308307,2.400000095367432,7.999579855010836,-9999,3938.620124666667,0.0240478515625,-0.21368408203125,-0.9765472412109375,3938.610129666667,0.2067294637053569,-0.04890934570992539,0.1550941568255114,-0.2886359989643097,0.1614060699939728,-0.4445759952068329,0.0758909285068512,-0.03952713310718536,-0.004670023918151855,XArbitraryZVertical,0.07954827450583316,-0.0162576713076247,0.1009557342276904,0.9915723370706346,-0.04830302298069,-0.1544731259346008,-0.9868155121803284,0,0,0,-1,-1,3922.954816041667,unknown,2,2022-06-02T11:07:18.817+02:00,2022-06-02T10:17:13.754+02:00,757,1.530461,0,0,607.4087,0,0,2022-06-02T11:07:34.156+02:00,675853654.1559486,0,3.542969,101.3401,1,0.74
2022-06-02T11:07:34.494+02:00,1654160854.000256,53.22904238157639,10.3984917625138,36.83326,0.1479272,0.6770604,128.4640967021892,43.77953842308307,2.400000095367432,7.999579855010836,-9999,3938.630118666667,0.0276947021484375,-0.2139434814453125,-0.9578857421875,3938.620124666667,0.2020717964418635,-0.04638714454347705,0.1521378940911464,-0.3459488153457642,0.1878765523433685,-0.4422846138477325,0.07294978201389313,-0.06010299921035767,0.004872679710388184,XArbitraryZVertical,0.07792013881544817,-0.01534333122485739,0.09879189502343115,0.9919340050178492,-0.04583489894866943,-0.151551678776741,-0.9873860478401184,0,0,0,-1,-1,3922.954816041667,unknown,2,2022-06-02T11:07:18.817+02:00,2022-06-02T10:17:13.754+02:00,757,1.530461,0,0,607.4087,0,0,2022-06-02T11:07:34.156+02:00,675853654.1559486,0,3.542969,101.3401,1,0.74
2022-06-02T11:07:34.504+02:00,1654160854.000256,53.22904238157639,10.3984917625138,36.83326,0.1479272,0.6770604,128.4640967021892,43.77953842308307,2.400000095367432,7.999579855010836,-9999,3938.640113666667,0.0427398681640625,-0.19287109375,-0.9475250244140625,3938.630118666667,0.1975224780595097,-0.04357270278828644,0.1485532686990457,-0.4076985418796539,0.2327179312705994,-0.4188217520713806,0.0685461014509201,-0.06581395864486694,0.02001470327377319,XArbitraryZVertical,0.07597128047826636,-0.01430343579783295,0.09669684701876541,0.992307118246185,-0.04307916760444641,-0.1480074971914291,-0.9880475401878357,0,0,0,-1,-1,3922.954816041667,unknown,2,2022-06-02T11:07:18.817+02:00,2022-06-02T10:17:13.754+02:00,757,1.530461,0,0,607.4087,0,0,2022-06-02T11:07:34.156+02:00,675853654.1559486,0,3.542969,101.3401,1,0.74
2022-06-02T11:07:34.514+02:00,1654160854.000256,53.22904238157639,10.3984917625138,36.83326,0.1479272,0.6770604,128.4640967021892,43.77953842308307,2.400000095367432,7.999579855010836,-9999,3938.650108666667,0.0493927001953125,-0.1651611328125,-0.952301025390625,3938.640113666667,0.1933059996143398,-0.04044120817109038,0.1443671315045216,-0.455324649810791,0.2568413615226746,-0.3799968659877777,0.07443343847990036,-0.0632108747959137,0.03859275579452515,XArbitraryZVertical,0.07371574904634486,-0.01311402019307044,0.09478019173199911,0.9926784594342181,-0.04000959545373917,-0.143866166472435,-0.9887880086898804,0,0,0,-1,-1,3922.954816041667,unknown,2,2022-06-02T11:07:18.817+02:00,2022-06-02T10:17:13.754+02:00,757,1.530461,0,0,607.4087,0,0,2022-06-02T11:07:34.156+02:00,675853654.1559486,0,3.542969,101.3401,1,0.74
2022-06-02T11:07:34.524+02:00,1654160854.000256,53.22904238157639,10.3984917625138,36.83326,0.1479272,0.6770604,128.4640967021892,43.77953842308307,2.400000095367432,7.999579855010836,-9999,3938.660102666667,0.0524444580078125,-0.1512603759765625,-0.95782470703125,3938.650108666667,0.1892254728317017,-0.03721006750892925,0.1399118822950448,-0.4717057049274445,0.2606841921806335,-0.3955235183238983,0.08665791153907776,-0.04024693369865417,0.03971374034881592,XArbitraryZVertical,0.07132748626086932,-0.01187313402737004,0.09292968897405172,0.9930434904723001,-0.03683795779943466,-0.1394558548927307,-0.9895428419113159,0,0,0,-1,-1,3922.954816041667,unknown,2,2022-06-02T11:07:18.817+02:00,2022-06-02T10:17:13.754+02:00,757,1.530461,0,0,607.4087,0,0,2022-06-02T11:07:34.156+02:00,675853654.1559486,0,3.542969,101.3401,1,0.74
2022-06-02T11:07:34.534+02:00,1654160854.000256,53.22904238157639,10.3984917625138,36.83326,0.1479272,0.6770604,128.4640967021892,43.77953842308307,2.400000095367432,7.999579855010836,-9999,3938.670097666667,0.0730438232421875,-0.14337158203125,-0.9683837890625,3938.660102666667,0.1849806129429237,-0.0339842256194046,0.1353940745969132,-0.4582346379756927,0.2505479454994202,-0.4115277826786041,0.08179295808076859,-0.01879730820655823,0.03800559043884277,XArbitraryZVertical,0.06891218768211972,-0.01063319778853284,0.09098917343900377,0.9934077407067922,-0.03366672620177269,-0.134980782866478,-0.9902760982513428,0,0,0,-1,-1,3922.954816041667,unknown,2,2022-06-02T11:07:18.817+02:00,2022-06-02T10:17:13.754+02:00,757,1.530461,0,0,607.4087,0,0,2022-06-02T11:07:34.156+02:00,675853654.1559486,0,3.542969,101.3401,1,0.74
2022-06-02T11:07:34.544+02:00,1654160854.000256,53.22904238157639,10.3984917625138,36.83326,0.1479272,0.6770604,128.4640967021892,43.77953842308307,2.400000095367432,7.999579855010836,-9999,3938.680092666667,0.0878143310546875,-0.1335296630859375,-0.9781341552734375,3938.670097666667,0.1806251499002234,-0.0310364599301245,0.1311401759756997,-0.4149223566055298,0.2054540812969208,-0.4267297387123108,0.09386012703180313,-0.01698625087738037,0.0300900936126709,XArbitraryZVertical,0.06664474845234614,-0.009512347327768263,0.08897259163820248,0.9937563921143029,-0.03076502308249474,-0.1307646185159683,-0.9909359812736511,0,0,0,-1,-1,3922.954816041667,unknown,2,2022-06-02T11:07:18.817+02:00,2022-06-02T10:17:13.754+02:00,757,1.530461,0,0,607.4087,0,0,2022-06-02T11:07:34.156+02:00,675853654.1559486,0,3.542969,101.3401,1,0.74
2022-06-02T11:07:34.554+02:00,1654160854.000256,53.22904238157639,10.3984917625138,36.83326,0.1479272,0.6770604,128.4640967021892,43.77953842308307,2.400000095367432,7.999579855010836,-9999,3938.690086666667,0.073486328125,-0.131561279296875,-0.979095458984375,3938.680092666667,0.1759882757772369,-0.02874052442963927,0.1273209344424315,-0.3890611827373505,0.1272202730178833,-0.4685682654380798,0.1091314107179642,-0.01212194561958313,0.01455205678939819,XArbitraryZVertical,0.06462506576899842,-0.008695009305009741,0.08678292551306495,0.9940908873616953,-0.02850396372377872,-0.1269772201776505,-0.9914959669113159,0,0,0,-1,-1,3922.954816041667,unknown,2,2022-06-02T11:07:18.817+02:00,2022-06-02T10:17:13.754+02:00,757,1.530461,0,0,607.4087,0,0,2022-06-02T11:07:34.156+02:00,675853654.1559486,0,3.542969,101.3401,1,0.74
2022-06-02T11:07:34.564+02:00,1654160854.000256,53.22904238157639,10.3984917625138,36.83326,0.1479272,0.6770604,128.4640967021892,43.77953842308307,2.400000095367432,7.999579855010836,-9999,3938.700081666667,0.081146240234375,-0.14385986328125,-0.991851806640625,3938.690086666667,0.1709327998811516,-0.02681555960688682,0.1237209375372144,-0.3763538300991058,0.09131839126348495,-0.4943231046199799,0.108974352478981,-0.009361207485198975,0.009730279445648193,XArbitraryZVertical,0.0627321393132661,-0.0080561733257238,0.0843656287820703,0.9944254936759409,-0.02660740166902542,-0.1234055459499359,-0.9919995665550232,0,0,0,-1,-1,3922.954816041667,unknown,2,2022-06-02T11:07:18.817+02:00,2022-06-02T10:17:13.754+02:00,757,1.530461,0,0,607.4087,0,0,2022-06-02T11:07:34.156+02:00,675853654.1559486,0,3.542969,101.3401,1,0.74
2022-06-02T11:07:34.574+02:00,1654160854.000256,53.22904238157639,10.3984917625138,36.83326,0.1479272,0.6770604,128.4640967021892,43.77953842308307,2.400000095367432,7.999579855010836,-9999,3938.710076666667,0.0711212158203125,-0.1156463623046875,-1.00225830078125,3938.700081666667,0.1658605187126979,-0.02555970412981278,0.1202910117009376,-0.3290001749992371,0.03508388251066208,-0.5049887895584106,0.1050078719854355,-0.01471874862909317,0.01315569877624512,XArbitraryZVertical,0.06095446403285113,-0.007733798435982561,0.08191318207675274,0.9947435610219678,-0.02537224069237709,-0.1200011223554611,-0.9924494624137878,0,0,0,-1,-1,3922.954816041667,unknown,2,2022-06-02T11:07:18.817+02:00,2022-06-02T10:17:13.754+02:00,757,1.530461,0,0,607.4087,0,0,2022-06-02T11:07:34.156+02:00,675853654.1559486,0,3.542969,101.3401,1,0.74
2022-06-02T11:07:34.584+02:00,1654160854.000256,53.22904238157639,10.3984917625138,36.83326,0.1479272,0.6770604,128.4640967021892,43.77953842308307,2.400000095367432,7.999579855010836,-9999,3938.720070666667,0.0634765625,-0.08056640625,-1.017486572265625,3938.710076666667,0.1606290208987852,-0.02466972502236526,0.117218003067246,-0.3079694807529449,0.005819140002131462,-0.5089802742004395,0.09603116661310196,-0.02083714306354523,-0.009376883506774902,XArbitraryZVertical,0.0593700803680651,-0.007574633678191049,0.0793641830018964,0.9950472149423035,-0.02449795231223106,-0.1169497594237328,-0.9928356409072876,0,0,0,-1,-1,3922.954816041667,unknown,2,2022-06-02T11:07:18.817+02:00,2022-06-02T10:17:13.754+02:00,757,1.530461,0,0,607.4087,0,0,2022-06-02T11:07:34.156+02:00,675853654.1559486,0,3.542969,101.3401,1,0.74
2022-06-02T11:07:34.594+02:00,1654160854.000256,53.22904238157639,10.3984917625138,36.83326,0.1479272,0.6770604,128.4640967021892,43.77953842308307,2.400000095367432,7.999579855010836,-9999,3938.730065416667,0.07843017578125,-0.07342529296875,-1.019317626953125,3938.730065416667,0.150235945775006,-0.02306410442925799,0.1118437360647953,-0.3108197152614594,-0.007366702891886234,-0.5013657808303833,0.0865318700671196,0.03746820986270905,-0.03031599521636963,XArbitraryZVertical,0.05659548456946898,-0.007286978673030538,0.0742823319225167,0.9956032209082651,-0.0229179672896862,-0.1116107031702995,-0.9934877157211304,0,0,0,-1,-1,3922.954816041667,unknown,2,2022-06-02T11:07:18.817+02:00,2022-06-02T10:17:13.754+02:00,757,1.530461,0,0,607.4087,0,0,2022-06-02T11:07:34.156+02:00,675853654.1559486,0,3.542969,101.3401,1,0.74
2022-06-02T11:07:34.604+02:00,1654160854.000256,53.22904238157639,10.3984917625138,36.83326,0.1479272,0.6770604,128.4640967021892,43.77953842308307,2.400000095367432,7.999579855010836,-9999,3938.740060416667,0.299163818359375,-0.10418701171875,-0.9123992919921875,3938.730065416667,0.150235945775006,-0.02306410442925799,0.1118437360647953,-0.3108197152614594,-0.007366702891886234,-0.5013657808303833,0.0865318700671196,0.03746820986270905,-0.03031599521636963,XArbitraryZVertical,0.05659548456946898,-0.007286978673030538,0.0742823319225167,0.9956032209082651,-0.0229179672896862,-0.1116107031702995,-0.9934877157211304,0,0,0,-1,-1,3922.954816041667,unknown,2,2022-06-02T11:07:18.817+02:00,2022-06-02T10:17:13.754+02:00,757,1.530461,0,0,607.4087,0,0,2022-06-02T11:07:34.156+02:00,675853654.1559486,0,3.542969,101.3401,1,0.74
2022-06-02T11:07:34.614+02:00,1654160854.000256,53.22904238157639,10.3984917625138,36.83326,0.1479272,0.6770604,128.4640967021892,43.77953842308307,2.400000095367432,7.999579855010836,-9999,3938.750054416667,0.0570831298828125,-0.1590576171875,-1.0394287109375,3938.740060416667,0.1483418576775285,-0.02608456654777788,0.1055155253184084,-0.7257790565490723,-0.592690646648407,-0.05483808368444443,0.2186398059129715,0.05157835781574249,0.03865581750869751,XArbitraryZVertical,0.05354893400469506,-0.009080600173108563,0.07330769123963327,0.995829315970141,-0.02593655325472355,-0.1053198426961899,-0.9941000938415527,0,0,0,-1,-1,3922.954816041667,unknown,2,2022-06-02T11:07:18.817+02:00,2022-06-02T10:17:13.754+02:00,757,1.530461,0,0,607.4087,0,0,2022-06-02T11:07:34.156+02:00,675853654.1559486,0,3.542969,101.3401,1,0.74
2022-06-02T11:07:34.624+02:00,1654160854.000256,53.22904238157639,10.3984917625138,36.83326,0.1479272,0.6770604,128.4640967021892,43.77953842308307,2.400000095367432,7.999579855010836,-9999,3938.760049416667,0.0094451904296875,-0.0125579833984375,-1.026229858398438,3938.750054416667,0.1457546995235184,-0.03089626167126465,0.09871661983396325,-0.6817522048950195,-0.4295016229152679,-0.3524842262268066,0.240488275885582,-0.1014253571629524,0.009045600891113281,XArbitraryZVertical,0.0503248461951205,-0.01179571794843477,0.07195537357202458,0.9960675921874338,-0.03074095025658607,-0.09855636954307556,-0.9946565628051758,0,0,0,-1,-1,3922.954816041667,unknown,2,2022-06-02T11:07:18.817+02:00,2022-06-02T10:17:13.754+02:00,757,1.530461,0,0,607.4087,0,0,2022-06-02T11:07:34.156+02:00,675853654.1559486,0,3.542969,101.3401,1,0.74
2022-06-02T11:07:34.634+02:00,1654160854.000256,53.22904238157639,10.3984917625138,36.83326,0.1479272,0.6770604,128.4640967021892,43.77953842308307,2.400000095367432,7.999579855010836,-9999,3938.770044416667,0.020477294921875,-0.1127166748046875,-1.029327392578125,3938.760049416667,0.1427716897520281,-0.0342869068423837,0.09239710045212533,-0.5857910513877869,-0.315743625164032,-0.1737839728593826,0.04629522934556007,0.04397158324718475,-0.03314059972763062,XArbitraryZVertical,0.04727912713442092,-0.01378724352323705,0.07044899659565894,0.9962988752884603,-0.03413396328687668,-0.09226568788290024,-0.9951491951942444,0,0,0,-1,-1,3922.954816041667,unknown,2,2022-06-02T11:07:18.817+02:00,2022-06-02T10:17:13.754+02:00,757,1.530461,0,0,607.4087,0,0,2022-06-02T11:07:34.156+02:00,675853654.1559486,0,3.542969,101.3401,1,0.74
2022-06-02T11:07:34.644+02:00,1654160854.000256,53.22904238157639,10.3984917625138,36.83326,0.1479272,0.6770604,128.4640967021892,43.77953842308307,2.400000095367432,7.999579855010836,-9999,3938.780038416667,0.10333251953125,-0.191070556640625,-0.9760589599609375,3938.770044416667,0.1408062379122611,-0.03670634316223473,0.08711475901275473,-0.4954235255718231,-0.2429916709661484,-0.2079813629388809,0.05660899728536606,0.03240863233804703,-0.03928369283676147,XArbitraryZVertical,0.04471818279573454,-0.015226757162488,0.06946928337681815,0.9964649017590154,-0.03655893728137016,-0.08700461685657501,-0.9955368638038635,0,0,0,-1,-1,3922.954816041667,unknown,2,2022-06-02T11:07:18.817+02:00,2022-06-02T10:17:13.754+02:00,757,1.530461,0,0,607.4087,0,0,2022-06-02T11:07:34.156+02:00,675853654.1559486,0,3.542969,101.3401,1,0.74
2022-06-02T11:07:34.654+02:00,1654160854.000256,53.22904238157639,10.3984917625138,36.83326,0.1479272,0.6770604,128.4640967021892,43.77953842308307,2.400000095367432,7.999579855010836,-9999,3938.790033416667,0.0276947021484375,-0.16015625,-0.998504638671875,3938.780038416667,0.1387287445927347,-0.03892836173520049,0.08198998397943422,-0.5035607814788818,-0.3089499175548553,-0.221332848072052,0.09646602720022202,-0.05775031447410583,-0.01142328977584839,XArbitraryZVertical,0.04222503234901124,-0.01655985752924517,0.0684416734937922,0.9966235417213207,-0.03878778964281082,-0.08189815282821655,-0.9958856105804443,0,0,0,-1,-1,3922.954816041667,unknown,2,2022-06-02T11:07:18.817+02:00,2022-06-02T10:17:13.754+02:00,757,1.530461,0,0,607.4087,0,0,2022-06-02T11:07:34.156+02:00,675853654.1559486,0,3.542969,101.3401,1,0.74
2022-06-02T11:07:34.664+02:00,1654160854.000256,53.22904238157639,10.3984917625138,36.83326,0.1479272,0.6770604,128.4640967021892,43.77953842308307,2.400000095367432,7.999579855010836,-9999,3938.800028416667,-0.0266265869140625,-0.0446014404296875,-1.058502197265625,3938.790033416667,0.135167679053712,-0.04156003955710889,0.07723815146413787,-0.4672394692897797,-0.260818749666214,-0.3892687261104584,0.1225704550743103,-0.1457237899303436,0.02231127023696899,XArbitraryZVertical,0.03991519898834209,-0.01810880436118334,0.06666706845597437,0.9968120060291179,-0.04142420738935471,-0.07716137915849686,-0.996157705783844,0,0,0,-1,-1,3922.954816041667,unknown,2,2022-06-02T11:07:18.817+02:00,2022-06-02T10:17:13.754+02:00,757,1.530461,0,0,607.4087,0,0,2022-06-02T11:07:34.156+02:00,675853654.1559486,0,3.542969,101.3401,1,0.74
2022-06-02T11:07:34.674+02:00,1654160854.000256,53.22904238157639,10.3984917625138,36.83326,0.1479272,0.6770604,128.4640967021892,43.77953842308307,2.400000095367432,7.999579855010836,-9999,3938.810022416667,-0.0453643798828125,-0.0512542724609375,-1.088226318359375,3938.800028416667,0.131327004462953,-0.04297740071070053,0.07335239176573266,-0.3395483493804932,-0.08885364234447479,-0.3314469754695892,0.04266554489731789,-0.005555570125579834,-0.03399020433425903,XArbitraryZVertical,0.03798945716549128,-0.01902085935305808,0.06477087125632305,0.9969953603230682,-0.04284863919019699,-0.07328663021326065,-0.9963900446891785,0,0,0,-1,-1,3922.954816041667,unknown,2,2022-06-02T11:07:18.817+02:00,2022-06-02T10:17:13.754+02:00,757,1.530461,0,0,607.4087,0,0,2022-06-02T11:07:34.156+02:00,675853654.1559486,0,3.542969,101.3401,1,0.74
2022-06-02T11:07:34.684+02:00,1654160854.000256,53.22904238157639,10.3984917625138,36.83326,0.1479272,0.6770604,128.4640967021892,43.77953842308307,2.400000095367432,7.999579855010836,-9999,3938.820017416667,-0.00128173828125,-0.0458831787109375,-1.087310791015625,3938.810022416667,0.1279720844824619,-0.04282255377528474,0.07070746554345826,-0.2178621143102646,0.03111350908875465,-0.3256354331970215,-0.001090209931135178,0.02638278901576996,-0.07902044057846069,XArbitraryZVertical,0.03663408002816181,-0.01909286447188213,0.06313258388037166,0.997149736190138,-0.04270249605178833,-0.07064856588840485,-0.996586799621582,0,0,0,-1,-1,3922.954816041667,unknown,2,2022-06-02T11:07:18.817+02:00,2022-06-02T10:17:13.754+02:00,757,1.530461,0,0,607.4087,0,0,2022-06-02T11:07:34.156+02:00,675853654.1559486,0,3.542969,101.3401,1,0.74
2022-06-02T11:07:34.694+02:00,1654160854.000256,53.22904238157639,10.3984917625138,36.83326,0.1479272,0.6770604,128.4640967021892,43.77953842308307,2.400000095367432,7.999579855010836,-9999,3938.830012416667,0.0060882568359375,-0.0751800537109375,-1.081802368164062,3938.820017416667,0.1245261551533696,-0.04212123550461498,0.06917011647428643,-0.1216844543814659,0.04750153794884682,-0.3449404239654541,0.01878422498703003,0.01938655227422714,-0.09328770637512207,XArbitraryZVertical,0.0358130822717137,-0.0188546115609038,0.06144508838897381,0.9972894571344247,-0.04200808703899384,-0.06911497563123703,-0.9967238306999207,0,0,0,-1,-1,3922.954816041667,unknown,2,2022-06-02T11:07:18.817+02:00,2022-06-02T10:17:13.754+02:00,757,1.530461,0,0,607.4087,0,0,2022-06-02T11:07:34.156+02:00,675853654.1559486,0,3.542969,101.3401,1,0.74
2022-06-02T11:07:34.704+02:00,1654160854.000256,53.22904238157639,10.3984917625138,36.83326,0.1479272,0.6770604,128.4640967021892,43.77953842308307,2.400000095367432,7.999579855010836,-9999,3938.840006416667,0.0218658447265625,-0.1128997802734375,-1.067398071289062,3938.830012416667,0.1207717274869779,-0.04109235666434714,0.06851377165317395,-0.03801672160625458,0.09291376173496246,-0.3968784511089325,0.04879692569375038,0.01389471441507339,-0.08682173490524292,XArbitraryZVertical,0.03541967441587995,-0.01842872094983689,0.05959865700288552,0.9974235684671621,-0.04098441079258919,-0.06846018135547638,-0.9968116283416748,0,0,0,-1,-1,3922.954816041667,unknown,2,2022-06-02T11:07:18.817+02:00,2022-06-02T10:17:13.754+02:00,757,1.530461,0,0,607.4087,0,0,2022-06-02T11:07:34.156+02:00,675853654.1559486,0,3.542969,101.3401,1,0.74
2022-06-02T11:07:34.714+02:00,1654160854.000256,53.22904238157639,10.3984917625138,36.83326,0.1479272,0.6770604,128.4640967021892,43.77953842308307,2.400000095367432,7.999579855010836,-9999,3938.850001416667,0.0419158935546875,-0.1445465087890625,-1.052230834960938,3938.840006416667,0.1165454436069799,-0.03970717891138487,0.06862266126056385,0.02142529748380184,0.1146803051233292,-0.4374064207077026,0.05036077275872231,-0.02850763499736786,-0.08042573928833008,XArbitraryZVertical,0.03539513452512534,-0.01780942665641501,0.05751413132761513,0.9975580563033823,-0.03960331529378891,-0.06856881827116013,-0.9968600273132324,0,0,0,-1,-1,3922.954816041667,unknown,2,2022-06-02T11:07:18.817+02:00,2022-06-02T10:17:13.754+02:00,757,1.530461,0,0,607.4087,0,0,2022-06-02T11:07:34.156+02:00,675853654.1559486,0,3.542969,101.3401,1,0.74
2022-06-02T11:07:34.724+02:00,1654160854.000256,53.22904238157639,10.3984917625138,36.83326,0.1479272,0.6770604,128.4640967021892,43.77953842308307,2.400000095367432,7.999579855010836,-9999,3938.859996416667,0.0622100830078125,-0.15338134765625,-1.043045043945312,3938.850001416667,0.1119472594731144,-0.03810850483152408,0.06924304849152864,0.06587645411491394,0.1242403835058212,-0.4850220084190369,0.06956317275762558,-0.0591692328453064,-0.06049364805221558,XArbitraryZVertical,0.03561940266715632,-0.01707571901624773,0.05524225309296096,0.9976912398683633,-0.03800798207521439,-0.06918773055076599,-0.9968793392181396,0,0,0,-1,-1,3922.954816041667,unknown,2,2022-06-02T11:07:18.817+02:00,2022-06-02T10:17:13.754+02:00,757,1.530461,0,0,607.4087,0,0,2022-06-02T11:07:34.156+02:00,675853654.1559486,0,3.542969,101.3401,1,0.74
2022-06-02T11:07:34.734+02:00,1654160854.000256,53.22904238157639,10.3984917625138,36.83326,0.1479272,0.6770604,128.4640967021892,43.77953842308307,2.400000095367432,7.999579855010836,-9999,3938.869990416667,0.073974609375,-0.1279449462890625,-1.042800903320312,3938.859996416667,0.1069051727383254,-0.03645594676374708,0.07013382798120567,0.07423797994852066,0.1173907369375229,-0.5242477059364319,0.08906213939189911,-0.08397641777992249,-0.05109477043151855,XArbitraryZVertical,0.03597705377219597,-0.01631691224453152,0.0527473008563543,0.9978261916657751,-0.03635827079415321,-0.0700763463973999,-0.9968788027763367,0,0,0,-1,-1,3922.954816041667,unknown,2,2022-06-02T11:07:18.817+02:00,2022-06-02T10:17:13.754+02:00,757,1.530461,0,0,607.4087,0,0,2022-06-02T11:07:34.156+02:00,675853654.1559486,0,3.542969,101.3401,1,0.74
2022-06-02T11:07:34.744+02:00,1654160854.000256,53.22904238157639,10.3984917625138,36.83326,0.1479272,0.6770604,128.4640967021892,43.77953842308307,2.400000095367432,7.999579855010836,-9999,3938.879985416667,0.078277587890625,-0.11236572265625,-1.044692993164062,3938.869990416667,0.1015298718623578,-0.03483466894586815,0.07115443861540054,0.09234600514173508,0.1141267716884613,-0.5581510663032532,0.1050672680139542,-0.07181943953037262,-0.04694348573684692,XArbitraryZVertical,0.03640171206568447,-0.01557836569288499,0.05008463556902415,0.9979597288683562,-0.03473949432373047,-0.07109440863132477,-0.9968644380569458,0,0,0,-1,-1,3922.954816041667,unknown,2,2022-06-02T11:07:18.817+02:00,2022-06-02T10:17:13.754+02:00,757,1.530461,0,0,607.4087,0,0,2022-06-02T11:07:34.156+02:00,675853654.1559486,0,3.542969,101.3401,1,0.74
2022-06-02T11:07:34.754+02:00,1654160854.000256,53.22904238157639,10.3984917625138,36.83326,0.1479272,0.6770604,128.4640967021892,43.77953842308307,2.400000095367432,7.999579855010836,-9999,3938.889980416667,0.0835113525390625,-0.110015869140625,-1.035308837890625,3938.879985416667,0.09581474675681262,-0.03324354215407999,0.07241895405757509,0.1243958175182343,0.1058637797832489,-0.5839573740959167,0.108009934425354,-0.04441987723112106,-0.04780411720275879,XArbitraryZVertical,0.03695048012339654,-0.01485763523202578,0.04725003593655405,0.9980887629256091,-0.03315030038356781,-0.07235567271709442,-0.9968278408050537,0,0,0,-1,-1,3922.954816041667,unknown,2,2022-06-02T11:07:18.817+02:00,2022-06-02T10:17:13.754+02:00,757,1.530461,0,0,607.4087,0,0,2022-06-02T11:07:34.156+02:00,675853654.1559486,0,3.542969,101.3401,1,0.74
2022-06-02T11:07:34.764+02:00,1654160854.000256,53.22904238157639,10.3984917625138,36.83326,0.1479272,0.6770604,128.4640967021892,43.77953842308307,2.400000095367432,7.999579855010836,-9999,3938.899974416667,0.087127685546875,-0.109039306640625,-1.01708984375,3938.889980416667,0.0899583212815681,-0.03180735020911107,0.07414845490430461,0.185820996761322,0.0872478187084198,-0.5958237051963806,0.1127235293388367,-0.03686616569757462,-0.04510700702667236,XArbitraryZVertical,0.03773813839738291,-0.01420959149220112,0.04433855823600522,0.9982023194600259,-0.03171460330486298,-0.07408052682876587,-0.9967478513717651,0,0,0,-1,-1,3922.954816041667,unknown,2,2022-06-02T11:07:18.817+02:00,2022-06-02T10:17:13.754+02:00,757,1.530461,0,0,607.4087,0,0,2022-06-02T11:07:34.156+02:00,675853654.1559486,0,3.542969,101.3401,1,0.74
2022-06-02T11:07:34.774+02:00,1654160854.000256,53.22904238157639,10.3984917625138,36.83326,0.1479272,0.6770604,128.4640967021892,43.77953842308307,2.400000095367432,7.999579855010836,-9999,3938.909969416667,0.0933380126953125,-0.1222381591796875,-1.001373291015625,3938.899974416667,0.0840542833319229,-0.03038408891577428,0.07629548500007302,0.2053606063127518,0.09607220441102982,-0.5905237197875977,0.1173882186412811,-0.03191757947206497,-0.02988904714584351,XArbitraryZVertical,0.0387382218466495,-0.0135648091695833,0.04140049451858838,0.9982991360892217,-0.03029103763401508,-0.07622148841619492,-0.9966306686401367,0,0,0,-1,-1,3922.954816041667,unknown,2,2022-06-02T11:07:18.817+02:00,2022-06-02T10:17:13.754+02:00,757,1.530461,0,0,607.4087,0,0,2022-06-02T11:07:34.156+02:00,675853654.1559486,0,3.542969,101.3401,1,0.74
2022-06-02T11:07:34.784+02:00,1654160854.000256,53.22904238157639,10.3984917625138,36.83326,0.1479272,0.6770604,128.4640967021892,43.77953842308307,2.400000095367432,7.999579855010836,-9999,3938.919964416667,0.0998077392578125,-0.122528076171875,-0.9868316650390625,3938.909969416667,0.07829860070803403,-0.02895823975641942,0.07851659392162345,0.2065635174512863,0.08737584948539734,-0.5660622715950012,0.1185256466269493,-0.03681372106075287,-0.01085352897644043,XArbitraryZVertical,0.03978027921007814,-0.01292038689838169,0.03853722320050576,0.998381335177895,-0.02886498905718327,-0.07843594253063202,-0.9965012073516846,0,0,0,-1,-1,3922.954816041667,unknown,2,2022-06-02T11:07:18.817+02:00,2022-06-02T10:17:13.754+02:00,757,1.530461,0,0,607.4087,0,0,2022-06-02T11:07:34.156+02:00,675853654.1559486,0,3.542969,101.3401,1,0.74
2022-06-02T11:07:34.794+02:00,1654160854.000256,53.22904238157639,10.3984917625138,36.83326,0.1479272,0.6770604,128.4640967021892,43.77953842308307,2.400000095367432,7.999579855010836,-9999,3938.929958416667,0.0964202880859375,-0.1266326904296875,-0.9779510498046875,3938.919964416667,0.07278546807171297,-0.027661294382186,0.08058973664522087,0.1787603795528412,0.08151290565729141,-0.5423332452774048,0.1264754831790924,-0.04237653315067291,0.002095162868499756,XArbitraryZVertical,0.0407562435305563,-0.01234425062465799,0.03579492571792556,0.9984513604630147,-0.02756800130009651,-0.08050253242254257,-0.9963731169700623,0,0,0,-1,-1,3922.954816041667,unknown,2,2022-06-02T11:07:18.817+02:00,2022-06-02T10:17:13.754+02:00,757,1.530461,0,0,607.4087,0,0,2022-06-02T11:07:34.156+02:00,675853654.1559486,0,3.542969,101.3401,1,0.74
2022-06-02T11:07:34.804+02:00,1654160854.000256,53.22904238157639,10.3984917625138,36.83326,0.1479272,0.6770604,128.4640967021892,43.77953842308307,2.400000095367432,7.999579855010836,-9999,3938.939953416667,0.095733642578125,-0.1305999755859375,-0.9792938232421875,3938.929958416667,0.06755048292756731,-0.02624623572115917,0.0823197259746305,0.1359852850437164,0.1013248264789581,-0.5061287879943848,0.123886913061142,-0.04214764386415482,0.01328396797180176,XArbitraryZVertical,0.04156399925374986,-0.01171474145134728,0.03319764627924265,0.9985154083546299,-0.02615435421466827,-0.08222678303718567,-0.9962704181671143,0,0,0,-1,-1,3922.954816041667,unknown,2,2022-06-02T11:07:18.817+02:00,2022-06-02T10:17:13.754+02:00,757,1.530461,0,0,607.4087,0,0,2022-06-02T11:07:34.156+02:00,675853654.1559486,0,3.542969,101.3401,1,0.74
2022-06-02T11:07:34.813+02:00,1654160854.000256,53.22904238157639,10.3984917625138,36.83326,0.1479272,0.6770604,128.4640967021892,43.77953842308307,2.400000095367432,7.999579855010836,-9999,3938.949948416667,0.1043548583984375,-0.1101531982421875,-0.986114501953125,3938.939953416667,0.06274686744855902,-0.02483133923725811,0.08361428000080939,0.1018912419676781,0.08871155977249146,-0.4595080018043518,0.1209334656596184,-0.04538939148187637,0.01956039667129517,XArbitraryZVertical,0.04216028648929765,-0.01108746321539929,0.03081982088925069,0.9985737634450998,-0.02474204450845718,-0.08351688832044601,-0.9961991310119629,0,0,0,-1,-1,3922.954816041667,unknown,2,2022-06-02T11:07:18.817+02:00,2022-06-02T10:17:13.754+02:00,757,1.530461,0,0,607.4087,0,0,2022-06-02T11:07:34.156+02:00,675853654.1559486,0,3.542969,101.3401,1,0.74
2022-06-02T11:07:34.824+02:00,1654160854.000256,53.22904238157639,10.3984917625138,36.83326,0.1479272,0.6770604,128.4640967021892,43.77953842308307,2.400000095367432,7.999579855010836,-9999,3938.959942416667,0.1108856201171875,-0.0975799560546875,-0.987274169921875,3938.949948416667,0.05829251723807557,-0.02358250590370494,0.08447435696674437,0.05050791800022125,0.07243824750185013,-0.4322440922260284,0.1219459548592567,-0.03969532251358032,0.01252979040145874,XArbitraryZVertical,0.0425470620495135,-0.0105450306223301,0.02861645978302678,0.998628866519887,-0.02349623665213585,-0.08437392860651016,-0.9961571097373962,0,0,0,-1,-1,3922.954816041667,unknown,2,2022-06-02T11:07:18.817+02:00,2022-06-02T10:17:13.754+02:00,757,1.530461,0,0,607.4087,0,0,2022-06-02T11:07:34.156+02:00,675853654.1559486,0,3.542969,101.3401,1,0.74
2022-06-02T11:07:34.833+02:00,1654160854.000256,53.22904238157639,10.3984917625138,36.83326,0.1479272,0.6770604,128.4640967021892,43.77953842308307,2.400000095367432,7.999579855010836,-9999,3938.969937416667,0.1039276123046875,-0.089874267578125,-0.997528076171875,3938.959942416667,0.05406293297777506,-0.02255694985105257,0.08488397944512184,0.01045024394989014,0.04975823312997818,-0.4156430065631866,0.1311469376087189,-0.01603277027606964,0.01070296764373779,XArbitraryZVertical,0.04271560747853554,-0.01011725091352522,0.0265237659629671,0.9986838625914548,-0.02247382886707783,-0.08478207886219025,-0.996146023273468,0,0,0,-1,-1,3922.954816041667,unknown,2,2022-06-02T11:07:18.817+02:00,2022-06-02T10:17:13.754+02:00,757,1.530461,0,0,607.4087,0,0,2022-06-02T11:07:34.156+02:00,675853654.1559486,0,3.542969,101.3401,1,0.74
2022-06-02T11:07:34.858+02:00,1654160854.000256,53.22904238157639,10.3984917625138,36.83326,0.1479272,0.6770604,128.4640967021892,43.77953842308307,2.400000095367432,7.999579855010836,-9999,3938.979932416667,0.0902252197265625,-0.076324462890625,-1.007980346679688,3938.969937416667,0.0499760379837859,-0.02169994889404116,0.08494503642855483,-0.01126700267195702,0.04046546667814255,-0.3978936374187469,0.1301252692937851,-0.009807378053665161,0.004170656204223633,XArbitraryZVertical,0.04271484102876189,-0.009775781372822194,0.02450088446251483,0.9987389167805351,-0.0216200090944767,-0.08484292030334473,-0.9961597323417664,0,0,0,-1,-1,3922.954816041667,unknown,2,2022-06-02T11:07:18.817+02:00,2022-06-02T10:17:13.754+02:00,757,1.530461,0,0,607.4087,0,0,2022-06-02T11:07:34.156+02:00,675853654.1559486,0,3.542969,101.3401,1,0.74
2022-06-02T11:07:34.861+02:00,1654160854.000256,53.22904238157639,10.3984917625138,36.83326,0.1479272,0.6770604,128.4640967021892,43.77953842308307,2.400000095367432,7.999579855010836,-9999,3938.989926416667,0.095703125,-0.0655670166015625,-1.011276245117188,3938.979932416667,0.04602156922500301,-0.02076183547517439,0.08497891619007032,0.0124369952827692,0.06934904307126999,-0.3919808864593506,0.1168005540966988,0.001655206084251404,-0.008156776428222656,XArbitraryZVertical,0.04270177438961256,-0.009391334052066398,0.02254592729058631,0.9987892655718723,-0.02068542875349522,-0.08487667143344879,-0.9961767196655273,0,0,0,-1,-1,3922.954816041667,unknown,2,2022-06-02T11:07:18.817+02:00,2022-06-02T10:17:13.754+02:00,757,1.530461,0,0,607.4087,0,0,2022-06-02T11:07:34.156+02:00,675853654.1559486,0,3.542969,101.3401,1,0.74
2022-06-02T11:07:34.863+02:00,1654160854.000256,53.22904238157639,10.3984917625138,36.83326,0.1479272,0.6770604,128.4640967021892,43.77953842308307,2.400000095367432,7.999579855010836,-9999,3938.999921416667,0.0926361083984375,-0.0553741455078125,-1.011398315429688,3938.989926416667,0.04205816149196005,-0.01957634754478199,0.08543196119481641,0.06669660657644272,0.08298462629318237,-0.4032385349273682,0.1091185882687569,0.01626676321029663,-0.01331371068954468,XArbitraryZVertical,0.04289713604092366,-0.008879031546736058,0.02058945884149563,0.998827816502703,-0.01950370520353317,-0.08532807976007462,-0.9961619973182678,0,0,0,-1,-1,3922.954816041667,unknown,2,2022-06-02T11:07:18.817+02:00,2022-06-02T10:17:13.754+02:00,757,1.530461,0,0,607.4087,0,0,2022-06-02T11:07:34.156+02:00,675853654.1559486,0,3.542969,101.3401,1,0.74
2022-06-02T11:07:34.874+02:00,1654160854.000256,53.22904238157639,10.3984917625138,36.83326,0.1479272,0.6770604,128.4640967021892,43.77953842308307,2.400000095367432,7.999579855010836,-9999,3939.009916416667,0.077239990234375,-0.0626983642578125,-1.011444091796875,3939.009916416667,0.03385114774654208,-0.01689222848488641,0.08752508649175052,0.1413807272911072,0.1197869181632996,-0.4065262675285339,0.09972777962684631,0.02901795506477356,-0.01614648103713989,XArbitraryZVertical,0.04388355898830008,-0.007696310744858781,0.01653851015981632,0.9988701079410424,-0.01682676747441292,-0.08741337805986404,-0.9960299730300903,0,0,0,-1,-1,3922.954816041667,unknown,2,2022-06-02T11:07:18.817+02:00,2022-06-02T10:17:13.754+02:00,757,1.530461,0,0,607.4087,0,0,2022-06-02T11:07:34.156+02:00,675853654.1559486,0,3.542969,101.3401,1,0.74
2022-06-02T11:07:34.884+02:00,1654160854.000256,53.22904238157639,10.3984917625138,36.83326,0.1479272,0.6770604,128.4640967021892,43.77953842308307,2.400000095367432,7.999579855010836,-9999,3939.019910416667,0.0876617431640625,-0.070556640625,-1.004776000976562,3939.009916416667,0.03385114774654208,-0.01689222848488641,0.08752508649175052,0.1413807272911072,0.1197869181632996,-0.4065262675285339,0.09972777962684631,0.02901795506477356,-0.01614648103713989,XArbitraryZVertical,0.04388355898830008,-0.007696310744858781,0.01653851015981632,0.9988701079410424,-0.01682676747441292,-0.08741337805986404,-0.9960299730300903,0,0,0,-1,-1,3922.954816041667,unknown,2,2022-06-02T11:07:18.817+02:00,2022-06-02T10:17:13.754+02:00,757,1.530461,0,0,607.4087,0,0,2022-06-02T11:07:34.156+02:00,675853654.1559486,0,3.542969,101.3401,1,0.74
2022-06-02T11:07:34.894+02:00,1654160854.000256,53.22904238157639,10.3984917625138,36.83326,0.1479272,0.6770604,128.4640967021892,43.77953842308307,2.400000095367432,7.999579855010836,-9999,3939.029905416667,0.09564208984375,-0.108123779296875,-0.9972076416015625,3939.019910416667,0.02983093477633742,-0.01511815948559439,0.08908814342114964,0.151833102107048,0.1482009887695312,-0.3986177444458008,0.09455593675374985,0.02499020844697952,-0.01279228925704956,XArbitraryZVertical,0.0446357481919768,-0.006886537541985318,0.01456313420173379,0.9988734216252769,-0.01505763176828623,-0.08897034823894501,-0.9959204792976379,0,0,0,-1,-1,3922.954816041667,unknown,2,2022-06-02T11:07:18.817+02:00,2022-06-02T10:17:13.754+02:00,757,1.530461,0,0,607.4087,0,0,2022-06-02T11:07:34.156+02:00,675853654.1559486,0,3.542969,101.3401,1,0.74
2022-06-02T11:07:34.903+02:00,1654160854.000256,53.22904238157639,10.3984917625138,36.83326,0.1479272,0.6770604,128.4640967021892,43.77953842308307,2.400000095367432,7.999579855010836,-9999,3939.039900416667,0.096893310546875,-0.1411285400390625,-0.9881134033203125,3939.029905416667,0.02590978146809279,-0.01316026594068183,0.09057474823363096,0.130831778049469,0.1581712663173676,-0.384119987487793,0.1072679460048676,0.00240771472454071,-0.005558609962463379,XArbitraryZVertical,0.04535227246119313,-0.005986324149932066,0.01264309840823242,0.9988730756956472,-0.01310594286769629,-0.0904509574174881,-0.9958146810531616,0,0,0,-1,-1,3922.954816041667,unknown,2,2022-06-02T11:07:18.817+02:00,2022-06-02T10:17:13.754+02:00,757,1.530461,0,0,607.4087,0,0,2022-06-02T11:07:34.156+02:00,675853654.1559486,0,3.542969,101.3401,1,0.74
2022-06-02T11:07:34.913+02:00,1654160854.000256,53.22904238157639,10.3984917625138,36.83326,0.1479272,0.6770604,128.4640967021892,43.77953842308307,2.400000095367432,7.999579855010836,-9999,3939.049894416667,0.1007537841796875,-0.14923095703125,-0.9788055419921875,3939.039900416667,0.0222049559482376,-0.01111994920331578,0.09167050338104508,0.07733580470085144,0.1700202077627182,-0.3530336916446686,0.1075848862528801,-0.03603660315275192,0.002987563610076904,XArbitraryZVertical,0.04587733685814928,-0.005045076040787353,0.01083568204204641,0.9988755383565566,-0.0110730305314064,-0.09154216200113297,-0.9957396388053894,0,0,0,-1,-1,3922.954816041667,unknown,2,2022-06-02T11:07:18.817+02:00,2022-06-02T10:17:13.754+02:00,757,1.530461,0,0,607.4087,0,0,2022-06-02T11:07:34.156+02:00,675853654.1559486,0,3.542969,101.3401,1,0.74
2022-06-02T11:07:34.923+02:00,1654160854.000256,53.22904238157639,10.3984917625138,36.83326,0.1479272,0.6770604,128.4640967021892,43.77953842308307,2.400000095367432,7.999579855010836,-9999,3939.059889416667,0.1173095703125,-0.12005615234375,-0.9780426025390625,3939.049894416667,0.01881679108141865,-0.008999922300292913,0.092187077569514,0.02740585803985596,0.1687047332525253,-0.3229827284812927,0.1065263003110886,-0.0569608137011528,0.01342892646789551,XArbitraryZVertical,0.04611700445018625,-0.004061465613672532,0.009190833058324407,0.9988855086002943,-0.008961585350334644,-0.09205655753612518,-0.995713472366333,0,0,0,-1,-1,3922.954816041667,unknown,2,2022-06-02T11:07:18.817+02:00,2022-06-02T10:17:13.754+02:00,757,1.530461,0,0,607.4087,0,0,2022-06-02T11:07:34.156+02:00,675853654.1559486,0,3.542969,101.3401,1,0.74
2022-06-02T11:07:34.933+02:00,1654160854.000256,53.22904238157639,10.3984917625138,36.83326,0.1479272,0.6770604,128.4640967021892,43.77953842308307,2.400000095367432,7.999579855010836,-9999,3939.069884416667,0.123138427734375,-0.0821990966796875,-0.9769744873046875,3939.059889416667,0.01574038424074197,-0.007137056361845087,0.09238538717304061,0.01053633075207472,0.137275442481041,-0.2944181859493256,0.1151998341083527,-0.04914920777082443,0.01632475852966309,XArbitraryZVertical,0.0462025991529218,-0.003201193690107483,0.00769689005919761,0.9988972944786976,-0.007106560282409191,-0.09225402772426605,-0.9957101345062256,0,0,0,-1,-1,3922.954816041667,unknown,2,2022-06-02T11:07:18.817+02:00,2022-06-02T10:17:13.754+02:00,757,1.530461,0,0,607.4087,0,0,2022-06-02T11:07:34.156+02:00,675853654.1559486,0,3.542969,101.3401,1,0.74
2022-06-02T11:07:34.943+02:00,1654160854.000256,53.22904238157639,10.3984917625138,36.83326,0.1479272,0.6770604,128.4640967021892,43.77953842308307,2.400000095367432,7.999579855010836,-9999,3939.079878416667,0.11273193359375,-0.0762176513671875,-0.9876556396484375,3939.069884416667,0.0128029136234294,-0.005566054962975723,0.09244889752227353,0.002731770742684603,0.1071787178516388,-0.2881056070327759,0.1273837089538574,-0.003614775836467743,0.02014356851577759,XArbitraryZVertical,0.04622466006118647,-0.002484198944225208,0.006265955331134037,0.9989083215780171,-0.005542257335036993,-0.09231726080179214,-0.9957142472267151,0,0,0,-1,-1,3922.954816041667,unknown,2,2022-06-02T11:07:18.817+02:00,2022-06-02T10:17:13.754+02:00,757,1.530461,0,0,607.4087,0,0,2022-06-02T11:07:34.156+02:00,675853654.1559486,0,3.542969,101.3401,1,0.74
2022-06-02T11:07:34.954+02:00,1654160854.000256,53.22904238157639,10.3984917625138,36.83326,0.1479272,0.6770604,128.4640967021892,43.77953842308307,2.400000095367432,7.999579855010836,-9999,3939.089873416667,0.0994415283203125,-0.0762481689453125,-0.996337890625,3939.079878416667,0.009968559777082232,-0.004315410548779031,0.09248020782398339,0.006995758041739464,0.07843601703643799,-0.2777224779129028,0.1246888190507889,0.01471168547868729,0.01508086919784546,XArbitraryZVertical,0.04623368757049873,-0.001924980443091924,0.004879184282768836,0.9989169100272902,-0.004296956583857536,-0.09234844148159027,-0.995717465877533,0,0,0,-1,-1,3922.954816041667,unknown,2,2022-06-02T11:07:18.817+02:00,2022-06-02T10:17:13.754+02:00,757,1.530461,0,0,607.4087,0,0,2022-06-02T11:07:34.156+02:00,675853654.1559486,0,3.542969,101.3401,1,0.74
2022-06-02T11:07:34.963+02:00,1654160854.000256,53.22904238157639,10.3984917625138,36.83326,0.1479272,0.6770604,128.4640967021892,43.77953842308307,2.400000095367432,7.999579855010836,-9999,3939.099868416667,0.0861663818359375,-0.0897216796875,-0.9972076416015625,3939.089873416667,0.007232100833244746,-0.00327013802200704,0.0926292744583221,0.01855301111936569,0.06905143707990646,-0.2684945166110992,0.1078246086835861,0.0149516761302948,0.0008499026298522949,XArbitraryZVertical,0.04630362533094851,-0.001465888725958529,0.003536460274001978,0.9989200202789486,-0.003256113035604358,-0.09249687194824219,-0.995707631111145,0,0,0,-1,-1,3922.954816041667,unknown,2,2022-06-02T11:07:18.817+02:00,2022-06-02T10:17:13.754+02:00,757,1.530461,0,0,607.4087,0,0,2022-06-02T11:07:34.156+02:00,675853654.1559486,0,3.542969,101.3401,1,0.74
2022-06-02T11:07:34.973+02:00,1654160854.000256,53.22904238157639,10.3984917625138,36.83326,0.1479272,0.6770604,128.4640967021892,43.77953842308307,2.400000095367432,7.999579855010836,-9999,3939.109862416667,0.085662841796875,-0.1032867431640625,-0.9960174560546875,3939.099868416667,0.00461686631834774,-0.002093922957549193,0.09287805544381934,0.02671054005622864,0.100525476038456,-0.2553446292877197,0.09525507688522339,0.01257488131523132,0.001348793506622314,XArbitraryZVertical,0.04642460631605928,-0.0009386671154158738,0.002257339022767717,0.9989187343170128,-0.002084896434098482,-0.09274458140134811,-0.99568772315979,0,0,0,-1,-1,3922.954816041667,unknown,2,2022-06-02T11:07:18.817+02:00,2022-06-02T10:17:13.754+02:00,757,1.530461,0,0,607.4087,0,0,2022-06-02T11:07:34.156+02:00,675853654.1559486,0,3.542969,101.3401,1,0.74
2022-06-02T11:07:34.984+02:00,1654160854.000256,53.22904238157639,10.3984917625138,36.83326,0.1479272,0.6770604,128.4640967021892,43.77953842308307,2.400000095367432,7.999579855010836,-9999,3939.119857416667,0.0843963623046875,-0.10040283203125,-0.990966796875,3939.109862416667,0.0021832527886145,-0.0006998634037874724,0.09312824034789721,0.02373442426323891,0.1160044968128204,-0.2296184152364731,0.08394879847764969,-0.006280027329921722,-0.001068115234375,XArbitraryZVertical,0.04654765060572698,-0.0002987399671988724,0.00107415461894079,0.998915352825812,-0.0006968306261114776,-0.09299368411302567,-0.9956664443016052,0,0,0,-1,-1,3922.954816041667,unknown,2,2022-06-02T11:07:18.817+02:00,2022-06-02T10:17:13.754+02:00,757,1.530461,0,0,607.4087,0,0,2022-06-02T11:07:34.156+02:00,675853654.1559486,0,3.542969,101.3401,1,0.74
2022-06-02T11:07:34.993+02:00,1654160854.000256,53.22904238157639,10.3984917625138,36.83326,0.1479272,0.6770604,128.4640967021892,43.77953842308307,2.400000095367432,7.999579855010836,-9999,3939.129852416667,0.0756378173828125,-0.0992584228515625,-0.989654541015625,3939.119857416667,-5.797582800561872e-05,0.0007409581737074203,0.09330963411108245,0.01087614987045527,0.1177078559994698,-0.2227304130792618,0.08638996630907059,-0.009608946740627289,-0.0003221631050109863,XArbitraryZVertical,0.04663790444349707,0.0003687240372573152,-1.167800366735612e-05,0.9989117199023376,0.0007377347792498767,-0.0931742936372757,-0.995649516582489,0,0,0,-1,-1,3922.954816041667,unknown,2,2022-06-02T11:07:18.817+02:00,2022-06-02T10:17:13.754+02:00,757,1.530461,0,0,607.4087,0,0,2022-06-02T11:07:34.156+02:00,675853654.1559486,0,3.542969,101.3401,1,0.74
2022-06-02T11:07:35.003+02:00,1654160854.000256,53.22904238157639,10.3984917625138,36.83326,0.1479272,0.6770604,128.4640967021892,43.77953842308307,2.400000095367432,7.999579855010836,-9999,3939.139846416667,0.0734100341796875,-0.09490966796875,-0.98492431640625,3939.129852416667,-0.002323459066570839,0.002291024167195019,0.09347632721338638,0.02330252528190613,0.1384265720844269,-0.2207347750663757,0.07753771543502808,-0.008268043398857117,0.006785869598388672,XArbitraryZVertical,0.04672242021410246,0.001089982918450515,-0.001106940357619623,0.9989066212119799,0.002281020162627101,-0.09334025532007217,-0.9956316351890564,0,0,0,-1,-1,3922.954816041667,unknown,2,2022-06-02T11:07:18.817+02:00,2022-06-02T10:17:13.754+02:00,757,1.530461,0,0,607.4087,0,0,2022-06-02T11:07:34.156+02:00,675853654.1559486,0,3.542969,101.3401,1,0.74
2022-06-02T11:07:35.013+02:00,1654160854.000256,53.22904238157639,10.3984917625138,36.83326,0.1479272,0.6770604,128.4640967021892,43.77953842308307,2.400000095367432,7.999579855010836,-9999,3939.149841416667,0.085540771484375,-0.080657958984375,-0.9899444580078125,3939.139846416667,-0.004515472203917746,0.004096130597551914,0.09369291280423415,0.02349134534597397,0.1651820242404938,-0.2167679965496063,0.06930137425661087,-0.001109667122364044,0.007644891738891602,XArbitraryZVertical,0.04683372714943914,0.00194008387605522,-0.002159343402638049,0.9988984315843777,0.004078153520822525,-0.09355589747428894,-0.9956056475639343,0,0,0,-1,-1,3922.954816041667,unknown,2,2022-06-02T11:07:18.817+02:00,2022-06-02T10:17:13.754+02:00,757,1.530461,0,0,607.4087,0,0,2022-06-02T11:07:34.156+02:00,675853654.1559486,0,3.542969,101.3401,1,0.74
2022-06-02T11:07:35.023+02:00,1654160854.000256,53.22904238157639,10.3984917625138,36.83326,0.1479272,0.6770604,128.4640967021892,43.77953842308307,2.400000095367432,7.999579855010836,-9999,3939.159836416667,0.0836334228515625,-0.0399017333984375,-0.9857635498046875,3939.149841416667,-0.006601545037098274,0.006076300894238633,0.09412183952273857,0.07154256105422974,0.1738347709178925,-0.1873124986886978,0.07027510553598404,-0.002147473394870758,0.01128727197647095,XArbitraryZVertical,0.04705309798870872,0.002879486672214244,-0.003154172674411596,0.9988831790952102,0.006049368996173143,-0.09398293495178223,-0.9955554008483887,0,0,0,-1,-1,3922.954816041667,unknown,2,2022-06-02T11:07:18.817+02:00,2022-06-02T10:17:13.754+02:00,757,1.530461,0,0,607.4087,0,0,2022-06-02T11:07:34.156+02:00,675853654.1559486,0,3.542969,101.3401,1,0.74
2022-06-02T11:07:35.033+02:00,1654160854.000256,53.22904238157639,10.3984917625138,36.83326,0.1479272,0.6770604,128.4640967021892,43.77953842308307,2.400000095367432,7.999579855010836,-9999,3939.169830416667,0.08251953125,-0.1313629150390625,-1.002059936523438,3939.159836416667,-0.008698593897158378,0.008130946129944026,0.09478169682213612,0.070767842233181,0.2063682079315186,-0.2206323742866516,0.08249708265066147,0.05472282320261002,0.006800711154937744,XArbitraryZVertical,0.0473899353977724,0.003854821762269387,-0.004151772614455414,0.9988603639444202,0.008094361983239651,-0.0946398451924324,-0.9954786896705627,0,0,0,-1,-1,3922.954816041667,unknown,2,2022-06-02T11:07:18.817+02:00,2022-06-02T10:17:13.754+02:00,757,1.530461,0,0,607.4087,0,0,2022-06-02T11:07:34.156+02:00,675853654.1559486,0,3.542969,101.3401,1,0.74
2022-06-02T11:07:35.043+02:00,1654160854.000256,53.22904238157639,10.3984917625138,36.83326,0.1479272,0.6770604,128.4640967021892,43.77953842308307,2.400000095367432,7.999579855010836,-9999,3939.179825416667,0.0876312255859375,-0.1136474609375,-0.9991455078125,3939.169830416667,-0.01083444600268072,0.01042873722894097,0.09546705724841388,0.06865519285202026,0.1919922679662704,-0.206234335899353,0.06905620545148849,0.007492497563362122,0.0009770989418029785,XArbitraryZVertical,0.04774227385794488,0.004949849415039911,-0.00516215204066387,0.9988340055079122,0.0103810615837574,-0.09532210975885391,-0.9953923225402832,0,0,0,-1,-1,3922.954816041667,unknown,2,2022-06-02T11:07:18.817+02:00,2022-06-02T10:17:13.754+02:00,757,1.530461,0,0,607.4087,0,0,2022-06-02T11:07:34.156+02:00,675853654.1559486,0,3.542969,101.3401,1,0.74
2022-06-02T11:07:35.054+02:00,1654160854.000256,53.22904238157639,10.3984917625138,36.83326,0.1479272,0.6770604,128.4640967021892,43.77953842308307,2.400000095367432,7.999579855010836,-9999,3939.189820416667,0.08013916015625,-0.095611572265625,-1.010360717773438,3939.179825416667,-0.01298779207011932,0.0125384179842385,0.09588910821341719,0.02017314545810223,0.1780911087989807,-0.2215259373188019,0.0713818222284317,-0.03769591450691223,-0.004076957702636719,XArbitraryZVertical,0.04796490232201165,0.005950612749714501,-0.006185810004498995,0.9988120921277648,0.01248049177229404,-0.09574223309755325,-0.995327889919281,0,0,0,-1,-1,3922.954816041667,unknown,2,2022-06-02T11:07:18.817+02:00,2022-06-02T10:17:13.754+02:00,757,1.530461,0,0,607.4087,0,0,2022-06-02T11:07:34.156+02:00,675853654.1559486,0,3.542969,101.3401,1,0.74
2022-06-02T11:07:35.064+02:00,1654160854.000256,53.22904238157639,10.3984917625138,36.83326,0.1479272,0.6770604,128.4640967021892,43.77953842308307,2.400000095367432,7.999579855010836,-9999,3939.199814416667,0.0734710693359375,-0.10009765625,-1.019943237304688,3939.199814416667,-0.01752455774448098,0.01672792179784485,0.09542825576154394,-0.04291388019919395,0.1758949309587479,-0.2177837789058685,0.05865110084414482,-0.002586424350738525,-0.01875770092010498,XArbitraryZVertical,0.04776573073444917,0.007936118190390936,-0.008352981033469174,0.9987920592409216,0.01665103621780872,-0.09528348594903946,-0.99531090259552,0,0,0,-1,-1,3922.954816041667,unknown,2,2022-06-02T11:07:18.817+02:00,2022-06-02T10:17:13.754+02:00,757,1.530461,0,0,607.4087,0,0,2022-06-02T11:07:34.156+02:00,675853654.1559486,0,3.542969,101.3401,1,0.74
2022-06-02T11:07:35.074+02:00,1654160854.000256,53.22904238157639,10.3984917625138,36.83326,0.1479272,0.6770604,128.4640967021892,43.77953842308307,2.400000095367432,7.999579855010836,-9999,3939.209809416667,0.0684356689453125,-0.07843017578125,-1.030242919921875,3939.199814416667,-0.01752455774448098,0.01672792179784485,0.09542825576154394,-0.04291388019919395,0.1758949309587479,-0.2177837789058685,0.05865110084414482,-0.002586424350738525,-0.01875770092010498,XArbitraryZVertical,0.04776573073444917,0.007936118190390936,-0.008352981033469174,0.9987920592409216,0.01665103621780872,-0.09528348594903946,-0.99531090259552,0,0,0,-1,-1,3922.954816041667,unknown,2,2022-06-02T11:07:18.817+02:00,2022-06-02T10:17:13.754+02:00,757,1.530461,0,0,607.4087,0,0,2022-06-02T11:07:34.156+02:00,675853654.1559486,0,3.542969,101.3401,1,0.74
2022-06-02T11:07:35.083+02:00,1654160854.000256,53.22904238157639,10.3984917625138,36.83326,0.1479272,0.6770604,128.4640967021892,43.77953842308307,2.400000095367432,7.999579855010836,-9999,3939.219804416667,0.053863525390625,-0.0785675048828125,-1.031204223632812,3939.209809416667,-0.01975537939472358,0.01876814068280868,0.09494137448964755,-0.0408819206058979,0.1774656027555466,-0.2277327626943588,0.05378147959709167,-0.0002024397253990173,-0.03063404560089111,XArbitraryZVertical,0.04754104219773024,0.008904207841761557,-0.009420694759180646,0.998785160864386,0.01868252083659172,-0.09479881078004837,-0.9953211545944214,0,0,0,-1,-1,3922.954816041667,unknown,2,2022-06-02T11:07:18.817+02:00,2022-06-02T10:17:13.754+02:00,757,1.530461,0,0,607.4087,0,0,2022-06-02T11:07:34.156+02:00,675853654.1559486,0,3.542969,101.3401,1,0.74
2022-06-02T11:07:35.094+02:00,1654160854.000256,53.22904238157639,10.3984917625138,36.83326,0.1479272,0.6770604,128.4640967021892,43.77953842308307,2.400000095367432,7.999579855010836,-9999,3939.229798416667,0.048248291015625,-0.1014404296875,-1.0306396484375,3939.229798416667,-0.02449963160396232,0.02330829535872619,0.09395690555618884,-0.03870465233922005,0.2115849405527115,-0.2424882650375366,0.02383946999907494,-0.001274079084396362,-0.03728914260864258,XArbitraryZVertical,0.04709706054815919,0.0110649409003963,-0.0116879250879469,0.9987606180196602,0.02320338785648346,-0.09381872415542603,-0.9953188896179199,0,0,0,-1,-1,3922.954816041667,unknown,2,2022-06-02T11:07:18.817+02:00,2022-06-02T10:17:13.754+02:00,757,1.530461,0,0,607.4087,0,0,2022-06-02T11:07:34.156+02:00,675853654.1559486,0,3.542969,101.3401,1,0.74
