loggingTime(txt),locationTimestamp_since1970(s),locationLatitude(WGS84),locationLongitude(WGS84),locationAltitude(m),locationSpeed(m/s),locationSpeedAccuracy(m/s),locationCourse(°),locationCourseAccuracy(°),locationVerticalAccuracy(m),locationHorizontalAccuracy(m),locationFloor(Z),accelerometerTimestamp_sinceReboot(s),accelerometerAccelerationX(G),accelerometerAccelerationY(G),accelerometerAccelerationZ(G),motionTimestamp_sinceReboot(s),motionYaw(rad),motionRoll(rad),motionPitch(rad),motionRotationRateX(rad/s),motionRotationRateY(rad/s),motionRotationRateZ(rad/s),motionUserAccelerationX(G),motionUserAccelerationY(G),motionUserAccelerationZ(G),motionAttitudeReferenceFrame(txt),motionQuaternionX(R),motionQuaternionY(R),motionQuaternionZ(R),motionQuaternionW(R),motionGravityX(G),motionGravityY(G),motionGravityZ(G),motionMagneticFieldX(µT),motionMagneticFieldY(µT),motionMagneticFieldZ(µT),motionHeading(°),motionMagneticFieldCalibrationAccuracy(Z),activityTimestamp_sinceReboot(s),activity(txt),activityActivityConfidence(Z),activityActivityStartDate(txt),pedometerStartDate(txt),pedometerNumberofSteps(N),pedometerAverageActivePace(s/m),pedometerCurrentPace(s/m),pedometerCurrentCadence(steps/s),pedometerDistance(m),pedometerFloorAscended(N),pedometerFloorDescended(N),pedometerEndDate(txt),altimeterTimestamp_sinceReboot(s),altimeterReset(bool),altimeterRelativeAltitude(m),altimeterPressure(kPa),batteryState(N),batteryLevel(R)
2022-06-02T10:46:25.771+02:00,1654159584.999687,53.22906985850716,10.39854467426455,36.80299,0.07059757,0.9313914,29.88590252474102,180,2.400000095367432,7.999579855010836,-9999,2730.031191416667,0.1471099853515625,-0.1963958740234375,-0.9461212158203125,2730.021196416667,2.482530002337432,0.05429343517625477,0.206764246873481,-0.005133110098540783,0.160469576716423,-0.1018754988908768,0.1152392774820328,0.1026940941810608,0.006112575531005859,XArbitraryZVertical,0.007836764568719314,0.1063461175288097,0.9417018917966065,0.3191028206478647,0.05311090126633644,-0.2052941471338272,-0.9772582054138184,0,0,0,-1,-1,2727.544461125,unknown,2,2022-06-02T10:46:23.266+02:00,2022-06-02T10:17:13.754+02:00,448,1.423373,0,0,345.1212,0,0,2022-06-02T10:46:23.266+02:00,675852370.4730482,0,7.050781,101.2962,1,0.81
2022-06-02T10:46:25.774+02:00,1654159584.999687,53.22906985850716,10.39854467426455,36.80299,0.07059757,0.9313914,29.88590252474102,180,2.400000095367432,7.999579855010836,-9999,2730.041185416667,0.0704803466796875,-0.2487640380859375,-0.9452056884765625,2730.031191416667,2.480731687879513,0.05570087374979615,0.2076401497281957,0.1903461068868637,0.04028616845607758,-0.1978057622909546,0.1045355498790741,0.06142173707485199,0.04256957769393921,XArbitraryZVertical,0.007412355525355255,0.106975633177402,0.9413809973415797,0.319848292713958,0.05447624623775482,-0.2061513215303421,-0.9770025610923767,0,0,0,-1,-1,2727.544461125,unknown,2,2022-06-02T10:46:23.266+02:00,2022-06-02T10:17:13.754+02:00,448,1.423373,0,0,345.1212,0,0,2022-06-02T10:46:23.266+02:00,675852370.4730482,0,7.050781,101.2962,1,0.81
2022-06-02T10:46:25.775+02:00,1654159584.999687,53.22906985850716,10.39854467426455,36.80299,0.07059757,0.9313914,29.88590252474102,180,2.400000095367432,7.999579855010836,-9999,2730.051180416667,-0.0041656494140625,-0.2037506103515625,-0.93621826171875,2730.041185416667,2.479122952487896,0.05605949019560848,0.2095591127721725,0.1790338009595871,-0.01660187914967537,-0.08852960169315338,0.06137603148818016,-0.02910812199115753,0.02489548921585083,XArbitraryZVertical,0.007642517535384783,0.107928243606652,0.9410390726902473,0.3205285219760812,0.05480434373021126,-0.2080286741256714,-0.9765861630439758,0,0,0,-1,-1,2727.544461125,unknown,2,2022-06-02T10:46:23.266+02:00,2022-06-02T10:17:13.754+02:00,448,1.423373,0,0,345.1212,0,0,2022-06-02T10:46:23.266+02:00,675852370.4730482,0,7.050781,101.2962,1,0.81
2022-06-02T10:46:25.783+02:00,1654159584.999687,53.22906985850716,10.39854467426455,36.80299,0.07059757,0.9313914,29.88590252474102,180,2.400000095367432,7.999579855010836,-9999,2730.061174416667,0.00537109375,-0.130645751953125,-0.956268310546875,2730.051180416667,2.478787774541751,0.05624379628576825,0.2107836509274917,0.07482537627220154,0.04552966728806496,0.02929583564400673,-0.02996085956692696,-0.02594214677810669,0.04083514213562012,XArbitraryZVertical,0.007773631582567062,0.1085314628569187,0.9409308776378932,0.3206391597704961,0.05496997386217117,-0.2092262655496597,-0.9763209819793701,0,0,0,-1,-1,2727.544461125,unknown,2,2022-06-02T10:46:23.266+02:00,2022-06-02T10:17:13.754+02:00,448,1.423373,0,0,345.1212,0,0,2022-06-02T10:46:23.266+02:00,675852370.4730482,0,7.050781,101.2962,1,0.81
2022-06-02T10:46:25.793+02:00,1654159584.999687,53.22906985850716,10.39854467426455,36.80299,0.07059757,0.9313914,29.88590252474102,180,2.400000095367432,7.999579855010836,-9999,2730.071169416667,0.0577850341796875,-0.1114044189453125,-0.9681549072265625,2730.061174416667,2.479396021611101,0.05680981166641511,0.2116871526299902,0.1127434521913528,0.08363311737775803,0.09152166545391083,-0.06570473313331604,0.04456713795661926,0.03016245365142822,XArbitraryZVertical,0.007621560618432916,0.1090487083385842,0.9409895927712625,0.3202946709581141,0.05551182106137276,-0.2101096957921982,-0.9761005640029907,0,0,0,-1,-1,2727.544461125,unknown,2,2022-06-02T10:46:23.266+02:00,2022-06-02T10:17:13.754+02:00,448,1.423373,0,0,345.1212,0,0,2022-06-02T10:46:23.266+02:00,675852370.4730482,0,7.050781,101.2962,1,0.81
2022-06-02T10:46:25.803+02:00,1654159584.999687,53.22906985850716,10.39854467426455,36.80299,0.07059757,0.9313914,29.88590252474102,180,2.400000095367432,7.999579855010836,-9999,2730.081163416667,0.0821075439453125,-0.189727783203125,-0.9864959716796875,2730.071169416667,2.480166478036986,0.05731214951815655,0.2134262243621615,0.2212499529123306,0.0444931648671627,0.06301625072956085,-0.02367831766605377,0.1025262176990509,0.01293772459030151,XArbitraryZVertical,0.007626320184823831,0.1099485674627291,0.9410356550286499,0.3198514197946459,0.05598113313317299,-0.2118096202611923,-0.9757062792778015,0,0,0,-1,-1,2727.544461125,unknown,2,2022-06-02T10:46:23.266+02:00,2022-06-02T10:17:13.754+02:00,448,1.423373,0,0,345.1212,0,0,2022-06-02T10:46:23.266+02:00,675852370.4730482,0,7.050781,101.2962,1,0.81
2022-06-02T10:46:25.813+02:00,1654159584.999687,53.22906985850716,10.39854467426455,36.80299,0.07059757,0.9313914,29.88590252474102,180,2.400000095367432,7.999579855010836,-9999,2730.091158416667,0.079010009765625,-0.280364990234375,-1.006210327148438,2730.081163416667,2.480114024305352,0.05757439146492788,0.2158301765586191,0.2499127686023712,0.01224122010171413,-0.04440581426024437,0.01900299265980721,0.07367078959941864,-2.402067184448242e-05,XArbitraryZVertical,0.00789724596519369,0.1111189302411137,0.9409177104134321,0.3197873511710534,0.05620754137635231,-0.2141584157943726,-0.975180447101593,0,0,0,-1,-1,2727.544461125,unknown,2,2022-06-02T10:46:23.266+02:00,2022-06-02T10:17:13.754+02:00,448,1.423373,0,0,345.1212,0,0,2022-06-02T10:46:23.266+02:00,675852370.4730482,0,7.050781,101.2962,1,0.81
2022-06-02T10:46:25.823+02:00,1654159584.999687,53.22906985850716,10.39854467426455,36.80299,0.07059757,0.9313914,29.88590252474102,180,2.400000095367432,7.999579855010836,-9999,2730.101152416667,0.0447998046875,-0.29632568359375,-1.007415771484375,2730.091158416667,2.479308967362108,0.05788333831112422,0.2177956777305134,0.1298119276762009,0.01721999980509281,-0.08078458905220032,0.0265691950917244,-0.02504143118858337,-0.02550321817398071,XArbitraryZVertical,0.008117060600134798,0.1120877190069945,0.940698782395639,0.3200875799291432,0.05648435652256012,-0.216077908873558,-0.9747409224510193,0,0,0,-1,-1,2727.544461125,unknown,2,2022-06-02T10:46:23.266+02:00,2022-06-02T10:17:13.754+02:00,448,1.423373,0,0,345.1212,0,0,2022-06-02T10:46:23.266+02:00,675852370.4730482,0,7.050781,101.2962,1,0.81
2022-06-02T10:46:25.833+02:00,1654159584.999687,53.22906985850716,10.39854467426455,36.80299,0.07059757,0.9313914,29.88590252474102,180,2.400000095367432,7.999579855010836,-9999,2730.111147416667,0.0447845458984375,-0.239013671875,-0.9982147216796875,2730.101152416667,2.478400473103676,0.05843557819497064,0.2181194413049995,-0.0546569861471653,0.06279440969228745,-0.07938750088214874,0.01019637286663055,-0.08405150473117828,-0.02948015928268433,XArbitraryZVertical,0.007961121802167124,0.1123244392251547,0.940540396354115,0.3204737217273311,0.05701854825019836,-0.2163940072059631,-0.9746396541595459,0,0,0,-1,-1,2730.102895416667,unknown,2,2022-06-02T10:46:25.825+02:00,2022-06-02T10:17:13.754+02:00,448,1.423373,0,0,345.1212,0,0,2022-06-02T10:46:25.824+02:00,675852385.8243657,0,7.03125,101.2995,1,0.81
2022-06-02T10:46:25.843+02:00,1654159584.999687,53.22906985850716,10.39854467426455,36.80299,0.07059757,0.9313914,29.88590252474102,180,2.400000095367432,7.999579855010836,-9999,2730.121141416667,0.0528411865234375,-0.172637939453125,-0.9710540771484375,2730.111147416667,2.478113888172246,0.05928820470645541,0.2170262722219712,-0.1465530544519424,0.09176886826753616,0.01158388610929251,-0.02249367907643318,-0.05882801115512848,-0.03345924615859985,XArbitraryZVertical,0.007397723443520832,0.1119470340388232,0.9405486373976217,0.3205951453209509,0.0578635148704052,-0.2153266072273254,-0.9748262763023376,0,0,0,-1,-1,2730.102895416667,unknown,2,2022-06-02T10:46:25.825+02:00,2022-06-02T10:17:13.754+02:00,448,1.423373,0,0,345.1212,0,0,2022-06-02T10:46:25.824+02:00,675852385.8243657,0,7.03125,101.2995,1,0.81
2022-06-02T10:46:25.853+02:00,1654159584.999687,53.22906985850716,10.39854467426455,36.80299,0.07059757,0.9313914,29.88590252474102,180,2.400000095367432,7.999579855010836,-9999,2730.131136416667,0.0548553466796875,-0.1474151611328125,-0.9413909912109375,2730.121141416667,2.478553931819947,0.06008152729792017,0.2157640656942718,-0.0957145094871521,0.08015748858451843,0.05164875090122223,-0.007246300578117371,0.012098029255867,-0.009782195091247559,XArbitraryZVertical,0.006793932161046876,0.1114834178803341,0.9406802950168942,0.3203837743614117,0.05865311995148659,-0.2140938341617584,-0.9750505685806274,0,0,0,-1,-1,2730.102895416667,unknown,2,2022-06-02T10:46:25.825+02:00,2022-06-02T10:17:13.754+02:00,448,1.423373,0,0,345.1212,0,0,2022-06-02T10:46:25.824+02:00,675852385.8243657,0,7.03125,101.2995,1,0.81
2022-06-02T10:46:25.863+02:00,1654159584.999687,53.22906985850716,10.39854467426455,36.80299,0.07059757,0.9313914,29.88590252474102,180,2.400000095367432,7.999579855010836,-9999,2730.141130416667,0.064056396484375,-0.1537628173828125,-0.9262542724609375,2730.131136416667,2.479062452835092,0.06064690032295608,0.2154726365254667,0.03369008749723434,0.05803034454584122,0.04611976072192192,-0.007160469889640808,0.05844421684741974,0.01893329620361328,XArbitraryZVertical,0.006452102180973101,0.1114388595768074,0.940777014105978,0.3201223361563911,0.05920815840363503,-0.2138091623783112,-0.9750794768333435,0,0,0,-1,-1,2730.102895416667,unknown,2,2022-06-02T10:46:25.825+02:00,2022-06-02T10:17:13.754+02:00,448,1.423373,0,0,345.1212,0,0,2022-06-02T10:46:25.824+02:00,675852385.8243657,0,7.03125,101.2995,1,0.81
2022-06-02T10:46:25.873+02:00,1654159584.999687,53.22906985850716,10.39854467426455,36.80299,0.07059757,0.9313914,29.88590252474102,180,2.400000095367432,7.999579855010836,-9999,2730.151125416667,0.07098388671875,-0.17889404296875,-0.9262237548828125,2730.141130416667,2.479536518755401,0.06101897300509306,0.2164708769902853,0.155535027384758,0.03175080567598343,0.06022039800882339,0.0004853792488574982,0.06788790225982666,0.04649919271469116,XArbitraryZVertical,0.006413409274826642,0.1119684157098106,0.9408081315248871,0.3198468218151662,0.05955790728330612,-0.2147842049598694,-0.9748438596725464,0,0,0,-1,-1,2730.102895416667,unknown,2,2022-06-02T10:46:25.825+02:00,2022-06-02T10:17:13.754+02:00,448,1.423373,0,0,345.1212,0,0,2022-06-02T10:46:25.824+02:00,675852385.8243657,0,7.03125,101.2995,1,0.81
2022-06-02T10:46:25.883+02:00,1654159584.999687,53.22906985850716,10.39854467426455,36.80299,0.07059757,0.9313914,29.88590252474102,180,2.400000095367432,7.999579855010836,-9999,2730.161119416667,0.082489013671875,-0.2171478271484375,-0.9452667236328125,2730.151125416667,2.480027809021767,0.06111852445766443,0.2183101412786676,0.1902005970478058,0.01529140397906303,0.05260881781578064,0.008072484284639359,0.05106814205646515,0.0459904670715332,XArbitraryZVertical,0.006638735207980873,0.1128491450980714,0.9408017655572934,0.3195513472462959,0.05963072553277016,-0.2165801823139191,-0.9744420051574707,0,0,0,-1,-1,2730.102895416667,unknown,2,2022-06-02T10:46:25.825+02:00,2022-06-02T10:17:13.754+02:00,448,1.423373,0,0,345.1212,0,0,2022-06-02T10:46:25.824+02:00,675852385.8243657,0,7.03125,101.2995,1,0.81
2022-06-02T10:46:25.893+02:00,1654159584.999687,53.22906985850716,10.39854467426455,36.80299,0.07059757,0.9313914,29.88590252474102,180,2.400000095367432,7.999579855010836,-9999,2730.171114416667,0.0879974365234375,-0.249786376953125,-0.9747467041015625,2730.161119416667,2.480404993952097,0.06125348178948944,0.2196234526890802,0.1595317721366882,0.004741025622934103,0.04736931249499321,0.01421454176306725,0.02157311141490936,0.04331725835800171,XArbitraryZVertical,0.006767815941001426,0.1134883306139286,0.9408010593036107,0.3193240460018003,0.05974476784467697,-0.2178621292114258,-0.9741491675376892,0,0,0,-1,-1,2730.102895416667,unknown,2,2022-06-02T10:46:25.825+02:00,2022-06-02T10:17:13.754+02:00,448,1.423373,0,0,345.1212,0,0,2022-06-02T10:46:25.824+02:00,675852385.8243657,0,7.03125,101.2995,1,0.81
2022-06-02T10:46:25.903+02:00,1654159584.999687,53.22906985850716,10.39854467426455,36.80299,0.07059757,0.9313914,29.88590252474102,180,2.400000095367432,7.999579855010836,-9999,2730.181108416667,0.0811920166015625,-0.2601776123046875,-0.9993743896484375,2730.171114416667,2.480606443351039,0.06138646700432886,0.2209615735576813,0.08080952614545822,0.00505234906449914,0.01040383893996477,0.02821731194853783,-0.01618358492851257,0.01221001148223877,XArbitraryZVertical,0.006911665942270616,0.1141382160918468,0.9407708217948492,0.3191786584748314,0.05985637754201889,-0.2191679179668427,-0.9738494157791138,0,0,0,-1,-1,2730.102895416667,unknown,2,2022-06-02T10:46:25.825+02:00,2022-06-02T10:17:13.754+02:00,448,1.423373,0,0,345.1212,0,0,2022-06-02T10:46:25.824+02:00,675852385.8243657,0,7.03125,101.2995,1,0.81
2022-06-02T10:46:25.916+02:00,1654159584.999687,53.22906985850716,10.39854467426455,36.80299,0.07059757,0.9313914,29.88590252474102,180,2.400000095367432,7.999579855010836,-9999,2730.191103416667,0.0747222900390625,-0.2450408935546875,-1.022018432617188,2730.181108416667,2.480535496330876,0.06153965757452197,0.221839247227463,0.00193055858835578,0.01747200079262257,-0.0104785393923521,0.02504348009824753,-0.03838337957859039,-0.0159609317779541,XArbitraryZVertical,0.00698654983908607,0.1145742847990744,0.9407185385462258,0.3191748595839923,0.05999371036887169,-0.2200241684913635,-0.9736478328704834,0,0,0,-1,-1,2730.102895416667,unknown,2,2022-06-02T10:46:25.825+02:00,2022-06-02T10:17:13.754+02:00,448,1.423373,0,0,345.1212,0,0,2022-06-02T10:46:25.824+02:00,675852385.8243657,0,7.03125,101.2995,1,0.81
2022-06-02T10:46:25.923+02:00,1654159584.999687,53.22906985850716,10.39854467426455,36.80299,0.07059757,0.9313914,29.88590252474102,180,2.400000095367432,7.999579855010836,-9999,2730.201097416667,0.065155029296875,-0.2353515625,-1.024459838867188,2730.191103416667,2.480542456323105,0.06159068548100355,0.2220069907778217,-0.03275498375296593,0.03296360746026039,0.0011562779545784,0.0186331495642662,-0.03399305045604706,-0.03557783365249634,XArbitraryZVertical,0.006989455613962785,0.1146611738104547,0.940711832600761,0.3191631645516696,0.06004111841320992,-0.2201877981424332,-0.9736078977584839,0,0,0,-1,-1,2730.102895416667,unknown,2,2022-06-02T10:46:25.825+02:00,2022-06-02T10:17:13.754+02:00,448,1.423373,0,0,345.1212,0,0,2022-06-02T10:46:25.824+02:00,675852385.8243657,0,7.03125,101.2995,1,0.81
2022-06-02T10:46:25.933+02:00,1654159584.999687,53.22906985850716,10.39854467426455,36.80299,0.07059757,0.9313914,29.88590252474102,180,2.400000095367432,7.999579855010836,-9999,2730.211092416667,0.063720703125,-0.226104736328125,-1.004730224609375,2730.201097416667,2.480606954262437,0.06192895151091819,0.221425743442728,-0.04872526228427887,0.04799002781510353,-0.002461959607899189,0.009537369012832642,-0.01858413219451904,-0.05256050825119019,XArbitraryZVertical,0.00673202846887017,0.1144426085483709,0.9407508539098909,0.3191323970864707,0.06037836521863937,-0.2196207791566849,-0.9737151265144348,0,0,0,-1,-1,2730.102895416667,unknown,2,2022-06-02T10:46:25.825+02:00,2022-06-02T10:17:13.754+02:00,448,1.423373,0,0,345.1212,0,0,2022-06-02T10:46:25.824+02:00,675852385.8243657,0,7.03125,101.2995,1,0.81
2022-06-02T10:46:25.943+02:00,1654159584.999687,53.22906985850716,10.39854467426455,36.80299,0.07059757,0.9313914,29.88590252474102,180,2.400000095367432,7.999579855010836,-9999,2730.221086416667,0.056396484375,-0.217254638671875,-0.98687744140625,2730.211092416667,2.480635327461901,0.06239628948346584,0.2205274819628759,-0.04198320209980011,0.05492916330695152,-0.0002432800829410553,0.003470059484243393,-0.01308237016201019,-0.04299288988113403,XArbitraryZVertical,0.006364330766353382,0.1140957496409691,0.9407991651684957,0.319121454043138,0.06084568798542023,-0.2187443673610687,-0.973883330821991,0,0,0,-1,-1,2730.102895416667,unknown,2,2022-06-02T10:46:25.825+02:00,2022-06-02T10:17:13.754+02:00,448,1.423373,0,0,345.1212,0,0,2022-06-02T10:46:25.824+02:00,675852385.8243657,0,7.03125,101.2995,1,0.81
2022-06-02T10:46:25.953+02:00,1654159584.999687,53.22906985850716,10.39854467426455,36.80299,0.07059757,0.9313914,29.88590252474102,180,2.400000095367432,7.999579855010836,-9999,2730.231081416667,0.0484619140625,-0.22235107421875,-0.9598236083984375,2730.221086416667,2.480659680211922,0.06293320167225944,0.2196736112875622,-0.0355641208589077,0.04925649613142014,0.004076233133673668,-0.0003604404628276825,-0.002379998564720154,-0.0213552713394165,XArbitraryZVertical,0.00597135931092271,0.1137807662027014,0.9408447858381458,0.3191072694853189,0.0613802932202816,-0.2179110944271088,-0.9740365743637085,0,0,0,-1,-1,2730.102895416667,unknown,2,2022-06-02T10:46:25.825+02:00,2022-06-02T10:17:13.754+02:00,448,1.423373,0,0,345.1212,0,0,2022-06-02T10:46:25.824+02:00,675852385.8243657,0,7.03125,101.2995,1,0.81
2022-06-02T10:46:25.963+02:00,1654159584.999687,53.22906985850716,10.39854467426455,36.80299,0.07059757,0.9313914,29.88590252474102,180,2.400000095367432,7.999579855010836,-9999,2730.241075416667,0.0511627197265625,-0.246124267578125,-0.9547119140625,2730.231081416667,2.480716702639673,0.06360345211489934,0.2188161766692311,-0.04518798366189003,0.068720743060112,0.01025529950857162,-0.00937168300151825,-0.0007755011320114136,0.001586079597473145,XArbitraryZVertical,0.00551319916094636,0.1134854702624656,0.9408957119488505,0.3190702425720837,0.06204498186707497,-0.2170741856098175,-0.9741812944412231,0,0,0,-1,-1,2730.102895416667,unknown,2,2022-06-02T10:46:25.825+02:00,2022-06-02T10:17:13.754+02:00,448,1.423373,0,0,345.1212,0,0,2022-06-02T10:46:25.824+02:00,675852385.8243657,0,7.03125,101.2995,1,0.81
2022-06-02T10:46:25.973+02:00,1654159584.999687,53.22906985850716,10.39854467426455,36.80299,0.07059757,0.9313914,29.88590252474102,180,2.400000095367432,7.999579855010836,-9999,2730.251070416667,0.067779541015625,-0.2483062744140625,-0.947296142578125,2730.241075416667,2.480878659023939,0.06444991721073784,0.2182960998541566,-0.03425687551498413,0.06672610342502594,0.02688161283731461,-0.0152999684214592,-0.01812893152236938,0.01959007978439331,XArbitraryZVertical,0.005021114910977559,0.1133768212217032,0.9409479471391561,0.318963116984155,0.06287683546543121,-0.2165664732456207,-0.9742409586906433,0,0,0,-1,-1,2730.102895416667,unknown,2,2022-06-02T10:46:25.825+02:00,2022-06-02T10:17:13.754+02:00,448,1.423373,0,0,345.1212,0,0,2022-06-02T10:46:25.824+02:00,675852385.8243657,0,7.03125,101.2995,1,0.81
2022-06-02T10:46:25.983+02:00,1654159584.999687,53.22906985850716,10.39854467426455,36.80299,0.07059757,0.9313914,29.88590252474102,180,2.400000095367432,7.999579855010836,-9999,2730.261064416667,0.0808868408203125,-0.2451629638671875,-0.94757080078125,2730.251070416667,2.481171718146965,0.06532212917620019,0.2182005231909026,-0.04225461184978485,0.05551046505570412,0.03745169937610626,-0.00469169020652771,-0.03470171988010406,0.02227157354354858,XArbitraryZVertical,0.004578566450073246,0.1134717388909352,0.9410011155400733,0.3187788305167876,0.06372790783643723,-0.2164731621742249,-0.9742063879966736,0,0,0,-1,-1,2730.102895416667,unknown,2,2022-06-02T10:46:25.825+02:00,2022-06-02T10:17:13.754+02:00,448,1.423373,0,0,345.1212,0,0,2022-06-02T10:46:25.824+02:00,675852385.8243657,0,7.03125,101.2995,1,0.81
2022-06-02T10:46:25.993+02:00,1654159584.999687,53.22906985850716,10.39854467426455,36.80299,0.07059757,0.9313914,29.88590252474102,180,2.400000095367432,7.999579855010836,-9999,2730.271059416667,0.082427978515625,-0.2500762939453125,-0.969085693359375,2730.261064416667,2.481570844723961,0.06597674417836334,0.2182804378092599,-0.0673060342669487,0.02994571626186371,0.04698954895138741,0.01051035523414612,-0.02951200306415558,0.02808701992034912,XArbitraryZVertical,0.004260903178851899,0.113614432007777,0.9410624571200391,0.3185512200203897,0.0643644779920578,-0.2165511846542358,-0.9741472005844116,0,0,0,-1,-1,2730.102895416667,unknown,2,2022-06-02T10:46:25.825+02:00,2022-06-02T10:17:13.754+02:00,448,1.423373,0,0,345.1212,0,0,2022-06-02T10:46:25.824+02:00,675852385.8243657,0,7.03125,101.2995,1,0.81
2022-06-02T10:46:26.003+02:00,1654159584.999687,53.22906985850716,10.39854467426455,36.80299,0.07059757,0.9313914,29.88590252474102,180,2.400000095367432,7.999579855010836,-9999,2730.281053416667,0.078582763671875,-0.2287750244140625,-1.006820678710938,2730.271059416667,2.48205373445904,0.0662594530582858,0.2179848870840541,-0.08959456533193588,0.01172942668199539,0.04574425518512726,0.01894349604845047,-0.03172315657138824,0.01983183622360229,XArbitraryZVertical,0.004052397190550767,0.113521707153555,0.9411536458191473,0.3183178401741477,0.06464411318302155,-0.2162626385688782,-0.9741927981376648,0,0,0,-1,-1,2730.102895416667,unknown,2,2022-06-02T10:46:25.825+02:00,2022-06-02T10:17:13.754+02:00,448,1.423373,0,0,345.1212,0,0,2022-06-02T10:46:25.824+02:00,675852385.8243657,0,7.03125,101.2995,1,0.81
2022-06-02T10:46:26.013+02:00,1654159584.999687,53.22906985850716,10.39854467426455,36.80299,0.07059757,0.9313914,29.88590252474102,180,2.400000095367432,7.999579855010836,-9999,2730.291048416667,0.073455810546875,-0.1928558349609375,-1.002243041992188,2730.281053416667,2.48258545326499,0.06611252316983379,0.2175089318109621,-0.0399680882692337,-0.0198358241468668,0.05090772360563278,0.01590600609779358,-0.02835790812969208,-0.0178825855255127,XArbitraryZVertical,0.004014050759678542,0.1132759691108032,0.9412598736915634,0.3180917230764327,0.06450776755809784,-0.2157979160547256,-0.9743048548698425,0,0,0,-1,-1,2730.102895416667,unknown,2,2022-06-02T10:46:25.825+02:00,2022-06-02T10:17:13.754+02:00,448,1.423373,0,0,345.1212,0,0,2022-06-02T10:46:25.824+02:00,675852385.8243657,0,7.03125,101.2995,1,0.81
2022-06-02T10:46:26.023+02:00,1654159584.999687,53.22906985850716,10.39854467426455,36.80299,0.07059757,0.9313914,29.88590252474102,180,2.400000095367432,7.999579855010836,-9999,2730.301042416667,0.0676422119140625,-0.1793975830078125,-1.02239990234375,2730.291048416667,2.483093506160745,0.06574545555636004,0.2176870997536703,0.04625761136412621,-0.01899160072207451,0.04282023385167122,0.01345854997634888,0.006972312927246094,-0.02647280693054199,XArbitraryZVertical,0.004186953634585009,0.1133023139716233,0.9413315949827001,0.3178673938314376,0.06414759904146194,-0.2159718871116638,-0.974290132522583,0,0,0,-1,-1,2730.102895416667,unknown,2,2022-06-02T10:46:25.825+02:00,2022-06-02T10:17:13.754+02:00,448,1.423373,0,0,345.1212,0,0,2022-06-02T10:46:25.824+02:00,675852385.8243657,0,7.03125,101.2995,1,0.81
2022-06-02T10:46:26.033+02:00,1654159584.999687,53.22906985850716,10.39854467426455,36.80299,0.07059757,0.9313914,29.88590252474102,180,2.400000095367432,7.999579855010836,-9999,2730.311037416667,0.06475830078125,-0.1887969970703125,-1.025604248046875,2730.301042416667,2.483434910031978,0.06546368481309632,0.2187325242312935,0.1580331176519394,-0.002827344927936792,0.03656480461359024,0.005553923547267914,0.0330326110124588,-0.03920811414718628,XArbitraryZVertical,0.004469840025168038,0.1137491123172873,0.9413369736302962,0.3176882673834812,0.063858263194561,-0.2169925272464752,-0.9740822911262512,0,0,0,-1,-1,2730.102895416667,unknown,2,2022-06-02T10:46:25.825+02:00,2022-06-02T10:17:13.754+02:00,448,1.423373,0,0,345.1212,0,0,2022-06-02T10:46:25.824+02:00,675852385.8243657,0,7.03125,101.2995,1,0.81
2022-06-02T10:46:26.043+02:00,1654159584.999687,53.22906985850716,10.39854467426455,36.80299,0.07059757,0.9313914,29.88590252474102,180,2.400000095367432,7.999579855010836,-9999,2730.321031416667,0.0571136474609375,-0.2191619873046875,-1.012496948242188,2730.311037416667,2.483672344352076,0.0651575447311346,0.2206833390907138,0.2172650098800659,0.004883837886154652,0.0215432420372963,0.003606244921684265,0.03705750405788422,-0.05247598886489868,XArbitraryZVertical,0.004916776972315635,0.1146169582746285,0.9412830384460046,0.3175295001616443,0.06353237479925156,-0.2188964337110519,-0.9736775755882263,0,0,0,-1,-1,2730.102895416667,unknown,2,2022-06-02T10:46:25.825+02:00,2022-06-02T10:17:13.754+02:00,448,1.423373,0,0,345.1212,0,0,2022-06-02T10:46:25.824+02:00,675852385.8243657,0,7.03125,101.2995,1,0.81
2022-06-02T10:46:26.053+02:00,1654159584.999687,53.22906985850716,10.39854467426455,36.80299,0.07059757,0.9313914,29.88590252474102,180,2.400000095367432,7.999579855010836,-9999,2730.331026416667,0.061279296875,-0.261627197265625,-0.9827117919921875,2730.321031416667,2.483753448312058,0.06490765021917284,0.2233515706418071,0.2109580785036087,0.02703328058123589,0.001785849221050739,-0.003955334424972534,0.02061726152896881,-0.04723286628723145,XArbitraryZVertical,0.005462347755294601,0.1158301039519965,0.9411693800196761,0.3174172001455903,0.06325094401836395,-0.2214991748332977,-0.9731070995330811,0,0,0,-1,-1,2730.102895416667,unknown,2,2022-06-02T10:46:25.825+02:00,2022-06-02T10:17:13.754+02:00,448,1.423373,0,0,345.1212,0,0,2022-06-02T10:46:25.824+02:00,675852385.8243657,0,7.03125,101.2995,1,0.81
2022-06-02T10:46:26.063+02:00,1654159584.999687,53.22906985850716,10.39854467426455,36.80299,0.07059757,0.9313914,29.88590252474102,180,2.400000095367432,7.999579855010836,-9999,2730.341020416667,0.0587005615234375,-0.29962158203125,-0.957550048828125,2730.331026416667,2.483586423301069,0.06519065654585647,0.2258485373657589,0.1356707811355591,0.03426749259233475,-0.01666399836540222,-0.003935098648071289,-0.01616357266902924,-0.02687066793441772,XArbitraryZVertical,0.00574379257401282,0.1170465535399629,0.9410243662323505,0.3173959679071506,0.06349010765552521,-0.2239334285259247,-0.9725342392921448,0,0,0,-1,-1,2730.102895416667,unknown,2,2022-06-02T10:46:25.825+02:00,2022-06-02T10:17:13.754+02:00,448,1.423373,0,0,345.1212,0,0,2022-06-02T10:46:25.824+02:00,675852385.8243657,0,7.03125,101.2995,1,0.81
2022-06-02T10:46:26.073+02:00,1654159584.999687,53.22906985850716,10.39854467426455,36.80299,0.07059757,0.9313914,29.88590252474102,180,2.400000095367432,7.999579855010836,-9999,2730.351015416667,0.0524749755859375,-0.3050689697265625,-0.9437713623046875,2730.341020416667,2.483195965000096,0.06595329150938969,0.2272502081135063,0.01307941600680351,0.03627778217196465,-0.03450145199894905,-0.002336680889129639,-0.05796484649181366,0.005115091800689697,XArbitraryZVertical,0.005635301754546827,0.117824272980451,0.9408969891284107,0.3174876711053828,0.06421103328466415,-0.225299283862114,-0.9721713662147522,0,0,0,-1,-1,2730.102895416667,unknown,2,2022-06-02T10:46:25.825+02:00,2022-06-02T10:17:13.754+02:00,448,1.423373,0,0,345.1212,0,0,2022-06-02T10:46:25.824+02:00,675852385.8243657,0,7.03125,101.2995,1,0.81
2022-06-02T10:46:26.083+02:00,1654159585.999692,53.22907074211478,10.39855068497811,36.81837,0.07944696,0.949674,30.6971104320851,180,2.400000095367432,7.999579855010836,-9999,2730.361009416667,0.0499420166015625,-0.2686309814453125,-0.9521636962890625,2730.351015416667,2.482923192301043,0.06681001575178533,0.2272127384109677,-0.1193108409643173,0.04436420276761055,-0.002155229449272156,-0.009624570608139038,-0.08297997713088989,0.02070838212966919,XArbitraryZVertical,0.005242263830797556,0.1179419609144415,0.9408578543276709,0.3175668082063877,0.06504445523023605,-0.225262776017189,-0.9721243977546692,0,0,0,-1,-1,2730.102895416667,unknown,2,2022-06-02T10:46:25.825+02:00,2022-06-02T10:17:13.754+02:00,448,1.423373,0,0,345.1212,0,0,2022-06-02T10:46:25.824+02:00,675852385.8243657,0,7.03125,101.2995,1,0.81
2022-06-02T10:46:26.093+02:00,1654159585.999692,53.22907074211478,10.39855068497811,36.81837,0.07944696,0.949674,30.6971104320851,180,2.400000095367432,7.999579855010836,-9999,2730.371004416667,0.05755615234375,-0.21337890625,-0.9663543701171875,2730.361009416667,2.483229764631453,0.06737569892316027,0.2258193698261375,-0.193948894739151,0.0360470823943615,0.04736099019646645,-0.01579552888870239,-0.0659203827381134,0.02777385711669922,XArbitraryZVertical,0.004731894999334366,0.1173787255805417,0.9409748204251489,0.3174366271808951,0.06561542302370071,-0.2239049971103668,-0.9723997116088867,0,0,0,-1,-1,2730.102895416667,unknown,2,2022-06-02T10:46:25.825+02:00,2022-06-02T10:17:13.754+02:00,448,1.423373,0,0,345.1212,0,0,2022-06-02T10:46:25.824+02:00,675852385.8243657,0,7.03125,101.2995,1,0.81
2022-06-02T10:46:26.103+02:00,1654159585.999692,53.22907074211478,10.39855068497811,36.81837,0.07944696,0.949674,30.6971104320851,180,2.400000095367432,7.999579855010836,-9999,2730.380998416667,0.071044921875,-0.1683807373046875,-0.9730224609375,2730.371004416667,2.483973252606699,0.06768619664029338,0.2236402028904022,-0.182538315653801,0.02980676479637623,0.07830159366130829,-0.01165946573019028,-0.0215207040309906,0.00946962833404541,XArbitraryZVertical,0.004188824601394686,0.1164069040057575,0.9411972815790395,0.3171427670223927,0.0659501925110817,-0.2217806279659271,-0.9728637933731079,0,0,0,-1,-1,2730.102895416667,unknown,2,2022-06-02T10:46:25.825+02:00,2022-06-02T10:17:13.754+02:00,448,1.423373,0,0,345.1212,0,0,2022-06-02T10:46:25.824+02:00,675852385.8243657,0,7.03125,101.2995,1,0.81
2022-06-02T10:46:26.113+02:00,1654159585.999692,53.22907074211478,10.39855068497811,36.81837,0.07944696,0.949674,30.6971104320851,180,2.400000095367432,7.999579855010836,-9999,2730.390993416667,0.079620361328125,-0.1606292724609375,-0.993255615234375,2730.380998416667,2.484924673558679,0.06770819340767946,0.2215377820344178,-0.122910737991333,0.01341567374765873,0.08457294106483459,-0.002984240651130676,0.03537343442440033,0.008100152015686035,XArbitraryZVertical,0.003782662888611489,0.1154253106547746,0.9414471225311732,0.3167647933207191,0.06600299477577209,-0.2197300791740417,-0.9733253717422485,0,0,0,-1,-1,2730.102895416667,unknown,2,2022-06-02T10:46:25.825+02:00,2022-06-02T10:17:13.754+02:00,448,1.423373,0,0,345.1212,0,0,2022-06-02T10:46:25.824+02:00,675852385.8243657,0,7.03125,101.2995,1,0.81
2022-06-02T10:46:26.122+02:00,1654159585.999692,53.22907074211478,10.39855068497811,36.81837,0.07944696,0.949674,30.6971104320851,180,2.400000095367432,7.999579855010836,-9999,2730.400987416667,0.07196044921875,-0.17047119140625,-0.9885406494140625,2730.390993416667,2.485756011374308,0.06753970234856065,0.2203171311373066,-0.03283943980932236,-0.002245044801384211,0.06047133356332779,0.01185592263936996,0.05771151185035706,-0.01139724254608154,XArbitraryZVertical,0.003616594682989072,0.114827000480395,0.9416354285546813,0.3164241719600426,0.06585705280303955,-0.2185391038656235,-0.973603367805481,0,0,0,-1,-1,2730.102895416667,unknown,2,2022-06-02T10:46:25.825+02:00,2022-06-02T10:17:13.754+02:00,448,1.423373,0,0,345.1212,0,0,2022-06-02T10:46:25.824+02:00,675852385.8243657,0,7.03125,101.2995,1,0.81
2022-06-02T10:46:26.132+02:00,1654159585.999692,53.22907074211478,10.39855068497811,36.81837,0.07944696,0.949674,30.6971104320851,180,2.400000095367432,7.999579855010836,-9999,2730.410982416667,0.0764007568359375,-0.1967926025390625,-0.9883270263671875,2730.400987416667,2.486216456532172,0.06737117177353621,0.2201030631131189,0.0272773951292038,0.004933971911668777,0.02796805091202259,0.009224496781826019,0.05525957047939301,-0.01733618974685669,XArbitraryZVertical,0.003634917502533865,0.1147006408333486,0.9417179417597005,0.3162242528316013,0.0656961128115654,-0.2183302044868469,-0.9736611247062683,0,0,0,-1,-1,2730.102895416667,unknown,2,2022-06-02T10:46:25.825+02:00,2022-06-02T10:17:13.754+02:00,448,1.423373,0,0,345.1212,0,0,2022-06-02T10:46:25.824+02:00,675852385.8243657,0,7.03125,101.2995,1,0.81
2022-06-02T10:46:26.143+02:00,1654159585.999692,53.22907074211478,10.39855068497811,36.81837,0.07944696,0.949674,30.6971104320851,180,2.400000095367432,7.999579855010836,-9999,2730.420976416667,0.06634521484375,-0.225799560546875,-0.9755706787109375,2730.410982416667,2.486397071763769,0.06733390996335288,0.2206094732931939,0.03612920641899109,0.007890080101788044,0.007301654666662216,0.008291661739349365,0.03706170618534088,-0.0157504677772522,XArbitraryZVertical,0.003723925996791149,0.1149329272645355,0.9417228098165178,0.316124372344071,0.06565238535404205,-0.2188243716955185,-0.9735531210899353,0,0,0,-1,-1,2730.102895416667,unknown,2,2022-06-02T10:46:25.825+02:00,2022-06-02T10:17:13.754+02:00,448,1.423373,0,0,345.1212,0,0,2022-06-02T10:46:25.824+02:00,675852385.8243657,0,7.03125,101.2995,1,0.81
2022-06-02T10:46:26.153+02:00,1654159585.999692,53.22907074211478,10.39855068497811,36.81837,0.07944696,0.949674,30.6971104320851,180,2.400000095367432,7.999579855010836,-9999,2730.430971416667,0.0533294677734375,-0.2560272216796875,-0.964080810546875,2730.420976416667,2.486263110787966,0.06748207886661439,0.2212714701267308,-0.03149154782295227,0.02584904059767723,-0.03725935518741608,0.007409520447254181,0.007693573832511902,-0.00983196496963501,XArbitraryZVertical,0.003768843418245584,0.1152670017491958,0.9416709775583654,0.3161567226258889,0.06578685343265533,-0.219470277428627,-0.9733986258506775,0,0,0,-1,-1,2730.102895416667,unknown,2,2022-06-02T10:46:25.825+02:00,2022-06-02T10:17:13.754+02:00,448,1.423373,0,0,345.1212,0,0,2022-06-02T10:46:25.824+02:00,675852385.8243657,0,7.03125,101.2995,1,0.81
2022-06-02T10:46:26.162+02:00,1654159585.999692,53.22907074211478,10.39855068497811,36.81837,0.07944696,0.949674,30.6971104320851,180,2.400000095367432,7.999579855010836,-9999,2730.440965416667,0.0535125732421875,-0.2677764892578125,-0.94140625,2730.430971416667,2.485771718263547,0.06790293205535247,0.2213306647428101,-0.126350149512291,0.05504075065255165,-0.06838850677013397,-0.007556140422821045,-0.02035535871982574,0.003768622875213623,XArbitraryZVertical,0.00360860127457598,0.1153604431639554,0.9415912791554232,0.3163618201088081,0.06619562208652496,-0.2195280194282532,-0.9733579158782959,0,0,0,-1,-1,2730.102895416667,unknown,2,2022-06-02T10:46:25.825+02:00,2022-06-02T10:17:13.754+02:00,448,1.423373,0,0,345.1212,0,0,2022-06-02T10:46:25.824+02:00,675852385.8243657,0,7.03125,101.2995,1,0.81
2022-06-02T10:46:26.173+02:00,1654159585.999692,53.22907074211478,10.39855068497811,36.81837,0.07944696,0.949674,30.6971104320851,180,2.400000095367432,7.999579855010836,-9999,2730.450960416667,0.0624542236328125,-0.2590179443359375,-0.9053955078125,2730.440965416667,2.485220044648502,0.06856767887667717,0.2201600250769814,-0.2423781007528305,0.07757794857025146,-0.06663981080055237,-0.01525501906871796,-0.04697977006435394,0.01833868026733398,XArbitraryZVertical,0.003137992922611842,0.1149150002848787,0.9415597070258106,0.3166228218555754,0.06686020642518997,-0.2183857858181,-0.973569393157959,0,0,0,-1,-1,2730.102895416667,unknown,2,2022-06-02T10:46:25.825+02:00,2022-06-02T10:17:13.754+02:00,448,1.423373,0,0,345.1212,0,0,2022-06-02T10:46:25.824+02:00,675852385.8243657,0,7.03125,101.2995,1,0.81
2022-06-02T10:46:26.183+02:00,1654159585.999692,53.22907074211478,10.39855068497811,36.81837,0.07944696,0.949674,30.6971104320851,180,2.400000095367432,7.999579855010836,-9999,2730.460955416667,0.07098388671875,-0.2491912841796875,-0.8699188232421875,2730.450960416667,2.484829990946609,0.06930512204716585,0.217351038351048,-0.3615362048149109,0.07115094363689423,-0.05932064726948738,-0.01011002063751221,-0.04821118712425232,0.05127638578414917,XArbitraryZVertical,0.002358235237621843,0.1137122021587471,0.941628445880313,0.3168592159607357,0.06762035936117172,-0.2156437486410141,-0.9741279482841492,0,0,0,-1,-1,2730.102895416667,unknown,2,2022-06-02T10:46:25.825+02:00,2022-06-02T10:17:13.754+02:00,448,1.423373,0,0,345.1212,0,0,2022-06-02T10:46:25.824+02:00,675852385.8243657,0,7.03125,101.2995,1,0.81
2022-06-02T10:46:26.193+02:00,1654159585.999692,53.22907074211478,10.39855068497811,36.81837,0.07944696,0.949674,30.6971104320851,180,2.400000095367432,7.999579855010836,-9999,2730.470949416667,0.0742645263671875,-0.2440185546875,-0.8209228515625,2730.460955416667,2.484478457658116,0.06994490926863273,0.2129331461313207,-0.4679487347602844,0.0474478118121624,-0.07205754518508911,-0.001460783183574677,-0.04328039288520813,0.08438509702682495,XArbitraryZVertical,0.001360944222197029,0.1117384421810063,0.9417729909695898,0.3171374655044717,0.06830949336290359,-0.2113277018070221,-0.9750253558158875,0,0,0,-1,-1,2730.102895416667,unknown,2,2022-06-02T10:46:25.825+02:00,2022-06-02T10:17:13.754+02:00,448,1.423373,0,0,345.1212,0,0,2022-06-02T10:46:25.824+02:00,675852385.8243657,0,7.03125,101.2995,1,0.81
2022-06-02T10:46:26.203+02:00,1654159585.999692,53.22907074211478,10.39855068497811,36.81837,0.07944696,0.949674,30.6971104320851,180,2.400000095367432,7.999579855010836,-9999,2730.480943416667,0.0697479248046875,-0.23724365234375,-0.773712158203125,2730.470949416667,2.484035363015475,0.07026931972276293,0.207140987547888,-0.5853909850120544,-0.01947742886841297,-0.08641331642866135,0.005965888500213623,-0.03975947201251984,0.1310845017433167,XArbitraryZVertical,0.0002934754426047696,0.1090688826553313,0.9419573873349257,0.3175216789442935,0.06871058791875839,-0.2056628465652466,-0.9762077927589417,0,0,0,-1,-1,2730.102895416667,unknown,2,2022-06-02T10:46:25.825+02:00,2022-06-02T10:17:13.754+02:00,448,1.423373,0,0,345.1212,0,0,2022-06-02T10:46:25.824+02:00,675852385.8243657,0,7.03125,101.2995,1,0.81
2022-06-02T10:46:26.213+02:00,1654159585.999692,53.22907074211478,10.39855068497811,36.81837,0.07944696,0.949674,30.6971104320851,180,2.400000095367432,7.999579855010836,-9999,2730.490938416667,0.0371856689453125,-0.235687255859375,-0.743499755859375,2730.480943416667,2.48353541257591,0.06986114271567703,0.2003882273531609,-0.7117493152618408,-0.09208318591117859,-0.1040559634566307,0.004224292933940887,-0.04129134118556976,0.182173490524292,XArbitraryZVertical,-0.000583050006212811,0.1058310743405544,0.9421647991994216,0.3180013198968001,0.06840749830007553,-0.1990498006343842,-0.9775989055633545,0,0,0,-1,-1,2730.102895416667,unknown,2,2022-06-02T10:46:25.825+02:00,2022-06-02T10:17:13.754+02:00,448,1.423373,0,0,345.1212,0,0,2022-06-02T10:46:25.824+02:00,675852385.8243657,0,7.03125,101.2995,1,0.81
2022-06-02T10:46:26.223+02:00,1654159585.999692,53.22907074211478,10.39855068497811,36.81837,0.07944696,0.949674,30.6971104320851,180,2.400000095367432,7.999579855010836,-9999,2730.500932416667,0.025909423828125,-0.2343902587890625,-0.70648193359375,2730.490938416667,2.482546992290469,0.06887483443278813,0.1922725711018469,-0.8912945985794067,-0.139257624745369,-0.2315055280923843,-0.004747070372104645,-0.04377315938472748,0.2216463685035706,XArbitraryZVertical,-0.00138512904564288,0.1018599611284475,0.942338768268587,0.318779250246285,0.06755220890045166,-0.1910900771617889,-0.9792452454566956,0,0,0,-1,-1,2730.102895416667,unknown,2,2022-06-02T10:46:25.825+02:00,2022-06-02T10:17:13.754+02:00,448,1.423373,0,0,345.1212,0,0,2022-06-02T10:46:25.824+02:00,675852385.8243657,0,7.03125,101.2995,1,0.81
2022-06-02T10:46:26.232+02:00,1654159585.999692,53.22907074211478,10.39855068497811,36.81837,0.07944696,0.949674,30.6971104320851,180,2.400000095367432,7.999579855010836,-9999,2730.510926,-0.0602874755859375,-0.2772674560546875,-0.6652984619140625,2730.500932416667,2.480628606422707,0.06782231278943399,0.1820934879784351,-1.119248151779175,-0.17111736536026,-0.2788293063640594,-0.0511469766497612,-0.0513482540845871,0.2537429332733154,XArbitraryZVertical,-0.002450295731286705,0.09690792212325319,0.9424270553860619,0.3200533737834942,0.06664986163377762,-0.181088849902153,-0.9812057018280029,0,0,0,-1,-1,2730.102895416667,unknown,2,2022-06-02T10:46:25.825+02:00,2022-06-02T10:17:13.754+02:00,448,1.423373,0,0,345.1212,0,0,2022-06-02T10:46:25.824+02:00,675852385.8243657,0,7.03125,101.2995,1,0.81
2022-06-02T10:46:26.243+02:00,1654159585.999692,53.22907074211478,10.39855068497811,36.81837,0.07944696,0.949674,30.6971104320851,180,2.400000095367432,7.999579855010836,-9999,2730.520921,-0.0291595458984375,-0.300567626953125,-0.59332275390625,2730.510926,2.47675957869236,0.06640001767430209,0.1688350210689775,-1.486762285232544,-0.1915003955364227,-0.6385137438774109,-0.06238660216331482,-0.08430050313472748,0.3000303506851196,XArbitraryZVertical,-0.003765082864093482,0.09045108046149808,0.9422846675391916,0.3223413157996833,0.06540779769420624,-0.1680340468883514,-0.9836088418960571,0,0,0,-1,-1,2730.102895416667,unknown,2,2022-06-02T10:46:25.825+02:00,2022-06-02T10:17:13.754+02:00,448,1.423373,0,0,345.1212,0,0,2022-06-02T10:46:25.824+02:00,675852385.8243657,0,7.03125,101.2995,1,0.81
2022-06-02T10:46:26.253+02:00,1654159585.999692,53.22907074211478,10.39855068497811,36.81837,0.07944696,0.949674,30.6971104320851,180,2.400000095367432,7.999579855010836,-9999,2730.530915,0.0103302001953125,-0.3652191162109375,-0.4975738525390625,2730.520921,2.471710581746512,0.06500638787894421,0.151662884167882,-1.895180583000183,-0.2797561585903168,-0.5480797290802002,-0.1414854824542999,-0.1381481736898422,0.3422834873199463,XArbitraryZVertical,-0.005713596696037061,0.08216271854248779,0.9420274083081173,0.325270485378849,0.06421494483947754,-0.1510821431875229,-0.9864332675933838,0,0,0,-1,-1,2730.102895416667,unknown,2,2022-06-02T10:46:25.825+02:00,2022-06-02T10:17:13.754+02:00,448,1.423373,0,0,345.1212,0,0,2022-06-02T10:46:25.824+02:00,675852385.8243657,0,7.03125,101.2995,1,0.81
2022-06-02T10:46:26.263+02:00,1654159585.999692,53.22907074211478,10.39855068497811,36.81837,0.07944696,0.949674,30.6971104320851,180,2.400000095367432,7.999579855010836,-9999,2730.54091,-0.034576416015625,-0.3657073974609375,-0.4221649169921875,2730.530915,2.467142035229619,0.06207892021551512,0.1296880938506509,-2.445716142654419,-0.4269996583461761,-0.6817305088043213,-0.0488533116877079,-0.1984186321496964,0.4553446173667908,XArbitraryZVertical,-0.007795367524246406,0.07136626542515301,0.9419048232894019,0.3281177677289306,0.06151806935667992,-0.1293248683214188,-0.9896921515464783,0,0,0,-1,-1,2730.102895416667,unknown,2,2022-06-02T10:46:25.825+02:00,2022-06-02T10:17:13.754+02:00,448,1.423373,0,0,345.1212,0,0,2022-06-02T10:46:25.824+02:00,675852385.8243657,0,7.03125,101.2995,1,0.81
2022-06-02T10:46:26.273+02:00,1654159585.999692,53.22907074211478,10.39855068497811,36.81837,0.07944696,0.949674,30.6971104320851,180,2.400000095367432,7.999579855010836,-9999,2730.550904,-0.05194091796875,-0.3417816162109375,-0.36077880859375,2730.54091,2.460633512592777,0.05800237960356767,0.1014821826805534,-3.132537841796875,-0.5352692008018494,-0.9426435232162476,-0.07146559655666351,-0.2788951396942139,0.5286740064620972,XArbitraryZVertical,-0.0103673110570307,0.05745847004026033,0.9414767097920888,0.3319828170048501,0.05767161399126053,-0.1013080850243568,-0.9931820631027222,0,0,0,-1,-1,2730.102895416667,unknown,2,2022-06-02T10:46:25.825+02:00,2022-06-02T10:17:13.754+02:00,448,1.423373,0,0,345.1212,0,0,2022-06-02T10:46:25.824+02:00,675852385.8243657,0,7.03125,101.2995,1,0.81
2022-06-02T10:46:26.283+02:00,1654159585.999692,53.22907074211478,10.39855068497811,36.81837,0.07944696,0.949674,30.6971104320851,180,2.400000095367432,7.999579855010836,-9999,2730.560899,-0.0721282958984375,-0.3426666259765625,-0.3817596435546875,2730.550904,2.452035830653147,0.05293458838068486,0.0659647765361345,-3.863616228103638,-0.6097368001937866,-1.161176085472107,-0.09875430911779404,-0.2794351875782013,0.6111735701560974,XArbitraryZVertical,-0.01375151883724337,0.03996461222801966,0.9406040071781812,0.3368646512627972,0.05279479920864105,-0.06591694802045822,-0.9964274764060974,0,0,0,-1,-1,2730.102895416667,unknown,2,2022-06-02T10:46:25.825+02:00,2022-06-02T10:17:13.754+02:00,448,1.423373,0,0,345.1212,0,0,2022-06-02T10:46:25.824+02:00,675852385.8243657,0,7.03125,101.2995,1,0.81
2022-06-02T10:46:26.293+02:00,1654159585.999692,53.22907074211478,10.39855068497811,36.81837,0.07944696,0.949674,30.6971104320851,180,2.400000095367432,7.999579855010836,-9999,2730.570893,-0.1025848388671875,-0.2234954833984375,-0.3935546875,2730.560899,2.441551625452307,0.04730836339450398,0.02381194818821951,-4.428321838378906,-0.6087566018104553,-1.35208523273468,-0.1070918068289757,-0.3253571391105652,0.6335772275924683,XArbitraryZVertical,-0.0181347599430784,0.01929076306232348,0.9391328150725712,0.3425322223880441,0.04727731272578239,-0.02380969747900963,-0.9985979795455933,0,0,0,-1,-1,2730.102895416667,unknown,2,2022-06-02T10:46:25.825+02:00,2022-06-02T10:17:13.754+02:00,448,1.423373,0,0,345.1212,0,0,2022-06-02T10:46:25.824+02:00,675852385.8243657,0,7.03125,101.2995,1,0.81
2022-06-02T10:46:26.303+02:00,1654159585.999692,53.22907074211478,10.39855068497811,36.81837,0.07944696,0.949674,30.6971104320851,180,2.400000095367432,7.999579855010836,-9999,2730.580888,-0.1501007080078125,-0.0372161865234375,-0.4222259521484375,2730.570893,2.429240307805264,0.04124775118870708,-0.02301837862626025,-4.794892311096191,-0.6067482829093933,-1.523540616035461,-0.1264455020427704,-0.3222411870956421,0.6091905236244202,XArbitraryZVertical,-0.02333904194800645,-0.003593893328841763,0.9368928272529317,0.3488180931892909,0.0412251316010952,0.02301634661853313,-0.9988847374916077,0,0,0,-1,-1,2730.102895416667,unknown,2,2022-06-02T10:46:25.825+02:00,2022-06-02T10:17:13.754+02:00,448,1.423373,0,0,345.1212,0,0,2022-06-02T10:46:25.824+02:00,675852385.8243657,0,7.03125,101.2995,1,0.81
2022-06-02T10:46:26.313+02:00,1654159585.999692,53.22907074211478,10.39855068497811,36.81837,0.07944696,0.949674,30.6971104320851,180,2.400000095367432,7.999579855010836,-9999,2730.590882,-0.193695068359375,0.1331634521484375,-0.39892578125,2730.580888,2.415036134405377,0.0344485133079825,-0.07180057859763463,-4.8086838722229,-0.6192079186439514,-1.685693264007568,-0.1594292968511581,-0.2042919993400574,0.5881555676460266,XArbitraryZVertical,-0.02884117349939556,-0.02742891814397581,0.933776354868993,0.3556365617944088,0.03435295820236206,0.07173889875411987,-0.9968316555023193,0,0,0,-1,-1,2730.102895416667,unknown,2,2022-06-02T10:46:25.825+02:00,2022-06-02T10:17:13.754+02:00,448,1.423373,0,0,345.1212,0,0,2022-06-02T10:46:25.824+02:00,675852385.8243657,0,7.03125,101.2995,1,0.81
2022-06-02T10:46:26.323+02:00,1654159585.999692,53.22907074211478,10.39855068497811,36.81837,0.07944696,0.949674,30.6971104320851,180,2.400000095367432,7.999579855010836,-9999,2730.600877,-0.2530670166015625,0.234375,-0.4179229736328125,2730.590882,2.398573487243302,0.02642030126273845,-0.1193825344290287,-4.59184741973877,-0.6717004179954529,-1.895475029945374,-0.1952813714742661,-0.06479311734437943,0.5753757953643799,XArbitraryZVertical,-0.03394119418740334,-0.0507943800756981,0.9297536515175274,0.3630785427838343,0.02622919902205467,0.1190991625189781,-0.9925358295440674,0,0,0,-1,-1,2730.102895416667,unknown,2,2022-06-02T10:46:25.825+02:00,2022-06-02T10:17:13.754+02:00,448,1.423373,0,0,345.1212,0,0,2022-06-02T10:46:25.824+02:00,675852385.8243657,0,7.03125,101.2995,1,0.81
2022-06-02T10:46:26.333+02:00,1654159585.999692,53.22907074211478,10.39855068497811,36.81837,0.07944696,0.949674,30.6971104320851,180,2.400000095367432,7.999579855010836,-9999,2730.610871,-0.3201141357421875,0.275390625,-0.490692138671875,2730.600877,2.379047127059074,0.01669919349225198,-0.1639796013374537,-4.236109733581543,-0.7145220637321472,-2.161495923995972,-0.238688200712204,0.02831311523914337,0.590741753578186,XArbitraryZVertical,-0.0381972512918566,-0.0729179411665392,0.9247870645779889,0.3714739567777143,0.0164744146168232,0.1632457077503204,-0.9864478707313538,0,0,0,-1,-1,2730.102895416667,unknown,2,2022-06-02T10:46:25.825+02:00,2022-06-02T10:17:13.754+02:00,448,1.423373,0,0,345.1212,0,0,2022-06-02T10:46:25.824+02:00,675852385.8243657,0,7.03125,101.2995,1,0.81
2022-06-02T10:46:26.343+02:00,1654159585.999692,53.22907074211478,10.39855068497811,36.81837,0.07944696,0.949674,30.6971104320851,180,2.400000095367432,7.999579855010836,-9999,2730.620866,-0.393310546875,0.2170257568359375,-0.6209564208984375,2730.610871,2.356395014485515,0.005368023172529974,-0.2047498502667502,-3.884143114089966,-0.7171047925949097,-2.382581233978271,-0.2903206050395966,0.06327931582927704,0.5295433402061462,XArbitraryZVertical,-0.04156599975940024,-0.09339906414755471,0.9189721840086604,0.3808396038745174,0.005255870055407286,0.203322246670723,-0.9790977835655212,0,0,0,-1,-1,2730.102895416667,unknown,2,2022-06-02T10:46:25.825+02:00,2022-06-02T10:17:13.754+02:00,448,1.423373,0,0,345.1212,0,0,2022-06-02T10:46:25.824+02:00,675852385.8243657,0,7.03125,101.2995,1,0.81
2022-06-02T10:46:26.353+02:00,1654159585.999692,53.22907074211478,10.39855068497811,36.81837,0.07944696,0.949674,30.6971104320851,180,2.400000095367432,7.999579855010836,-9999,2730.63086,-0.4525299072265625,0.0943603515625,-0.749603271484375,2730.620866,2.330862668433945,-0.00741667026416688,-0.2423867159583114,-3.679995059967041,-0.7016955614089966,-2.586995363235474,-0.3496880531311035,0.0169682651758194,0.4220961332321167,XArbitraryZVertical,-0.04429306899041097,-0.1125501390849317,0.9123885483223482,0.3910469494325516,-0.007199799176305532,0.2400202602148056,-0.9707411527633667,0,0,0,-1,-1,2730.102895416667,unknown,2,2022-06-02T10:46:25.825+02:00,2022-06-02T10:17:13.754+02:00,448,1.423373,0,0,345.1212,0,0,2022-06-02T10:46:25.824+02:00,675852385.8243657,0,7.03125,101.2995,1,0.81
2022-06-02T10:46:26.363+02:00,1654159585.999692,53.22907074211478,10.39855068497811,36.81837,0.07944696,0.949674,30.6971104320851,180,2.400000095367432,7.999579855010836,-9999,2730.640855,-0.4998931884765625,-0.09698486328125,-0.78839111328125,2730.63086,2.30270507753333,-0.02147052374179684,-0.2792690656420576,-3.819491624832153,-0.6420615315437317,-2.754105567932129,-0.4047932326793671,-0.1112549304962158,0.2677830457687378,XArbitraryZVertical,-0.04696956806667592,-0.1314383750550146,0.9049826052329488,0.4019008663226304,-0.02063710987567902,0.2756530940532684,-0.9610356092453003,0,0,0,-1,-1,2730.102895416667,unknown,2,2022-06-02T10:46:25.825+02:00,2022-06-02T10:17:13.754+02:00,448,1.423373,0,0,345.1212,0,0,2022-06-02T10:46:25.824+02:00,675852385.8243657,0,7.03125,101.2995,1,0.81
2022-06-02T10:46:26.373+02:00,1654159585.999692,53.22907074211478,10.39855068497811,36.81837,0.07944696,0.949674,30.6971104320851,180,2.400000095367432,7.999579855010836,-9999,2730.650849,-0.54034423828125,-0.22271728515625,-0.7391815185546875,2730.640855,2.27163874861776,-0.03676817235981781,-0.318284722330145,-4.185830593109131,-0.594277024269104,-2.958382129669189,-0.4429459571838379,-0.3117782473564148,0.1653029322624207,XArbitraryZVertical,-0.05030637045559935,-0.1513388270533575,0.8964962583769849,0.4133523405247048,-0.034913569688797,0.3129378855228424,-0.9491316676139832,0,0,0,-1,-1,2730.102895416667,unknown,2,2022-06-02T10:46:25.825+02:00,2022-06-02T10:17:13.754+02:00,448,1.423373,0,0,345.1212,0,0,2022-06-02T10:46:25.824+02:00,675852385.8243657,0,7.03125,101.2995,1,0.81
2022-06-02T10:46:26.383+02:00,1654159585.999692,53.22907074211478,10.39855068497811,36.81837,0.07944696,0.949674,30.6971104320851,180,2.400000095367432,7.999579855010836,-9999,2730.660844,-0.619537353515625,-0.232757568359375,-0.6710052490234375,2730.650849,2.237325435654347,-0.0537579997082929,-0.3615466908876352,-4.7723069190979,-0.5093267560005188,-3.108354568481445,-0.466907799243927,-0.5296552181243896,0.1668640375137329,XArbitraryZVertical,-0.05473820798301885,-0.1732163834443101,0.8866507412387236,0.4252649710943051,-0.05025837570428848,0.3537213504314423,-0.9339995980262756,0,0,0,-1,-1,2730.102895416667,unknown,2,2022-06-02T10:46:25.825+02:00,2022-06-02T10:17:13.754+02:00,448,1.423373,0,0,345.1212,0,0,2022-06-02T10:46:25.824+02:00,675852385.8243657,0,7.03125,101.2995,1,0.81
2022-06-02T10:46:26.393+02:00,1654159585.999692,53.22907074211478,10.39855068497811,36.81837,0.07944696,0.949674,30.6971104320851,180,2.400000095367432,7.999579855010836,-9999,2730.670838,-0.719970703125,-0.187225341796875,-0.6359100341796875,2730.660844,2.199539318310832,-0.07236273662892614,-0.4102063200802093,-5.377555370330811,-0.3619886636734009,-3.281480550765991,-0.5085428953170776,-0.6355692148208618,0.2091790437698364,XArbitraryZVertical,-0.06080574054098865,-0.1974420204165483,0.8751976277574174,0.437433733156828,-0.06630151718854904,0.3987985253334045,-0.9146386384963989,0,0,0,-1,-1,2730.102895416667,unknown,2,2022-06-02T10:46:25.825+02:00,2022-06-02T10:17:13.754+02:00,448,1.423373,0,0,345.1212,0,0,2022-06-02T10:46:25.824+02:00,675852385.8243657,0,7.03125,101.2995,1,0.81
2022-06-02T10:46:26.403+02:00,1654159585.999692,53.22907074211478,10.39855068497811,36.81837,0.07944696,0.949674,30.6971104320851,180,2.400000095367432,7.999579855010836,-9999,2730.680833,-0.8187408447265625,-0.029022216796875,-0.6710968017578125,2730.670838,2.156857509866947,-0.09285730763863603,-0.4628007761819846,-5.705316066741943,-0.1187674626708031,-3.556116104125977,-0.5873640179634094,-0.6680441498756409,0.248555600643158,XArbitraryZVertical,-0.06848681261963738,-0.2232358408011732,0.8618357019515828,0.4502382828366411,-0.08296988159418106,0.4464560151100159,-0.890950620174408,0,0,0,-1,-1,2730.102895416667,unknown,2,2022-06-02T10:46:25.825+02:00,2022-06-02T10:17:13.754+02:00,448,1.423373,0,0,345.1212,0,0,2022-06-02T10:46:25.824+02:00,675852385.8243657,0,7.03125,101.2995,1,0.81
2022-06-02T10:46:26.427+02:00,1654159585.999692,53.22907074211478,10.39855068497811,36.81837,0.07944696,0.949674,30.6971104320851,180,2.400000095367432,7.999579855010836,-9999,2730.690827,-0.9130401611328125,0.0081329345703125,-0.6883087158203125,2730.680833,2.108818201434025,-0.1154690012878304,-0.5163678101902809,-5.841873168945312,0.1114399060606956,-3.765931844711304,-0.6691266894340515,-0.6089286804199219,0.2087369561195374,XArbitraryZVertical,-0.07733920119561088,-0.2492087441297383,0.8466590165410327,0.4637694832025613,-0.1001909598708153,0.4937247931957245,-0.8638272881507874,0,0,0,-1,-1,2730.102895416667,unknown,2,2022-06-02T10:46:25.825+02:00,2022-06-02T10:17:13.754+02:00,448,1.423373,0,0,345.1212,0,0,2022-06-02T10:46:25.824+02:00,675852385.8243657,0,7.03125,101.2995,1,0.81
2022-06-02T10:46:26.431+02:00,1654159585.999692,53.22907074211478,10.39855068497811,36.81837,0.07944696,0.949674,30.6971104320851,180,2.400000095367432,7.999579855010836,-9999,2730.700822,-0.987518310546875,0.031463623046875,-0.7030487060546875,2730.690827,2.054367520437365,-0.141599974777977,-0.5698020908875999,-5.951739311218262,0.2829485535621643,-4.132705688476562,-0.7482962608337402,-0.5224366188049316,0.1565022468566895,XArbitraryZVertical,-0.08690733869258763,-0.2750579532984429,0.829572327052985,0.4781212194386425,-0.1188302412629128,0.5394654273986816,-0.833580493927002,0,0,0,-1,-1,2730.102895416667,unknown,2,2022-06-02T10:46:25.825+02:00,2022-06-02T10:17:13.754+02:00,448,1.423373,0,0,345.1212,0,0,2022-06-02T10:46:25.824+02:00,675852385.8243657,0,7.03125,101.2995,1,0.81
2022-06-02T10:46:26.433+02:00,1654159585.999692,53.22907074211478,10.39855068497811,36.81837,0.07944696,0.949674,30.6971104320851,180,2.400000095367432,7.999579855010836,-9999,2730.710816,-1.091537475585938,0.1291046142578125,-0.686798095703125,2730.700822,1.991992786618129,-0.1732704274027049,-0.6229039820142616,-6.184813022613525,0.4136786460876465,-4.368916988372803,-0.8130695223808289,-0.5835335850715637,0.1016160845756531,XArbitraryZVertical,-0.0968487829109087,-0.301010393571346,0.8103411448754465,0.4933153462845243,-0.1400249898433685,0.5833961963653564,-0.8000261187553406,0,0,0,-1,-1,2730.102895416667,unknown,2,2022-06-02T10:46:25.825+02:00,2022-06-02T10:17:13.754+02:00,448,1.423373,0,0,345.1212,0,0,2022-06-02T10:46:25.824+02:00,675852385.8243657,0,7.03125,101.2995,1,0.81
2022-06-02T10:46:26.443+02:00,1654159585.999692,53.22907074211478,10.39855068497811,36.81837,0.07944696,0.949674,30.6971104320851,180,2.400000095367432,7.999579855010836,-9999,2730.720811,-1.210723876953125,0.3373565673828125,-0.665557861328125,2730.710816,1.922677140532272,-0.2098845118058725,-0.6761460253725349,-6.345818042755127,0.6907206773757935,-4.428615570068359,-0.8726629614830017,-0.5460797548294067,0.06057232618331909,XArbitraryZVertical,-0.1077822524452245,-0.3270264610910328,0.7891769371726493,0.5085630137654903,-0.1625085920095444,0.625791609287262,-0.7628733515739441,0,0,0,-1,-1,2730.102895416667,unknown,2,2022-06-02T10:46:25.825+02:00,2022-06-02T10:17:13.754+02:00,448,1.423373,0,0,345.1212,0,0,2022-06-02T10:46:25.824+02:00,675852385.8243657,0,7.03125,101.2995,1,0.81
2022-06-02T10:46:26.453+02:00,1654159585.999692,53.22907074211478,10.39855068497811,36.81837,0.07944696,0.949674,30.6971104320851,180,2.400000095367432,7.999579855010836,-9999,2730.730805,-1.292587280273438,0.6013641357421875,-0.6428375244140625,2730.720811,1.847780915930466,-0.2493378765503705,-0.7277930923496956,-6.305399417877197,1.089621663093567,-4.353729248046875,-0.9680542945861816,-0.4536604881286621,0.04353189468383789,XArbitraryZVertical,-0.1201292495032498,-0.3518400753744748,0.7665874220812743,0.5235657804530296,-0.1842437088489532,0.6652234792709351,-0.7235550284385681,0,0,0,-1,-1,2730.102895416667,unknown,2,2022-06-02T10:46:25.825+02:00,2022-06-02T10:17:13.754+02:00,448,1.423373,0,0,345.1212,0,0,2022-06-02T10:46:25.824+02:00,675852385.8243657,0,7.03125,101.2995,1,0.81
2022-06-02T10:46:26.463+02:00,1654159585.999692,53.22907074211478,10.39855068497811,36.81837,0.07944696,0.949674,30.6971104320851,180,2.400000095367432,7.999579855010836,-9999,2730.7408,-1.302261352539062,0.748748779296875,-0.6066741943359375,2730.730805,1.767647657573098,-0.2915047566116648,-0.7762756775365541,-6.176910877227783,1.416549682617188,-4.358545780181885,-1.052062392234802,-0.2230879068374634,0.02816760540008545,XArbitraryZVertical,-0.1335376295450043,-0.3747729775228639,0.742929634645845,0.538301355876795,-0.2050634771585464,0.7006268501281738,-0.6834258437156677,0,0,0,-1,-1,2730.102895416667,unknown,2,2022-06-02T10:46:25.825+02:00,2022-06-02T10:17:13.754+02:00,448,1.423373,0,0,345.1212,0,0,2022-06-02T10:46:25.824+02:00,675852385.8243657,0,7.03125,101.2995,1,0.81
2022-06-02T10:46:26.473+02:00,1654159585.999692,53.22907074211478,10.39855068497811,36.81837,0.07944696,0.949674,30.6971104320851,180,2.400000095367432,7.999579855010836,-9999,2730.750794,-1.269760131835938,0.772064208984375,-0.6570892333984375,2730.7408,1.680096333442231,-0.3386826985454254,-0.8211049170437399,-6.148488521575928,1.703503012657166,-4.489246368408203,-1.079023957252502,-0.03695297241210938,0.02296823263168335,XArbitraryZVertical,-0.1474971294319865,-0.3960967206217481,0.7179204038718813,0.5531204114026506,-0.2263959646224976,0.7318992018699646,-0.6427039504051208,0,0,0,-1,-1,2730.102895416667,unknown,2,2022-06-02T10:46:25.825+02:00,2022-06-02T10:17:13.754+02:00,448,1.423373,0,0,345.1212,0,0,2022-06-02T10:46:25.824+02:00,675852385.8243657,0,7.03125,101.2995,1,0.81
2022-06-02T10:46:26.483+02:00,1654159585.999692,53.22907074211478,10.39855068497811,36.81837,0.07944696,0.949674,30.6971104320851,180,2.400000095367432,7.999579855010836,-9999,2730.760789,-1.234603881835938,0.8385467529296875,-0.6380615234375,2730.750794,1.583306683243161,-0.392247543513382,-0.8625015260650447,-6.223010063171387,2.033272743225098,-4.571801662445068,-1.040993571281433,0.006411969661712646,-0.02411156892776489,XArbitraryZVertical,-0.1621324928974279,-0.416109114603795,0.6912179021282396,0.568140714974964,-0.2486792951822281,0.7594722509384155,-0.6011325120925903,0,0,0,-1,-1,2730.102895416667,unknown,2,2022-06-02T10:46:25.825+02:00,2022-06-02T10:17:13.754+02:00,448,1.423373,0,0,345.1212,0,0,2022-06-02T10:46:25.824+02:00,675852385.8243657,0,7.03125,101.2995,1,0.81
2022-06-02T10:46:26.493+02:00,1654159585.999692,53.22907074211478,10.39855068497811,36.81837,0.07944696,0.949674,30.6971104320851,180,2.400000095367432,7.999579855010836,-9999,2730.770783,-1.25103759765625,1.017318725585938,-0.6979217529296875,2730.760789,1.477225828299898,-0.4522351498884433,-0.9021216951801232,-6.548873424530029,2.367198944091797,-4.47199010848999,-0.9772818088531494,0.01131534576416016,-0.1040724515914917,XArbitraryZVertical,-0.1782699291032917,-0.4352095596082565,0.662765258809449,0.5827131379605113,-0.2709024250507355,0.7846440076828003,-0.5576249361038208,0,0,0,-1,-1,2730.102895416667,unknown,2,2022-06-02T10:46:25.825+02:00,2022-06-02T10:17:13.754+02:00,448,1.423373,0,0,345.1212,0,0,2022-06-02T10:46:25.824+02:00,675852385.8243657,0,7.03125,101.2995,1,0.81
2022-06-02T10:46:26.503+02:00,1654159585.999692,53.22907074211478,10.39855068497811,36.81837,0.07944696,0.949674,30.6971104320851,180,2.400000095367432,7.999579855010836,-9999,2730.780778,-1.24835205078125,1.360519409179688,-0.8075714111328125,2730.770783,1.361604356954293,-0.5186688480752014,-0.9401816462504154,-6.64868688583374,2.773040294647217,-4.342986106872559,-0.9454171061515808,0.1008276343345642,-0.130044162273407,XArbitraryZVertical,-0.1963185048279923,-0.4532254534410138,0.6326403386956054,0.5964995794191617,-0.2922995686531067,0.807665228843689,-0.5120914578437805,0,0,0,-1,-1,2730.102895416667,unknown,2,2022-06-02T10:46:25.825+02:00,2022-06-02T10:17:13.754+02:00,448,1.423373,0,0,345.1212,0,0,2022-06-02T10:46:25.824+02:00,675852385.8243657,0,7.03125,101.2995,1,0.81
2022-06-02T10:46:26.513+02:00,1654159585.999692,53.22907074211478,10.39855068497811,36.81837,0.07944696,0.949674,30.6971104320851,180,2.400000095367432,7.999579855010836,-9999,2730.790772,-1.20550537109375,1.615142822265625,-0.86090087890625,2730.780778,1.239875750756755,-0.5884908141396135,-0.9735494386232304,-6.376208782196045,3.172058582305908,-4.066654682159424,-0.9441736936569214,0.347383439540863,-0.2954176366329193,XArbitraryZVertical,-0.2154432384436847,-0.4687229611142266,0.6018502250878212,0.6096384633598988,-0.3121739625930786,0.8268870115280151,-0.4677659869194031,0,0,0,-1,-1,2730.102895416667,unknown,2,2022-06-02T10:46:25.825+02:00,2022-06-02T10:17:13.754+02:00,448,1.423373,0,0,345.1212,0,0,2022-06-02T10:46:25.824+02:00,675852385.8243657,0,7.03125,101.2995,1,0.81
2022-06-02T10:46:26.523+02:00,1654159585.999692,53.22907074211478,10.39855068497811,36.81837,0.07944696,0.949674,30.6971104320851,180,2.400000095367432,7.999579855010836,-9999,2730.800767,-1.10784912109375,1.553695678710938,-0.8917083740234375,2730.790772,1.116493568225903,-0.6579958741654043,-1.000494910448445,-5.918433666229248,3.51929497718811,-3.861929655075073,-0.9005400538444519,0.6838658452033997,-0.4078387022018433,XArbitraryZVertical,-0.2348341938079542,-0.4809042363735039,0.5713075330324351,0.6222472384585357,-0.3301575779914856,0.8417382836341858,-0.4271680414676666,0,0,0,-1,-1,2730.102895416667,unknown,2,2022-06-02T10:46:25.825+02:00,2022-06-02T10:17:13.754+02:00,448,1.423373,0,0,345.1212,0,0,2022-06-02T10:46:25.824+02:00,675852385.8243657,0,7.03125,101.2995,1,0.81
2022-06-02T10:46:26.532+02:00,1654159585.999692,53.22907074211478,10.39855068497811,36.81837,0.07944696,0.949674,30.6971104320851,180,2.400000095367432,7.999579855010836,-9999,2730.810761,-0.972900390625,1.4581298828125,-0.89764404296875,2730.800767,0.9925128010865637,-0.7261587734593427,-1.01971596473862,-5.475310802459717,3.863248586654663,-3.831502676010132,-0.8162484169006348,0.7590634226799011,-0.4868852198123932,XArbitraryZVertical,-0.2536059845487501,-0.4898216501432672,0.5409115568627498,0.6349592874142024,-0.3476767838001251,0.8519593477249146,-0.3915175199508667,0,0,0,-1,-1,2730.102895416667,unknown,2,2022-06-02T10:46:25.825+02:00,2022-06-02T10:17:13.754+02:00,448,1.423373,0,0,345.1212,0,0,2022-06-02T10:46:25.824+02:00,675852385.8243657,0,7.03125,101.2995,1,0.81
2022-06-02T10:46:26.542+02:00,1654159585.999692,53.22907074211478,10.39855068497811,36.81837,0.07944696,0.949674,30.6971104320851,180,2.400000095367432,7.999579855010836,-9999,2730.820756,-0.925506591796875,1.425506591796875,-0.9891510009765625,2730.810761,0.8694586979502822,-0.7913289987544818,-1.032915901087015,-5.24625825881958,4.152052402496338,-3.570000410079956,-0.6767330169677734,0.6366562247276306,-0.5360867977142334,XArbitraryZVertical,-0.2721148892721406,-0.4958826872129466,0.5105583677450257,0.6475985079317019,-0.364404708147049,0.8587964773178101,-0.3601076900959015,0,0,0,-1,-1,2730.102895416667,unknown,2,2022-06-02T10:46:25.825+02:00,2022-06-02T10:17:13.754+02:00,448,1.423373,0,0,345.1212,0,0,2022-06-02T10:46:25.824+02:00,675852385.8243657,0,7.03125,101.2995,1,0.81
2022-06-02T10:46:26.552+02:00,1654159585.999692,53.22907074211478,10.39855068497811,36.81837,0.07944696,0.949674,30.6971104320851,180,2.400000095367432,7.999579855010836,-9999,2730.83075,-0.882354736328125,1.459213256835938,-1.058670043945312,2730.820756,0.7480537723913748,-0.8529282178549997,-1.043651663459178,-5.273453235626221,4.474674701690674,-3.24185848236084,-0.5564178228378296,0.5698349475860596,-0.5979708433151245,XArbitraryZVertical,-0.2914220656257454,-0.4996190216262854,0.4803075539537062,0.6593622861608217,-0.3789154291152954,0.8642470240592957,-0.3309080302715302,0,0,0,-1,-1,2730.102895416667,unknown,2,2022-06-02T10:46:25.825+02:00,2022-06-02T10:17:13.754+02:00,448,1.423373,0,0,345.1212,0,0,2022-06-02T10:46:25.824+02:00,675852385.8243657,0,7.03125,101.2995,1,0.81
2022-06-02T10:46:26.563+02:00,1654159585.999692,53.22907074211478,10.39855068497811,36.81837,0.07944696,0.949674,30.6971104320851,180,2.400000095367432,7.999579855010836,-9999,2730.840745,-0.8040618896484375,1.5787353515625,-0.965545654296875,2730.83075,0.6277904142987237,-0.9106691829636352,-1.053754842019648,-5.258450508117676,4.811187267303467,-2.798388004302979,-0.5238133668899536,0.5624924302101135,-0.7360649108886719,XArbitraryZVertical,-0.3121694151431946,-0.5009894553551016,0.4500231348408938,0.6701036301478138,-0.3904627859592438,0.8692854046821594,-0.3031196296215057,0,0,0,-1,-1,2730.102895416667,unknown,2,2022-06-02T10:46:25.825+02:00,2022-06-02T10:17:13.754+02:00,448,1.423373,0,0,345.1212,0,0,2022-06-02T10:46:25.824+02:00,675852385.8243657,0,7.03125,101.2995,1,0.81
2022-06-02T10:46:26.573+02:00,1654159585.999692,53.22907074211478,10.39855068497811,36.81837,0.07944696,0.949674,30.6971104320851,180,2.400000095367432,7.999579855010836,-9999,2730.850739,-0.7299652099609375,1.711105346679688,-0.6933746337890625,2730.840745,0.5119906705347297,-0.9625102053798766,-1.063929460475254,-5.041173934936523,5.003665924072266,-2.289335489273071,-0.4458568692207336,0.6382575035095215,-0.7571506500244141,XArbitraryZVertical,-0.3339503509171688,-0.4997718341592479,0.4205719938133696,0.6795765767670825,-0.3983661234378815,0.8742697238922119,-0.2774105668067932,0,0,0,-1,-1,2730.102895416667,unknown,2,2022-06-02T10:46:25.825+02:00,2022-06-02T10:17:13.754+02:00,448,1.423373,0,0,345.1212,0,0,2022-06-02T10:46:25.824+02:00,675852385.8243657,0,7.03125,101.2995,1,0.81
2022-06-02T10:46:26.583+02:00,1654159585.999692,53.22907074211478,10.39855068497811,36.81837,0.07944696,0.949674,30.6971104320851,180,2.400000095367432,7.999579855010836,-9999,2730.860734,-0.6754608154296875,1.893646240234375,-0.37188720703125,2730.850739,0.4054471117518379,-1.005455024342185,-1.073212097733165,-4.521853446960449,5.088864803314209,-1.856577038764954,-0.3615033626556396,0.7642365694046021,-0.5932596325874329,XArbitraryZVertical,-0.3554223180774617,-0.4958105790532421,0.3929012590132723,0.6880954795498401,-0.4030382931232452,0.8787381649017334,-0.2556937038898468,0,0,0,-1,-1,2730.102895416667,unknown,2,2022-06-02T10:46:25.825+02:00,2022-06-02T10:17:13.754+02:00,448,1.423373,0,0,345.1212,0,0,2022-06-02T10:46:25.824+02:00,675852385.8243657,0,7.03125,101.2995,1,0.81
2022-06-02T10:46:26.594+02:00,1654159585.999692,53.22907074211478,10.39855068497811,36.81837,0.07944696,0.949674,30.6971104320851,180,2.400000095367432,7.999579855010836,-9999,2730.870728,-0.6310577392578125,2.045089721679688,-0.1637420654296875,2730.860734,0.3107459538120283,-1.037626188291233,-1.081488702412993,-3.997869729995728,5.168925762176514,-1.412673115730286,-0.2966391444206238,0.9150252342224121,-0.2859945595264435,XArbitraryZVertical,-0.3758648769306454,-0.4891618248559169,0.3673876021616791,0.6960407174159003,-0.4047769010066986,0.8826584815979004,-0.2388925999403,0,0,0,-1,-1,2730.102895416667,unknown,2,2022-06-02T10:46:25.825+02:00,2022-06-02T10:17:13.754+02:00,448,1.423373,0,0,345.1212,0,0,2022-06-02T10:46:25.824+02:00,675852385.8243657,0,7.03125,101.2995,1,0.81
2022-06-02T10:46:26.603+02:00,1654159585.999692,53.22907074211478,10.39855068497811,36.81837,0.07944696,0.949674,30.6971104320851,180,2.400000095367432,7.999579855010836,-9999,2730.880723,-0.5812225341796875,2.143325805664062,0.0149078369140625,2730.870728,0.2299561191174583,-1.057161356679037,-1.089339667897324,-3.301884889602661,5.209542274475098,-1.006198525428772,-0.2479423582553864,1.095001935958862,-0.03046754002571106,XArbitraryZVertical,-0.3949835432341026,-0.4798165557289539,0.3443072423407781,0.7037162769092099,-0.4033180475234985,0.8863213062286377,-0.2275281399488449,0,0,0,-1,-1,2730.102895416667,unknown,2,2022-06-02T10:46:25.825+02:00,2022-06-02T10:17:13.754+02:00,448,1.423373,0,0,345.1212,0,0,2022-06-02T10:46:25.824+02:00,675852385.8243657,0,7.03125,101.2995,1,0.81
2022-06-02T10:46:26.612+02:00,1654159585.999692,53.22907074211478,10.39855068497811,36.81837,0.07944696,0.949674,30.6971104320851,180,2.400000095367432,7.999579855010836,-9999,2730.890717,-0.5044708251953125,2.25653076171875,0.0902252197265625,2730.880723,0.1655933935758823,-1.062305348701563,-1.096241718433744,-2.551425457000732,5.190651893615723,-0.6882463097572327,-0.2087496817111969,1.205718398094177,0.1563350558280945,XArbitraryZVertical,-0.4119980436556134,-0.4680002681222884,0.3239009585290669,0.7115626715785439,-0.3991299271583557,0.8894963264465332,-0.2224667221307755,0,0,0,-1,-1,2730.102895416667,unknown,2,2022-06-02T10:46:25.825+02:00,2022-06-02T10:17:13.754+02:00,448,1.423373,0,0,345.1212,0,0,2022-06-02T10:46:25.824+02:00,675852385.8243657,0,7.03125,101.2995,1,0.81
2022-06-02T10:46:26.622+02:00,1654159585.999692,53.22907074211478,10.39855068497811,36.81837,0.07944696,0.949674,30.6971104320851,180,2.400000095367432,7.999579855010836,-9999,2730.900712,-0.424560546875,2.28997802734375,0.0718841552734375,2730.890717,0.1174669015373412,-1.053370860858695,-1.102679908124496,-1.916209578514099,5.185530662536621,-0.3252465426921844,-0.1531164944171906,1.306127548217773,0.2918813824653625,XArbitraryZVertical,-0.4269234741489299,-0.454029890160054,0.3060850538956182,0.7196561733694142,-0.3921410441398621,0.8924197554588318,-0.2231864184141159,0,0,0,-1,-1,2730.102895416667,unknown,2,2022-06-02T10:46:25.825+02:00,2022-06-02T10:17:13.754+02:00,448,1.423373,0,0,345.1212,0,0,2022-06-02T10:46:25.824+02:00,675852385.8243657,0,7.03125,101.2995,1,0.81
2022-06-02T10:46:26.632+02:00,1654159585.999692,53.22907074211478,10.39855068497811,36.81837,0.07944696,0.949674,30.6971104320851,180,2.400000095367432,7.999579855010836,-9999,2730.910706,-0.3701629638671875,2.150192260742188,-0.0059051513671875,2730.900712,0.08359163865282859,-1.03186602572025,-1.110080980106897,-1.495726466178894,5.168929576873779,0.07405418902635574,-0.08241727948188782,1.395723342895508,0.3177553415298462,XArbitraryZVertical,-0.440462950890311,-0.4380717471558527,0.2906443874451914,0.7277439577677514,-0.3815719783306122,0.8957346677780151,-0.2281710654497147,0,0,0,-1,-1,2730.102895416667,unknown,2,2022-06-02T10:46:25.825+02:00,2022-06-02T10:17:13.754+02:00,448,1.423373,0,0,345.1212,0,0,2022-06-02T10:46:25.824+02:00,675852385.8243657,0,7.03125,101.2995,1,0.81
2022-06-02T10:46:26.645+02:00,1654159585.999692,53.22907074211478,10.39855068497811,36.81837,0.07944696,0.949674,30.6971104320851,180,2.400000095367432,7.999579855010836,-9999,2730.920701,-0.379791259765625,1.8948974609375,0.0314788818359375,2730.910706,0.05990549627122393,-1.00167016666414,-1.119770232024966,-1.315081596374512,5.134172439575195,0.4776386618614197,-0.02292522788047791,1.343255162239075,0.2750447988510132,XArbitraryZVertical,-0.4534682450286896,-0.4206150701508176,0.2771513742165588,0.7352799566870708,-0.3671809732913971,0.9000003337860107,-0.234899029135704,0,0,0,-1,-1,2730.102895416667,unknown,2,2022-06-02T10:46:25.825+02:00,2022-06-02T10:17:13.754+02:00,448,1.423373,0,0,345.1212,0,0,2022-06-02T10:46:25.824+02:00,675852385.8243657,0,7.03125,101.2995,1,0.81
2022-06-02T10:46:26.653+02:00,1654159585.999692,53.22907074211478,10.39855068497811,36.81837,0.07944696,0.949674,30.6971104320851,180,2.400000095367432,7.999579855010836,-9999,2730.930695,-0.37646484375,1.754562377929688,0.321380615234375,2730.920701,0.04401552528746426,-0.9647084874785585,-1.132315257121316,-1.246095180511475,5.135179996490479,0.847339391708374,-0.02175465226173401,1.117032766342163,0.2162363678216934,XArbitraryZVertical,-0.4664634462060401,-0.4018505772973548,0.2652077877589532,0.7420193286789125,-0.3489423096179962,0.9053975939750671,-0.2418559342622757,0,0,0,-1,-1,2730.102895416667,unknown,2,2022-06-02T10:46:25.825+02:00,2022-06-02T10:17:13.754+02:00,448,1.423373,0,0,345.1212,0,0,2022-06-02T10:46:25.824+02:00,675852385.8243657,0,7.03125,101.2995,1,0.81
2022-06-02T10:46:26.665+02:00,1654159585.999692,53.22907074211478,10.39855068497811,36.81837,0.07944696,0.949674,30.6971104320851,180,2.400000095367432,7.999579855010836,-9999,2730.94069,-0.314483642578125,1.7398681640625,0.6474761962890625,2730.930695,0.03288666820913594,-0.9235287915636042,-1.148349604255763,-1.405455827713013,5.119432926177979,1.207564115524292,-0.05794420838356018,0.8933616876602173,0.4110629260540009,XArbitraryZVertical,-0.4800410653453233,-0.3820286490910798,0.2543126369026358,0.7476226068024949,-0.327065497636795,0.9120885133743286,-0.2472293674945831,0,0,0,-1,-1,2730.102895416667,unknown,2,2022-06-02T10:46:25.825+02:00,2022-06-02T10:17:13.754+02:00,448,1.423373,0,0,345.1212,0,0,2022-06-02T10:46:25.824+02:00,675852385.8243657,0,7.03125,101.2995,1,0.81
2022-06-02T10:46:26.695+02:00,1654159585.999692,53.22907074211478,10.39855068497811,36.81837,0.07944696,0.949674,30.6971104320851,180,2.400000095367432,7.999579855010836,-9999,2730.950684,-0.20635986328125,1.737197875976562,0.8851470947265625,2730.950684,0.02319548237911438,-0.8326658121737769,-1.192666441391943,-1.59328830242157,4.77698278427124,1.915670156478882,0.00998765230178833,0.8197887539863586,1.020321726799011,XArbitraryZVertical,-0.5097232396166055,-0.3405429134310766,0.2358821478174709,0.7540373163327367,-0.2730948925018311,0.9293566942214966,-0.2484254837036133,0,0,0,-1,-1,2730.102895416667,unknown,2,2022-06-02T10:46:25.825+02:00,2022-06-02T10:17:13.754+02:00,448,1.423373,0,0,345.1212,0,0,2022-06-02T10:46:25.824+02:00,675852385.8243657,0,7.03125,101.2995,1,0.81
2022-06-02T10:46:26.699+02:00,1654159585.999692,53.22907074211478,10.39855068497811,36.81837,0.07944696,0.949674,30.6971104320851,180,2.400000095367432,7.999579855010836,-9999,2730.960679,-0.102264404296875,1.704193115234375,1.061782836914062,2730.950684,0.02319548237911438,-0.8326658121737769,-1.192666441391943,-1.59328830242157,4.77698278427124,1.915670156478882,0.00998765230178833,0.8197887539863586,1.020321726799011,XArbitraryZVertical,-0.5097232396166055,-0.3405429134310766,0.2358821478174709,0.7540373163327367,-0.2730948925018311,0.9293566942214966,-0.2484254837036133,0,0,0,-1,-1,2730.102895416667,unknown,2,2022-06-02T10:46:25.825+02:00,2022-06-02T10:17:13.754+02:00,448,1.423373,0,0,345.1212,0,0,2022-06-02T10:46:25.824+02:00,675852385.8243657,0,7.03125,101.2995,1,0.81
2022-06-02T10:46:26.701+02:00,1654159585.999692,53.22907074211478,10.39855068497811,36.81837,0.07944696,0.949674,30.6971104320851,180,2.400000095367432,7.999579855010836,-9999,2730.970673,-0.0303192138671875,1.654769897460938,1.037979125976562,2730.960679,0.03227337758960297,-0.7782787313122235,-1.21778320239647,-1.396669268608093,4.390437602996826,2.15518045425415,0.09115314483642578,0.7813757658004761,1.243590116500854,XArbitraryZVertical,-0.5241062343212753,-0.3197075181214223,0.2292151418185474,0.7553541594787524,-0.2427186369895935,0.9383352398872375,-0.2461995184421539,0,0,0,-1,-1,2730.102895416667,unknown,2,2022-06-02T10:46:25.825+02:00,2022-06-02T10:17:13.754+02:00,448,1.423373,0,0,345.1212,0,0,2022-06-02T10:46:25.824+02:00,675852385.8243657,0,7.03125,101.2995,1,0.81
2022-06-02T10:46:26.705+02:00,1654159585.999692,53.22907074211478,10.39855068497811,36.81837,0.07944696,0.949674,30.6971104320851,180,2.400000095367432,7.999579855010836,-9999,2730.980668,-0.0207061767578125,1.579757690429688,0.98016357421875,2730.970673,0.05791399529582177,-0.7123981329222239,-1.242174430703266,-1.019548058509827,3.947780847549438,2.415910720825195,0.1499233841896057,0.7376092672348022,1.308471918106079,XArbitraryZVertical,-0.5369525616619054,-0.2992624997063921,0.2249065543943025,0.7560032977156275,-0.2109585702419281,0.9464880228042603,-0.2442478090524673,0,0,0,-1,-1,2730.102895416667,unknown,2,2022-06-02T10:46:25.825+02:00,2022-06-02T10:17:13.754+02:00,448,1.423373,0,0,345.1212,0,0,2022-06-02T10:46:25.824+02:00,675852385.8243657,0,7.03125,101.2995,1,0.81
2022-06-02T10:46:26.713+02:00,1654159585.999692,53.22907074211478,10.39855068497811,36.81837,0.07944696,0.949674,30.6971104320851,180,2.400000095367432,7.999579855010836,-9999,2730.990662,-0.09393310546875,1.474990844726562,0.92315673828125,2730.990662,0.1753600362085752,-0.5305385097024905,-1.283315082112845,-0.2744984030723572,3.087240934371948,2.825705766677856,0.09604492783546448,0.5751726031303406,1.207542777061462,XArbitraryZVertical,-0.5569788999768528,-0.2597963913519701,0.2240091161156909,0.7563729603318526,-0.1434692293405533,0.9589610695838928,-0.2445606738328934,0,0,0,-1,-1,2730.102895416667,unknown,2,2022-06-02T10:46:25.825+02:00,2022-06-02T10:17:13.754+02:00,448,1.423373,0,0,345.1212,0,0,2022-06-02T10:46:25.824+02:00,675852385.8243657,0,7.03125,101.2995,1,0.81
2022-06-02T10:46:26.722+02:00,1654159585.999692,53.22907074211478,10.39855068497811,36.81837,0.07944696,0.949674,30.6971104320851,180,2.400000095367432,7.999579855010836,-9999,2731.000657,-0.18597412109375,1.38104248046875,0.8910675048828125,2730.990662,0.1753600362085752,-0.5305385097024905,-1.283315082112845,-0.2744984030723572,3.087240934371948,2.825705766677856,0.09604492783546448,0.5751726031303406,1.207542777061462,XArbitraryZVertical,-0.5569788999768528,-0.2597963913519701,0.2240091161156909,0.7563729603318526,-0.1434692293405533,0.9589610695838928,-0.2445606738328934,0,0,0,-1,-1,2730.102895416667,unknown,2,2022-06-02T10:46:25.825+02:00,2022-06-02T10:17:13.754+02:00,448,1.423373,0,0,345.1212,0,0,2022-06-02T10:46:25.824+02:00,675852385.8243657,0,7.03125,101.2995,1,0.81
2022-06-02T10:46:26.732+02:00,1654159585.999692,53.22907074211478,10.39855068497811,36.81837,0.07944696,0.949674,30.6971104320851,180,2.400000095367432,7.999579855010836,-9999,2731.010651,-0.2135162353515625,1.359756469726562,1.0467529296875,2731.000657,0.2669229058234935,-0.4132261873025044,-1.297007652500428,0.1099549308419228,2.785625696182251,2.943917274475098,-0.03902246057987213,0.4483488798141479,1.129824995994568,XArbitraryZVertical,-0.5641354249765858,-0.2407067100682708,0.2266014891921178,0.7566130290082876,-0.108575813472271,0.9627534151077271,-0.247623011469841,0,0,0,-1,-1,2730.102895416667,unknown,2,2022-06-02T10:46:25.825+02:00,2022-06-02T10:17:13.754+02:00,448,1.423373,0,0,345.1212,0,0,2022-06-02T10:46:25.824+02:00,675852385.8243657,0,7.03125,101.2995,1,0.81
2022-06-02T10:46:26.742+02:00,1654159585.999692,53.22907074211478,10.39855068497811,36.81837,0.07944696,0.949674,30.6971104320851,180,2.400000095367432,7.999579855010836,-9999,2731.020646,-0.19024658203125,1.213455200195312,1.2745361328125,2731.010651,0.3762453956537775,-0.2813766633889851,-1.305402519164724,0.2634643316268921,2.511972665786743,3.089858770370483,-0.132902204990387,0.4132607579231262,1.205450296401978,XArbitraryZVertical,-0.5698910571877396,-0.2218940451914341,0.2307662291617935,0.7567919948352867,-0.07283205538988113,0.9649893045425415,-0.2519744336605072,0,0,0,-1,-1,2730.102895416667,unknown,2,2022-06-02T10:46:25.825+02:00,2022-06-02T10:17:13.754+02:00,448,1.423373,0,0,345.1212,0,0,2022-06-02T10:46:25.824+02:00,675852385.8243657,0,7.03125,101.2995,1,0.81
2022-06-02T10:46:26.752+02:00,1654159585.999692,53.22907074211478,10.39855068497811,36.81837,0.07944696,0.949674,30.6971104320851,180,2.400000095367432,7.999579855010836,-9999,2731.03064,-0.0887298583984375,1.082656860351562,1.4755859375,2731.020646,0.495324680423896,-0.1426924364639501,-1.309553505386146,0.2016000896692276,2.217120409011841,3.13189172744751,-0.1747417449951172,0.3350012898445129,1.417200803756714,XArbitraryZVertical,-0.5750383155489744,-0.2037226323897806,0.2360323064474645,0.7563839291563424,-0.03672980889678001,0.9660696983337402,-0.2556560635566711,0,0,0,-1,-1,2730.102895416667,unknown,2,2022-06-02T10:46:25.825+02:00,2022-06-02T10:17:13.754+02:00,448,1.423373,0,0,345.1212,0,0,2022-06-02T10:46:25.824+02:00,675852385.8243657,0,7.03125,101.2995,1,0.81
2022-06-02T10:46:26.762+02:00,1654159585.999692,53.22907074211478,10.39855068497811,36.81837,0.07944696,0.949674,30.6971104320851,180,2.400000095367432,7.999579855010836,-9999,2731.040635,-0.0191802978515625,1.076202392578125,1.594268798828125,2731.03064,0.6179949217608903,-0.004054490613329858,-1.311113047969715,-0.08583514392375946,1.782897114753723,3.196815729141235,-0.1460841596126556,0.1662799119949341,1.631741285324097,XArbitraryZVertical,-0.5802393981030823,-0.1869124500764778,0.2422425401020493,0.7547876462838113,-0.001041085226461291,0.9664713740348816,-0.2567719519138336,0,0,0,-1,-1,2730.102895416667,unknown,2,2022-06-02T10:46:25.825+02:00,2022-06-02T10:17:13.754+02:00,448,1.423373,0,0,345.1212,0,0,2022-06-02T10:46:25.824+02:00,675852385.8243657,0,7.03125,101.2995,1,0.81
2022-06-02T10:46:26.772+02:00,1654159585.999692,53.22907074211478,10.39855068497811,36.81837,0.07944696,0.949674,30.6971104320851,180,2.400000095367432,7.999579855010836,-9999,2731.050629,-0.09161376953125,1.075912475585938,1.575119018554688,2731.040635,0.7451316335097546,0.1337302742821784,-1.311978640068695,-0.4955832958221436,1.187174439430237,3.294567108154297,-0.07469776272773743,0.1062130331993103,1.806355834007263,XArbitraryZVertical,-0.5861031415108261,-0.172212381319413,0.2498527446622942,0.7512651935514937,0.03412462025880814,0.9666932821273804,-0.2536520063877106,0,0,0,-1,-1,2730.102895416667,unknown,2,2022-06-02T10:46:25.825+02:00,2022-06-02T10:17:13.754+02:00,448,1.423373,0,0,345.1212,0,0,2022-06-02T10:46:25.824+02:00,675852385.8243657,0,7.03125,101.2995,1,0.81
2022-06-02T10:46:26.783+02:00,1654159585.999692,53.22907074211478,10.39855068497811,36.81837,0.07944696,0.949674,30.6971104320851,180,2.400000095367432,7.999579855010836,-9999,2731.060624,-0.2232513427734375,1.06158447265625,1.498489379882812,2731.050629,0.8768651563612336,0.2698540477480912,-1.311656109891867,-0.7749768495559692,0.5808262228965759,3.316501379013062,-0.1060181558132172,0.1117125749588013,1.842953205108643,XArbitraryZVertical,-0.592378769671864,-0.1599988535640469,0.2591206190736257,0.7458848085878743,0.06831368058919907,0.9666106700897217,-0.2469755262136459,0,0,0,-1,-1,2730.102895416667,unknown,2,2022-06-02T10:46:25.825+02:00,2022-06-02T10:17:13.754+02:00,448,1.423373,0,0,345.1212,0,0,2022-06-02T10:46:25.824+02:00,675852385.8243657,0,7.03125,101.2995,1,0.81
2022-06-02T10:46:26.794+02:00,1654159585.999692,53.22907074211478,10.39855068497811,36.81837,0.07944696,0.949674,30.6971104320851,180,2.400000095367432,7.999579855010836,-9999,2731.070618,-0.305999755859375,1.076690673828125,1.424453735351562,2731.070618,1.140593440839857,0.526127683763824,-1.303053698533113,-1.101155757904053,-0.3949073851108551,3.34393572807312,-0.4055614173412323,0.0993804931640625,1.686142683029175,XArbitraryZVertical,-0.6045058958778089,-0.1420729501649164,0.28179015439979,0.7314246570710122,0.1328562945127487,0.9643705487251282,-0.2287757992744446,0,0,0,-1,-1,2730.102895416667,unknown,2,2022-06-02T10:46:25.825+02:00,2022-06-02T10:17:13.754+02:00,448,1.423373,0,0,345.1212,0,0,2022-06-02T10:46:25.824+02:00,675852385.8243657,0,7.03125,101.2995,1,0.81
2022-06-02T10:46:26.803+02:00,1654159585.999692,53.22907074211478,10.39855068497811,36.81837,0.07944696,0.949674,30.6971104320851,180,2.400000095367432,7.999579855010836,-9999,2731.080613,-0.3537750244140625,1.085952758789062,1.3995361328125,2731.070618,1.140593440839857,0.526127683763824,-1.303053698533113,-1.101155757904053,-0.3949073851108551,3.34393572807312,-0.4055614173412323,0.0993804931640625,1.686142683029175,XArbitraryZVertical,-0.6045058958778089,-0.1420729501649164,0.28179015439979,0.7314246570710122,0.1328562945127487,0.9643705487251282,-0.2287757992744446,0,0,0,-1,-1,2730.102895416667,unknown,2,2022-06-02T10:46:25.825+02:00,2022-06-02T10:17:13.754+02:00,448,1.423373,0,0,345.1212,0,0,2022-06-02T10:46:25.824+02:00,675852385.8243657,0,7.03125,101.2995,1,0.81
2022-06-02T10:46:26.812+02:00,1654159585.999692,53.22907074211478,10.39855068497811,36.81837,0.07944696,0.949674,30.6971104320851,180,2.400000095367432,7.999579855010836,-9999,2731.090607,-0.396087646484375,1.137222290039062,1.437103271484375,2731.080613,1.267811177222114,0.6422859023916954,-1.294087242468811,-1.155049324035645,-0.8858277201652527,3.343459367752075,-0.4964279532432556,0.1229706406593323,1.625154495239258,XArbitraryZVertical,-0.6100496427888676,-0.1358803183388384,0.2950988350662267,0.7226981105194275,0.1636489778757095,0.9619597196578979,-0.2187519520521164,0,0,0,-1,-1,2730.102895416667,unknown,2,2022-06-02T10:46:25.825+02:00,2022-06-02T10:17:13.754+02:00,448,1.423373,0,0,345.1212,0,0,2022-06-02T10:46:25.824+02:00,675852385.8243657,0,7.03125,101.2995,1,0.81
2022-06-02T10:46:26.822+02:00,1654159585.999692,53.22907074211478,10.39855068497811,36.81837,0.07944696,0.949674,30.6971104320851,180,2.400000095367432,7.999579855010836,-9999,2731.100602,-0.464263916015625,1.14862060546875,1.4259033203125,2731.090607,1.385184412384181,0.7438644979269482,-1.281443028876484,-1.082478761672974,-1.324010014533997,3.290106534957886,-0.5653401017189026,0.1458955407142639,1.628008484840393,XArbitraryZVertical,-0.6146177330199134,-0.1313896863320229,0.3097036260069186,0.7134880994693301,0.1932087242603302,0.9584286212921143,-0.2099635899066925,0,0,0,-1,-1,2730.102895416667,unknown,2,2022-06-02T10:46:25.825+02:00,2022-06-02T10:17:13.754+02:00,448,1.423373,0,0,345.1212,0,0,2022-06-02T10:46:25.824+02:00,675852385.8243657,0,7.03125,101.2995,1,0.81
2022-06-02T10:46:26.832+02:00,1654159585.999692,53.22907074211478,10.39855068497811,36.81837,0.07944696,0.949674,30.6971104320851,180,2.400000095367432,7.999579855010836,-9999,2731.110596,-0.5042877197265625,1.09063720703125,1.421066284179688,2731.100602,1.487068952907813,0.8257708192547065,-1.265869025220972,-0.9091222882270813,-1.789200663566589,3.141473293304443,-0.6528142690658569,0.2029303312301636,1.643139004707336,XArbitraryZVertical,-0.6178083671985791,-0.1286022664788476,0.325206168779507,0.7042833395721319,0.2206853181123734,0.9538688063621521,-0.2035485506057739,0,0,0,-1,-1,2730.102895416667,unknown,2,2022-06-02T10:46:25.825+02:00,2022-06-02T10:17:13.754+02:00,448,1.423373,0,0,345.1212,0,0,2022-06-02T10:46:25.824+02:00,675852385.8243657,0,7.03125,101.2995,1,0.81
2022-06-02T10:46:26.842+02:00,1654159585.999692,53.22907074211478,10.39855068497811,36.81837,0.07944696,0.949674,30.6971104320851,180,2.400000095367432,7.999579855010836,-9999,2731.120591,-0.564300537109375,1.038406372070312,1.417221069335938,2731.110596,1.572374263019895,0.8865811619557271,-1.247791779770625,-0.7191882729530334,-2.274693965911865,3.036081075668335,-0.7305905222892761,0.173799455165863,1.617025136947632,XArbitraryZVertical,-0.619216391218947,-0.1275027221196083,0.3417915924632585,0.6953363156276936,0.2459713667631149,0.9482859969139099,-0.2006282359361649,0,0,0,-1,-1,2730.102895416667,unknown,2,2022-06-02T10:46:25.825+02:00,2022-06-02T10:17:13.754+02:00,448,1.423373,0,0,345.1212,0,0,2022-06-02T10:46:25.824+02:00,675852385.8243657,0,7.03125,101.2995,1,0.81
2022-06-02T10:46:26.852+02:00,1654159585.999692,53.22907074211478,10.39855068497811,36.81837,0.07944696,0.949674,30.6971104320851,180,2.400000095367432,7.999579855010836,-9999,2731.130585,-0.635589599609375,0.992889404296875,1.431884765625,2731.120591,1.64502981420458,0.9303320839335733,-1.228596550878712,-0.6849247217178345,-2.713800191879272,2.901983976364136,-0.8002165555953979,0.1212897896766663,1.627704739570618,XArbitraryZVertical,-0.6191316944588421,-0.1281251955697894,0.3593318748843987,0.686396660326496,0.2690580785274506,0.9420188069343567,-0.2005197554826736,0,0,0,-1,-1,2730.102895416667,unknown,2,2022-06-02T10:46:25.825+02:00,2022-06-02T10:17:13.754+02:00,448,1.423373,0,0,345.1212,0,0,2022-06-02T10:46:25.824+02:00,675852385.8243657,0,7.03125,101.2995,1,0.81
2022-06-02T10:46:26.862+02:00,1654159585.999692,53.22907074211478,10.39855068497811,36.81837,0.07944696,0.949674,30.6971104320851,180,2.400000095367432,7.999579855010836,-9999,2731.14058,-0.6897125244140625,1.001144409179688,1.539138793945312,2731.130585,1.711098451484951,0.9631537321880869,-1.21016294227234,-0.8804534673690796,-3.120893955230713,2.750268459320068,-0.8891897201538086,0.08094322681427002,1.609773397445679,XArbitraryZVertical,-0.6181985047630582,-0.1307624607327491,0.3774963078556484,0.6769256251852935,0.2897023856639862,0.9356735348701477,-0.2014635801315308,0,0,0,-1,-1,2730.102895416667,unknown,2,2022-06-02T10:46:25.825+02:00,2022-06-02T10:17:13.754+02:00,448,1.423373,0,0,345.1212,0,0,2022-06-02T10:46:25.824+02:00,675852385.8243657,0,7.03125,101.2995,1,0.81
2022-06-02T10:46:26.872+02:00,1654159585.999692,53.22907074211478,10.39855068497811,36.81837,0.07944696,0.949674,30.6971104320851,180,2.400000095367432,7.999579855010836,-9999,2731.150574,-0.6839752197265625,1.115097045898438,1.726791381835938,2731.14058,1.776757753972807,0.9913021709425919,-1.193636232942291,-1.224287867546082,-3.513696432113647,2.650754928588867,-0.9766889810562134,0.04858756065368652,1.684153914451599,XArbitraryZVertical,-0.6170785779356711,-0.1355672207044645,0.3960711028749849,0.6663055409635837,0.3081555962562561,0.9297142624855042,-0.2016711086034775,0,0,0,-1,-1,2730.102895416667,unknown,2,2022-06-02T10:46:25.825+02:00,2022-06-02T10:17:13.754+02:00,448,1.423373,0,0,345.1212,0,0,2022-06-02T10:46:25.824+02:00,675852385.8243657,0,7.03125,101.2995,1,0.81
2022-06-02T10:46:26.882+02:00,1654159585.999692,53.22907074211478,10.39855068497811,36.81837,0.07944696,0.949674,30.6971104320851,180,2.400000095367432,7.999579855010836,-9999,2731.160569,-0.6601409912109375,1.237411499023438,1.9930419921875,2731.150574,1.847354431262034,1.018928395717244,-1.179263521981413,-1.726838350296021,-4.089096546173096,2.616363048553467,-1.018100738525391,0.1300875544548035,1.817407608032227,XArbitraryZVertical,-0.6160707720559498,-0.1429089629117895,0.4153971045344516,0.6538187791483975,0.3249548971652985,0.9243252277374268,-0.2000676691532135,0,0,0,-1,-1,2730.102895416667,unknown,2,2022-06-02T10:46:25.825+02:00,2022-06-02T10:17:13.754+02:00,448,1.423373,0,0,345.1212,0,0,2022-06-02T10:46:25.824+02:00,675852385.8243657,0,7.03125,101.2995,1,0.81
2022-06-02T10:46:26.892+02:00,1654159585.999692,53.22907074211478,10.39855068497811,36.81837,0.07944696,0.949674,30.6971104320851,180,2.400000095367432,7.999579855010836,-9999,2731.170563,-0.6280059814453125,1.43304443359375,2.33349609375,2731.160569,1.925547774427621,1.045776176711416,-1.167008822385007,-2.210199356079102,-5.016494274139404,2.58558177947998,-1.013645768165588,0.2501746416091919,2.056417226791382,XArbitraryZVertical,-0.6147385265258425,-0.1537165294920357,0.4362747125417363,0.6388522632995369,0.3399854302406311,0.9195794463157654,-0.1969355493783951,0,0,0,-1,-1,2730.102895416667,unknown,2,2022-06-02T10:46:25.825+02:00,2022-06-02T10:17:13.754+02:00,448,1.423373,0,0,345.1212,0,0,2022-06-02T10:46:25.824+02:00,675852385.8243657,0,7.03125,101.2995,1,0.81
2022-06-02T10:46:26.902+02:00,1654159585.999692,53.22907074211478,10.39855068497811,36.81837,0.07944696,0.949674,30.6971104320851,180,2.400000095367432,7.999579855010836,-9999,2731.180558,-0.7053070068359375,1.469512939453125,2.360626220703125,2731.170563,2.011843036839431,1.068282487314976,-1.157233713140727,-2.813612699508667,-6.387651443481445,2.485376358032227,-0.9922068119049072,0.4177705049514771,2.358288288116455,XArbitraryZVertical,-0.6119837178945029,-0.1694067822257405,0.4596227847346718,0.6209058006150616,0.3521920144557953,0.9156948924064636,-0.1935545355081558,0,0,0,-1,-1,2730.102895416667,unknown,2,2022-06-02T10:46:25.825+02:00,2022-06-02T10:17:13.754+02:00,448,1.423373,0,0,345.1212,0,0,2022-06-02T10:46:25.824+02:00,675852385.8243657,0,7.03125,101.2995,1,0.81
2022-06-02T10:46:26.912+02:00,1654159585.999692,53.22907074211478,10.39855068497811,36.81837,0.07944696,0.949674,30.6971104320851,180,2.400000095367432,7.999579855010836,-9999,2731.190552,-0.858978271484375,1.396270751953125,2.257659912109375,2731.180558,2.104297423267124,1.080374379559263,-1.150195155032687,-3.037804365158081,-8.134556770324707,2.301189661026001,-1.008300423622131,0.5687845945358276,2.585806369781494,XArbitraryZVertical,-0.6060431374386319,-0.191194473684447,0.4863482817537851,0.5996845676826649,0.3601833283901215,0.912843644618988,-0.1923127770423889,0,0,0,-1,-1,2730.102895416667,unknown,2,2022-06-02T10:46:25.825+02:00,2022-06-02T10:17:13.754+02:00,448,1.423373,0,0,345.1212,0,0,2022-06-02T10:46:25.824+02:00,675852385.8243657,0,7.03125,101.2995,1,0.81
2022-06-02T10:46:26.922+02:00,1654159585.999692,53.22907074211478,10.39855068497811,36.81837,0.07944696,0.949674,30.6971104320851,180,2.400000095367432,7.999579855010836,-9999,2731.200547,-1.063720703125,1.289947509765625,2.034759521484375,2731.190552,2.192935771710203,1.070870483248747,-1.144781905107986,-2.838182926177979,-9.914133071899414,2.117583513259888,-1.141830325126648,0.5230803489685059,2.506869792938232,XArbitraryZVertical,-0.5943092727773734,-0.2185177397001498,0.5169242217540653,0.5760517321749721,0.3626706600189209,0.9106199741363525,-0.1980929672718048,0,0,0,-1,-1,2730.102895416667,unknown,2,2022-06-02T10:46:25.825+02:00,2022-06-02T10:17:13.754+02:00,448,1.423373,0,0,345.1212,0,0,2022-06-02T10:46:25.824+02:00,675852385.8243657,0,7.03125,101.2995,1,0.81
2022-06-02T10:46:26.932+02:00,1654159585.999692,53.22907074211478,10.39855068497811,36.81837,0.07944696,0.949674,30.6971104320851,180,2.400000095367432,7.999579855010836,-9999,2731.210541,-1.197906494140625,1.126983642578125,1.753326416015625,2731.200547,2.272080989541096,1.036898438069926,-1.139995873249211,-2.36789083480835,-11.22150802612305,1.934229969978333,-1.31510865688324,0.4429918527603149,2.386752843856812,XArbitraryZVertical,-0.575799166679192,-0.2493971873870419,0.55061103826367,0.5505305676992154,0.3594812154769897,0.9086318016052246,-0.212512731552124,0,0,0,-1,-1,2730.102895416667,unknown,2,2022-06-02T10:46:25.825+02:00,2022-06-02T10:17:13.754+02:00,448,1.423373,0,0,345.1212,0,0,2022-06-02T10:46:25.824+02:00,675852385.8243657,0,7.03125,101.2995,1,0.81
2022-06-02T10:46:26.942+02:00,1654159585.999692,53.22907074211478,10.39855068497811,36.81837,0.07944696,0.949674,30.6971104320851,180,2.400000095367432,7.999579855010836,-9999,2731.220536,-1.139999389648438,1.187469482421875,2.564132690429688,2731.210541,2.335940915263808,0.975893260709863,-1.136308426142492,-1.717393159866333,-12.68331718444824,1.551351308822632,-1.507472515106201,0.2978397011756897,2.088540554046631,XArbitraryZVertical,-0.5498505607491454,-0.2823284682366984,0.5860431121705914,0.5239354655067771,0.3486284613609314,0.9070857167243958,-0.2359099984169006,0,0,0,-1,-1,2730.102895416667,unknown,2,2022-06-02T10:46:25.825+02:00,2022-06-02T10:17:13.754+02:00,448,1.423373,0,0,345.1212,0,0,2022-06-02T10:46:25.824+02:00,675852385.8243657,0,7.03125,101.2995,1,0.81
2022-06-02T10:46:26.952+02:00,1654159585.999692,53.22907074211478,10.39855068497811,36.81837,0.07944696,0.949674,30.6971104320851,180,2.400000095367432,7.999579855010836,-9999,2731.23053,-1.285858154296875,1.33050537109375,2.641250610351562,2731.220536,2.379797749283013,0.8798564714144943,-1.131817542439205,-0.7519871592521667,-14.52907752990723,1.368651032447815,-1.499976277351379,0.2112534642219543,2.324419260025024,XArbitraryZVertical,-0.5140664192059996,-0.316722038808638,0.6241038546301884,0.4959001967772958,0.3275366127490997,0.9051861763000488,-0.2708457410335541,0,0,0,-1,-1,2730.102895416667,unknown,2,2022-06-02T10:46:25.825+02:00,2022-06-02T10:17:13.754+02:00,448,1.423373,0,0,345.1212,0,0,2022-06-02T10:46:25.824+02:00,675852385.8243657,0,7.03125,101.2995,1,0.81
2022-06-02T10:46:26.962+02:00,1654159585.999692,53.22907074211478,10.39855068497811,36.81837,0.07944696,0.949674,30.6971104320851,180,2.400000095367432,7.999579855010836,-9999,2731.240525,-2.10089111328125,0.9733428955078125,1.633209228515625,2731.23053,2.402626476500734,0.7427180820146877,-1.124040396933489,0.5222283601760864,-17.10158729553223,1.068765044212341,-1.458217740058899,0.3814716935157776,3.096546173095703,XArbitraryZVertical,-0.4656700029185785,-0.3521693932790064,0.6654521272100073,0.4650822190901642,0.2921867370605469,0.9018534421920776,-0.3182563483715057,0,0,0,-1,-1,2730.102895416667,unknown,2,2022-06-02T10:46:25.825+02:00,2022-06-02T10:17:13.754+02:00,448,1.423373,0,0,345.1212,0,0,2022-06-02T10:46:25.824+02:00,675852385.8243657,0,7.03125,101.2995,1,0.81
2022-06-02T10:46:26.972+02:00,1654159585.999692,53.22907074211478,10.39855068497811,36.81837,0.07944696,0.949674,30.6971104320851,180,2.400000095367432,7.999579855010836,-9999,2731.250519,-4.027923583984375,-0.109954833984375,1.840927124023438,2731.240525,2.394027933625554,0.5505137311816736,-1.108918305608954,2.423133611679077,-19.80820465087891,-0.1193220615386963,-1.791927695274353,0.3686224222183228,2.620574474334717,XArbitraryZVertical,-0.400123334578235,-0.3873060198154032,0.7094376964966607,0.4319645506098795,0.2331202179193497,0.8952171802520752,-0.379790723323822,0,0,0,-1,-1,2730.102895416667,unknown,2,2022-06-02T10:46:25.825+02:00,2022-06-02T10:17:13.754+02:00,448,1.423373,0,0,345.1212,0,0,2022-06-02T10:46:25.824+02:00,675852385.8243657,0,7.03125,101.2995,1,0.81
2022-06-02T10:46:26.982+02:00,1654159585.999692,53.22907074211478,10.39855068497811,36.81837,0.07944696,0.949674,30.6971104320851,180,2.400000095367432,7.999579855010836,-9999,2731.260514,-22.91751098632812,-2.475433349609375,-14.30732727050781,2731.250519,2.339814238576488,0.2888598683547642,-1.076383215860053,5.204864501953125,-25.29068565368652,-1.676223158836365,-3.14331841468811,-0.4515212178230286,1.317068576812744,XArbitraryZVertical,-0.311730589105563,-0.4188033870542362,0.7535382855048295,0.3995093605988565,0.135170117020607,0.8802473545074463,-0.4548555314540863,0,0,0,-1,-1,2730.102895416667,unknown,2,2022-06-02T10:46:25.825+02:00,2022-06-02T10:17:13.754+02:00,448,1.423373,0,0,345.1212,0,0,2022-06-02T10:46:25.824+02:00,675852385.8243657,0,7.03125,101.2995,1,0.81
2022-06-02T10:46:26.992+02:00,1654159585.999692,53.22907074211478,10.39855068497811,36.81837,0.07944696,0.949674,30.6971104320851,180,2.400000095367432,7.999579855010836,-9999,2731.270508,-8.241714477539062,-4.091552734375,-27.03280639648438,2731.260514,2.264471629535875,0.280545965767463,-1.05781960497298,0.1404036730527878,5.278071880340576,-7.654317855834961,-8.111516952514648,-1.910304307937622,5.354367733001709,XArbitraryZVertical,-0.3214494147746849,-0.4010952130186788,0.744017675652198,0.4268846146033133,0.1358853429555893,0.87128746509552,-0.4715858101844788,0,0,0,-1,-1,2730.102895416667,unknown,2,2022-06-02T10:46:25.825+02:00,2022-06-02T10:17:13.754+02:00,448,1.423373,0,0,345.1212,0,0,2022-06-02T10:46:25.824+02:00,675852385.8243657,0,7.03125,101.2995,1,0.81
2022-06-02T10:46:27.002+02:00,1654159585.999692,53.22907074211478,10.39855068497811,36.81837,0.07944696,0.949674,30.6971104320851,180,2.400000095367432,7.999579855010836,-9999,2731.280503,-0.3669281005859375,-3.455703735351562,-0.763092041015625,2731.270508,2.197265570212596,0.264443368228294,-1.06534471328801,-1.409628510475159,3.4579758644104,2.457389354705811,-22.24267578125,-5.307191848754883,-29.80055809020996,XArbitraryZVertical,-0.3301004719422155,-0.3966715115701649,0.7300512043547274,0.4480073293451778,0.1265570074319839,0.8749558925628662,-0.4673707783222198,0,0,0,-1,-1,2730.102895416667,unknown,2,2022-06-02T10:46:25.825+02:00,2022-06-02T10:17:13.754+02:00,448,1.423373,0,0,345.1212,0,0,2022-06-02T10:46:25.824+02:00,675852385.8243657,0,7.03125,101.2995,1,0.81
2022-06-02T10:46:27.012+02:00,1654159585.999692,53.22907074211478,10.39855068497811,36.81837,0.07944696,0.949674,30.6971104320851,180,2.400000095367432,7.999579855010836,-9999,2731.290497,-1.0709228515625,0.206695556640625,13.11329650878906,2731.280503,2.286116673079333,0.3754866151537837,-1.076165082710072,-4.077168464660645,3.308310985565186,3.47986912727356,-1.097121715545654,-4.976076126098633,-14.39579963684082,XArbitraryZVertical,-0.35468171132333,-0.3916427479616498,0.7279225294189412,0.436972997744767,0.1740870028734207,0.8801438212394714,-0.4416336715221405,0,0,0,-1,-1,2730.102895416667,unknown,2,2022-06-02T10:46:25.825+02:00,2022-06-02T10:17:13.754+02:00,448,1.423373,0,0,345.1212,0,0,2022-06-02T10:46:25.824+02:00,675852385.8243657,0,7.03125,101.2995,1,0.81
2022-06-02T10:46:27.022+02:00,1654159585.999692,53.22907074211478,10.39855068497811,36.81837,0.07944696,0.949674,30.6971104320851,180,2.400000095367432,7.999579855010836,-9999,2731.300492,0.373382568359375,2.832626342773438,-0.7965087890625,2731.290497,2.415108702084302,0.5624935832183074,-1.146097837614067,-15.06272125244141,10.07924175262451,0.6425160765647888,-1.602433323860168,-2.745269536972046,8.736088752746582,XArbitraryZVertical,-0.4030745666374768,-0.4040425750130385,0.7010961743859608,0.4274861675490767,0.2197428494691849,0.9111630320549011,-0.3485609889030457,0,0,0,-1,-1,2730.102895416667,unknown,2,2022-06-02T10:46:25.825+02:00,2022-06-02T10:17:13.754+02:00,448,1.423373,0,0,345.1212,0,0,2022-06-02T10:46:25.824+02:00,675852385.8243657,0,7.03125,101.2995,1,0.81
2022-06-02T10:46:27.032+02:00,1654159585.999692,53.22907074211478,10.39855068497811,36.81837,0.07944696,0.949674,30.6971104320851,180,2.400000095367432,7.999579855010836,-9999,2731.310486,-0.5044403076171875,2.610824584960938,-7.654190063476562,2731.300492,2.719555048587337,0.9271385826983641,-1.272616790494619,-11.42133522033691,4.677392959594727,-1.570587635040283,-0.6728167533874512,1.0756516456604,11.84543323516846,XArbitraryZVertical,-0.4629873467625176,-0.4443988701574472,0.6477991865005412,0.4104976508769235,0.2349962741136551,0.9558728933334351,-0.1763047277927399,0,0,0,-1,-1,2730.102895416667,unknown,2,2022-06-02T10:46:25.825+02:00,2022-06-02T10:17:13.754+02:00,448,1.423373,0,0,345.1212,0,0,2022-06-02T10:46:25.824+02:00,675852385.8243657,0,7.03125,101.2995,1,0.81
2022-06-02T10:46:27.042+02:00,1654159585.999692,53.22907074211478,10.39855068497811,36.81837,0.07944696,0.949674,30.6971104320851,180,2.400000095367432,7.999579855010836,-9999,2731.320481,-1.504074096679688,2.847488403320312,0.573760986328125,2731.310486,2.813923815530879,1.053889648905415,-1.294054707558744,5.649518966674805,3.13942813873291,0.6798420548439026,-0.06934396922588348,1.951653718948364,-9.55133056640625,XArbitraryZVertical,-0.4808599192949947,-0.4486217197511152,0.6309646203365572,0.4115771816582021,0.2375262677669525,0.9619507789611816,-0.1350245773792267,0,0,0,-1,-1,2730.102895416667,unknown,2,2022-06-02T10:46:25.825+02:00,2022-06-02T10:17:13.754+02:00,448,1.423373,0,0,345.1212,0,0,2022-06-02T10:46:25.824+02:00,675852385.8243657,0,7.03125,101.2995,1,0.81
2022-06-02T10:46:27.053+02:00,1654159585.999692,53.22907074211478,10.39855068497811,36.81837,0.07944696,0.949674,30.6971104320851,180,2.400000095367432,7.999579855010836,-9999,2731.330476,-1.610427856445312,0.5543060302734375,1.56304931640625,2731.320481,2.56536095783611,0.8322980434402434,-1.239969368511492,10.58006572723389,0.3770221769809723,-1.502468705177307,-1.442212700843811,1.849467992782593,-3.067910432815552,XArbitraryZVertical,-0.4664503691342287,-0.4160427641862214,0.6470009661401096,0.4367173189295553,0.2402015179395676,0.9457740783691406,-0.2186649441719055,0,0,0,-1,-1,2730.102895416667,unknown,2,2022-06-02T10:46:25.825+02:00,2022-06-02T10:17:13.754+02:00,448,1.423373,0,0,345.1212,0,0,2022-06-02T10:46:25.824+02:00,675852385.8243657,0,7.03125,101.2995,1,0.81
2022-06-02T10:46:27.063+02:00,1654159585.999692,53.22907074211478,10.39855068497811,36.81837,0.07944696,0.949674,30.6971104320851,180,2.400000095367432,7.999579855010836,-9999,2731.34047,-1.837677001953125,-1.592636108398438,-1.153823852539062,2731.330476,2.316952559939575,0.6071746661207034,-1.186701630220513,8.529828071594238,1.487458109855652,-4.128944396972656,-1.862569332122803,1.047959566116333,2.648594379425049,XArbitraryZVertical,-0.440897839389629,-0.3895347204352845,0.6578699929453883,0.4701901474661285,0.2137961387634277,0.9271380305290222,-0.3077435791492462,0,0,0,-1,-1,2730.102895416667,unknown,2,2022-06-02T10:46:25.825+02:00,2022-06-02T10:17:13.754+02:00,448,1.423373,0,0,345.1212,0,0,2022-06-02T10:46:25.824+02:00,675852385.8243657,0,7.03125,101.2995,1,0.81
2022-06-02T10:46:27.080+02:00,1654159585.999692,53.22907074211478,10.39855068497811,36.81837,0.07944696,0.949674,30.6971104320851,180,2.400000095367432,7.999579855010836,-9999,2731.350465,-1.251083374023438,-1.015914916992188,-0.792755126953125,2731.350465,2.063469680254896,0.4460726103683593,-1.149527421173375,1.317766666412354,4.406191349029541,-1.712370276451111,-1.86666464805603,-2.737979888916016,-0.8797978162765503,XArbitraryZVertical,-0.4314768344407774,-0.3596875228546906,0.6407288597401085,0.5233727595718797,0.1764180213212967,0.9125707745552063,-0.368905246257782,0,0,0,-1,-1,2730.102895416667,unknown,2,2022-06-02T10:46:25.825+02:00,2022-06-02T10:17:13.754+02:00,448,1.423373,0,0,345.1212,0,0,2022-06-02T10:46:25.824+02:00,675852385.8243657,0,7.03125,101.2995,1,0.81
2022-06-02T10:46:27.091+02:00,1654159585.999692,53.22907074211478,10.39855068497811,36.81837,0.07944696,0.949674,30.6971104320851,180,2.400000095367432,7.999579855010836,-9999,2731.360459,-0.7946014404296875,1.565536499023438,0.330322265625,2731.350465,2.063469680254896,0.4460726103683593,-1.149527421173375,1.317766666412354,4.406191349029541,-1.712370276451111,-1.86666464805603,-2.737979888916016,-0.8797978162765503,XArbitraryZVertical,-0.4314768344407774,-0.3596875228546906,0.6407288597401085,0.5233727595718797,0.1764180213212967,0.9125707745552063,-0.368905246257782,0,0,0,-1,-1,2730.102895416667,unknown,2,2022-06-02T10:46:25.825+02:00,2022-06-02T10:17:13.754+02:00,448,1.423373,0,0,345.1212,0,0,2022-06-02T10:46:25.824+02:00,675852385.8243657,0,7.03125,101.2995,1,0.81
2022-06-02T10:46:27.095+02:00,1654159586.9997,53.22907072298483,10.39855633334948,36.8265,0.1250758,0.9279935,39.93815147343726,180,2.400000095367432,7.999579855010836,-9999,2731.370454,-0.5762786865234375,1.963241577148438,0.38336181640625,2731.360459,2.020445080551308,0.4517593772693577,-1.150759529214276,0.2520900666713715,4.678246021270752,-1.951968312263489,-1.111264944076538,-0.4637026786804199,0.2035999298095703,XArbitraryZVertical,-0.4411060430936142,-0.3492611004203562,0.6277333211341407,0.5379525870331221,0.178022101521492,0.9130739569664001,-0.3668842911720276,0,0,0,-1,-1,2730.102895416667,unknown,2,2022-06-02T10:46:25.825+02:00,2022-06-02T10:17:13.754+02:00,448,1.423373,0,0,345.1212,0,0,2022-06-02T10:46:25.824+02:00,675852385.8243657,0,7.03125,101.2995,1,0.81
2022-06-02T10:46:27.102+02:00,1654159586.9997,53.22907072298483,10.39855633334948,36.8265,0.1250758,0.9279935,39.93815147343726,180,2.400000095367432,7.999579855010836,-9999,2731.380448,0.012298583984375,1.632080078125,0.5779266357421875,2731.370454,1.951220779367437,0.4371973320932868,-1.158366822397688,0.9238793849945068,4.981581211090088,-3.654092788696289,-0.9198827743530273,1.054019331932068,0.8170984983444214,XArbitraryZVertical,-0.4498555763728933,-0.3406798877549745,0.6099574845563229,0.5563443308788809,0.1697148978710175,0.9161496758460999,-0.363134354352951,0,0,0,-1,-1,2730.102895416667,unknown,2,2022-06-02T10:46:25.825+02:00,2022-06-02T10:17:13.754+02:00,448,1.423373,0,0,345.1212,0,0,2022-06-02T10:46:25.824+02:00,675852385.8243657,0,7.03125,101.2995,1,0.81
2022-06-02T10:46:27.112+02:00,1654159586.9997,53.22907072298483,10.39855633334948,36.8265,0.1250758,0.9279935,39.93815147343726,180,2.400000095367432,7.999579855010836,-9999,2731.390443,0.3350067138671875,1.35498046875,1.152496337890625,2731.380448,1.850713745584871,0.393802311104603,-1.161637929214816,1.580274701118469,4.686368942260742,-3.74455189704895,-0.455889105796814,0.8932892084121704,0.7483668327331543,XArbitraryZVertical,-0.4543475376107727,-0.3314748517168398,0.5903598869379644,0.5789368413416932,0.1526511162519455,0.9174559712409973,-0.3673854768276215,0,0,0,-1,-1,2730.102895416667,unknown,2,2022-06-02T10:46:25.825+02:00,2022-06-02T10:17:13.754+02:00,448,1.423373,0,0,345.1212,0,0,2022-06-02T10:46:25.824+02:00,675852385.8243657,0,7.03125,101.2995,1,0.81
2022-06-02T10:46:27.122+02:00,1654159586.9997,53.22907072298483,10.39855633334948,36.8265,0.1250758,0.9279935,39.93815147343726,180,2.400000095367432,7.999579855010836,-9999,2731.400437,0.3519134521484375,1.394500732421875,1.341598510742188,2731.390443,1.756379169083915,0.3510948618054175,-1.161102782403834,1.146809577941895,4.062140941619873,-3.251299619674683,0.08370761573314667,0.5466393828392029,1.248219966888428,XArbitraryZVertical,-0.4572346792483194,-0.3223694429501467,0.5724387030920102,0.5994399255068894,0.1369954198598862,0.9172429442405701,-0.3740287721157074,0,0,0,-1,-1,2730.102895416667,unknown,2,2022-06-02T10:46:25.825+02:00,2022-06-02T10:17:13.754+02:00,448,1.423373,0,0,345.1212,0,0,2022-06-02T10:46:25.824+02:00,675852385.8243657,0,7.03125,101.2995,1,0.81
2022-06-02T10:46:27.132+02:00,1654159586.9997,53.22907072298483,10.39855633334948,36.8265,0.1250758,0.9279935,39.93815147343726,180,2.400000095367432,7.999579855010836,-9999,2731.410432,0.2760162353515625,1.5667724609375,1.108062744140625,2731.400437,1.675067863888783,0.3138670860685463,-1.163865377787229,0.4692644476890564,3.428863286972046,-3.060604572296143,0.2315478622913361,0.4121348261833191,1.698279738426208,XArbitraryZVertical,-0.4603606913237108,-0.3159741978370996,0.5555768100417864,0.6160864632337996,0.1221965998411179,0.9183398485183716,-0.3764566779136658,0,0,0,-1,-1,2730.102895416667,unknown,2,2022-06-02T10:46:25.825+02:00,2022-06-02T10:17:13.754+02:00,448,1.423373,0,0,345.1212,0,0,2022-06-02T10:46:25.824+02:00,675852385.8243657,0,7.03125,101.2995,1,0.81
2022-06-02T10:46:27.142+02:00,1654159586.9997,53.22907072298483,10.39855633334948,36.8265,0.1250758,0.9279935,39.93815147343726,180,2.400000095367432,7.999579855010836,-9999,2731.420426,0.1186676025390625,1.578277587890625,0.9012451171875,2731.410432,1.600410484878932,0.2767482293590678,-1.169471125707209,0.1989951580762863,2.881458759307861,-2.883615970611572,0.209748700261116,0.5709719657897949,1.615428924560547,XArbitraryZVertical,-0.4633352714945278,-0.3121429109297681,0.539540358701899,0.6299075069738844,0.1067338287830353,0.9205441474914551,-0.375774472951889,0,0,0,-1,-1,2730.102895416667,unknown,2,2022-06-02T10:46:25.825+02:00,2022-06-02T10:17:13.754+02:00,448,1.423373,0,0,345.1212,0,0,2022-06-02T10:46:25.824+02:00,675852385.8243657,0,7.03125,101.2995,1,0.81
2022-06-02T10:46:27.152+02:00,1654159586.9997,53.22907072298483,10.39855633334948,36.8265,0.1250758,0.9279935,39.93815147343726,180,2.400000095367432,7.999579855010836,-9999,2731.430421,-0.0994110107421875,1.455230712890625,0.756378173828125,2731.420426,1.531346960648678,0.2392773794483229,-1.176045172510869,-0.1338530778884888,2.384117126464844,-2.621063709259033,0.1095229685306549,0.6696658134460449,1.372232913970947,XArbitraryZVertical,-0.4658673972958922,-0.3100916229910152,0.5247702843902278,0.6414256060355383,0.09114532172679901,0.9230923056602478,-0.3736214935779572,0,0,0,-1,-1,2730.102895416667,unknown,2,2022-06-02T10:46:25.825+02:00,2022-06-02T10:17:13.754+02:00,448,1.423373,0,0,345.1212,0,0,2022-06-02T10:46:25.824+02:00,675852385.8243657,0,7.03125,101.2995,1,0.81
2022-06-02T10:46:27.162+02:00,1654159586.9997,53.22907072298483,10.39855633334948,36.8265,0.1250758,0.9279935,39.93815147343726,180,2.400000095367432,7.999579855010836,-9999,2731.440415,-0.253143310546875,1.384933471679688,0.680389404296875,2731.430421,1.470595642555694,0.2054626144895883,-1.185191474774508,-0.6437192559242249,2.135515689849854,-2.297981977462769,-0.06909132748842239,0.5969731211662292,1.18148672580719,XArbitraryZVertical,-0.4690913948373909,-0.3095948281152188,0.5110196247054297,0.6503562487165372,0.0767359584569931,0.9265711307525635,-0.3682086169719696,0,0,0,-1,-1,2730.102895416667,unknown,2,2022-06-02T10:46:25.825+02:00,2022-06-02T10:17:13.754+02:00,448,1.423373,0,0,345.1212,0,0,2022-06-02T10:46:25.824+02:00,675852385.8243657,0,7.03125,101.2995,1,0.81
2022-06-02T10:46:27.172+02:00,1654159586.9997,53.22907072298483,10.39855633334948,36.8265,0.1250758,0.9279935,39.93815147343726,180,2.400000095367432,7.999579855010836,-9999,2731.45041,-0.2449493408203125,1.344863891601562,0.56195068359375,2731.440415,1.418556341406276,0.1784395713845117,-1.198559728458336,-1.254631161689758,2.156427621841431,-2.015320301055908,-0.2618964910507202,0.4735282063484192,1.076934099197388,XArbitraryZVertical,-0.4742336320434067,-0.310064681853232,0.4975183183469548,0.656839230286518,0.06455454230308533,0.9315162301063538,-0.3579246997833252,0,0,0,-1,-1,2730.102895416667,unknown,2,2022-06-02T10:46:25.825+02:00,2022-06-02T10:17:13.754+02:00,448,1.423373,0,0,345.1212,0,0,2022-06-02T10:46:25.824+02:00,675852385.8243657,0,7.03125,101.2995,1,0.81
2022-06-02T10:46:27.182+02:00,1654159586.9997,53.22907072298483,10.39855633334948,36.8265,0.1250758,0.9279935,39.93815147343726,180,2.400000095367432,7.999579855010836,-9999,2731.460404,-0.099273681640625,1.30633544921875,0.5336761474609375,2731.45041,1.372589966215157,0.1572761483306387,-1.216420510302946,-1.705512046813965,2.199105262756348,-1.815599322319031,-0.3280783295631409,0.4283780455589294,0.9600313901901245,XArbitraryZVertical,-0.4815209555863594,-0.3110893939794009,0.483707583772221,0.6613530114690831,0.05435086041688919,0.937863290309906,-0.3427219092845917,0,0,0,-1,-1,2730.102895416667,unknown,2,2022-06-02T10:46:25.825+02:00,2022-06-02T10:17:13.754+02:00,448,1.423373,0,0,345.1212,0,0,2022-06-02T10:46:25.824+02:00,675852385.8243657,0,7.03125,101.2995,1,0.81
2022-06-02T10:46:27.192+02:00,1654159586.9997,53.22907072298483,10.39855633334948,36.8265,0.1250758,0.9279935,39.93815147343726,180,2.400000095367432,7.999579855010836,-9999,2731.470399,0.0615692138671875,1.28118896484375,0.4680328369140625,2731.460404,1.329847117037259,0.1386944707885462,-1.23698058801678,-1.898832559585571,2.118443965911865,-1.659025311470032,-0.230173259973526,0.3839820623397827,0.8623762130737305,XArbitraryZVertical,-0.490022691467924,-0.3124512681361527,0.4698777296051452,0.6644296501310956,0.04529772698879242,0.94479900598526,-0.3245039284229279,0,0,0,-1,-1,2730.102895416667,unknown,2,2022-06-02T10:46:25.825+02:00,2022-06-02T10:17:13.754+02:00,448,1.423373,0,0,345.1212,0,0,2022-06-02T10:46:25.824+02:00,675852385.8243657,0,7.03125,101.2995,1,0.81
2022-06-02T10:46:27.202+02:00,1654159586.9997,53.22907072298483,10.39855633334948,36.8265,0.1250758,0.9279935,39.93815147343726,180,2.400000095367432,7.999579855010836,-9999,2731.480393,0.1551361083984375,1.2904052734375,0.513519287109375,2731.470399,1.287580934734684,0.1187713396416179,-1.258430528102029,-2.029704570770264,1.92002546787262,-1.550871610641479,-0.05089453235268593,0.3317921161651611,0.8132476806640625,XArbitraryZVertical,-0.4986782953119923,-0.3142408468133259,0.4564886749924369,0.666476191963798,0.03641390427947044,0.951609194278717,-0.3051452934741974,0,0,0,-1,-1,2730.102895416667,unknown,2,2022-06-02T10:46:25.825+02:00,2022-06-02T10:17:13.754+02:00,448,1.423373,0,0,345.1212,0,0,2022-06-02T10:46:25.824+02:00,675852385.8243657,0,7.03125,101.2995,1,0.81
2022-06-02T10:46:27.212+02:00,1654159586.9997,53.22907072298483,10.39855633334948,36.8265,0.1250758,0.9279935,39.93815147343726,180,2.400000095367432,7.999579855010836,-9999,2731.490388,0.1572265625,1.248489379882812,0.5711822509765625,2731.480393,1.246606434432445,0.09814226157274362,-1.281301535066503,-2.262723922729492,1.798754453659058,-1.366726875305176,0.09095549583435059,0.3311471343040466,0.7506313323974609,XArbitraryZVertical,-0.5076899776990729,-0.3165499966867467,0.4436037967427354,0.6672799224238439,0.02797148935496807,0.9583882093429565,-0.284093976020813,0,0,0,-1,-1,2730.102895416667,unknown,2,2022-06-02T10:46:25.825+02:00,2022-06-02T10:17:13.754+02:00,448,1.423373,0,0,345.1212,0,0,2022-06-02T10:46:25.824+02:00,675852385.8243657,0,7.03125,101.2995,1,0.81
2022-06-02T10:46:27.222+02:00,1654159586.9997,53.22907072298483,10.39855633334948,36.8265,0.1250758,0.9279935,39.93815147343726,180,2.400000095367432,7.999579855010836,-9999,2731.500382,0.1239776611328125,1.157943725585938,0.4476318359375,2731.490388,1.206372668132214,0.07689313914533651,-1.306072723735941,-2.480001926422119,1.694039463996887,-1.275643825531006,0.1452455222606659,0.3127129077911377,0.8256734013557434,XArbitraryZVertical,-0.5173269369663172,-0.3192775483429207,0.4309834455590023,0.6668492686982418,0.02009869180619717,0.965164840221405,-0.2608693838119507,0,0,0,-1,-1,2730.102895416667,unknown,2,2022-06-02T10:46:25.825+02:00,2022-06-02T10:17:13.754+02:00,448,1.423373,0,0,345.1212,0,0,2022-06-02T10:46:25.824+02:00,675852385.8243657,0,7.03125,101.2995,1,0.81
2022-06-02T10:46:27.232+02:00,1654159586.9997,53.22907072298483,10.39855633334948,36.8265,0.1250758,0.9279935,39.93815147343726,180,2.400000095367432,7.999579855010836,-9999,2731.510377,0.1209564208984375,1.08990478515625,0.3659820556640625,2731.500382,1.162087806884242,0.05067802328326634,-1.331924808917416,-2.486042499542236,1.664068341255188,-1.261855840682983,0.1283189356327057,0.235547661781311,0.7585803270339966,XArbitraryZVertical,-0.5271960463695836,-0.3223554309895902,0.4183870638547703,0.665660260284815,0.01198561210185289,0.9716055989265442,-0.2363026142120361,0,0,0,-1,-1,2730.102895416667,unknown,2,2022-06-02T10:46:25.825+02:00,2022-06-02T10:17:13.754+02:00,448,1.423373,0,0,345.1212,0,0,2022-06-02T10:46:25.824+02:00,675852385.8243657,0,7.03125,101.2995,1,0.81
