loggingTime(txt),locationTimestamp_since1970(s),locationLatitude(WGS84),locationLongitude(WGS84),locationAltitude(m),locationSpeed(m/s),locationSpeedAccuracy(m/s),locationCourse(°),locationCourseAccuracy(°),locationVerticalAccuracy(m),locationHorizontalAccuracy(m),locationFloor(Z),accelerometerTimestamp_sinceReboot(s),accelerometerAccelerationX(G),accelerometerAccelerationY(G),accelerometerAccelerationZ(G),motionTimestamp_sinceReboot(s),motionYaw(rad),motionRoll(rad),motionPitch(rad),motionRotationRateX(rad/s),motionRotationRateY(rad/s),motionRotationRateZ(rad/s),motionUserAccelerationX(G),motionUserAccelerationY(G),motionUserAccelerationZ(G),motionAttitudeReferenceFrame(txt),motionQuaternionX(R),motionQuaternionY(R),motionQuaternionZ(R),motionQuaternionW(R),motionGravityX(G),motionGravityY(G),motionGravityZ(G),motionMagneticFieldX(µT),motionMagneticFieldY(µT),motionMagneticFieldZ(µT),motionHeading(°),motionMagneticFieldCalibrationAccuracy(Z),activityTimestamp_sinceReboot(s),activity(txt),activityActivityConfidence(Z),activityActivityStartDate(txt),pedometerStartDate(txt),pedometerNumberofSteps(N),pedometerAverageActivePace(s/m),pedometerCurrentPace(s/m),pedometerCurrentCadence(steps/s),pedometerDistance(m),pedometerFloorAscended(N),pedometerFloorDescended(N),pedometerEndDate(txt),altimeterTimestamp_sinceReboot(s),altimeterReset(bool),altimeterRelativeAltitude(m),altimeterPressure(kPa),batteryState(N),batteryLevel(R)
2022-06-02T11:11:09.268+02:00,1654161067.999754,53.22887945925186,10.39861958474889,39.67282,0,0.07,0,103.9230494294148,4,5,-9999,4153.378128375,0.0359344482421875,-0.3286285400390625,-0.9155120849609375,4153.373131375,0.3991412734015576,0.1398082736221854,0.2938208221634323,-0.103790208697319,-0.0360771082341671,0.31114462018013,-0.0704386979341507,-0.1043095290660858,0.06673222780227661,XArbitraryZVertical,0.129428735937861,0.0966726617934241,0.2056554964844488,0.9651986401943862,0.133381187915802,-0.2896113991737366,-0.9478052258491516,0,0,0,-1,-1,4150.618543500001,unknown,2,2022-06-02T11:11:06.481+02:00,2022-06-02T10:17:13.754+02:00,759,1.666974,0,0,608.7687,0,0,2022-06-02T11:11:09.038+02:00,675853869.0380443,0,4.832031,101.3241,1,0.72
2022-06-02T11:11:09.271+02:00,1654161067.999754,53.22887945925186,10.39861958474889,39.67282,0,0.07,0,103.9230494294148,4,5,-9999,4153.388122375,0.067779541015625,-0.2863006591796875,-0.9393157958984375,4153.383125375,0.4020748182821924,0.1391084353429259,0.2927600386168738,-0.1912370026111603,0.06256897002458572,0.2086579948663712,-0.09682592749595642,-0.04003262519836426,0.03268992900848389,XArbitraryZVertical,0.1288452914944435,0.096425523338215,0.2070054683968877,0.9650127627897583,0.1327603608369827,-0.2885959148406982,-0.9482020139694214,0,0,0,-1,-1,4150.618543500001,unknown,2,2022-06-02T11:11:06.481+02:00,2022-06-02T10:17:13.754+02:00,759,1.666974,0,0,608.7687,0,0,2022-06-02T11:11:09.038+02:00,675853869.0380443,0,4.832031,101.3241,1,0.72
2022-06-02T11:11:09.273+02:00,1654161067.999754,53.22887945925186,10.39861958474889,39.67282,0,0.07,0,103.9230494294148,4,5,-9999,4153.398116375,0.1113739013671875,-0.28314208984375,-0.951446533203125,4153.393119375,0.404129831138932,0.1394087227735433,0.2907294633151532,-0.2632030844688416,0.1116568893194199,0.1344695240259171,-0.06534671783447266,0.0003504753112792969,0.009424686431884766,XArbitraryZVertical,0.127731173708775,0.09651168059050041,0.2079772502888629,0.9649433167314158,0.1331262439489365,-0.2866511642932892,-0.9487404823303223,0,0,0,-1,-1,4150.618543500001,unknown,2,2022-06-02T11:11:06.481+02:00,2022-06-02T10:17:13.754+02:00,759,1.666974,0,0,608.7687,0,0,2022-06-02T11:11:09.038+02:00,675853869.0380443,0,4.832031,101.3241,1,0.72
2022-06-02T11:11:09.285+02:00,1654161067.999754,53.22887945925186,10.39861958474889,39.67282,0,0.07,0,103.9230494294148,4,5,-9999,4153.408110375,0.150634765625,-0.2553558349609375,-0.950714111328125,4153.403113375,0.4056506833654059,0.1399237421292816,0.2883624025021814,-0.2320874929428101,0.06836853921413422,0.08203428238630295,-0.02233521640300751,0.001240521669387817,-0.002105474472045898,XArbitraryZVertical,0.1264572524699649,0.09663356800578808,0.2086979325527428,0.9649433627885939,0.1337091028690338,-0.2843826115131378,-0.9493410587310791,0,0,0,-1,-1,4150.618543500001,unknown,2,2022-06-02T11:11:06.481+02:00,2022-06-02T10:17:13.754+02:00,759,1.666974,0,0,608.7687,0,0,2022-06-02T11:11:09.038+02:00,675853869.0380443,0,4.832031,101.3241,1,0.72
2022-06-02T11:11:09.287+02:00,1654161067.999754,53.22887945925186,10.39861958474889,39.67282,0,0.07,0,103.9230494294148,4,5,-9999,4153.418104375,0.1567840576171875,-0.2295989990234375,-0.960784912109375,4153.413107375,0.4065780249139214,0.1397673930436131,0.2867093082243672,-0.1207218244671822,-0.04233800247311592,0.05463940650224686,0.01700876653194427,0.02744153141975403,-0.0008879303932189941,XArbitraryZVertical,0.1256278967408724,0.09646012168754928,0.2091033581958369,0.9649812376656968,0.1336259841918945,-0.2827973961830139,-0.949826180934906,0,0,0,-1,-1,4150.618543500001,unknown,2,2022-06-02T11:11:06.481+02:00,2022-06-02T10:17:13.754+02:00,759,1.666974,0,0,608.7687,0,0,2022-06-02T11:11:09.038+02:00,675853869.0380443,0,4.832031,101.3241,1,0.72
2022-06-02T11:11:09.292+02:00,1654161067.999754,53.22887945925186,10.39861958474889,39.67282,0,0.07,0,103.9230494294148,4,5,-9999,4153.428099375,0.133087158203125,-0.2487945556640625,-0.9687652587890625,4153.423102375,0.407321914584338,0.138707768072876,0.2864204217587539,0.03833041340112686,-0.1191230639815331,0.07714419066905975,0.02415329217910767,0.05292129516601562,-0.01073676347732544,XArbitraryZVertical,0.1255630059651281,0.09596816199333059,0.2093901497070186,0.9649765630476097,0.1326307356357574,-0.2825202941894531,-0.9500480890274048,0,0,0,-1,-1,4150.618543500001,unknown,2,2022-06-02T11:11:06.481+02:00,2022-06-02T10:17:13.754+02:00,759,1.666974,0,0,608.7687,0,0,2022-06-02T11:11:09.038+02:00,675853869.0380443,0,4.832031,101.3241,1,0.72
2022-06-02T11:11:09.301+02:00,1654161067.999754,53.22887945925186,10.39861958474889,39.67282,0,0.07,0,103.9230494294148,4,5,-9999,4153.438093375,0.0975189208984375,-0.28179931640625,-0.954833984375,4153.433096375,0.4080824225915858,0.1371098725329034,0.2873632931886912,0.1010587736964226,-0.1432028263807297,0.09012097120285034,0.002011105418205261,0.03463006019592285,-0.01877075433731079,XArbitraryZVertical,0.1261508256534396,0.09533476939545855,0.2096743887434081,0.9649009652484191,0.1310760229825974,-0.2834246158599854,-0.9499945044517517,0,0,0,-1,-1,4150.618543500001,unknown,2,2022-06-02T11:11:06.481+02:00,2022-06-02T10:17:13.754+02:00,759,1.666974,0,0,608.7687,0,0,2022-06-02T11:11:09.038+02:00,675853869.0380443,0,4.832031,101.3241,1,0.72
2022-06-02T11:11:09.312+02:00,1654161067.999754,53.22887945925186,10.39861958474889,39.67282,0,0.07,0,103.9230494294148,4,5,-9999,4153.448087375,0.0492706298828125,-0.3419952392578125,-0.9619293212890625,4153.443090375,0.4092467186696274,0.1356269066235949,0.2879284634259903,-0.03282172605395317,-0.06482932716608047,0.1499114632606506,-0.03212650120258331,0.002167254686355591,-0.00480496883392334,XArbitraryZVertical,0.1265249191521396,0.0947468099326249,0.2101528592044432,0.9648057922580601,0.1296453922986984,-0.2839665710926056,-0.9500289559364319,0,0,0,-1,-1,4150.618543500001,unknown,2,2022-06-02T11:11:06.481+02:00,2022-06-02T10:17:13.754+02:00,759,1.666974,0,0,608.7687,0,0,2022-06-02T11:11:09.038+02:00,675853869.0380443,0,4.832031,101.3241,1,0.72
2022-06-02T11:11:09.321+02:00,1654161067.999754,53.22887945925186,10.39861958474889,39.67282,0,0.07,0,103.9230494294148,4,5,-9999,4153.458081375,0.049713134765625,-0.362213134765625,-0.983673095703125,4153.453084375,0.4105870491979718,0.135110531460546,0.2875874458373996,-0.05958143621683121,0.03205167502164841,0.04993586614727974,-0.07989723980426788,-0.0583556592464447,-0.01173758506774902,XArbitraryZVertical,0.1263506516673414,0.09454980542053076,0.2107605504487337,0.9647154115511168,0.129167839884758,-0.2836395800113678,-0.9501916766166687,0,0,0,-1,-1,4150.618543500001,unknown,2,2022-06-02T11:11:06.481+02:00,2022-06-02T10:17:13.754+02:00,759,1.666974,0,0,608.7687,0,0,2022-06-02T11:11:09.038+02:00,675853869.0380443,0,4.832031,101.3241,1,0.72
2022-06-02T11:11:09.331+02:00,1654161067.999754,53.22887945925186,10.39861958474889,39.67282,0,0.07,0,103.9230494294148,4,5,-9999,4153.468075375,0.097503662109375,-0.2387542724609375,-0.992431640625,4153.463078375,0.4102678709483224,0.1351335677224799,0.2876028018249863,0.1793277710676193,-0.1234240010380745,-0.01207923330366611,-0.07947602868080139,-0.07855886220932007,-0.0334886908531189,XArbitraryZVertical,0.1263707580497153,0.09454223538406797,0.2106083408371317,0.9647466799738313,0.1291891485452652,-0.2836543023586273,-0.9501844048500061,0,0,0,-1,-1,4150.618543500001,unknown,2,2022-06-02T11:11:06.481+02:00,2022-06-02T10:17:13.754+02:00,759,1.666974,0,0,608.7687,0,0,2022-06-02T11:11:09.038+02:00,675853869.0380443,0,4.832031,101.3241,1,0.72
2022-06-02T11:11:09.341+02:00,1654161067.999754,53.22887945925186,10.39861958474889,39.67282,0,0.07,0,103.9230494294148,4,5,-9999,4153.478069375,0.0980682373046875,-0.240936279296875,-0.9812469482421875,4153.473072375,0.411304301608065,0.1342528076291985,0.2901820302983344,0.2383889704942703,-0.01430949755012989,0.2219481766223907,-0.03075021505355835,0.04737237095832825,-0.04286199808120728,XArbitraryZVertical,0.1276637260428354,0.094430723673154,0.2110985877838439,0.9644801722324989,0.1282538622617722,-0.2861266434192657,-0.9495696425437927,0,0,0,-1,-1,4150.618543500001,unknown,2,2022-06-02T11:11:06.481+02:00,2022-06-02T10:17:13.754+02:00,759,1.666974,0,0,608.7687,0,0,2022-06-02T11:11:09.038+02:00,675853869.0380443,0,4.832031,101.3241,1,0.72
2022-06-02T11:11:09.351+02:00,1654161067.999754,53.22887945925186,10.39861958474889,39.67282,0,0.07,0,103.9230494294148,4,5,-9999,4153.488063375,0.095367431640625,-0.3109130859375,-0.9734344482421875,4153.483066375,0.4126594835122698,0.1338525248274583,0.2921778603271817,0.1129152029752731,0.01684202998876572,0.06513805687427521,-0.02972906827926636,0.0471021831035614,-0.03219389915466309,XArbitraryZVertical,0.128608315650692,0.09451653554311053,0.2117615368562435,0.9642009994627073,0.1277972906827927,-0.2880384624004364,-0.9490530490875244,0,0,0,-1,-1,4150.618543500001,unknown,2,2022-06-02T11:11:06.481+02:00,2022-06-02T10:17:13.754+02:00,759,1.666974,0,0,608.7687,0,0,2022-06-02T11:11:09.038+02:00,675853869.0380443,0,4.832031,101.3241,1,0.72
2022-06-02T11:11:09.361+02:00,1654161067.999754,53.22887945925186,10.39861958474889,39.67282,0,0.07,0,103.9230494294148,4,5,-9999,4153.498057375,0.107421875,-0.301971435546875,-0.9796600341796875,4153.493060375,0.4125453153049787,0.1338611551126289,0.2930364890056613,0.07921130210161209,-0.0145920580253005,-0.04457246512174606,-0.03240500390529633,-0.02205249667167664,-0.0246279239654541,XArbitraryZVertical,0.1290284436359692,0.09459604568778113,0.2117220550642808,0.9641457881315033,0.1277724206447601,-0.2888605892658234,-0.9488065242767334,0,0,0,-1,-1,4150.618543500001,unknown,2,2022-06-02T11:11:06.481+02:00,2022-06-02T10:17:13.754+02:00,759,1.666974,0,0,608.7687,0,0,2022-06-02T11:11:09.038+02:00,675853869.0380443,0,4.832031,101.3241,1,0.72
2022-06-02T11:11:09.371+02:00,1654161067.999754,53.22887945925186,10.39861958474889,39.67282,0,0.07,0,103.9230494294148,4,5,-9999,4153.508051375,0.1045989990234375,-0.2622528076171875,-0.9733734130859375,4153.503054375,0.4121178770559624,0.1338153389028411,0.2939582401282837,0.1077070906758308,-0.008258862420916557,-0.007411976344883442,-0.02027150988578796,-0.01222851872444153,-0.0311119556427002,XArbitraryZVertical,0.1294997128561678,0.09463505976970274,0.2115291396135456,0.9641210139161965,0.1276933699846268,-0.2897429466247559,-0.9485480785369873,0,0,0,-1,-1,4150.618543500001,unknown,2,2022-06-02T11:11:06.481+02:00,2022-06-02T10:17:13.754+02:00,759,1.666974,0,0,608.7687,0,0,2022-06-02T11:11:09.038+02:00,675853869.0380443,0,4.832031,101.3241,1,0.72
2022-06-02T11:11:09.381+02:00,1654161067.999754,53.22887945925186,10.39861958474889,39.67282,0,0.07,0,103.9230494294148,4,5,-9999,4153.518045375,0.1054534912109375,-0.2639007568359375,-0.9648590087890625,4153.513048375,0.4120922947529278,0.133821404495207,0.2946033742686427,0.08074364811182022,-0.001140765147283673,0.02027557604014874,-0.02307519316673279,0.02810755372047424,-0.02501153945922852,XArbitraryZVertical,0.1298125641630245,0.09469837090440857,0.2115284340843948,0.9640728550198754,0.1276741623878479,-0.2903603315353394,-0.9483618140220642,0,0,0,-1,-1,4150.618543500001,unknown,2,2022-06-02T11:11:06.481+02:00,2022-06-02T10:17:13.754+02:00,759,1.666974,0,0,608.7687,0,0,2022-06-02T11:11:09.038+02:00,675853869.0380443,0,4.832031,101.3241,1,0.72
2022-06-02T11:11:09.391+02:00,1654161067.999754,53.22887945925186,10.39861958474889,39.67282,0,0.07,0,103.9230494294148,4,5,-9999,4153.528039375,0.109527587890625,-0.2941741943359375,-0.96490478515625,4153.523042375,0.4122396302200196,0.1334332880622127,0.2951403751848763,0.04098401963710785,-0.01167855970561504,0.001613142900168896,-0.02183184027671814,0.02697339653968811,-0.01660233736038208,XArbitraryZVertical,0.1301065623243965,0.09457249228353558,0.2115835119075247,0.964033611988087,0.1272853165864944,-0.2908741533756256,-0.9482566714286804,0,0,0,-1,-1,4150.618543500001,unknown,2,2022-06-02T11:11:06.481+02:00,2022-06-02T10:17:13.754+02:00,759,1.666974,0,0,608.7687,0,0,2022-06-02T11:11:09.038+02:00,675853869.0380443,0,4.832031,101.3241,1,0.72
2022-06-02T11:11:09.401+02:00,1654161067.999754,53.22887945925186,10.39861958474889,39.67282,0,0.07,0,103.9230494294148,4,5,-9999,4153.538033375,0.1120452880859375,-0.30450439453125,-0.9640655517578125,4153.533036375,0.4124234139961254,0.1322378539692999,0.2960320676170277,0.01616229116916656,-0.01082475110888481,-0.02215450443327427,-0.01658983528614044,-0.002447009086608887,-0.01675409078598022,XArbitraryZVertical,0.1306559538779756,0.09409406988676056,0.2116093990924219,0.9640004644337263,0.1261173933744431,-0.2917271852493286,-0.948150634765625,0,0,0,-1,-1,4150.618543500001,unknown,2,2022-06-02T11:11:06.481+02:00,2022-06-02T10:17:13.754+02:00,759,1.666974,0,0,608.7687,0,0,2022-06-02T11:11:09.038+02:00,675853869.0380443,0,4.832031,101.3241,1,0.72
2022-06-02T11:11:09.411+02:00,1654161067.999754,53.22887945925186,10.39861958474889,39.67282,0,0.07,0,103.9230494294148,4,5,-9999,4153.548027375,0.1106719970703125,-0.284210205078125,-0.9540557861328125,4153.543030375,0.4124406092524482,0.1310543983982091,0.2969685823247543,0.01267365086823702,-0.005913149565458298,-0.03387288004159927,-0.01291419565677643,-0.01188158988952637,-0.01603758335113525,XArbitraryZVertical,0.1312336148013706,0.09361496054196572,0.2115559112007932,0.9639802773186817,0.1249594539403915,-0.292622834444046,-0.9480279684066772,0,0,0,-1,-1,4150.618543500001,unknown,2,2022-06-02T11:11:06.481+02:00,2022-06-02T10:17:13.754+02:00,759,1.666974,0,0,608.7687,0,0,2022-06-02T11:11:09.038+02:00,675853869.0380443,0,4.832031,101.3241,1,0.72
2022-06-02T11:11:09.421+02:00,1654161067.999754,53.22887945925186,10.39861958474889,39.67282,0,0.07,0,103.9230494294148,4,5,-9999,4153.558021375,0.10418701171875,-0.2634429931640625,-0.9459991455078125,4153.553024375,0.4122647208786908,0.1305461247612087,0.2961257901646294,0.01158628240227699,-0.01516124233603477,-0.02517872303724289,-0.01383766531944275,0.007606595754623413,-0.005720257759094238,XArbitraryZVertical,0.1308876761578919,0.09327728482804094,0.2114238840989313,0.9640889799187931,0.1245096400380135,-0.2918168306350708,-0.9483355283737183,0,0,0,-1,-1,4150.618543500001,unknown,2,2022-06-02T11:11:06.481+02:00,2022-06-02T10:17:13.754+02:00,759,1.666974,0,0,608.7687,0,0,2022-06-02T11:11:09.038+02:00,675853869.0380443,0,4.832031,101.3241,1,0.72
2022-06-02T11:11:09.431+02:00,1654161067.999754,53.22887945925186,10.39861958474889,39.67282,0,0.07,0,103.9230494294148,4,5,-9999,4153.568015375,0.0984039306640625,-0.26361083984375,-0.9468841552734375,4153.563018375,0.4121867857897551,0.1299569956070095,0.2954318083892933,0.01785622909665108,-0.02059449069201946,-0.01659495569765568,-0.01979015022516251,0.0277099609375,0.002610146999359131,XArbitraryZVertical,0.1306176616159163,0.09292135750573444,0.2113363786507847,0.964179149634424,0.1239771470427513,-0.2911529839038849,-0.9486092925071716,0,0,0,-1,-1,4150.618543500001,unknown,2,2022-06-02T11:11:06.481+02:00,2022-06-02T10:17:13.754+02:00,759,1.666974,0,0,608.7687,0,0,2022-06-02T11:11:09.038+02:00,675853869.0380443,0,4.832031,101.3241,1,0.72
2022-06-02T11:11:09.441+02:00,1654161067.999754,53.22887945925186,10.39861958474889,39.67282,0,0.07,0,103.9230494294148,4,5,-9999,4153.578009375,0.09857177734375,-0.2753448486328125,-0.9467926025390625,4153.573012375,0.4121314357489294,0.1292877342248749,0.2956892221516862,-0.001855423673987389,-0.02770273387432098,-0.01982989721000195,-0.02492866665124893,0.02778840065002441,0.001733601093292236,XArbitraryZVertical,0.1308155385363506,0.09261988809182833,0.2112701560450091,0.9641958312080712,0.1233325824141502,-0.2913992404937744,-0.948617696762085,0,0,0,-1,-1,4150.618543500001,unknown,2,2022-06-02T11:11:06.481+02:00,2022-06-02T10:17:13.754+02:00,759,1.666974,0,0,608.7687,0,0,2022-06-02T11:11:09.038+02:00,675853869.0380443,0,4.832031,101.3241,1,0.72
2022-06-02T11:11:09.451+02:00,1654161067.999754,53.22887945925186,10.39861958474889,39.67282,0,0.07,0,103.9230494294148,4,5,-9999,4153.588003375,0.09808349609375,-0.291168212890625,-0.953948974609375,4153.583006375,0.412071046746752,0.1286833881268605,0.2955991593102013,-0.01549859903752804,-0.0306635033339262,-0.01542223244905472,-0.02419087290763855,0.01596823334693909,0.001925528049468994,XArbitraryZVertical,0.1308385562898439,0.09231588834640332,0.2112000337846835,0.9642373184709792,0.1227626353502274,-0.2913130819797516,-0.9487180709838867,0,0,0,-1,-1,4150.618543500001,unknown,2,2022-06-02T11:11:06.481+02:00,2022-06-02T10:17:13.754+02:00,759,1.666974,0,0,608.7687,0,0,2022-06-02T11:11:09.038+02:00,675853869.0380443,0,4.832031,101.3241,1,0.72
2022-06-02T11:11:09.461+02:00,1654161067.999754,53.22887945925186,10.39861958474889,39.67282,0,0.07,0,103.9230494294148,4,5,-9999,4153.597997375,0.099945068359375,-0.3039703369140625,-0.954071044921875,4153.593000375,0.4120787295799815,0.1280077505268136,0.2947830440754693,-0.0210113413631916,-0.02868663892149925,-0.008812000043690205,-0.02406845986843109,-0.0006359517574310303,-0.004912614822387695,XArbitraryZVertical,0.1305144848088558,0.09191200342550575,0.2111465134907032,0.9643315131478229,0.1221519261598587,-0.290532261133194,-0.9490363001823425,0,0,0,-1,-1,4150.618543500001,unknown,2,2022-06-02T11:11:06.481+02:00,2022-06-02T10:17:13.754+02:00,759,1.666974,0,0,608.7687,0,0,2022-06-02T11:11:09.038+02:00,675853869.0380443,0,4.832031,101.3241,1,0.72
2022-06-02T11:11:09.471+02:00,1654161067.999754,53.22887945925186,10.39861958474889,39.67282,0,0.07,0,103.9230494294148,4,5,-9999,4153.607991375,0.09722900390625,-0.31182861328125,-0.9517822265625,4153.602994375,0.4121037045363942,0.1274122642435495,0.2940754073181705,-0.0163649246096611,-0.02871646545827389,-0.01112202648073435,-0.02166780829429626,-0.01411527395248413,-0.004758477210998535,XArbitraryZVertical,0.1302336314058256,0.09155827583925857,0.2111084686157338,0.9644114819025168,0.1216128617525101,-0.2898550629615784,-0.9493125677108765,0,0,0,-1,-1,4150.618543500001,unknown,2,2022-06-02T11:11:06.481+02:00,2022-06-02T10:17:13.754+02:00,759,1.666974,0,0,608.7687,0,0,2022-06-02T11:11:09.038+02:00,675853869.0380443,0,4.832031,101.3241,1,0.72
2022-06-02T11:11:09.481+02:00,1654161067.999754,53.22887945925186,10.39861958474889,39.67282,0,0.07,0,103.9230494294148,4,5,-9999,4153.617985375,0.0904693603515625,-0.314971923828125,-0.9624481201171875,4153.612988375,0.4120733137616724,0.126898100531562,0.293925618710838,-0.007795672863721848,-0.02338348515331745,-0.0156781617552042,-0.02390124648809433,-0.02211686968803406,-0.002364158630371094,XArbitraryZVertical,0.130216775434508,0.09129392208899552,0.211057978015663,0.9644498190110855,0.1211302354931831,-0.2897117137908936,-0.9494180083274841,0,0,0,-1,-1,4150.618543500001,unknown,2,2022-06-02T11:11:06.481+02:00,2022-06-02T10:17:13.754+02:00,759,1.666974,0,0,608.7687,0,0,2022-06-02T11:11:09.038+02:00,675853869.0380443,0,4.832031,101.3241,1,0.72
2022-06-02T11:11:09.491+02:00,1654161067.999754,53.22887945925186,10.39861958474889,39.67282,0,0.07,0,103.9230494294148,4,5,-9999,4153.627979375,0.0865020751953125,-0.2977294921875,-0.959930419921875,4153.622982375,0.4120062840705448,0.1263971039186129,0.2942006034992833,-0.0001118192449212074,-0.01623323187232018,-0.01681606471538544,-0.03017517179250717,-0.0249970555305481,-0.01304858922958374,XArbitraryZVertical,0.1304058127299478,0.09107446845777729,0.2109973074910238,0.9644583799864753,0.1206445172429085,-0.2899748980998993,-0.9493995308876038,0,0,0,-1,-1,4150.618543500001,unknown,2,2022-06-02T11:11:06.481+02:00,2022-06-02T10:17:13.754+02:00,759,1.666974,0,0,608.7687,0,0,2022-06-02T11:11:09.038+02:00,675853869.0380443,0,4.832031,101.3241,1,0.72
2022-06-02T11:11:09.501+02:00,1654161067.999754,53.22887945925186,10.39861958474889,39.67282,0,0.07,0,103.9230494294148,4,5,-9999,4153.637973375,0.090728759765625,-0.294677734375,-0.9605255126953125,4153.632976375,0.4120425179842496,0.1258833002602058,0.2938593306275886,-0.01120335329324007,-0.006378737278282642,0.002328868024051189,-0.03366706520318985,-0.008081227540969849,-0.01037085056304932,XArbitraryZVertical,0.130293148278173,0.0907961357948516,0.2109759837845178,0.9645045096061148,0.1201691180467606,-0.2896482646465302,-0.9495595097541809,0,0,0,-1,-1,4150.618543500001,unknown,2,2022-06-02T11:11:06.481+02:00,2022-06-02T10:17:13.754+02:00,759,1.666974,0,0,608.7687,0,0,2022-06-02T11:11:09.038+02:00,675853869.0380443,0,4.832031,101.3241,1,0.72
2022-06-02T11:11:09.511+02:00,1654161067.999754,53.22887945925186,10.39861958474889,39.67282,0,0.07,0,103.9230494294148,4,5,-9999,4153.647967375,0.0961456298828125,-0.3003997802734375,-0.9648590087890625,4153.642970375,0.4123988693210056,0.1250902209814876,0.29273804409503,-0.01021981332451105,-0.0009780458640307188,0.02303194813430309,-0.02872771024703979,-0.006102859973907471,-0.01054930686950684,XArbitraryZVertical,0.129817830038931,0.09032858225262098,0.2110789779542326,0.9645898957702914,0.119456447660923,-0.2885748744010925,-0.9499761462211609,0,0,0,-1,-1,4150.618543500001,unknown,2,2022-06-02T11:11:06.481+02:00,2022-06-02T10:17:13.754+02:00,759,1.666974,0,0,608.7687,0,0,2022-06-02T11:11:09.038+02:00,675853869.0380443,0,4.832031,101.3241,1,0.72
2022-06-02T11:11:09.521+02:00,1654161067.999754,53.22887945925186,10.39861958474889,39.67282,0,0.07,0,103.9230494294148,4,5,-9999,4153.657962375,0.1031341552734375,-0.29705810546875,-0.960662841796875,4153.652964375,0.412969247390102,0.124116821488755,0.2916921955024941,-0.01777919754385948,0.008971258066594601,0.03125312924385071,-0.02242336422204971,-0.01282644271850586,-0.01446807384490967,XArbitraryZVertical,0.1293885633688888,0.08979491921774191,0.2112750508013816,0.9646544182624286,0.118568979203701,-0.2875733375549316,-0.9503909349441528,0,0,0,-1,-1,4150.618543500001,unknown,2,2022-06-02T11:11:06.481+02:00,2022-06-02T10:17:13.754+02:00,759,1.666974,0,0,608.7687,0,0,2022-06-02T11:11:09.038+02:00,675853869.0380443,0,4.832031,101.3241,1,0.72
2022-06-02T11:11:09.531+02:00,1654161067.999754,53.22887945925186,10.39861958474889,39.67282,0,0.07,0,103.9230494294148,4,5,-9999,4153.667956375,0.1083221435546875,-0.29315185546875,-0.951416015625,4153.662959375,0.413640945490271,0.1232644320464762,0.2911547762393755,-0.01297435536980629,0.01271266583353281,0.04672136530280113,-0.01464368402957916,-0.009999513626098633,-0.01001793146133423,XArbitraryZVertical,0.1291883769314526,0.08937512683262591,0.2115358442493629,0.9646630430671885,0.1177778169512749,-0.2870585918426514,-0.9506449103355408,0,0,0,-1,-1,4150.618543500001,unknown,2,2022-06-02T11:11:06.481+02:00,2022-06-02T10:17:13.754+02:00,759,1.666974,0,0,608.7687,0,0,2022-06-02T11:11:09.038+02:00,675853869.0380443,0,4.832031,101.3241,1,0.72
2022-06-02T11:11:09.541+02:00,1654161067.999754,53.22887945925186,10.39861958474889,39.67282,0,0.07,0,103.9230494294148,4,5,-9999,4153.677950375,0.106414794921875,-0.301361083984375,-0.9482421875,4153.672953375,0.4144037373760042,0.1223469776663141,0.2913880036610209,0.01499389670789242,0.001425923081114888,0.05326554924249649,-0.008575297892093658,-0.005869865417480469,-0.0007299184799194336,XArbitraryZVertical,0.1293643784927127,0.08900457105578244,0.2118478904000603,0.9646053145137977,0.11689742654562,-0.2872819900512695,-0.9506860971450806,0,0,0,-1,-1,4150.618543500001,unknown,2,2022-06-02T11:11:06.481+02:00,2022-06-02T10:17:13.754+02:00,759,1.666974,0,0,608.7687,0,0,2022-06-02T11:11:09.038+02:00,675853869.0380443,0,4.832031,101.3241,1,0.72
2022-06-02T11:11:09.551+02:00,1654161067.999754,53.22887945925186,10.39861958474889,39.67282,0,0.07,0,103.9230494294148,4,5,-9999,4153.687944375,0.1043853759765625,-0.3126373291015625,-0.9470062255859375,4153.682947375,0.415089486893695,0.1215013504600112,0.2922351207871697,0.01435071043670177,-0.004116181749850512,0.04331684485077858,-0.009649142622947693,-0.01326781511306763,0.002300500869750977,XArbitraryZVertical,0.1298336279621401,0.0887236211237605,0.2121361332540771,0.964504851155165,0.1160639151930809,-0.2880932986736298,-0.950542688369751,0,0,0,-1,-1,4150.618543500001,unknown,2,2022-06-02T11:11:06.481+02:00,2022-06-02T10:17:13.754+02:00,759,1.666974,0,0,608.7687,0,0,2022-06-02T11:11:09.038+02:00,675853869.0380443,0,4.832031,101.3241,1,0.72
2022-06-02T11:11:09.561+02:00,1654161067.999754,53.22887945925186,10.39861958474889,39.67282,0,0.07,0,103.9230494294148,4,5,-9999,4153.697938375,0.1032257080078125,-0.326568603515625,-0.9439239501953125,4153.692941375,0.4156703934094688,0.1206087055563723,0.2930351240922051,-0.04219406098127365,-0.0001352885738015175,0.0268838107585907,-0.0108022466301918,-0.02377805113792419,0.003410577774047852,XArbitraryZVertical,0.1302898812910345,0.08840893854050391,0.2123696416500163,0.9644208012826395,0.1151876077055931,-0.2888592779636383,-0.9504168033599854,0,0,0,-1,-1,4150.618543500001,unknown,2,2022-06-02T11:11:06.481+02:00,2022-06-02T10:17:13.754+02:00,759,1.666974,0,0,608.7687,0,0,2022-06-02T11:11:09.038+02:00,675853869.0380443,0,4.832031,101.3241,1,0.72
2022-06-02T11:11:09.571+02:00,1654161067.999754,53.22887945925186,10.39861958474889,39.67282,0,0.07,0,103.9230494294148,4,5,-9999,4153.707932375,0.1060638427734375,-0.335052490234375,-0.9489898681640625,4153.702935375,0.4163501503418199,0.1195462752615177,0.2932787205237783,-0.08807116746902466,0.009295430965721607,0.03331088274717331,-0.0109436959028244,-0.03747612237930298,0.006544828414916992,XArbitraryZVertical,0.130490689855698,0.08796473799780349,0.2126315503956059,0.9643766133095548,0.1141693964600563,-0.2890925109386444,-0.9504687786102295,0,0,0,-1,-1,4150.618543500001,unknown,2,2022-06-02T11:11:06.481+02:00,2022-06-02T10:17:13.754+02:00,759,1.666974,0,0,608.7687,0,0,2022-06-02T11:11:09.038+02:00,675853869.0380443,0,4.832031,101.3241,1,0.72
2022-06-02T11:11:09.581+02:00,1654161067.999754,53.22887945925186,10.39861958474889,39.67282,0,0.07,0,103.9230494294148,4,5,-9999,4153.717926375,0.1091156005859375,-0.32147216796875,-0.9618988037109375,4153.712929375,0.4171669898311167,0.1184845478044135,0.2926872979381206,-0.08859927952289581,0.02528904564678669,0.04261623322963715,-0.007116563618183136,-0.0465262234210968,0.00176924467086792,XArbitraryZVertical,0.1302816040610345,0.08744815416740469,0.212948125287916,0.9643818753856738,0.1131803840398788,-0.2885262668132782,-0.9507590532302856,0,0,0,-1,-1,4150.618543500001,unknown,2,2022-06-02T11:11:06.481+02:00,2022-06-02T10:17:13.754+02:00,759,1.666974,0,0,608.7687,0,0,2022-06-02T11:11:09.038+02:00,675853869.0380443,0,4.832031,101.3241,1,0.72
2022-06-02T11:11:09.591+02:00,1654161067.999754,53.22887945925186,10.39861958474889,39.67282,0,0.07,0,103.9230494294148,4,5,-9999,4153.727920375,0.1076202392578125,-0.297821044921875,-0.9625396728515625,4153.722923375,0.417988257905033,0.1176939186871523,0.2920397673921712,-0.08478429913520813,0.02367223985493183,0.04674094170331955,-0.003334984183311462,-0.03356596827507019,-0.01086521148681641,XArbitraryZVertical,0.1300166282265039,0.08705679732066235,0.2132839313284218,0.9643789219301205,0.1124505624175072,-0.2879062294960022,-0.9510335922241211,0,0,0,-1,-1,4150.618543500001,unknown,2,2022-06-02T11:11:06.481+02:00,2022-06-02T10:17:13.754+02:00,759,1.666974,0,0,608.7687,0,0,2022-06-02T11:11:09.038+02:00,675853869.0380443,0,4.832031,101.3241,1,0.72
2022-06-02T11:11:09.601+02:00,1654161068.999765,53.22887945925186,10.39861958474889,40.06479,0,0.07,0,103.9230494294148,4,5,-9999,4153.737914375,0.103851318359375,-0.294830322265625,-0.9655303955078125,4153.732917375,0.4187367206816153,0.1170397352241064,0.2916804798951322,-0.06226354092359543,0.005742774344980717,0.04481254518032074,-0.004220239818096161,-0.01025891304016113,-0.01133006811141968,XArbitraryZVertical,0.1298800343713715,0.08675463541690778,0.2135975256923204,0.9643552237483879,0.1118404641747475,-0.2875621318817139,-0.9512096047401428,0,0,0,-1,-1,4150.618543500001,unknown,2,2022-06-02T11:11:06.481+02:00,2022-06-02T10:17:13.754+02:00,759,1.666974,0,0,608.7687,0,0,2022-06-02T11:11:09.038+02:00,675853869.0380443,0,4.832031,101.3241,1,0.72
2022-06-02T11:11:09.611+02:00,1654161068.999765,53.22887945925186,10.39861958474889,40.06479,0,0.07,0,103.9230494294148,4,5,-9999,4153.747908375,0.0965118408203125,-0.305389404296875,-0.97064208984375,4153.742911375,0.4193205338489029,0.116538976018614,0.2915223793378244,-0.02940209582448006,-0.004862666130065918,0.03700701892375946,-0.007518097758293152,-0.0074196457862854,-0.01421976089477539,XArbitraryZVertical,0.1298317541132494,0.08653552253083571,0.2138444541493774,0.9643265717275545,0.1113694086670876,-0.287410706281662,-0.9513106346130371,0,0,0,-1,-1,4150.618543500001,unknown,2,2022-06-02T11:11:06.481+02:00,2022-06-02T10:17:13.754+02:00,759,1.666974,0,0,608.7687,0,0,2022-06-02T11:11:09.038+02:00,675853869.0380443,0,4.832031,101.3241,1,0.72
2022-06-02T11:11:09.621+02:00,1654161068.999765,53.22887945925186,10.39861958474889,40.06479,0,0.07,0,103.9230494294148,4,5,-9999,4153.757902375,0.0906829833984375,-0.3069000244140625,-0.9729766845703125,4153.752905375,0.4197670005376403,0.1163284869099116,0.2915752146820524,-0.01118048280477524,0.01045104302465916,0.04012558236718178,-0.01465557515621185,-0.01792809367179871,-0.01932311058044434,XArbitraryZVertical,0.1298605233382677,0.08646822845767294,0.2140467321988643,0.9642839086764247,0.1111674010753632,-0.2874613106250763,-0.9513189792633057,0,0,0,-1,-1,4150.618543500001,unknown,2,2022-06-02T11:11:06.481+02:00,2022-06-02T10:17:13.754+02:00,759,1.666974,0,0,608.7687,0,0,2022-06-02T11:11:09.038+02:00,675853869.0380443,0,4.832031,101.3241,1,0.72
2022-06-02T11:11:09.631+02:00,1654161068.999765,53.22887945925186,10.39861958474889,40.06479,0,0.07,0,103.9230494294148,4,5,-9999,4153.767896375,0.0898284912109375,-0.3043975830078125,-0.9582672119140625,4153.762899375,0.4202648924064709,0.1162228178526824,0.2919624984386856,-0.007079048082232475,0.01866776123642921,0.04815201833844185,-0.02037099003791809,-0.01906779408454895,-0.02175658941268921,XArbitraryZVertical,0.1300377075240647,0.08648790118067905,0.2142849338690307,0.9642053899361834,0.1110539585351944,-0.2878322303295135,-0.9512200951576233,0,0,0,-1,-1,4150.618543500001,unknown,2,2022-06-02T11:11:06.481+02:00,2022-06-02T10:17:13.754+02:00,759,1.666974,0,0,608.7687,0,0,2022-06-02T11:11:09.038+02:00,675853869.0380443,0,4.832031,101.3241,1,0.72
2022-06-02T11:11:09.641+02:00,1654161068.999765,53.22887945925186,10.39861958474889,40.06479,0,0.07,0,103.9230494294148,4,5,-9999,4153.777890375,0.090850830078125,-0.3109893798828125,-0.9476165771484375,4153.772893375,0.4208326863747259,0.1160021489971214,0.2927814077546529,0.01051059830933809,0.005091497674584389,0.04793150722980499,-0.02098826318979263,-0.01578119397163391,-0.007257044315338135,XArbitraryZVertical,0.1304330363957101,0.086499531861326,0.2145548565823422,0.96409084754561,0.1108167320489883,-0.2886163890361786,-0.9510101079940796,0,0,0,-1,-1,4150.618543500001,unknown,2,2022-06-02T11:11:06.481+02:00,2022-06-02T10:17:13.754+02:00,759,1.666974,0,0,608.7687,0,0,2022-06-02T11:11:09.038+02:00,675853869.0380443,0,4.832031,101.3241,1,0.72
2022-06-02T11:11:09.651+02:00,1654161068.999765,53.22887945925186,10.39861958474889,40.06479,0,0.07,0,103.9230494294148,4,5,-9999,4153.787884375,0.09228515625,-0.31097412109375,-0.944427490234375,4153.782887375,0.421292816679238,0.1156671991593912,0.2942164293049898,0.01415297016501427,-0.004249872174113989,0.03300375863909721,-0.01959946751594543,-0.02099934220314026,0.00301826000213623,XArbitraryZVertical,0.1311433194177442,0.08651032194807409,0.2147730357068418,0.9639449078269877,0.110450267791748,-0.2899900376796722,-0.950634777545929,0,0,0,-1,-1,4150.618543500001,unknown,2,2022-06-02T11:11:06.481+02:00,2022-06-02T10:17:13.754+02:00,759,1.666974,0,0,608.7687,0,0,2022-06-02T11:11:09.038+02:00,675853869.0380443,0,4.832031,101.3241,1,0.72
2022-06-02T11:11:09.667+02:00,1654161068.999765,53.22887945925186,10.39861958474889,40.06479,0,0.07,0,103.9230494294148,4,5,-9999,4153.797878375,0.0923919677734375,-0.3036041259765625,-0.9430389404296875,4153.792881375,0.4216449945575864,0.1154017667937854,0.2956851941953472,-0.01713544502854347,-0.003879426512867212,0.02931208536028862,-0.01786363869905472,-0.01957875490188599,0.005812525749206543,XArbitraryZVertical,0.1318670551385386,0.08655115781793925,0.2149437835495992,0.9638044550454827,0.1101487725973129,-0.291395366191864,-0.9502399563789368,0,0,0,-1,-1,4150.618543500001,unknown,2,2022-06-02T11:11:06.481+02:00,2022-06-02T10:17:13.754+02:00,759,1.666974,0,0,608.7687,0,0,2022-06-02T11:11:09.038+02:00,675853869.0380443,0,4.832031,101.3241,1,0.72
2022-06-02T11:11:09.683+02:00,1654161068.999765,53.22887945925186,10.39861958474889,40.06479,0,0.07,0,103.9230494294148,4,5,-9999,4153.807872375,0.0908355712890625,-0.3077239990234375,-0.9474945068359375,4153.802875375,0.4220581160988888,0.1152085801499319,0.2961715646820762,-0.05302077531814575,-0.001587843173183501,0.03909233957529068,-0.01755695044994354,-0.01174354553222656,0.007081389427185059,XArbitraryZVertical,0.132105192059428,0.08653358592821427,0.2151361756943238,0.9637304653758285,0.1099488958716393,-0.2918606102466583,-0.9501203298568726,0,0,0,-1,-1,4150.618543500001,unknown,2,2022-06-02T11:11:06.481+02:00,2022-06-02T10:17:13.754+02:00,759,1.666974,0,0,608.7687,0,0,2022-06-02T11:11:09.038+02:00,675853869.0380443,0,4.832031,101.3241,1,0.72
2022-06-02T11:11:09.686+02:00,1654161068.999765,53.22887945925186,10.39861958474889,40.06479,0,0.07,0,103.9230494294148,4,5,-9999,4153.817866375,0.0881805419921875,-0.3074188232421875,-0.957366943359375,4153.812869375,0.4225302119816116,0.1150098873278756,0.2956943858359586,-0.06359086185693741,0.01087867934256792,0.03102749027311802,-0.01894053071737289,-0.01631981134414673,0.002785921096801758,XArbitraryZVertical,0.1318753768045958,0.08642159837712836,0.2153446306891278,0.9637254566365807,0.1097760796546936,-0.2914041578769684,-0.9502803683280945,0,0,0,-1,-1,4150.618543500001,unknown,2,2022-06-02T11:11:06.481+02:00,2022-06-02T10:17:13.754+02:00,759,1.666974,0,0,608.7687,0,0,2022-06-02T11:11:09.038+02:00,675853869.0380443,0,4.832031,101.3241,1,0.72
2022-06-02T11:11:09.691+02:00,1654161068.999765,53.22887945925186,10.39861958474889,40.06479,0,0.07,0,103.9230494294148,4,5,-9999,4153.827860375,0.0823974609375,-0.29925537109375,-0.95965576171875,4153.822863375,0.4229118074928828,0.1148425389894776,0.2950625613285356,-0.06082826480269432,0.02059675380587578,0.01391248777508736,-0.02145759761333466,-0.01661914587020874,-0.00688546895980835,XArbitraryZVertical,0.1315713401677154,0.08630324258208912,0.2155096565829865,0.963740825710258,0.109638124704361,-0.2907997071743011,-0.9504814743995667,0,0,0,-1,-1,4150.618543500001,unknown,2,2022-06-02T11:11:06.481+02:00,2022-06-02T10:17:13.754+02:00,759,1.666974,0,0,608.7687,0,0,2022-06-02T11:11:09.038+02:00,675853869.0380443,0,4.832031,101.3241,1,0.72
2022-06-02T11:11:09.701+02:00,1654161068.999765,53.22887945925186,10.39861958474889,40.06479,0,0.07,0,103.9230494294148,4,5,-9999,4153.837854375,0.0755157470703125,-0.2867889404296875,-0.964324951171875,4153.832857375,0.4232369527842603,0.1145720180354977,0.2948827914901771,-0.02809801325201988,0.03012128360569477,0.009606154635548592,-0.02698951959609985,-0.00862768292427063,-0.009092748165130615,XArbitraryZVertical,0.1314995459374109,0.08617638941658817,0.2156463505661202,0.9637312935242711,0.1093869730830193,-0.2906276881694794,-0.9505630135536194,0,0,0,-1,-1,4150.618543500001,unknown,2,2022-06-02T11:11:06.481+02:00,2022-06-02T10:17:13.754+02:00,759,1.666974,0,0,608.7687,0,0,2022-06-02T11:11:09.038+02:00,675853869.0380443,0,4.832031,101.3241,1,0.72
2022-06-02T11:11:09.711+02:00,1654161068.999765,53.22887945925186,10.39861958474889,40.06479,0,0.07,0,103.9230494294148,4,5,-9999,4153.847848375,0.069732666015625,-0.2761993408203125,-0.9655609130859375,4153.842851375,0.4235421362728616,0.1142457995987485,0.2951529433094168,0.01858583465218544,0.03982976824045181,0.01178042683750391,-0.03355219960212708,0.004097253084182739,-0.01380431652069092,XArbitraryZVertical,0.1316522401193241,0.08606619444849746,0.2157752474162384,0.9636914426072508,0.1090679243206978,-0.2908861935138702,-0.9505205750465393,0,0,0,-1,-1,4150.618543500001,unknown,2,2022-06-02T11:11:06.481+02:00,2022-06-02T10:17:13.754+02:00,759,1.666974,0,0,608.7687,0,0,2022-06-02T11:11:09.038+02:00,675853869.0380443,0,4.832031,101.3241,1,0.72
2022-06-02T11:11:09.721+02:00,1654161068.999765,53.22887945925186,10.39861958474889,40.06479,0,0.07,0,103.9230494294148,4,5,-9999,4153.857842375,0.07086181640625,-0.2745819091796875,-0.9598541259765625,4153.852845375,0.4237947788020701,0.1140462576169555,0.2958209917037137,0.04457668960094452,0.04342050850391388,0.01068054046481848,-0.03912346065044403,0.01532590389251709,-0.01521182060241699,XArbitraryZVertical,0.131985956235865,0.08605329507447873,0.215891905680613,0.9636209268015457,0.1088561117649078,-0.291525274515152,-0.9503490924835205,0,0,0,-1,-1,4150.618543500001,unknown,2,2022-06-02T11:11:06.481+02:00,2022-06-02T10:17:13.754+02:00,759,1.666974,0,0,608.7687,0,0,2022-06-02T11:11:09.038+02:00,675853869.0380443,0,4.832031,101.3241,1,0.72
2022-06-02T11:11:09.731+02:00,1654161068.999765,53.22887945925186,10.39861958474889,40.06479,0,0.07,0,103.9230494294148,4,5,-9999,4153.867836375,0.0743865966796875,-0.2870635986328125,-0.950469970703125,4153.862839375,0.4240042336015923,0.1139040718331816,0.2969893208806457,0.0684911385178566,0.03641200438141823,0.01097388751804829,-0.03782039880752563,0.01806074380874634,-0.009828627109527588,XArbitraryZVertical,0.132557242896135,0.0861151875042863,0.2159974710193233,0.9635133058243774,0.1086822003126144,-0.2926426529884338,-0.9500254988670349,0,0,0,-1,-1,4150.618543500001,unknown,2,2022-06-02T11:11:06.481+02:00,2022-06-02T10:17:13.754+02:00,759,1.666974,0,0,608.7687,0,0,2022-06-02T11:11:09.038+02:00,675853869.0380443,0,4.832031,101.3241,1,0.72
2022-06-02T11:11:09.741+02:00,1654161068.999765,53.22887945925186,10.39861958474889,40.06479,0,0.07,0,103.9230494294148,4,5,-9999,4153.877830375,0.0815277099609375,-0.300689697265625,-0.94305419921875,4153.872833375,0.4241368461803264,0.1137599664231951,0.2983330907728698,0.07451894134283066,0.02485441602766514,0.004491221159696579,-0.03411398082971573,0.006863772869110107,-0.0008203387260437012,XArbitraryZVertical,0.1332168191335422,0.08618865523400104,0.2160678099463652,0.9633999345509695,0.1085005551576614,-0.2939273416996002,-0.9496495723724365,0,0,0,-1,-1,4150.618543500001,unknown,2,2022-06-02T11:11:06.481+02:00,2022-06-02T10:17:13.754+02:00,759,1.666974,0,0,608.7687,0,0,2022-06-02T11:11:09.038+02:00,675853869.0380443,0,4.832031,101.3241,1,0.72
2022-06-02T11:11:09.751+02:00,1654161068.999765,53.22887945925186,10.39861958474889,40.06479,0,0.07,0,103.9230494294148,4,5,-9999,4153.887825375,0.0843048095703125,-0.3136138916015625,-0.9429779052734375,4153.882827375,0.4242499726095538,0.1134769863814364,0.2991932266104481,0.02561255171895027,0.01017540507018566,0.00231801625341177,-0.02667546272277832,-0.00594031810760498,0.006374537944793701,XArbitraryZVertical,0.1336583634618256,0.08614572529025974,0.2161135758051476,0.9633323436614343,0.108203150331974,-0.29474937915802,-0.9494287371635437,0,0,0,-1,-1,4150.618543500001,unknown,2,2022-06-02T11:11:06.481+02:00,2022-06-02T10:17:13.754+02:00,759,1.666974,0,0,608.7687,0,0,2022-06-02T11:11:09.038+02:00,675853869.0380443,0,4.832031,101.3241,1,0.72
2022-06-02T11:11:09.761+02:00,1654161068.999765,53.22887945925186,10.39861958474889,40.06479,0,0.07,0,103.9230494294148,4,5,-9999,4153.897819375,0.0803985595703125,-0.3168792724609375,-0.9610748291015625,4153.892822375,0.4244118002931285,0.1130947851332118,0.299539107626929,-0.03239402174949646,0.01562236901372671,-0.001104678958654404,-0.0235239639878273,-0.01853403449058533,0.006390750408172607,XArbitraryZVertical,0.133859917926507,0.08600698658779343,0.2161700081528085,0.9633040644240444,0.1078287586569786,-0.2950798571109772,-0.9493686556816101,0,0,0,-1,-1,4150.618543500001,unknown,2,2022-06-02T11:11:06.481+02:00,2022-06-02T10:17:13.754+02:00,759,1.666974,0,0,608.7687,0,0,2022-06-02T11:11:09.038+02:00,675853869.0380443,0,4.832031,101.3241,1,0.72
2022-06-02T11:11:09.771+02:00,1654161068.999765,53.22887945925186,10.39861958474889,40.06479,0,0.07,0,103.9230494294148,4,5,-9999,4153.907813375,0.076873779296875,-0.3061065673828125,-0.96746826171875,4153.902816375,0.4246283158093904,0.1126366840093032,0.2992437655184097,-0.0819309875369072,0.01577863097190857,-0.00437497440725565,-0.02700509876012802,-0.02208158373832703,-0.0115702748298645,XArbitraryZVertical,0.1337573654915029,0.08577132730314656,0.2162402282805653,0.9633235526661361,0.1074036359786987,-0.2947976589202881,-0.9495044946670532,0,0,0,-1,-1,4150.618543500001,unknown,2,2022-06-02T11:11:06.481+02:00,2022-06-02T10:17:13.754+02:00,759,1.666974,0,0,608.7687,0,0,2022-06-02T11:11:09.038+02:00,675853869.0380443,0,4.832031,101.3241,1,0.72
2022-06-02T11:11:09.781+02:00,1654161068.999765,53.22887945925186,10.39861958474889,40.06479,0,0.07,0,103.9230494294148,4,5,-9999,4153.917807375,0.07861328125,-0.2880096435546875,-0.9824371337890625,4153.912810375,0.4248875341668298,0.1120158500420233,0.2984708931724913,-0.07588987052440643,0.01877282187342644,-0.006770754233002663,-0.02996579557657242,-0.01204752922058105,-0.01767110824584961,XArbitraryZVertical,0.1334397644219784,0.08541232663478732,0.2163147384525396,0.9633828458673691,0.1068395674228668,-0.2940590381622314,-0.9497971534729004,0,0,0,-1,-1,4150.618543500001,unknown,2,2022-06-02T11:11:06.481+02:00,2022-06-02T10:17:13.754+02:00,759,1.666974,0,0,608.7687,0,0,2022-06-02T11:11:09.038+02:00,675853869.0380443,0,4.832031,101.3241,1,0.72
2022-06-02T11:11:09.791+02:00,1654161068.999765,53.22887945925186,10.39861958474889,40.06479,0,0.07,0,103.9230494294148,4,5,-9999,4153.927801375,0.0832061767578125,-0.267608642578125,-0.9812469482421875,4153.922804375,0.4251627057439681,0.1112254911073627,0.2976252057310476,-0.02859595976769924,0.0150122381746769,-0.003414970822632313,-0.02750315517187119,0.00524100661277771,-0.03230899572372437,XArbitraryZVertical,0.1331046880510459,0.08496530408724887,0.2163850445707948,0.9634529384037116,0.1061164140701294,-0.2932506501674652,-0.9501280784606934,0,0,0,-1,-1,4150.618543500001,unknown,2,2022-06-02T11:11:06.481+02:00,2022-06-02T10:17:13.754+02:00,759,1.666974,0,0,608.7687,0,0,2022-06-02T11:11:09.038+02:00,675853869.0380443,0,4.832031,101.3241,1,0.72
2022-06-02T11:11:09.801+02:00,1654161068.999765,53.22887945925186,10.39861958474889,40.06479,0,0.07,0,103.9230494294148,4,5,-9999,4153.937795375,0.087371826171875,-0.2700042724609375,-0.9714202880859375,4153.932798375,0.4255306980416638,0.1101893144655926,0.2968417779464493,-0.0114622451364994,0.003259176388382912,0.007285877130925655,-0.02195093035697937,0.0248928964138031,-0.03078138828277588,XArbitraryZVertical,0.1328224723134572,0.08441209047757078,0.2164847083067458,0.9635181271249368,0.1051570922136307,-0.2925015687942505,-0.9504655599594116,0,0,0,-1,-1,4150.618543500001,unknown,2,2022-06-02T11:11:06.481+02:00,2022-06-02T10:17:13.754+02:00,759,1.666974,0,0,608.7687,0,0,2022-06-02T11:11:09.038+02:00,675853869.0380443,0,4.832031,101.3241,1,0.72
2022-06-02T11:11:09.811+02:00,1654161068.999765,53.22887945925186,10.39861958474889,40.06479,0,0.07,0,103.9230494294148,4,5,-9999,4153.947787875,0.0898895263671875,-0.2927703857421875,-0.959442138671875,4153.942792375,0.4259665202705143,0.1090981672946115,0.2961345941476467,-0.0185234509408474,-0.006566223222762346,0.01944473758339882,-0.0167706161737442,0.02182096242904663,-0.02063512802124023,XArbitraryZVertical,0.1325803783375714,0.08384435495273451,0.2166145768392634,0.9635717937052928,0.104142427444458,-0.2918252348899841,-0.9507851600646973,0,0,0,-1,-1,4150.618543500001,unknown,2,2022-06-02T11:11:06.481+02:00,2022-06-02T10:17:13.754+02:00,759,1.666974,0,0,608.7687,0,0,2022-06-02T11:11:09.038+02:00,675853869.0380443,0,4.832031,101.3241,1,0.72
2022-06-02T11:11:09.821+02:00,1654161068.999765,53.22887945925186,10.39861958474889,40.06479,0,0.07,0,103.9230494294148,4,5,-9999,4153.957781875,0.0879058837890625,-0.3138885498046875,-0.9388580322265625,4153.952784875,0.4265019778164828,0.1080600030516552,0.2957562188949243,-0.03855415061116219,-0.01267338450998068,0.03270568326115608,-0.01327767968177795,-0.001307100057601929,-0.00843966007232666,XArbitraryZVertical,0.1324875458282128,0.08334161657538677,0.2167997178379398,0.9635865743818904,0.1031671985983849,-0.291463315486908,-0.9510024785995483,0,0,0,-1,-1,4150.618543500001,unknown,2,2022-06-02T11:11:06.481+02:00,2022-06-02T10:17:13.754+02:00,759,1.666974,0,0,608.7687,0,0,2022-06-02T11:11:09.038+02:00,675853869.0380443,0,4.832031,101.3241,1,0.72
2022-06-02T11:11:09.831+02:00,1654161068.999765,53.22887945925186,10.39861958474889,40.06479,0,0.07,0,103.9230494294148,4,5,-9999,4153.967775875,0.082733154296875,-0.3192291259765625,-0.9394378662109375,4153.962778875,0.4270807204973763,0.1071986706233569,0.295734162614142,-0.04169441759586334,-0.02029615081846714,0.03420743718743324,-0.01444286108016968,-0.02244633436203003,0.01223933696746826,XArbitraryZVertical,0.1325462366899192,0.08296276332018587,0.217021248517658,0.963561325826479,0.1023487225174904,-0.2914422154426575,-0.9510973691940308,0,0,0,-1,-1,4150.618543500001,unknown,2,2022-06-02T11:11:06.481+02:00,2022-06-02T10:17:13.754+02:00,759,1.666974,0,0,608.7687,0,0,2022-06-02T11:11:09.038+02:00,675853869.0380443,0,4.832031,101.3241,1,0.72
2022-06-02T11:11:09.841+02:00,1654161068.999765,53.22887945925186,10.39861958474889,40.06479,0,0.07,0,103.9230494294148,4,5,-9999,4153.977769875,0.08319091796875,-0.30706787109375,-0.9462432861328125,4153.972772875,0.4275157655663899,0.1064696451934814,0.2960558294012,-0.05053983628749847,-0.0162928868085146,0.01306140702217817,-0.01891221106052399,-0.02747923135757446,0.01164060831069946,XArbitraryZVertical,0.1327628593381475,0.08267283114926957,0.2171857539385416,0.9635194159825007,0.1016453504562378,-0.291749894618988,-0.951078474521637,0,0,0,-1,-1,4150.618543500001,unknown,2,2022-06-02T11:11:06.481+02:00,2022-06-02T10:17:13.754+02:00,759,1.666974,0,0,608.7687,0,0,2022-06-02T11:11:09.038+02:00,675853869.0380443,0,4.832031,101.3241,1,0.72
2022-06-02T11:11:09.851+02:00,1654161068.999765,53.22887945925186,10.39861958474889,40.06479,0,0.07,0,103.9230494294148,4,5,-9999,4153.987763875,0.0906982421875,-0.2921142578125,-0.9397125244140625,4153.982766875,0.4277881907206269,0.1057110955449328,0.296023405231912,-0.08552299439907074,-0.0130707286298275,-0.002609165385365486,-0.01773399114608765,-0.01534897089004517,0.004921436309814453,XArbitraryZVertical,0.1328183479977875,0.0823222223214603,0.217266335321243,0.9635234994128439,0.1009248793125153,-0.2917189002037048,-0.9511646628379822,0,0,0,-1,-1,4150.618543500001,unknown,2,2022-06-02T11:11:06.481+02:00,2022-06-02T10:17:13.754+02:00,759,1.666974,0,0,608.7687,0,0,2022-06-02T11:11:09.038+02:00,675853869.0380443,0,4.832031,101.3241,1,0.72
2022-06-02T11:11:09.861+02:00,1654161068.999765,53.22887945925186,10.39861958474889,40.06479,0,0.07,0,103.9230494294148,4,5,-9999,4153.997757875,0.0970611572265625,-0.296173095703125,-0.9320831298828125,4153.992760875,0.4281031692835141,0.1048291545992341,0.2953334274309906,-0.1054823100566864,-0.01712272688746452,0.006623215042054653,-0.00940878689289093,-0.001055419445037842,0.01174074411392212,XArbitraryZVertical,0.1325676963970405,0.08184847643117545,0.2173528010762038,0.9635788874208336,0.1001070067286491,-0.2910588681697845,-0.9514532685279846,0,0,0,-1,-1,4150.618543500001,unknown,2,2022-06-02T11:11:06.481+02:00,2022-06-02T10:17:13.754+02:00,759,1.666974,0,0,608.7687,0,0,2022-06-02T11:11:09.038+02:00,675853869.0380443,0,4.832031,101.3241,1,0.72
2022-06-02T11:11:09.871+02:00,1654161068.999765,53.22887945925186,10.39861958474889,40.06479,0,0.07,0,103.9230494294148,4,5,-9999,4154.007751875,0.0978851318359375,-0.312774658203125,-0.922637939453125,4154.002754875,0.4285505083139841,0.1038869362283453,0.2938884360410325,-0.1202066019177437,-0.02074209600687027,0.02065154910087585,-0.002192854881286621,-0.006496995687484741,0.01988136768341064,XArbitraryZVertical,0.1319533181481164,0.08127781243925206,0.2174921203982526,0.9636800346584842,0.09925399720668793,-0.2896761298179626,-0.9519644975662231,0,0,0,-1,-1,4150.618543500001,unknown,2,2022-06-02T11:11:06.481+02:00,2022-06-02T10:17:13.754+02:00,759,1.666974,0,0,608.7687,0,0,2022-06-02T11:11:09.038+02:00,675853869.0380443,0,4.832031,101.3241,1,0.72
2022-06-02T11:11:09.881+02:00,1654161068.999765,53.22887945925186,10.39861958474889,40.06479,0,0.07,0,103.9230494294148,4,5,-9999,4154.017745875,0.0992584228515625,-0.31890869140625,-0.914031982421875,4154.012748875,0.4290718012291546,0.1030849666281715,0.2916957130955576,-0.1578349471092224,-0.009795439429581165,0.02471446618437767,-0.0006705224514007568,-0.02519795298576355,0.03003537654876709,XArbitraryZVertical,0.1309593118609015,0.08070323988463124,0.217669771448509,0.9638238195748114,0.09855563938617706,-0.2875767052173615,-0.9526733160018921,0,0,0,-1,-1,4150.618543500001,unknown,2,2022-06-02T11:11:06.481+02:00,2022-06-02T10:17:13.754+02:00,759,1.666974,0,0,608.7687,0,0,2022-06-02T11:11:09.038+02:00,675853869.0380443,0,4.832031,101.3241,1,0.72
2022-06-02T11:11:09.891+02:00,1654161068.999765,53.22887945925186,10.39861958474889,40.06479,0,0.07,0,103.9230494294148,4,5,-9999,4154.027739875,0.093902587890625,-0.323516845703125,-0.9208526611328125,4154.022742875,0.4297049483156514,0.1025006657331897,0.2892817300419996,-0.1996331810951233,0.00118171120993793,0.04094763100147247,0.001188673079013824,-0.03364482522010803,0.0393865704536438,XArbitraryZVertical,0.1298302348745832,0.08021758417843362,0.2179140459527847,0.9639618891731223,0.09806972742080688,-0.285263866186142,-0.953418493270874,0,0,0,-1,-1,4150.618543500001,unknown,2,2022-06-02T11:11:06.481+02:00,2022-06-02T10:17:13.754+02:00,759,1.666974,0,0,608.7687,0,0,2022-06-02T11:11:09.038+02:00,675853869.0380443,0,4.832031,101.3241,1,0.72
2022-06-02T11:11:09.901+02:00,1654161068.999765,53.22887945925186,10.39861958474889,40.06479,0,0.07,0,103.9230494294148,4,5,-9999,4154.037733875,0.0773162841796875,-0.316131591796875,-0.9324951171875,4154.032736875,0.4306442007723829,0.1021787388767885,0.2875694189647396,-0.1972472667694092,0.02948392368853092,0.08462613821029663,-0.003909900784492493,-0.03989458084106445,0.03308188915252686,XArbitraryZVertical,0.1289997248250556,0.07994873733052416,0.2183298031438339,0.96400170432712,0.0978124663233757,-0.2836222946643829,-0.9539345502853394,0,0,0,-1,-1,4150.618543500001,unknown,2,2022-06-02T11:11:06.481+02:00,2022-06-02T10:17:13.754+02:00,759,1.666974,0,0,608.7687,0,0,2022-06-02T11:11:09.038+02:00,675853869.0380443,0,4.832031,101.3241,1,0.72
2022-06-02T11:11:09.911+02:00,1654161068.999765,53.22887945925186,10.39861958474889,40.06479,0,0.07,0,103.9230494294148,4,5,-9999,4154.047727875,0.0728302001953125,-0.2899322509765625,-0.9425201416015625,4154.042730875,0.4317899676738612,0.102093068940088,0.2868809552598141,-0.1663739383220673,0.05342673882842064,0.08845342695713043,-0.02043434977531433,-0.03316956758499146,0.02164185047149658,XArbitraryZVertical,0.1286303917379406,0.07991090293808591,0.2188700594478629,0.9639317038300853,0.09775061905384064,-0.2829620242118835,-0.9541369676589966,0,0,0,-1,-1,4150.618543500001,unknown,2,2022-06-02T11:11:06.481+02:00,2022-06-02T10:17:13.754+02:00,759,1.666974,0,0,608.7687,0,0,2022-06-02T11:11:09.038+02:00,675853869.0380443,0,4.832031,101.3241,1,0.72
2022-06-02T11:11:09.921+02:00,1654161068.999765,53.22887945925186,10.39861958474889,40.06479,0,0.07,0,103.9230494294148,4,5,-9999,4154.057721875,0.0888824462890625,-0.296478271484375,-0.9442901611328125,4154.052724875,0.4330323677422892,0.1019798351014689,0.2865691116951045,-0.1535545438528061,0.05082190036773682,0.1040712743997574,-0.02482137084007263,-0.007269352674484253,0.0117155909538269,XArbitraryZVertical,0.1284423855133983,0.07990422590415606,0.2194586310917117,0.9638234910504476,0.09765155613422394,-0.2826629281044006,-0.9542357325553894,0,0,0,-1,-1,4150.618543500001,unknown,2,2022-06-02T11:11:06.481+02:00,2022-06-02T10:17:13.754+02:00,759,1.666974,0,0,608.7687,0,0,2022-06-02T11:11:09.038+02:00,675853869.0380443,0,4.832031,101.3241,1,0.72
2022-06-02T11:11:09.931+02:00,1654161068.999765,53.22887945925186,10.39861958474889,40.06479,0,0.07,0,103.9230494294148,4,5,-9999,4154.067715875,0.10064697265625,-0.32537841796875,-0.9447174072265625,4154.062718875,0.4346284518747554,0.1016590137233332,0.2859006577603755,-0.1627169847488403,0.0363151989877224,0.1515923887491226,-0.00848214328289032,-0.01445662975311279,0.01016461849212646,XArbitraryZVertical,0.1280907611952536,0.07978324378714553,0.2202009723463019,0.9637110664207051,0.09736456722021103,-0.2820216715335846,-0.954454779624939,0,0,0,-1,-1,4150.618543500001,unknown,2,2022-06-02T11:11:06.481+02:00,2022-06-02T10:17:13.754+02:00,759,1.666974,0,0,608.7687,0,0,2022-06-02T11:11:09.038+02:00,675853869.0380443,0,4.832031,101.3241,1,0.72
2022-06-02T11:11:09.941+02:00,1654161068.999765,53.22887945925186,10.39861958474889,40.06479,0,0.07,0,103.9230494294148,4,5,-9999,4154.077709875,0.102874755859375,-0.3423309326171875,-0.9470672607421875,4154.072712875,0.4365682219285197,0.1013097005085448,0.2848357667743482,-0.1809878647327423,0.02386465296149254,0.185297355055809,0.003585480153560638,-0.04437857866287231,0.01006960868835449,XArbitraryZVertical,0.1275372519661757,0.07962892778877347,0.2211035401355298,0.9635904793451339,0.09706147760152817,-0.2809998393058777,-0.9547869563102722,0,0,0,-1,-1,4150.618543500001,unknown,2,2022-06-02T11:11:06.481+02:00,2022-06-02T10:17:13.754+02:00,759,1.666974,0,0,608.7687,0,0,2022-06-02T11:11:09.038+02:00,675853869.0380443,0,4.832031,101.3241,1,0.72
2022-06-02T11:11:09.951+02:00,1654161068.999765,53.22887945925186,10.39861958474889,40.06479,0,0.07,0,103.9230494294148,4,5,-9999,4154.087703875,0.108062744140625,-0.366180419921875,-0.9311676025390625,4154.082706875,0.4388624698518913,0.1008759108989569,0.2835319443946351,-0.2560771405696869,-0.00753508135676384,0.2178747355937958,0.00619063526391983,-0.06258264183998108,0.008125424385070801,XArbitraryZVertical,0.1268639318024413,0.0794304704383159,0.2221694052564936,0.9634506353906452,0.09668410569429398,-0.2797483205795288,-0.9551926851272583,0,0,0,-1,-1,4150.618543500001,unknown,2,2022-06-02T11:11:06.481+02:00,2022-06-02T10:17:13.754+02:00,759,1.666974,0,0,608.7687,0,0,2022-06-02T11:11:09.038+02:00,675853869.0380443,0,4.832031,101.3241,1,0.72
2022-06-02T11:11:09.961+02:00,1654161068.999765,53.22887945925186,10.39861958474889,40.06479,0,0.07,0,103.9230494294148,4,5,-9999,4154.097697875,0.116241455078125,-0.4050750732421875,-0.932647705078125,4154.092700875,0.4414744818383062,0.09991348528421798,0.2819378509665047,-0.3146568238735199,-0.07478602230548859,0.2352651804685593,0.01225361227989197,-0.08796292543411255,0.02456021308898926,XArbitraryZVertical,0.1260973775958473,0.07896551746249363,0.223352585772183,0.9633158528823342,0.09580911695957184,-0.2782175242900848,-0.9557278156280518,0,0,0,-1,-1,4150.618543500001,unknown,2,2022-06-02T11:11:06.481+02:00,2022-06-02T10:17:13.754+02:00,759,1.666974,0,0,608.7687,0,0,2022-06-02T11:11:09.038+02:00,675853869.0380443,0,4.832031,101.3241,1,0.72
2022-06-02T11:11:09.971+02:00,1654161068.999765,53.22887945925186,10.39861958474889,40.06479,0,0.07,0,103.9230494294148,4,5,-9999,4154.107691875,0.1309967041015625,-0.436553955078125,-0.9268035888671875,4154.102694875,0.4443220702305093,0.09816696731236825,0.2793171793696709,-0.4309981167316437,-0.143548309803009,0.2553353011608124,0.0220305323600769,-0.1293757259845734,0.02396827936172485,XArbitraryZVertical,0.1249149907809985,0.07802724134922105,0.2245920683180534,0.9632581132424737,0.0942109152674675,-0.2756993472576141,-0.9566159844398499,0,0,0,-1,-1,4150.618543500001,unknown,2,2022-06-02T11:11:06.481+02:00,2022-06-02T10:17:13.754+02:00,759,1.666974,0,0,608.7687,0,0,2022-06-02T11:11:09.038+02:00,675853869.0380443,0,4.832031,101.3241,1,0.72
2022-06-02T11:11:09.981+02:00,1654161068.999765,53.22887945925186,10.39861958474889,40.06479,0,0.07,0,103.9230494294148,4,5,-9999,4154.117686875,0.1401214599609375,-0.4979248046875,-0.901092529296875,4154.112688875,0.4478225283427488,0.09533037946990977,0.2738909278284637,-0.8386897444725037,-0.2494646161794662,0.3066043257713318,0.03935862332582474,-0.1660746037960052,0.03155094385147095,XArbitraryZVertical,0.122477914626443,0.07630141441473934,0.2260585523605914,0.9633663232777788,0.09163806587457657,-0.2704793810844421,-0.9583545327186584,0,0,0,-1,-1,4150.618543500001,unknown,2,2022-06-02T11:11:06.481+02:00,2022-06-02T10:17:13.754+02:00,759,1.666974,0,0,608.7687,0,0,2022-06-02T11:11:09.038+02:00,675853869.0380443,0,4.832031,101.3241,1,0.72
2022-06-02T11:11:09.991+02:00,1654161068.999765,53.22887945925186,10.39861958474889,40.06479,0,0.07,0,103.9230494294148,4,5,-9999,4154.127680875,0.1354827880859375,-0.5319366455078125,-0.8795013427734375,4154.122683875,0.4523136357726112,0.09120547874671331,0.262913324864738,-1.442369341850281,-0.3301004767417908,0.3554452359676361,0.05217212438583374,-0.238029956817627,0.0605309009552002,XArbitraryZVertical,0.1174737770011535,0.07340443533160859,0.2278913887908577,0.9637826978930417,0.08794932812452316,-0.2598948776721954,-0.9616234302520752,0,0,0,-1,-1,4150.618543500001,unknown,2,2022-06-02T11:11:06.481+02:00,2022-06-02T10:17:13.754+02:00,759,1.666974,0,0,608.7687,0,0,2022-06-02T11:11:09.038+02:00,675853869.0380443,0,4.832031,101.3241,1,0.72
2022-06-02T11:11:10.001+02:00,1654161068.999765,53.22887945925186,10.39861958474889,40.06479,0,0.07,0,103.9230494294148,4,5,-9999,4154.137674875,0.108306884765625,-0.516021728515625,-0.8964385986328125,4154.132677875,0.4580851144655434,0.08633918357433379,0.2460532786526221,-1.985518455505371,-0.3508701920509338,0.4674181044101715,0.05184800922870636,-0.2883586585521698,0.08676725625991821,XArbitraryZVertical,0.1096760029102017,0.06954770353211953,0.2302768719118792,0.9644204481348623,0.08363476395606995,-0.2435780167579651,-0.9662685990333557,0,0,0,-1,-1,4150.618543500001,unknown,2,2022-06-02T11:11:06.481+02:00,2022-06-02T10:17:13.754+02:00,759,1.666974,0,0,608.7687,0,0,2022-06-02T11:11:09.038+02:00,675853869.0380443,0,4.832031,101.3241,1,0.72
2022-06-02T11:11:10.011+02:00,1654161068.999765,53.22887945925186,10.39861958474889,40.06479,0,0.07,0,103.9230494294148,4,5,-9999,4154.147668875,0.0715484619140625,-0.481964111328125,-0.9335174560546875,4154.142671875,0.4654454027829965,0.08113655499563235,0.2250077421609878,-2.329495668411255,-0.347038596868515,0.6029020547866821,0.02930232882499695,-0.2929078340530396,0.07514697313308716,XArbitraryZVertical,0.0998558672250608,0.06508483485944436,0.2334115983435679,0.9650449384142743,0.07900454849004745,-0.2231139093637466,-0.9715855121612549,0,0,0,-1,-1,4150.618543500001,unknown,2,2022-06-02T11:11:06.481+02:00,2022-06-02T10:17:13.754+02:00,759,1.666974,0,0,608.7687,0,0,2022-06-02T11:11:09.038+02:00,675853869.0380443,0,4.832031,101.3241,1,0.72
2022-06-02T11:11:10.021+02:00,1654161068.999765,53.22887945925186,10.39861958474889,40.06479,0,0.07,0,103.9230494294148,4,5,-9999,4154.157662875,0.0684967041015625,-0.4859771728515625,-0.971343994140625,4154.152665875,0.474042360169178,0.07588452769128673,0.2000870666152369,-2.785057544708252,-0.3411663174629211,0.6718035936355591,-0.002750776708126068,-0.2832094430923462,0.04371142387390137,XArbitraryZVertical,0.0881520016195705,0.06012323765814934,0.2371486199154012,0.9655956321066165,0.07429922372102737,-0.1987546682357788,-0.9772288203239441,0,0,0,-1,-1,4150.618543500001,unknown,2,2022-06-02T11:11:06.481+02:00,2022-06-02T10:17:13.754+02:00,759,1.666974,0,0,608.7687,0,0,2022-06-02T11:11:09.038+02:00,675853869.0380443,0,4.832031,101.3241,1,0.72
2022-06-02T11:11:10.031+02:00,1654161068.999765,53.22887945925186,10.39861958474889,40.06479,0,0.07,0,103.9230494294148,4,5,-9999,4154.167656875,0.0878143310546875,-0.4792327880859375,-1.024368286132812,4154.162659875,0.4832994591966358,0.0707429920837765,0.1705507755946854,-3.237513303756714,-0.3493918776512146,0.715782105922699,-0.001161791384220123,-0.3162520527839661,0.01168251037597656,XArbitraryZVertical,0.07421358195628593,0.05458116678649467,0.2412105668281924,0.9660903521786814,0.06965848058462143,-0.16972516477108,-0.9830265045166016,0,0,0,-1,-1,4150.618543500001,unknown,2,2022-06-02T11:11:06.481+02:00,2022-06-02T10:17:13.754+02:00,759,1.666974,0,0,608.7687,0,0,2022-06-02T11:11:09.038+02:00,675853869.0380443,0,4.832031,101.3241,1,0.72
2022-06-02T11:11:10.041+02:00,1654161068.999765,53.22887945925186,10.39861958474889,40.06479,0,0.07,0,103.9230494294148,4,5,-9999,4154.177650875,0.1187896728515625,-0.4051055908203125,-1.05718994140625,4154.172653875,0.4932030408476065,0.06554509096977164,0.1374560263058218,-3.482880115509033,-0.3992204070091248,0.7887164950370789,0.02293394505977631,-0.3422092199325562,-0.03592753410339355,XArbitraryZVertical,0.05858083022195897,0.04845536458507383,0.2455847846681344,0.9663893579497994,0.0648803785443306,-0.1370235830545425,-0.9884407520294189,0,0,0,-1,-1,4150.618543500001,unknown,2,2022-06-02T11:11:06.481+02:00,2022-06-02T10:17:13.754+02:00,759,1.666974,0,0,608.7687,0,0,2022-06-02T11:11:09.038+02:00,675853869.0380443,0,4.832031,101.3241,1,0.72
2022-06-02T11:11:10.051+02:00,1654161068.999765,53.22887945925186,10.39861958474889,40.06479,0,0.07,0,103.9230494294148,4,5,-9999,4154.187644875,0.1501312255859375,-0.292755126953125,-1.025482177734375,4154.182647875,0.5036570502621218,0.05967493609628222,0.1020889232005809,-3.733802556991577,-0.5448096990585327,0.8325256705284119,0.05946064740419388,-0.3031939268112183,-0.06416726112365723,XArbitraryZVertical,0.04196700873227185,0.04156226490507779,0.2502140634969787,0.9663871773855148,0.05932900682091713,-0.101911686360836,-0.9930226802825928,0,0,0,-1,-1,4150.618543500001,unknown,2,2022-06-02T11:11:06.481+02:00,2022-06-02T10:17:13.754+02:00,759,1.666974,0,0,608.7687,0,0,2022-06-02T11:11:09.038+02:00,675853869.0380443,0,4.832031,101.3241,1,0.72
2022-06-02T11:11:10.061+02:00,1654161068.999765,53.22887945925186,10.39861958474889,40.06479,0,0.07,0,103.9230494294148,4,5,-9999,4154.197638875,0.1497344970703125,-0.1963043212890625,-1.022476196289062,4154.192641875,0.5142961913964449,0.05245438023652097,0.06368151660270321,-4.055644989013672,-0.7283542156219482,0.8554333448410034,0.09780716150999069,-0.229116678237915,-0.02888178825378418,XArbitraryZVertical,0.02411197326856945,0.03344275641023439,0.2549145383459665,0.9660842257619259,0.05232405290007591,-0.06363848596811295,-0.9966003894805908,0,0,0,-1,-1,4150.618543500001,unknown,2,2022-06-02T11:11:06.481+02:00,2022-06-02T10:17:13.754+02:00,759,1.666974,0,0,608.7687,0,0,2022-06-02T11:11:09.038+02:00,675853869.0380443,0,4.832031,101.3241,1,0.72
2022-06-02T11:11:10.071+02:00,1654161068.999765,53.22887945925186,10.39861958474889,40.06479,0,0.07,0,103.9230494294148,4,5,-9999,4154.207632875,0.1194610595703125,-0.0929107666015625,-1.047836303710938,4154.202635875,0.5251624658036304,0.0438205491114519,0.02201375347929953,-4.379281044006348,-0.8960281014442444,0.9180588722229004,0.1059385687112808,-0.1742923855781555,-0.02367818355560303,XArbitraryZVertical,0.004940287836257346,0.02401264428359692,0.2597290336431691,0.9653702427311441,0.04379591345787048,-0.02201197482645512,-0.9987979531288147,0,0,0,-1,-1,4150.618543500001,unknown,2,2022-06-02T11:11:06.481+02:00,2022-06-02T10:17:13.754+02:00,759,1.666974,0,0,608.7687,0,0,2022-06-02T11:11:09.038+02:00,675853869.0380443,0,4.832031,101.3241,1,0.72
2022-06-02T11:11:10.081+02:00,1654161068.999765,53.22887945925186,10.39861958474889,40.06479,0,0.07,0,103.9230494294148,4,5,-9999,4154.217626875,0.081756591796875,-0.0030670166015625,-1.049835205078125,4154.212629875,0.5365070675945299,0.03415630367520077,-0.02320396579963289,-4.760533809661865,-1.038198113441467,0.9960131049156189,0.08532057702541351,-0.116112694144249,-0.04868859052658081,XArbitraryZVertical,-0.01571116169581456,0.0133908845631663,0.2648003142133118,0.9640822575671002,0.03414047136902809,0.02320188283920288,-0.9991477131843567,0,0,0,-1,-1,4150.618543500001,unknown,2,2022-06-02T11:11:06.481+02:00,2022-06-02T10:17:13.754+02:00,759,1.666974,0,0,608.7687,0,0,2022-06-02T11:11:09.038+02:00,675853869.0380443,0,4.832031,101.3241,1,0.72
2022-06-02T11:11:10.091+02:00,1654161068.999765,53.22887945925186,10.39861958474889,40.06479,0,0.07,0,103.9230494294148,4,5,-9999,4154.227620875,0.042724609375,0.1002349853515625,-1.051773071289062,4154.222623875,0.5481642907503255,0.02386171769609493,-0.07208451587560062,-5.069706916809082,-1.125264406204224,1.046143770217896,0.05795908719301224,-0.07508917897939682,-0.05271607637405396,XArbitraryZVertical,-0.03791404072793021,0.001725279569401075,0.2700545680439406,0.9620966616513488,0.02379749156534672,0.07202210277318954,-0.9971190690994263,0,0,0,-1,-1,4150.618543500001,unknown,2,2022-06-02T11:11:06.481+02:00,2022-06-02T10:17:13.754+02:00,759,1.666974,0,0,608.7687,0,0,2022-06-02T11:11:09.038+02:00,675853869.0380443,0,4.832031,101.3241,1,0.72
2022-06-02T11:11:10.101+02:00,1654161068.999765,53.22887945925186,10.39861958474889,40.06479,0,0.07,0,103.9230494294148,4,5,-9999,4154.237614875,0.0148773193359375,0.2182464599609375,-1.026031494140625,4154.232617875,0.5598202075376734,0.0132789335279731,-0.1232194970134148,-5.177539348602295,-1.226205348968506,1.079906225204468,0.02954673022031784,-0.02267299592494965,-0.05944246053695679,XArbitraryZVertical,-0.06100394540246357,-0.01064083167218327,0.2753461322786338,0.95934862347858,0.01317786611616611,0.122907929122448,-0.9923306107521057,0,0,0,-1,-1,4150.618543500001,unknown,2,2022-06-02T11:11:06.481+02:00,2022-06-02T10:17:13.754+02:00,759,1.666974,0,0,608.7687,0,0,2022-06-02T11:11:09.038+02:00,675853869.0380443,0,4.832031,101.3241,1,0.72
2022-06-02T11:11:10.111+02:00,1654161068.999765,53.22887945925186,10.39861958474889,40.06479,0,0.07,0,103.9230494294148,4,5,-9999,4154.247608875,0.00677490234375,0.3083953857421875,-0.979949951171875,4154.242611875,0.5710595340877491,0.001875256066256627,-0.1747369816151585,-5.138572692871094,-1.399335622787476,1.051383018493652,0.01303061097860336,0.0443972647190094,-0.04126089811325073,XArbitraryZVertical,-0.08398761026842191,-0.02368117763191579,0.2805128587519247,0.9558753976038054,0.001846699160523713,0.1738491356372833,-0.9847705960273743,0,0,0,-1,-1,4150.618543500001,unknown,2,2022-06-02T11:11:06.481+02:00,2022-06-02T10:17:13.754+02:00,759,1.666974,0,0,608.7687,0,0,2022-06-02T11:11:09.038+02:00,675853869.0380443,0,4.832031,101.3241,1,0.72
2022-06-02T11:11:10.121+02:00,1654161068.999765,53.22887945925186,10.39861958474889,40.06479,0,0.07,0,103.9230494294148,4,5,-9999,4154.257602875,0.00225830078125,0.36224365234375,-0.915771484375,4154.252605875,0.5811146273146325,-0.01128037064497858,-0.226184566368774,-5.194581031799316,-1.643556833267212,0.9695097804069519,0.01776771247386932,0.08413441479206085,-0.005482852458953857,XArbitraryZVertical,-0.1065139095776756,-0.03769907897505722,0.2852614246362719,0.9517664335972393,-0.01099281664937735,0.2242609113454819,-0.9744671583175659,0,0,0,-1,-1,4150.618543500001,unknown,2,2022-06-02T11:11:06.481+02:00,2022-06-02T10:17:13.754+02:00,759,1.666974,0,0,608.7687,0,0,2022-06-02T11:11:09.038+02:00,675853869.0380443,0,4.832031,101.3241,1,0.72
2022-06-02T11:11:10.131+02:00,1654161068.999765,53.22887945925186,10.39861958474889,40.06479,0,0.07,0,103.9230494294148,4,5,-9999,4154.267596875,-0.022125244140625,0.3915252685546875,-0.9069061279296875,4154.262599875,0.589694499407254,-0.02644808281807205,-0.2790278081577491,-5.321722984313965,-1.801924228668213,0.8941370248794556,0.02768049389123917,0.08682239055633545,0.04521596431732178,XArbitraryZVertical,-0.1292437600346079,-0.05293701362737063,0.2895046055634665,0.9469322514647973,-0.02542220428586006,0.2754212021827698,-0.9609874486923218,0,0,0,-1,-1,4150.618543500001,unknown,2,2022-06-02T11:11:06.481+02:00,2022-06-02T10:17:13.754+02:00,759,1.666974,0,0,608.7687,0,0,2022-06-02T11:11:09.038+02:00,675853869.0380443,0,4.832031,101.3241,1,0.72
2022-06-02T11:11:10.141+02:00,1654161068.999765,53.22887945925186,10.39861958474889,40.06479,0,0.07,0,103.9230494294148,4,5,-9999,4154.277590875,-0.046600341796875,0.4848785400390625,-0.87957763671875,4154.272593875,0.5970029966006739,-0.0427333725528036,-0.3329547703824658,-5.455339431762695,-1.901354670524597,0.8779881596565247,0.01824894547462463,0.06468826532363892,0.03731179237365723,XArbitraryZVertical,-0.1521490090638793,-0.06886003366347829,0.2933400454092966,0.9413079277624979,-0.04037419706583023,0.3268369436264038,-0.9442179203033447,0,0,0,-1,-1,4150.618543500001,unknown,2,2022-06-02T11:11:06.481+02:00,2022-06-02T10:17:13.754+02:00,759,1.666974,0,0,608.7687,0,0,2022-06-02T11:11:09.038+02:00,675853869.0380443,0,4.832031,101.3241,1,0.72
2022-06-02T11:11:10.151+02:00,1654161068.999765,53.22887945925186,10.39861958474889,40.06479,0,0.07,0,103.9230494294148,4,5,-9999,4154.287584875,-0.0565338134765625,0.5609130859375,-0.8670501708984375,4154.282587875,0.6029754044939337,-0.06001936895580398,-0.3888371188149132,-5.637328147888184,-1.983504414558411,0.7991797924041748,0.008905261754989624,0.1057658791542053,0.04410666227340698,XArbitraryZVertical,-0.1756571565636912,-0.08545407376603707,0.2967510740414119,0.9347624345078555,-0.05550561472773552,0.3791126012802124,-0.9236843585968018,0,0,0,-1,-1,4150.618543500001,unknown,2,2022-06-02T11:11:06.481+02:00,2022-06-02T10:17:13.754+02:00,759,1.666974,0,0,608.7687,0,0,2022-06-02T11:11:09.038+02:00,675853869.0380443,0,4.832031,101.3241,1,0.72
2022-06-02T11:11:10.169+02:00,1654161068.999765,53.22887945925186,10.39861958474889,40.06479,0,0.07,0,103.9230494294148,4,5,-9999,4154.297578875,-0.066131591796875,0.6234283447265625,-0.8589630126953125,4154.292581875,0.6069029079976949,-0.07875376534520295,-0.445944764677635,-5.684976577758789,-2.08141303062439,0.7154388427734375,0.01444467902183533,0.1296025812625885,0.03235703706741333,XArbitraryZVertical,-0.1993904209647557,-0.1026637948838268,0.2994999241662391,0.9273636200406936,-0.07097850739955902,0.4313104450702667,-0.8994072079658508,0,0,0,-1,-1,4150.618543500001,unknown,2,2022-06-02T11:11:06.481+02:00,2022-06-02T10:17:13.754+02:00,759,1.666974,0,0,608.7687,0,0,2022-06-02T11:11:09.038+02:00,675853869.0380443,0,4.832031,101.3241,1,0.72
2022-06-02T11:11:10.183+02:00,1654161068.999765,53.22887945925186,10.39861958474889,40.06479,0,0.07,0,103.9230494294148,4,5,-9999,4154.307572875,-0.0773468017578125,0.6837005615234375,-0.835357666015625,4154.302575875,0.6089441945732168,-0.09898816872968748,-0.5019663197257556,-5.423304557800293,-2.150717496871948,0.6340160965919495,0.02050355076789856,0.1422780454158783,0.01338368654251099,XArbitraryZVertical,-0.2222761742634219,-0.1200830733070006,0.3017632146030512,0.9192998563150396,-0.08663515746593475,0.481150209903717,-0.8723466992378235,0,0,0,-1,-1,4150.618543500001,unknown,2,2022-06-02T11:11:06.481+02:00,2022-06-02T10:17:13.754+02:00,759,1.666974,0,0,608.7687,0,0,2022-06-02T11:11:09.038+02:00,675853869.0380443,0,4.832031,101.3241,1,0.72
2022-06-02T11:11:10.186+02:00,1654161068.999765,53.22887945925186,10.39861958474889,40.06479,0,0.07,0,103.9230494294148,4,5,-9999,4154.317566875,-0.08941650390625,0.7381591796875,-0.79620361328125,4154.312569875,0.6087584251036153,-0.1210057024350698,-0.5546821767281244,-5.062674522399902,-2.239714384078979,0.4841642677783966,0.0252654105424881,0.1570273041725159,0.008494257926940918,XArbitraryZVertical,-0.2433064807695044,-0.1373899430744279,0.3035156014540816,0.9109358115771524,-0.1026122123003006,0.5266731381416321,-0.8438519239425659,0,0,0,-1,-1,4150.618543500001,unknown,2,2022-06-02T11:11:06.481+02:00,2022-06-02T10:17:13.754+02:00,759,1.666974,0,0,608.7687,0,0,2022-06-02T11:11:09.038+02:00,675853869.0380443,0,4.832031,101.3241,1,0.72
2022-06-02T11:11:10.191+02:00,1654161068.999765,53.22887945925186,10.39861958474889,40.06479,0,0.07,0,103.9230494294148,4,5,-9999,4154.327560875,-0.1148223876953125,0.7700042724609375,-0.7511138916015625,4154.322563875,0.6058321478993129,-0.1454953760922424,-0.603391594499745,-4.673196315765381,-2.335987091064453,0.3317741453647614,0.02996444702148438,0.1707206964492798,0.01851212978363037,XArbitraryZVertical,-0.2621585585634086,-0.1546447325441745,0.3046920408006422,0.9025079870062053,-0.119380958378315,0.5674384236335754,-0.8147158026695251,0,0,0,-1,-1,4150.618543500001,unknown,2,2022-06-02T11:11:06.481+02:00,2022-06-02T10:17:13.754+02:00,759,1.666974,0,0,608.7687,0,0,2022-06-02T11:11:09.038+02:00,675853869.0380443,0,4.832031,101.3241,1,0.72
2022-06-02T11:11:10.201+02:00,1654161068.999765,53.22887945925186,10.39861958474889,40.06479,0,0.07,0,103.9230494294148,4,5,-9999,4154.337554875,-0.1536102294921875,0.7561798095703125,-0.6921844482421875,4154.332557875,0.6005049157217669,-0.1722681779256962,-0.6483808650401621,-4.383443355560303,-2.39574408531189,0.2493743300437927,0.02180799841880798,0.1661075353622437,0.03415095806121826,XArbitraryZVertical,-0.2790442127906175,-0.1717611519515449,0.3054929238336821,0.8940393493582817,-0.1366303861141205,0.6038966178894043,-0.7852648496627808,0,0,0,-1,-1,4150.618543500001,unknown,2,2022-06-02T11:11:06.481+02:00,2022-06-02T10:17:13.754+02:00,759,1.666974,0,0,608.7687,0,0,2022-06-02T11:11:09.038+02:00,675853869.0380443,0,4.832031,101.3241,1,0.72
2022-06-02T11:11:10.211+02:00,1654161068.999765,53.22887945925186,10.39861958474889,40.06479,0,0.07,0,103.9230494294148,4,5,-9999,4154.347549875,-0.1872100830078125,0.701873779296875,-0.6285552978515625,4154.342552875,0.5930131114496507,-0.2011536905315048,-0.6911709581105157,-4.251868724822998,-2.449311494827271,0.1788398623466492,0.0003356188535690308,0.1187398433685303,0.06277984380722046,XArbitraryZVertical,-0.2947258683298696,-0.1888240211625238,0.3060457486330328,0.8853350191560482,-0.1539458334445953,0.6374398469924927,-0.754964292049408,0,0,0,-1,-1,4150.618543500001,unknown,2,2022-06-02T11:11:06.481+02:00,2022-06-02T10:17:13.754+02:00,759,1.666974,0,0,608.7687,0,0,2022-06-02T11:11:09.038+02:00,675853869.0380443,0,4.832031,101.3241,1,0.72
2022-06-02T11:11:10.221+02:00,1654161068.999765,53.22887945925186,10.39861958474889,40.06479,0,0.07,0,103.9230494294148,4,5,-9999,4154.357543875,-0.20904541015625,0.6768798828125,-0.584381103515625,4154.352546875,0.5828976073573947,-0.2323112114438249,-0.7325174551585537,-4.167230606079102,-2.456342697143555,0.100223608314991,-0.01603768765926361,0.0331302285194397,0.09496533870697021,XArbitraryZVertical,-0.3096183196156615,-0.2058547367251975,0.3062286485863007,0.8763470908395802,-0.1711723953485489,0.6687434911727905,-0.7235206365585327,0,0,0,-1,-1,4150.618543500001,unknown,2,2022-06-02T11:11:06.481+02:00,2022-06-02T10:17:13.754+02:00,759,1.666974,0,0,608.7687,0,0,2022-06-02T11:11:09.038+02:00,675853869.0380443,0,4.832031,101.3241,1,0.72
2022-06-02T11:11:10.231+02:00,1654161068.999765,53.22887945925186,10.39861958474889,40.06479,0,0.07,0,103.9230494294148,4,5,-9999,4154.367537875,-0.23199462890625,0.728179931640625,-0.5664215087890625,4154.362540875,0.5695933820158581,-0.2658113957899022,-0.7723251651024325,-4.025922298431396,-2.424033164978027,-0.02524483576416969,-0.02088154852390289,-0.02092278003692627,0.1067525744438171,XArbitraryZVertical,-0.3237872915953847,-0.2226991812536273,0.3058767359557723,0.8671829213536065,-0.1881638467311859,0.6978026032447815,-0.6911337375640869,0,0,0,-1,-1,4150.618543500001,unknown,2,2022-06-02T11:11:06.481+02:00,2022-06-02T10:17:13.754+02:00,759,1.666974,0,0,608.7687,0,0,2022-06-02T11:11:09.038+02:00,675853869.0380443,0,4.832031,101.3241,1,0.72
2022-06-02T11:11:10.241+02:00,1654161068.999765,53.22887945925186,10.39861958474889,40.06479,0,0.07,0,103.9230494294148,4,5,-9999,4154.377531875,-0.2452850341796875,0.8341827392578125,-0.5527496337890625,4154.372534875,0.5526602609395268,-0.3020361391022381,-0.8101905203265255,-3.920831918716431,-2.411826848983765,-0.1267030090093613,-0.0269341766834259,0.00376129150390625,0.09173345565795898,XArbitraryZVertical,-0.3371164376198743,-0.2393219619043961,0.3049335668819322,0.8579586474951602,-0.2050604522228241,0.7244185209274292,-0.6581550240516663,0,0,0,-1,-1,4150.618543500001,unknown,2,2022-06-02T11:11:06.481+02:00,2022-06-02T10:17:13.754+02:00,759,1.666974,0,0,608.7687,0,0,2022-06-02T11:11:09.038+02:00,675853869.0380443,0,4.832031,101.3241,1,0.72
2022-06-02T11:11:10.250+02:00,1654161068.999765,53.22887945925186,10.39861958474889,40.06479,0,0.07,0,103.9230494294148,4,5,-9999,4154.387525875,-0.2605743408203125,0.8802642822265625,-0.5521392822265625,4154.382528875,0.5329287634537183,-0.3407525785539208,-0.8463259528644751,-3.772103071212769,-2.426089525222778,-0.1050392687320709,-0.02380001544952393,0.08533209562301636,0.07188397645950317,XArbitraryZVertical,-0.3497090312246766,-0.2557083845983408,0.3037886835177135,0.8485452915926399,-0.2214850038290024,0.7488505244255066,-0.6246336102485657,0,0,0,-1,-1,4150.618543500001,unknown,2,2022-06-02T11:11:06.481+02:00,2022-06-02T10:17:13.754+02:00,759,1.666974,0,0,608.7687,0,0,2022-06-02T11:11:09.038+02:00,675853869.0380443,0,4.832031,101.3241,1,0.72
2022-06-02T11:11:10.261+02:00,1654161068.999765,53.22887945925186,10.39861958474889,40.06479,0,0.07,0,103.9230494294148,4,5,-9999,4154.397519875,-0.2964324951171875,0.8627471923828125,-0.512847900390625,4154.392522875,0.5120504226126972,-0.3810452686244202,-0.8802455479308859,-3.544591188430786,-2.457507133483887,-0.04119876772165298,-0.02369400858879089,0.1093688607215881,0.03913724422454834,XArbitraryZVertical,-0.3613193353834667,-0.2716800432377712,0.3030103549374239,0.8389415051673591,-0.2368803322315216,0.7708953022956848,-0.5912765860557556,0,0,0,-1,-1,4150.618543500001,unknown,2,2022-06-02T11:11:06.481+02:00,2022-06-02T10:17:13.754+02:00,759,1.666974,0,0,608.7687,0,0,2022-06-02T11:11:09.038+02:00,675853869.0380443,0,4.832031,101.3241,1,0.72
2022-06-02T11:11:10.271+02:00,1654161068.999765,53.22887945925186,10.39861958474889,40.06479,0,0.07,0,103.9230494294148,4,5,-9999,4154.407513875,-0.3345794677734375,0.7907562255859375,-0.3970794677734375,4154.402516875,0.4895741903383326,-0.4232811332154534,-0.9123199906091765,-3.479524850845337,-2.475788116455078,-0.03833114355802536,-0.04508689045906067,0.07182157039642334,0.04506081342697144,XArbitraryZVertical,-0.3721328491081818,-0.2873374040342486,0.3024907662753047,0.8291281951065017,-0.2513455748558044,0.7909255027770996,-0.5579087138175964,0,0,0,-1,-1,4150.618543500001,unknown,2,2022-06-02T11:11:06.481+02:00,2022-06-02T10:17:13.754+02:00,759,1.666974,0,0,608.7687,0,0,2022-06-02T11:11:09.038+02:00,675853869.0380443,0,4.832031,101.3241,1,0.72
2022-06-02T11:11:10.281+02:00,1654161068.999765,53.22887945925186,10.39861958474889,40.06479,0,0.07,0,103.9230494294148,4,5,-9999,4154.417507875,-0.3472442626953125,0.7148895263671875,-0.3131256103515625,4154.412510875,0.4635688323016097,-0.4689381797031849,-0.9431979990095887,-3.446832418441772,-2.497293949127197,-0.1179327592253685,-0.06919956207275391,-0.01868396997451782,0.1267336010932922,XArbitraryZVertical,-0.3825203938390012,-0.3029382321658018,0.3017662885165927,0.8190504706897153,-0.2653798758983612,0.8094401359558105,-0.5238131284713745,0,0,0,-1,-1,4150.618543500001,unknown,2,2022-06-02T11:11:06.481+02:00,2022-06-02T10:17:13.754+02:00,759,1.666974,0,0,608.7687,0,0,2022-06-02T11:11:09.038+02:00,675853869.0380443,0,4.832031,101.3241,1,0.72
2022-06-02T11:11:10.291+02:00,1654161068.999765,53.22887945925186,10.39861958474889,40.06479,0,0.07,0,103.9230494294148,4,5,-9999,4154.427501875,-0.343994140625,0.738800048828125,-0.2088623046875,4154.422504875,0.432306279788654,-0.5194620635979472,-0.9728225788090207,-3.497227668762207,-2.484920978546143,-0.2351430803537369,-0.06777909398078918,-0.111588716506958,0.1755799055099487,XArbitraryZVertical,-0.3925717917525063,-0.3186449741861612,0.3004979304396914,0.8087357911997952,-0.2794651687145233,0.8264780044555664,-0.4887055456638336,0,0,0,-1,-1,4150.618543500001,unknown,2,2022-06-02T11:11:06.481+02:00,2022-06-02T10:17:13.754+02:00,759,1.666974,0,0,608.7687,0,0,2022-06-02T11:11:09.038+02:00,675853869.0380443,0,4.832031,101.3241,1,0.72
2022-06-02T11:11:10.301+02:00,1654161068.999765,53.22887945925186,10.39861958474889,40.06479,0,0.07,0,103.9230494294148,4,5,-9999,4154.437495875,-0.3412322998046875,0.809814453125,-0.094879150390625,4154.432498875,0.3942900226375795,-0.575747547942435,-1.001952003923616,-3.678635120391846,-2.432945013046265,-0.2981292307376862,-0.05071499943733215,-0.1037241220474243,0.2429566383361816,XArbitraryZVertical,-0.4028211230863689,-0.3344033981565406,0.2984486696405889,0.798021153522006,-0.2932791113853455,0.8425240516662598,-0.4518190324306488,0,0,0,-1,-1,4150.618543500001,unknown,2,2022-06-02T11:11:06.481+02:00,2022-06-02T10:17:13.754+02:00,759,1.666974,0,0,608.7687,0,0,2022-06-02T11:11:09.038+02:00,675853869.0380443,0,4.832031,101.3241,1,0.72
2022-06-02T11:11:10.311+02:00,1654161068.999765,53.22887945925186,10.39861958474889,40.06479,0,0.07,0,103.9230494294148,4,5,-9999,4154.447489875,-0.3571929931640625,0.872650146484375,0.01934814453125,4154.442492875,0.3483986160240115,-0.6389805254981582,-1.031428497522567,-3.924474477767944,-2.411146402359009,-0.2992218732833862,-0.03493666648864746,-0.04821914434432983,0.3173845410346985,XArbitraryZVertical,-0.4137578672006312,-0.3502464184414319,0.295695457033031,0.7865723333942146,-0.30629563331604,0.8580335378646851,-0.4122637510299683,0,0,0,-1,-1,4150.618543500001,unknown,2,2022-06-02T11:11:06.481+02:00,2022-06-02T10:17:13.754+02:00,759,1.666974,0,0,608.7687,0,0,2022-06-02T11:11:09.038+02:00,675853869.0380443,0,4.832031,101.3241,1,0.72
2022-06-02T11:11:10.321+02:00,1654161068.999765,53.22887945925186,10.39861958474889,40.06479,0,0.07,0,103.9230494294148,4,5,-9999,4154.457483875,-0.4005126953125,0.9430999755859375,0.168243408203125,4154.452486875,0.2942828997006551,-0.7096232739561451,-1.06064105448793,-3.970296382904053,-2.336994171142578,-0.2889993190765381,-0.0390339195728302,-1.871585845947266e-05,0.3897855579853058,XArbitraryZVertical,-0.4252402108051724,-0.3659945860348636,0.2924221026883579,0.7744080488404516,-0.3181590437889099,0.8726686835289001,-0.3704374432563782,0,0,0,-1,-1,4150.618543500001,unknown,2,2022-06-02T11:11:06.481+02:00,2022-06-02T10:17:13.754+02:00,759,1.666974,0,0,608.7687,0,0,2022-06-02T11:11:09.038+02:00,675853869.0380443,0,4.832031,101.3241,1,0.72
2022-06-02T11:11:10.331+02:00,1654161068.999765,53.22887945925186,10.39861958474889,40.06479,0,0.07,0,103.9230494294148,4,5,-9999,4154.467477875,-0.4422454833984375,1.04705810546875,0.29571533203125,4154.462480875,0.234101569355697,-0.7852883423253297,-1.0873094619519,-3.869101762771606,-2.221169233322144,-0.3010286092758179,-0.0718366801738739,0.05772066116333008,0.496991902589798,XArbitraryZVertical,-0.4363906501883449,-0.3810368009391171,0.2889094273656715,0.762171604864026,-0.3286761045455933,0.8853793740272522,-0.3287483155727386,0,0,0,-1,-1,4150.618543500001,unknown,2,2022-06-02T11:11:06.481+02:00,2022-06-02T10:17:13.754+02:00,759,1.666974,0,0,608.7687,0,0,2022-06-02T11:11:09.038+02:00,675853869.0380443,0,4.832031,101.3241,1,0.72
2022-06-02T11:11:10.341+02:00,1654161068.999765,53.22887945925186,10.39861958474889,40.06479,0,0.07,0,103.9230494294148,4,5,-9999,4154.477471875,-0.4809112548828125,1.095565795898438,0.4264373779296875,4154.472474875,0.1671002942187114,-0.8666757881678464,-1.110771096531698,-3.770146131515503,-2.093671321868896,-0.3798656463623047,-0.1038593351840973,0.1510168313980103,0.5831258296966553,XArbitraryZVertical,-0.4470904133111835,-0.3954805517495118,0.2849855668007834,0.7499923706124401,-0.3383861780166626,0.8960412740707397,-0.2874105870723724,0,0,0,-1,-1,4150.618543500001,unknown,2,2022-06-02T11:11:06.481+02:00,2022-06-02T10:17:13.754+02:00,759,1.666974,0,0,608.7687,0,0,2022-06-02T11:11:09.038+02:00,675853869.0380443,0,4.832031,101.3241,1,0.72
2022-06-02T11:11:10.351+02:00,1654161068.999765,53.22887945925186,10.39861958474889,40.06479,0,0.07,0,103.9230494294148,4,5,-9999,4154.487465875,-0.5142822265625,1.113723754882812,0.6097564697265625,4154.482468875,0.09572047427707153,-0.9504503579550156,-1.13002949223834,-3.502079248428345,-1.804957866668701,-0.3988377451896667,-0.1337695419788361,0.1911409497261047,0.6744462251663208,XArbitraryZVertical,-0.4570646548203167,-0.4087632933800417,0.2806276017215826,0.7384122132759223,-0.3471417129039764,0.904424786567688,-0.2480089366436005,0,0,0,-1,-1,4150.618543500001,unknown,2,2022-06-02T11:11:06.481+02:00,2022-06-02T10:17:13.754+02:00,759,1.666974,0,0,608.7687,0,0,2022-06-02T11:11:09.038+02:00,675853869.0380443,0,4.832031,101.3241,1,0.72
2022-06-02T11:11:10.361+02:00,1654161068.999765,53.22887945925186,10.39861958474889,40.06479,0,0.07,0,103.9230494294148,4,5,-9999,4154.497459875,-0.5402374267578125,1.097579956054688,0.7669677734375,4154.492462875,0.02272805111785657,-1.032819523294218,-1.145230226681348,-3.266249418258667,-1.399878263473511,-0.4074679613113403,-0.1597601771354675,0.2029184699058533,0.8212935924530029,XArbitraryZVertical,-0.4664292561351835,-0.4203274238049833,0.2758239622572984,0.7277978517172947,-0.3545220494270325,0.9108051657676697,-0.2115372121334076,0,0,0,-1,-1,4150.618543500001,unknown,2,2022-06-02T11:11:06.481+02:00,2022-06-02T10:17:13.754+02:00,759,1.666974,0,0,608.7687,0,0,2022-06-02T11:11:09.038+02:00,675853869.0380443,0,4.832031,101.3241,1,0.72
2022-06-02T11:11:10.371+02:00,1654161068.999765,53.22887945925186,10.39861958474889,40.06479,0,0.07,0,103.9230494294148,4,5,-9999,4154.507453875,-0.5733184814453125,1.051589965820312,1.054229736328125,4154.502456875,-0.04621104521963708,-1.106515688239809,-1.156634738519656,-2.768694400787354,-0.7098770141601562,-0.2714592814445496,-0.1804137825965881,0.1821258664131165,0.9471642971038818,XArbitraryZVertical,-0.4751117248628723,-0.4291509500027478,0.2706887494040143,0.7189060323235403,-0.359823614358902,0.9154540300369263,-0.1801966279745102,0,0,0,-1,-1,4150.618543500001,unknown,2,2022-06-02T11:11:06.481+02:00,2022-06-02T10:17:13.754+02:00,759,1.666974,0,0,608.7687,0,0,2022-06-02T11:11:09.038+02:00,675853869.0380443,0,4.832031,101.3241,1,0.72
2022-06-02T11:11:10.381+02:00,1654161068.999765,53.22887945925186,10.39861958474889,40.06479,0,0.07,0,103.9230494294148,4,5,-9999,4154.517447875,-0.5852203369140625,0.9370574951171875,0.85675048828125,4154.512450875,-0.103599923534906,-1.160995548413895,-1.165189687350999,-1.98921811580658,0.3926964998245239,-0.1146635338664055,-0.2114132642745972,0.1327266097068787,1.211439251899719,XArbitraryZVertical,-0.4831604711282322,-0.4335333516682389,0.2651899554905451,0.7129368620169056,-0.3619052171707153,0.9188631772994995,-0.1572095900774002,0,0,0,-1,-1,4150.618543500001,unknown,2,2022-06-02T11:11:06.481+02:00,2022-06-02T10:17:13.754+02:00,759,1.666974,0,0,608.7687,0,0,2022-06-02T11:11:09.038+02:00,675853869.0380443,0,4.832031,101.3241,1,0.72
2022-06-02T11:11:10.391+02:00,1654161068.999765,53.22887945925186,10.39861958474889,40.06479,0,0.07,0,103.9230494294148,4,5,-9999,4154.527441875,-0.5095367431640625,0.83642578125,0.450225830078125,4154.522444875,-0.1365209839533512,-1.179142137899942,-1.170752030536403,-0.8159076571464539,2.099973201751709,0.1283384710550308,-0.2252516746520996,0.01601356267929077,1.005413770675659,XArbitraryZVertical,-0.4897772934455902,-0.4310295734304903,0.2592307586471065,0.7121313156198288,-0.3599686324596405,0.9210437536239624,-0.1486634165048599,0,0,0,-1,-1,4150.618543500001,unknown,2,2022-06-02T11:11:06.481+02:00,2022-06-02T10:17:13.754+02:00,759,1.666974,0,0,608.7687,0,0,2022-06-02T11:11:09.038+02:00,675853869.0380443,0,4.832031,101.3241,1,0.72
2022-06-02T11:11:10.401+02:00,1654161068.999765,53.22887945925186,10.39861958474889,40.06479,0,0.07,0,103.9230494294148,4,5,-9999,4154.537435875,-0.376129150390625,0.873138427734375,0.4216461181640625,4154.532438875,-0.1401366807519797,-1.1516559911196,-1.173157351542987,0.3501453697681427,4.10113525390625,0.2074170410633087,-0.1558143496513367,-0.0855521559715271,0.6078238487243652,XArbitraryZVertical,-0.4948672308613246,-0.4198896996920359,0.2517603367782789,0.7179245902478217,-0.3537223935127258,0.9219778776168823,-0.1575981229543686,0,0,0,-1,-1,4150.618543500001,unknown,2,2022-06-02T11:11:06.481+02:00,2022-06-02T10:17:13.754+02:00,759,1.666974,0,0,608.7687,0,0,2022-06-02T11:11:09.038+02:00,675853869.0380443,0,4.832031,101.3241,1,0.72
2022-06-02T11:11:10.411+02:00,1654161068.999765,53.22887945925186,10.39861958474889,40.06479,0,0.07,0,103.9230494294148,4,5,-9999,4154.547429875,-0.3139190673828125,1.271194458007812,0.93292236328125,4154.542432875,-0.1173168706106451,-1.079440470608353,-1.172288974956799,1.223713278770447,6.068015575408936,0.4523637890815735,-0.03399407863616943,-0.04850292205810547,0.6047331094741821,XArbitraryZVertical,-0.4988059694985857,-0.3995610909651227,0.2418776371004439,0.7300949584776816,-0.3421350717544556,0.9216412305831909,-0.1830870807170868,0,0,0,-1,-1,4150.618543500001,unknown,2,2022-06-02T11:11:06.481+02:00,2022-06-02T10:17:13.754+02:00,759,1.666974,0,0,608.7687,0,0,2022-06-02T11:11:09.038+02:00,675853869.0380443,0,4.832031,101.3241,1,0.72
2022-06-02T11:11:10.421+02:00,1654161068.999765,53.22887945925186,10.39861958474889,40.06479,0,0.07,0,103.9230494294148,4,5,-9999,4154.557424875,-0.4158172607421875,1.640228271484375,1.532608032226562,4154.552426875,-0.08158419100470032,-0.9794145491480606,-1.171019214167855,1.195657134056091,7.299080848693848,0.750738799571991,0.009194165468215942,0.3500465154647827,1.149911761283875,XArbitraryZVertical,-0.5032557804475117,-0.3718048931529008,0.2297270152957827,0.745466361195986,-0.3231131732463837,0.9211477637290955,-0.2169894874095917,0,0,0,-1,-1,4150.618543500001,unknown,2,2022-06-02T11:11:06.481+02:00,2022-06-02T10:17:13.754+02:00,759,1.666974,0,0,608.7687,0,0,2022-06-02T11:11:09.038+02:00,675853869.0380443,0,4.832031,101.3241,1,0.72
2022-06-02T11:11:10.431+02:00,1654161069.999778,53.22887945925186,10.39861958474889,40.46701,0,0.07,0,103.9230494294148,4,5,-9999,4154.567418875,-0.6382293701171875,1.645065307617188,1.81170654296875,4154.562421875,-0.04684982164951393,-0.869194787292111,-1.170651350291612,1.021812438964844,8.337298393249512,0.7612916827201843,-0.118274062871933,0.7192236185073853,1.784040808677673,XArbitraryZVertical,-0.5091958922883764,-0.3391210781835138,0.2148428257642148,0.7612876283265487,-0.2975431978702545,0.9210045337677002,-0.251432865858078,0,0,0,-1,-1,4150.618543500001,unknown,2,2022-06-02T11:11:06.481+02:00,2022-06-02T10:17:13.754+02:00,759,1.666974,0,0,608.7687,0,0,2022-06-02T11:11:09.038+02:00,675853869.0380443,0,4.832031,101.3241,1,0.72
2022-06-02T11:11:10.441+02:00,1654161069.999778,53.22887945925186,10.39861958474889,40.46701,0,0.07,0,103.9230494294148,4,5,-9999,4154.577412875,-0.77996826171875,1.2491455078125,2.97113037109375,4154.572415875,-0.02011479038694415,-0.7570115732106772,-1.168402905574698,0.8504686951637268,9.093437194824219,0.2805106937885284,-0.3692823946475983,0.7249388694763184,2.096372842788696,XArbitraryZVertical,-0.5155689509034737,-0.3030766682762247,0.1960038094356669,0.7771200633459969,-0.2689469754695892,0.9201263189315796,-0.2846663892269135,0,0,0,-1,-1,4150.618543500001,unknown,2,2022-06-02T11:11:06.481+02:00,2022-06-02T10:17:13.754+02:00,759,1.666974,0,0,608.7687,0,0,2022-06-02T11:11:09.038+02:00,675853869.0380443,0,4.832031,101.3241,1,0.72
2022-06-02T11:11:10.451+02:00,1654161069.999778,53.22887945925186,10.39861958474889,40.46701,0,0.07,0,103.9230494294148,4,5,-9999,4154.587406875,1.549209594726562,-2.644012451171875,-6.600296020507812,4154.582409875,-0.08424482599228532,-0.7459679797423385,-1.189255372526668,-10.65698528289795,2.510534524917603,-1.241942882537842,-0.5272600054740906,0.3210534453392029,3.244596481323242,XArbitraryZVertical,-0.5339315127759141,-0.2796141259026909,0.1714699559195069,0.7793144796175228,-0.2527082562446594,0.9280919432640076,-0.273466169834137,0,0,0,-1,-1,4150.618543500001,unknown,2,2022-06-02T11:11:06.481+02:00,2022-06-02T10:17:13.754+02:00,759,1.666974,0,0,608.7687,0,0,2022-06-02T11:11:09.038+02:00,675853869.0380443,0,4.832031,101.3241,1,0.72
2022-06-02T11:11:10.461+02:00,1654161069.999778,53.22887945925186,10.39861958474889,40.46701,0,0.07,0,103.9230494294148,4,5,-9999,4154.597400875,4.651321411132812,-0.450469970703125,-10.96047973632812,4154.592403875,-0.2824908812298709,-0.90631480341443,-1.234953620371531,-6.576394557952881,3.590705156326294,1.0274498462677,1.80865478515625,-3.588145732879639,-6.397069931030273,XArbitraryZVertical,-0.5656109365072457,-0.2801270367496836,0.147761067409407,0.7614325704467653,-0.2594451606273651,0.944132924079895,-0.2032262235879898,0,0,0,-1,-1,4150.618543500001,unknown,2,2022-06-02T11:11:06.481+02:00,2022-06-02T10:17:13.754+02:00,759,1.666974,0,0,608.7687,0,0,2022-06-02T11:11:09.038+02:00,675853869.0380443,0,4.832031,101.3241,1,0.72
2022-06-02T11:11:10.471+02:00,1654161069.999778,53.22887945925186,10.39861958474889,40.46701,0,0.07,0,103.9230494294148,4,5,-9999,4154.607394875,3.63031005859375,3.962844848632812,-5.364913940429688,4154.602397875,-0.4389384121530389,-1.039107439171588,-1.260315863496704,-4.153562068939209,-1.496893644332886,-3.255986213684082,4.914661407470703,-1.402657032012939,-10.80558586120605,XArbitraryZVertical,-0.5865743783211,-0.2801494993392863,0.1328661953101069,0.7481933466083478,-0.263340175151825,0.9521868824958801,-0.1548935174942017,0,0,0,-1,-1,4150.618543500001,unknown,2,2022-06-02T11:11:06.481+02:00,2022-06-02T10:17:13.754+02:00,759,1.666974,0,0,608.7687,0,0,2022-06-02T11:11:09.038+02:00,675853869.0380443,0,4.832031,101.3241,1,0.72
2022-06-02T11:11:10.481+02:00,1654161069.999778,53.22887945925186,10.39861958474889,40.46701,0,0.07,0,103.9230494294148,4,5,-9999,4154.617388875,1.42755126953125,3.561294555664062,-1.393936157226562,4154.612391875,-0.5141286918465944,-1.145172590517008,-1.247078156693975,1.159249544143677,-4.276917934417725,-0.2611676156520844,3.920023679733276,3.014785528182983,-5.233576774597168,XArbitraryZVertical,-0.5864809218540513,-0.3006184843213039,0.1324939935480051,0.7403471518949254,-0.2897136807441711,0.9480592608451843,-0.1313373148441315,0,0,0,-1,-1,4150.618543500001,unknown,2,2022-06-02T11:11:06.481+02:00,2022-06-02T10:17:13.754+02:00,759,1.666974,0,0,608.7687,0,0,2022-06-02T11:11:09.038+02:00,675853869.0380443,0,4.832031,101.3241,1,0.72
2022-06-02T11:11:10.491+02:00,1654161069.999778,53.22887945925186,10.39861958474889,40.46701,0,0.07,0,103.9230494294148,4,5,-9999,4154.627382875,-0.62982177734375,1.2962646484375,1.004119873046875,4154.622385875,-0.4126212114383527,-1.093325897845257,-1.24515460643086,4.53952693939209,-4.604311466217041,2.259539365768433,1.711688756942749,2.613848924636841,-1.246923565864563,XArbitraryZVertical,-0.5740931253253742,-0.3113049012613849,0.1545428746431322,0.7413655364794831,-0.2841374576091766,0.9474456310272217,-0.1470126807689667,0,0,0,-1,-1,4150.618543500001,unknown,2,2022-06-02T11:11:06.481+02:00,2022-06-02T10:17:13.754+02:00,759,1.666974,0,0,608.7687,0,0,2022-06-02T11:11:09.038+02:00,675853869.0380443,0,4.832031,101.3241,1,0.72
2022-06-02T11:11:10.501+02:00,1654161069.999778,53.22887945925186,10.39861958474889,40.46701,0,0.07,0,103.9230494294148,4,5,-9999,4154.637376875,-1.622039794921875,0.683990478515625,1.30389404296875,4154.632379875,-0.2454220158804744,-0.9799173082635537,-1.24072567267277,4.56825065612793,-4.047878742218018,2.115524530410767,-0.3606643378734589,0.3502451181411743,1.184678554534912,XArbitraryZVertical,-0.5559498215531766,-0.3172387626418124,0.1836324686013014,0.7460284541814176,-0.2691574096679688,0.9460194706916809,-0.1805587261915207,0,0,0,-1,-1,4150.618543500001,unknown,2,2022-06-02T11:11:06.481+02:00,2022-06-02T10:17:13.754+02:00,759,1.666974,0,0,608.7687,0,0,2022-06-02T11:11:09.038+02:00,675853869.0380443,0,4.832031,101.3241,1,0.72
2022-06-02T11:11:10.511+02:00,1654161069.999778,53.22887945925186,10.39861958474889,40.46701,0,0.07,0,103.9230494294148,4,5,-9999,4154.647370875,-1.754547119140625,0.5714111328125,0.583740234375,4154.642373875,-0.1483722370391981,-0.912031331880419,-1.234153822319499,1.498640418052673,-0.5264108180999756,0.5360231995582581,-1.36083984375,-0.2598786354064941,1.506096124649048,XArbitraryZVertical,-0.5447146024038778,-0.3196637065986,0.1998516532358216,0.7491064008839881,-0.2612000405788422,0.9438690543174744,-0.2022022306919098,0,0,0,-1,-1,4150.618543500001,unknown,2,2022-06-02T11:11:06.481+02:00,2022-06-02T10:17:13.754+02:00,759,1.666974,0,0,608.7687,0,0,2022-06-02T11:11:09.038+02:00,675853869.0380443,0,4.832031,101.3241,1,0.72
2022-06-02T11:11:10.521+02:00,1654161069.999778,53.22887945925186,10.39861958474889,40.46701,0,0.07,0,103.9230494294148,4,5,-9999,4154.657364875,-0.7467803955078125,0.814849853515625,-0.2143707275390625,4154.652367875,-0.1177837944339083,-0.8736434972874707,-1.226396453367048,1.309322714805603,2.078100204467773,-0.4228766858577728,-1.495693922042847,-0.369867205619812,0.8005123734474182,XArbitraryZVertical,-0.5409082581625205,-0.314693739758411,0.1994292403696237,0.7540650051959583,-0.2588532269001007,0.9412782192230225,-0.2167722135782242,0,0,0,-1,-1,4150.618543500001,unknown,2,2022-06-02T11:11:06.481+02:00,2022-06-02T10:17:13.754+02:00,759,1.666974,0,0,608.7687,0,0,2022-06-02T11:11:09.038+02:00,675853869.0380443,0,4.832031,101.3241,1,0.72
2022-06-02T11:11:10.547+02:00,1654161069.999778,53.22887945925186,10.39861958474889,40.46701,0,0.07,0,103.9230494294148,4,5,-9999,4154.667358875,0.3150787353515625,1.510391235351562,-0.1086578369140625,4154.662361875,-0.101410162861253,-0.8387277193477682,-1.210696019477439,1.546203136444092,1.547879219055176,-1.194018840789795,-0.484691321849823,-0.1210116147994995,0.02115544676780701,XArbitraryZVertical,-0.536041269525571,-0.30805293234743,0.1933412549876069,0.7618282850907101,-0.2620891034603119,0.9358614683151245,-0.2355262935161591,0,0,0,-1,-1,4150.618543500001,unknown,2,2022-06-02T11:11:06.481+02:00,2022-06-02T10:17:13.754+02:00,759,1.666974,0,0,608.7687,0,0,2022-06-02T11:11:09.038+02:00,675853869.0380443,0,4.832031,101.3241,1,0.72
2022-06-02T11:11:10.556+02:00,1654161069.999778,53.22887945925186,10.39861958474889,40.46701,0,0.07,0,103.9230494294148,4,5,-9999,4154.677352875,0.8176422119140625,1.688232421875,-0.11883544921875,4154.672355875,-0.08542438202050989,-0.8131728088846514,-1.19129066148506,2.101717710494995,0.7425438165664673,-0.6073692440986633,0.5842081308364868,0.5815432667732239,0.1459218859672546,XArbitraryZVertical,-0.5288131884474734,-0.3050683569848269,0.1892126419736593,0.7690828435365704,-0.2691293954849243,0.9288479089736938,-0.2545798122882843,0,0,0,-1,-1,4150.618543500001,unknown,2,2022-06-02T11:11:06.481+02:00,2022-06-02T10:17:13.754+02:00,759,1.666974,0,0,608.7687,0,0,2022-06-02T11:11:09.038+02:00,675853869.0380443,0,4.832031,101.3241,1,0.72
2022-06-02T11:11:10.558+02:00,1654161069.999778,53.22887945925186,10.39861958474889,40.46701,0,0.07,0,103.9230494294148,4,5,-9999,4154.687346875,0.594207763671875,1.263885498046875,0.0008544921875,4154.682349875,-0.02678107927050322,-0.7533102053199083,-1.173775637874637,3.46924877166748,0.3117471039295197,1.223803043365479,1.082148194313049,0.7660152316093445,0.1632143259048462,XArbitraryZVertical,-0.5190077208643666,-0.2993426934200657,0.1932979670436918,0.77695610515099,-0.2645059823989868,0.9222171306610107,-0.2820498645305634,0,0,0,-1,-1,4150.618543500001,unknown,2,2022-06-02T11:11:06.481+02:00,2022-06-02T10:17:13.754+02:00,759,1.666974,0,0,608.7687,0,0,2022-06-02T11:11:09.038+02:00,675853869.0380443,0,4.832031,101.3241,1,0.72
2022-06-02T11:11:10.563+02:00,1654161069.999778,53.22887945925186,10.39861958474889,40.46701,0,0.07,0,103.9230494294148,4,5,-9999,4154.697340875,-0.103424072265625,0.87615966796875,0.1002044677734375,4154.692343875,0.06488409726153911,-0.6699679593889604,-1.155723967814473,3.858773231506348,-0.4139150381088257,1.685978889465332,0.8446139097213745,0.3487981557846069,0.3169430792331696,XArbitraryZVertical,-0.5066686696451816,-0.2919632172778713,0.205141896666052,0.7848317993940886,-0.2504060864448547,0.9150871634483337,-0.3160886764526367,0,0,0,-1,-1,4150.618543500001,unknown,2,2022-06-02T11:11:06.481+02:00,2022-06-02T10:17:13.754+02:00,759,1.666974,0,0,608.7687,0,0,2022-06-02T11:11:09.038+02:00,675853869.0380443,0,4.832031,101.3241,1,0.72
2022-06-02T11:11:10.571+02:00,1654161069.999778,53.22887945925186,10.39861958474889,40.46701,0,0.07,0,103.9230494294148,4,5,-9999,4154.707334875,-0.5811004638671875,0.76416015625,0.0416259765625,4154.702337875,0.1467785121094803,-0.5992627305503411,-1.13421903984773,3.576109170913696,-0.222297191619873,1.159119963645935,0.1350720971822739,-0.03004461526870728,0.4493653774261475,XArbitraryZVertical,-0.4936254383659893,-0.2859255645727735,0.217226041534641,0.7920816184389959,-0.2384961694478989,0.9062042236328125,-0.3491609990596771,0,0,0,-1,-1,4150.618543500001,unknown,2,2022-06-02T11:11:06.481+02:00,2022-06-02T10:17:13.754+02:00,759,1.666974,0,0,608.7687,0,0,2022-06-02T11:11:09.038+02:00,675853869.0380443,0,4.832031,101.3241,1,0.72
2022-06-02T11:11:10.581+02:00,1654161069.999778,53.22887945925186,10.39861958474889,40.46701,0,0.07,0,103.9230494294148,4,5,-9999,4154.717328875,-0.6627960205078125,0.795867919921875,0.1243896484375,4154.712331875,0.2054385968423328,-0.5456018277931689,-1.11098982569903,3.05996298789978,0.3748109638690948,0.6048381924629211,-0.3508113324642181,-0.1319783926010132,0.4209711253643036,XArbitraryZVertical,-0.4817120684306206,-0.2797871770845642,0.2252379098801565,0.7993374847090636,-0.2302891165018082,0.8961383700370789,-0.3793452382087708,0,0,0,-1,-1,4150.618543500001,unknown,2,2022-06-02T11:11:06.481+02:00,2022-06-02T10:17:13.754+02:00,759,1.666974,0,0,608.7687,0,0,2022-06-02T11:11:09.038+02:00,675853869.0380443,0,4.832031,101.3241,1,0.72
2022-06-02T11:11:10.591+02:00,1654161069.999778,53.22887945925186,10.39861958474889,40.46701,0,0.07,0,103.9230494294148,4,5,-9999,4154.727322875,-0.4729156494140625,0.8004150390625,0.129608154296875,4154.722325875,0.2437018089946324,-0.5061767481251362,-1.089351353512868,2.444223642349243,0.6447950005531311,0.2414019703865051,-0.4382872581481934,-0.09045892953872681,0.5293842554092407,XArbitraryZVertical,-0.4718839973560594,-0.2735473931986087,0.2294269814588928,0.8061392601666997,-0.2245087474584579,0.8863267302513123,-0.4049946367740631,0,0,0,-1,-1,4150.618543500001,unknown,2,2022-06-02T11:11:06.481+02:00,2022-06-02T10:17:13.754+02:00,759,1.666974,0,0,608.7687,0,0,2022-06-02T11:11:09.038+02:00,675853869.0380443,0,4.832031,101.3241,1,0.72
2022-06-02T11:11:10.600+02:00,1654161069.999778,53.22887945925186,10.39861958474889,40.46701,0,0.07,0,103.9230494294148,4,5,-9999,4154.737316875,-0.2642974853515625,0.7813873291015625,0.08245849609375,4154.732319875,0.2692636913318771,-0.4770712374214265,-1.070667584195984,1.997007966041565,0.6591821908950806,0.151209220290184,-0.2527214288711548,-0.07710587978363037,0.55560302734375,XArbitraryZVertical,-0.4639205167099814,-0.2679184274193449,0.2316205942523545,0.8120033004046311,-0.2201942056417465,0.8775208592414856,-0.4259949326515198,0,0,0,-1,-1,4150.618543500001,unknown,2,2022-06-02T11:11:06.481+02:00,2022-06-02T10:17:13.754+02:00,759,1.666974,0,0,608.7687,0,0,2022-06-02T11:11:09.038+02:00,675853869.0380443,0,4.832031,101.3241,1,0.72
2022-06-02T11:11:10.611+02:00,1654161069.999778,53.22887945925186,10.39861958474889,40.46701,0,0.07,0,103.9230494294148,4,5,-9999,4154.747310875,-0.184356689453125,0.7656707763671875,0.05291748046875,4154.742313875,0.2898401667433986,-0.4529554213039497,-1.055635936032504,1.590613484382629,0.5648601651191711,0.3047588467597961,-0.04869098961353302,-0.08882653713226318,0.5254502296447754,XArbitraryZVertical,-0.4576288955848996,-0.2628305211867186,0.2334812530215851,0.816689812900572,-0.2156064808368683,0.8702136874198914,-0.4429918229579926,0,0,0,-1,-1,4150.618543500001,unknown,2,2022-06-02T11:11:06.481+02:00,2022-06-02T10:17:13.754+02:00,759,1.666974,0,0,608.7687,0,0,2022-06-02T11:11:09.038+02:00,675853869.0380443,0,4.832031,101.3241,1,0.72
2022-06-02T11:11:10.621+02:00,1654161069.999778,53.22887945925186,10.39861958474889,40.46701,0,0.07,0,103.9230494294148,4,5,-9999,4154.757304875,-0.229217529296875,0.7469024658203125,0.0147552490234375,4154.752307875,0.3093477733747552,-0.4311125717377415,-1.044674702055749,1.237347006797791,0.4294509589672089,0.4950070679187775,0.02549655735492706,-0.09909045696258545,0.5091515183448792,XArbitraryZVertical,-0.4529853787783665,-0.258238551906388,0.2358629849697126,0.8200522886170243,-0.2098532617092133,0.8647612333297729,-0.4562341868877411,0,0,0,-1,-1,4150.618543500001,unknown,2,2022-06-02T11:11:06.481+02:00,2022-06-02T10:17:13.754+02:00,759,1.666974,0,0,608.7687,0,0,2022-06-02T11:11:09.038+02:00,675853869.0380443,0,4.832031,101.3241,1,0.72
2022-06-02T11:11:10.630+02:00,1654161069.999778,53.22887945925186,10.39861958474889,40.46701,0,0.07,0,103.9230494294148,4,5,-9999,4154.767299875,-0.29962158203125,0.7560577392578125,-0.0657958984375,4154.762301875,0.3287705905648625,-0.4103968540698419,-1.036664703500349,1.05010986328125,0.3959922194480896,0.6352287530899048,-0.0261027067899704,-0.1138086915016174,0.4815751314163208,XArbitraryZVertical,-0.4495348129260378,-0.2539851495542751,0.2387573301418451,0.8224384244313644,-0.2031148225069046,0.8607110381126404,-0.4668200016021729,0,0,0,-1,-1,4150.618543500001,unknown,2,2022-06-02T11:11:06.481+02:00,2022-06-02T10:17:13.754+02:00,759,1.666974,0,0,608.7687,0,0,2022-06-02T11:11:09.038+02:00,675853869.0380443,0,4.832031,101.3241,1,0.72
2022-06-02T11:11:10.640+02:00,1654161069.999778,53.22887945925186,10.39861958474889,40.46701,0,0.07,0,103.9230494294148,4,5,-9999,4154.777293875,-0.3135528564453125,0.767913818359375,-0.133148193359375,4154.772296875,0.3488576778440099,-0.3885572761048571,-1.029905044839854,1.002681016921997,0.5391552448272705,0.7226398587226868,-0.1045497953891754,-0.1011925339698792,0.4107217490673065,XArbitraryZVertical,-0.4467362762973884,-0.2493348238448374,0.2418356160286326,0.8244842183844704,-0.1950717717409134,0.8572500944137573,-0.4765176773071289,0,0,0,-1,-1,4150.618543500001,unknown,2,2022-06-02T11:11:06.481+02:00,2022-06-02T10:17:13.754+02:00,759,1.666974,0,0,608.7687,0,0,2022-06-02T11:11:09.038+02:00,675853869.0380443,0,4.832031,101.3241,1,0.72
2022-06-02T11:11:10.650+02:00,1654161069.999778,53.22887945925186,10.39861958474889,40.46701,0,0.07,0,103.9230494294148,4,5,-9999,4154.787287875,-0.2576141357421875,0.7666168212890625,-0.16357421875,4154.782290875,0.3690772639185014,-0.365041391402307,-1.023089602399164,1.047581315040588,0.6941595077514648,0.7089548110961914,-0.1276582628488541,-0.08580726385116577,0.3532709181308746,XArbitraryZVertical,-0.4441778381878947,-0.2439189576107015,0.2446907457991688,0.8266413344827064,-0.1858945786952972,0.8537209630012512,-0.4864191710948944,0,0,0,-1,-1,4150.618543500001,unknown,2,2022-06-02T11:11:06.481+02:00,2022-06-02T10:17:13.754+02:00,759,1.666974,0,0,608.7687,0,0,2022-06-02T11:11:09.038+02:00,675853869.0380443,0,4.832031,101.3241,1,0.72
2022-06-02T11:11:10.660+02:00,1654161069.999778,53.22887945925186,10.39861958474889,40.46701,0,0.07,0,103.9230494294148,4,5,-9999,4154.797281875,-0.1651763916015625,0.7942657470703125,-0.2008209228515625,4154.792284875,0.3890940074741307,-0.3405736325036666,-1.014618899619228,1.296862244606018,0.779540479183197,0.6853312849998474,-0.08126625418663025,-0.08266264200210571,0.3340460062026978,XArbitraryZVertical,-0.441132789704104,-0.2378901399066075,0.2473076884997326,0.8292461020463697,-0.1763478815555573,0.8492794036865234,-0.4976202845573425,0,0,0,-1,-1,4150.618543500001,unknown,2,2022-06-02T11:11:06.481+02:00,2022-06-02T10:17:13.754+02:00,759,1.666974,0,0,608.7687,0,0,2022-06-02T11:11:09.038+02:00,675853869.0380443,0,4.832031,101.3241,1,0.72
2022-06-02T11:11:10.670+02:00,1654161069.999778,53.22887945925186,10.39861958474889,40.46701,0,0.07,0,103.9230494294148,4,5,-9999,4154.807275875,-0.08154296875,0.85931396484375,-0.2733001708984375,4154.802278875,0.4108962085657275,-0.314327382352843,-1.002734671019188,1.71521520614624,0.7607288360595703,0.765350341796875,0.001160457730293274,-0.04867982864379883,0.3108184933662415,XArbitraryZVertical,-0.43671767827235,-0.2312097300771839,0.2503374593945143,0.8325567167714947,-0.1663368344306946,0.842945396900177,-0.5116394758224487,0,0,0,-1,-1,4150.618543500001,unknown,2,2022-06-02T11:11:06.481+02:00,2022-06-02T10:17:13.754+02:00,759,1.666974,0,0,608.7687,0,0,2022-06-02T11:11:09.038+02:00,675853869.0380443,0,4.832031,101.3241,1,0.72
2022-06-02T11:11:10.680+02:00,1654161069.999778,53.22887945925186,10.39861958474889,40.46701,0,0.07,0,103.9230494294148,4,5,-9999,4154.817269875,-0.027099609375,0.9035491943359375,-0.3368072509765625,4154.812272875,0.4364584516763799,-0.2857593322174078,-0.9862418328195448,2.274175405502319,0.6666393876075745,0.9348946213722229,0.07400962710380554,0.02535593509674072,0.2561498284339905,XArbitraryZVertical,-0.4302850271571387,-0.2238966791599647,0.2545712623658915,0.8366113684514532,-0.1555526107549667,0.8339580297470093,-0.5294501185417175,0,0,0,-1,-1,4150.618543500001,unknown,2,2022-06-02T11:11:06.481+02:00,2022-06-02T10:17:13.754+02:00,759,1.666974,0,0,608.7687,0,0,2022-06-02T11:11:09.038+02:00,675853869.0380443,0,4.832031,101.3241,1,0.72
2022-06-02T11:11:10.691+02:00,1654161069.999778,53.22887945925186,10.39861958474889,40.46701,0,0.07,0,103.9230494294148,4,5,-9999,4154.827263875,-0.02142333984375,0.8581390380859375,-0.3685455322265625,4154.822266875,0.4663353807893747,-0.2547152824414916,-0.9641535778289597,2.875741958618164,0.5923560857772827,1.110384225845337,0.1165515631437302,0.08198243379592896,0.2149105072021484,XArbitraryZVertical,-0.4214179432195989,-0.2157498169904359,0.260362081245809,0.8414692867011747,-0.1436511874198914,0.821566641330719,-0.5517178773880005,0,0,0,-1,-1,4150.618543500001,unknown,2,2022-06-02T11:11:06.481+02:00,2022-06-02T10:17:13.754+02:00,759,1.666974,0,0,608.7687,0,0,2022-06-02T11:11:09.038+02:00,675853869.0380443,0,4.832031,101.3241,1,0.72
2022-06-02T11:11:10.700+02:00,1654161069.999778,53.22887945925186,10.39861958474889,40.46701,0,0.07,0,103.9230494294148,4,5,-9999,4154.837257875,-0.0482330322265625,0.756011962890625,-0.4127197265625,4154.832260875,0.4985932644424628,-0.2228356559795062,-0.9363425022225459,3.399488210678101,0.5373855233192444,1.21140718460083,0.1095693409442902,0.05274337530136108,0.2095364928245544,XArbitraryZVertical,-0.4101129786467073,-0.2068001738795307,0.2674314852003796,0.8470663405636293,-0.1309926807880402,0.8053955435752869,-0.5780820846557617,0,0,0,-1,-1,4150.618543500001,unknown,2,2022-06-02T11:11:06.481+02:00,2022-06-02T10:17:13.754+02:00,759,1.666974,0,0,608.7687,0,0,2022-06-02T11:11:09.038+02:00,675853869.0380443,0,4.832031,101.3241,1,0.72
2022-06-02T11:11:10.710+02:00,1654161069.999778,53.22887945925186,10.39861958474889,40.46701,0,0.07,0,103.9230494294148,4,5,-9999,4154.847251875,-0.079071044921875,0.6476287841796875,-0.477783203125,4154.842254875,0.5306983713775123,-0.1918578722712584,-0.9034892457009175,3.82900071144104,0.5545076131820679,1.22844672203064,0.06977552175521851,-0.0294792652130127,0.1947978734970093,XArbitraryZVertical,-0.396721965847976,-0.197111243585533,0.2752035747608193,0.8532419518728496,-0.1180085614323616,0.7854911088943481,-0.6075176596641541,0,0,0,-1,-1,4150.618543500001,unknown,2,2022-06-02T11:11:06.481+02:00,2022-06-02T10:17:13.754+02:00,759,1.666974,0,0,608.7687,0,0,2022-06-02T11:11:09.038+02:00,675853869.0380443,0,4.832031,101.3241,1,0.72
2022-06-02T11:11:10.720+02:00,1654161069.999778,53.22887945925186,10.39861958474889,40.46701,0,0.07,0,103.9230494294148,4,5,-9999,4154.857245875,-0.0888671875,0.5786285400390625,-0.5259857177734375,4154.852248875,0.5600994554553598,-0.163210687781852,-0.8658460508805137,4.229123115539551,0.6185553073883057,1.09273624420166,0.02621988952159882,-0.1140151023864746,0.161601185798645,XArbitraryZVertical,-0.3813878933094042,-0.1866843937737166,0.2829337477001855,0.860023554605698,-0.1052909418940544,0.7616437673568726,-0.6393844485282898,0,0,0,-1,-1,4150.618543500001,unknown,2,2022-06-02T11:11:06.481+02:00,2022-06-02T10:17:13.754+02:00,759,1.666974,0,0,608.7687,0,0,2022-06-02T11:11:09.038+02:00,675853869.0380443,0,4.832031,101.3241,1,0.72
2022-06-02T11:11:10.730+02:00,1654161069.999778,53.22887945925186,10.39861958474889,40.46701,0,0.07,0,103.9230494294148,4,5,-9999,4154.867239875,-0.055572509765625,0.5577392578125,-0.5819549560546875,4154.862242875,0.5846294448153875,-0.1384839514504691,-0.8240020218838879,4.504613876342773,0.6449254751205444,0.8639875054359436,0.004903122782707214,-0.1552417874336243,0.1468006372451782,XArbitraryZVertical,-0.364268635187857,-0.1758270269100015,0.289953235133626,0.8673640000431579,-0.09377032518386841,0.7338702082633972,-0.6727864146232605,0,0,0,-1,-1,4150.618543500001,unknown,2,2022-06-02T11:11:06.481+02:00,2022-06-02T10:17:13.754+02:00,759,1.666974,0,0,608.7687,0,0,2022-06-02T11:11:09.038+02:00,675853869.0380443,0,4.832031,101.3241,1,0.72
2022-06-02T11:11:10.740+02:00,1654161069.999778,53.22887945925186,10.39861958474889,40.46701,0,0.07,0,103.9230494294148,4,5,-9999,4154.877233875,0.005767822265625,0.551025390625,-0.6264495849609375,4154.872236875,0.6036951151222,-0.1183196496212481,-0.780406259517453,4.43278169631958,0.6448114514350891,0.6620631814002991,0.02831265330314636,-0.1458290219306946,0.1237042546272278,XArbitraryZVertical,-0.3462878927580851,-0.1650910703897747,0.2959305101148512,0.8747883190041322,-0.08388517796993256,0.703568160533905,-0.7056592702865601,0,0,0,-1,-1,4150.618543500001,unknown,2,2022-06-02T11:11:06.481+02:00,2022-06-02T10:17:13.754+02:00,759,1.666974,0,0,608.7687,0,0,2022-06-02T11:11:09.038+02:00,675853869.0380443,0,4.832031,101.3241,1,0.72
2022-06-02T11:11:10.750+02:00,1654161069.999778,53.22887945925186,10.39861958474889,40.46701,0,0.07,0,103.9230494294148,4,5,-9999,4154.887227875,0.0765533447265625,0.550872802734375,-0.679534912109375,4154.882230875,0.6183587413963278,-0.1019852397554217,-0.7387110577384706,4.064666271209717,0.5925071835517883,0.5463755130767822,0.08103863894939423,-0.1223102211952209,0.1090458631515503,XArbitraryZVertical,-0.3289862410026454,-0.1549848494615737,0.3009163734611873,0.8815878575733088,-0.07527083158493042,0.6733354926109314,-0.7354955077171326,0,0,0,-1,-1,4150.618543500001,unknown,2,2022-06-02T11:11:06.481+02:00,2022-06-02T10:17:13.754+02:00,759,1.666974,0,0,608.7687,0,0,2022-06-02T11:11:09.038+02:00,675853869.0380443,0,4.832031,101.3241,1,0.72
2022-06-02T11:11:10.761+02:00,1654161069.999778,53.22887945925186,10.39861958474889,40.46701,0,0.07,0,103.9230494294148,4,5,-9999,4154.897221875,0.1448211669921875,0.5611724853515625,-0.7146148681640625,4154.892224875,0.6303482842401816,-0.08864391076963375,-0.7013760667774307,3.530812978744507,0.4915233254432678,0.5576369762420654,0.1441846489906311,-0.09439682960510254,0.08142048120498657,XArbitraryZVertical,-0.3134025569354009,-0.1459490087403431,0.3053013656383515,0.8872816689364756,-0.0676313042640686,0.6452695727348328,-0.7609554529190063,0,0,0,-1,-1,4150.618543500001,unknown,2,2022-06-02T11:11:06.481+02:00,2022-06-02T10:17:13.754+02:00,759,1.666974,0,0,608.7687,0,0,2022-06-02T11:11:09.038+02:00,675853869.0380443,0,4.832031,101.3241,1,0.72
2022-06-02T11:11:10.770+02:00,1654161069.999778,53.22887945925186,10.39861958474889,40.46701,0,0.07,0,103.9230494294148,4,5,-9999,4154.907215875,0.1763458251953125,0.5503997802734375,-0.7650604248046875,4154.902218875,0.6416472630229596,-0.07695719956565879,-0.669399671108898,2.990140676498413,0.4212152063846588,0.6596814393997192,0.2051109969615936,-0.05934298038482666,0.06725835800170898,XArbitraryZVertical,-0.3000363092832047,-0.1379912308475069,0.3096206041209478,0.8916678603579079,-0.06028984487056732,0.6205153465270996,-0.7818732857704163,0,0,0,-1,-1,4150.618543500001,unknown,2,2022-06-02T11:11:06.481+02:00,2022-06-02T10:17:13.754+02:00,759,1.666974,0,0,608.7687,0,0,2022-06-02T11:11:09.038+02:00,675853869.0380443,0,4.832031,101.3241,1,0.72
2022-06-02T11:11:10.780+02:00,1654161069.999778,53.22887945925186,10.39861958474889,40.46701,0,0.07,0,103.9230494294148,4,5,-9999,4154.917209875,0.1629791259765625,0.52410888671875,-0.798370361328125,4154.912212875,0.6531474045579161,-0.06589318374326153,-0.6425752549651874,2.499718904495239,0.3926781117916107,0.7692622542381287,0.2290587723255157,-0.0488593578338623,0.03375732898712158,XArbitraryZVertical,-0.2889092955017964,-0.1308530509861505,0.3140715753160616,0.8948563099491645,-0.05271296203136444,0.599259078502655,-0.7988178133964539,0,0,0,-1,-1,4150.618543500001,unknown,2,2022-06-02T11:11:06.481+02:00,2022-06-02T10:17:13.754+02:00,759,1.666974,0,0,608.7687,0,0,2022-06-02T11:11:09.038+02:00,675853869.0380443,0,4.832031,101.3241,1,0.72
2022-06-02T11:11:10.790+02:00,1654161069.999778,53.22887945925186,10.39861958474889,40.46701,0,0.07,0,103.9230494294148,4,5,-9999,4154.927203875,0.1352386474609375,0.5242767333984375,-0.819793701171875,4154.922206875,0.6647993309174018,-0.05495303822771802,-0.619959540562104,2.164463758468628,0.4281535446643829,0.8251423239707947,0.2076829969882965,-0.05689346790313721,0.01430296897888184,XArbitraryZVertical,-0.2796957812359185,-0.1242320869794509,0.3185645158822738,0.8971360945953381,-0.04470387473702431,0.5810022354125977,-0.8126733303070068,0,0,0,-1,-1,4150.618543500001,unknown,2,2022-06-02T11:11:06.481+02:00,2022-06-02T10:17:13.754+02:00,759,1.666974,0,0,608.7687,0,0,2022-06-02T11:11:09.038+02:00,675853869.0380443,0,4.832031,101.3241,1,0.72
2022-06-02T11:11:10.800+02:00,1654161069.999778,53.22887945925186,10.39861958474889,40.46701,0,0.07,0,103.9230494294148,4,5,-9999,4154.937197875,0.12939453125,0.6043853759765625,-0.82318115234375,4154.932200875,0.6762903365780901,-0.04359535504002511,-0.5992524071807737,2.054373502731323,0.5342432260513306,0.8598491549491882,0.1712264120578766,-0.0397486686706543,0.005179166793823242,XArbitraryZVertical,-0.271473949618554,-0.1175391409114399,0.3229516982210248,0.8989930176388556,-0.03598778694868088,0.5640252828598022,-0.8249728679656982,0,0,0,-1,-1,4150.618543500001,unknown,2,2022-06-02T11:11:06.481+02:00,2022-06-02T10:17:13.754+02:00,759,1.666974,0,0,608.7687,0,0,2022-06-02T11:11:09.038+02:00,675853869.0380443,0,4.832031,101.3241,1,0.72
