loggingTime(txt),locationTimestamp_since1970(s),locationLatitude(WGS84),locationLongitude(WGS84),locationAltitude(m),locationSpeed(m/s),locationSpeedAccuracy(m/s),locationCourse(°),locationCourseAccuracy(°),locationVerticalAccuracy(m),locationHorizontalAccuracy(m),locationFloor(Z),accelerometerTimestamp_sinceReboot(s),accelerometerAccelerationX(G),accelerometerAccelerationY(G),accelerometerAccelerationZ(G),motionTimestamp_sinceReboot(s),motionYaw(rad),motionRoll(rad),motionPitch(rad),motionRotationRateX(rad/s),motionRotationRateY(rad/s),motionRotationRateZ(rad/s),motionUserAccelerationX(G),motionUserAccelerationY(G),motionUserAccelerationZ(G),motionAttitudeReferenceFrame(txt),motionQuaternionX(R),motionQuaternionY(R),motionQuaternionZ(R),motionQuaternionW(R),motionGravityX(G),motionGravityY(G),motionGravityZ(G),motionMagneticFieldX(µT),motionMagneticFieldY(µT),motionMagneticFieldZ(µT),motionHeading(°),motionMagneticFieldCalibrationAccuracy(Z),activityTimestamp_sinceReboot(s),activity(txt),activityActivityConfidence(Z),activityActivityStartDate(txt),pedometerStartDate(txt),pedometerNumberofSteps(N),pedometerAverageActivePace(s/m),pedometerCurrentPace(s/m),pedometerCurrentCadence(steps/s),pedometerDistance(m),pedometerFloorAscended(N),pedometerFloorDescended(N),pedometerEndDate(txt),altimeterTimestamp_sinceReboot(s),altimeterReset(bool),altimeterRelativeAltitude(m),altimeterPressure(kPa),batteryState(N),batteryLevel(R)
2022-06-02T10:54:26.343+02:00,1654160064.863409,53.22866137252311,10.3982896408892,42.6418,-1,-1,-1,-1,29.29669761657715,52.3311376,-9999,3206.467493666667,-0.0448455810546875,-0.364990234375,-0.967193603515625,3206.462496666667,0.431460162432691,-0.0560261394605915,0.3535633650383756,0.1522196680307388,0.143139123916626,-0.05464626848697662,-0.05815410986542702,0.03459745645523071,-0.03126835823059082,XArbitraryZVertical,0.1776207939650702,0.01069669877762546,0.205830181192571,0.9622734386731749,-0.05253314226865768,-0.3462429642677307,-0.9366728663444519,0,0,0,-1,-1,3195.42122025,walking,2,2022-06-02T10:54:11.328+02:00,2022-06-02T10:17:13.754+02:00,521,1.585522,0,0,405.4342,0,0,2022-06-02T10:54:24.090+02:00,675852833.4527588,0,5.710938,101.3132,1,0.78
2022-06-02T10:54:26.349+02:00,1654160064.863409,53.22866137252311,10.3982896408892,42.6418,-1,-1,-1,-1,29.29669761657715,52.3311376,-9999,3206.477487666667,-0.006927490234375,-0.3250732421875,-0.9263916015625,3206.472490666667,0.4307333786912575,-0.05340769820740059,0.3549820826882164,0.05513092875480652,0.1555212289094925,-0.04163805767893791,0.005208484828472137,-0.01741668581962585,-0.03087782859802246,XArbitraryZVertical,0.1780366628372259,0.01204449487940462,0.2056679359165139,0.9622153853410178,-0.05005406960844994,-0.3475735783576965,-0.9363157749176025,0,0,0,-1,-1,3195.42122025,walking,2,2022-06-02T10:54:11.328+02:00,2022-06-02T10:17:13.754+02:00,521,1.585522,0,0,405.4342,0,0,2022-06-02T10:54:24.090+02:00,675852833.4527588,0,5.710938,101.3132,1,0.78
2022-06-02T10:54:26.361+02:00,1654160064.863409,53.22866137252311,10.3982896408892,42.6418,-1,-1,-1,-1,29.29669761657715,52.3311376,-9999,3206.487481666667,-0.0030364990234375,-0.2832794189453125,-0.8963775634765625,3206.482484666667,0.4299171944319441,-0.05116569908373464,0.3559122607955398,0.06692720204591751,0.1296918839216232,-0.08276671916246414,0.04101068153977394,0.0233723521232605,0.009710788726806641,XArbitraryZVertical,0.178257965927072,0.01315023240392502,0.2054457234598642,0.9622074357500389,-0.04793817177414894,-0.3484455943107605,-0.9361023306846619,0,0,0,-1,-1,3195.42122025,walking,2,2022-06-02T10:54:11.328+02:00,2022-06-02T10:17:13.754+02:00,521,1.585522,0,0,405.4342,0,0,2022-06-02T10:54:24.090+02:00,675852833.4527588,0,5.710938,101.3132,1,0.78
2022-06-02T10:54:26.364+02:00,1654160064.863409,53.22866137252311,10.3982896408892,42.6418,-1,-1,-1,-1,29.29669761657715,52.3311376,-9999,3206.497474666667,-0.014434814453125,-0.2666778564453125,-0.8817596435546875,3206.492477666667,0.4289792935006358,-0.04970265343586304,0.3569106659707619,0.1142052337527275,0.09034394472837448,-0.09727988392114639,0.04351475089788437,0.06610181927680969,0.03944599628448486,XArbitraryZVertical,0.1785935409844466,0.01387727420127501,0.2050940763134116,0.9622099532763192,-0.04655125364661217,-0.3493812680244446,-0.9358235597610474,0,0,0,-1,-1,3195.42122025,walking,2,2022-06-02T10:54:11.328+02:00,2022-06-02T10:17:13.754+02:00,521,1.585522,0,0,405.4342,0,0,2022-06-02T10:54:24.090+02:00,675852833.4527588,0,5.710938,101.3132,1,0.78
2022-06-02T10:54:26.366+02:00,1654160064.863409,53.22866137252311,10.3982896408892,42.6418,-1,-1,-1,-1,29.29669761657715,52.3311376,-9999,3206.507468666667,-0.0276031494140625,-0.286041259765625,-0.88983154296875,3206.502471666667,0.4280597586375858,-0.0486867701160428,0.3578891249627134,0.09645413607358932,0.06448958069086075,-0.0925302654504776,0.03114906698465347,0.08362001180648804,0.0537688136100769,XArbitraryZVertical,0.1789657797321756,0.01438824255929229,0.2047124237128996,0.9622146344685522,-0.04558388143777847,-0.3502978980541229,-0.9355284571647644,0,0,0,-1,-1,3195.42122025,walking,2,2022-06-02T10:54:11.328+02:00,2022-06-02T10:17:13.754+02:00,521,1.585522,0,0,405.4342,0,0,2022-06-02T10:54:24.090+02:00,675852833.4527588,0,5.710938,101.3132,1,0.78
2022-06-02T10:54:26.368+02:00,1654160064.863409,53.22866137252311,10.3982896408892,42.6418,-1,-1,-1,-1,29.29669761657715,52.3311376,-9999,3206.517462666667,-0.0220184326171875,-0.2972412109375,-0.907928466796875,3206.512465666667,0.427252756380699,-0.04786803816810043,0.3585122210945559,0.01922459527850151,0.05315462872385979,-0.06601929664611816,0.01720431819558144,0.06484019756317139,0.04551577568054199,XArbitraryZVertical,0.1791871484126575,0.01477623552308647,0.2043784747406172,0.9622385044279615,-0.04480746760964394,-0.350881427526474,-0.9353472590446472,0,0,0,-1,-1,3195.42122025,walking,2,2022-06-02T10:54:11.328+02:00,2022-06-02T10:17:13.754+02:00,521,1.585522,0,0,405.4342,0,0,2022-06-02T10:54:24.090+02:00,675852833.4527588,0,5.710938,101.3132,1,0.78
2022-06-02T10:54:26.370+02:00,1654160064.863409,53.22866137252311,10.3982896408892,42.6418,-1,-1,-1,-1,29.29669761657715,52.3311376,-9999,3206.527456666667,-0.01324462890625,-0.3013458251953125,-0.9015960693359375,3206.522459666667,0.4267341286624537,-0.04722367613851611,0.3576525663203593,-0.1179073229432106,0.04067472741007805,-0.03197364509105682,0.02220054715871811,0.05283507704734802,0.0277484655380249,XArbitraryZVertical,0.178712323489549,0.01494849373234866,0.2042126235764495,0.9623593941682198,-0.04421897977590561,-0.3500763177871704,-0.9356768727302551,0,0,0,-1,-1,3195.42122025,walking,2,2022-06-02T10:54:11.328+02:00,2022-06-02T10:17:13.754+02:00,521,1.585522,0,0,405.4342,0,0,2022-06-02T10:54:24.090+02:00,675852833.4527588,0,5.710938,101.3132,1,0.78
2022-06-02T10:54:26.375+02:00,1654160064.863409,53.22866137252311,10.3982896408892,42.6418,-1,-1,-1,-1,29.29669761657715,52.3311376,-9999,3206.537450666667,-0.010772705078125,-0.30523681640625,-0.8863372802734375,3206.532453666667,0.4265610566459894,-0.04718730491310284,0.3554198796158972,-0.2342150211334229,0.02241316251456738,-0.01411475334316492,0.03097707033157349,0.04663819074630737,0.03486084938049316,XArbitraryZVertical,0.1776374356095127,0.01471348316467559,0.2041998172603503,0.9625647063399688,-0.04422170296311378,-0.3479840457439423,-0.9364569187164307,0,0,0,-1,-1,3195.42122025,walking,2,2022-06-02T10:54:11.328+02:00,2022-06-02T10:17:13.754+02:00,521,1.585522,0,0,405.4342,0,0,2022-06-02T10:54:24.090+02:00,675852833.4527588,0,5.710938,101.3132,1,0.78
2022-06-02T10:54:26.382+02:00,1654160064.863409,53.22866137252311,10.3982896408892,42.6418,-1,-1,-1,-1,29.29669761657715,52.3311376,-9999,3206.547444666667,-0.011505126953125,-0.309295654296875,-0.877227783203125,3206.542447666667,0.4264397776130281,-0.04734825353932098,0.3526041509014628,-0.2804608047008514,0.00308640394359827,-0.007598065305501223,0.03364591673016548,0.04010608792304993,0.05108755826950073,XArbitraryZVertical,0.1763018863665058,0.01432633137201277,0.2042116508568106,0.9628135856237394,-0.04441862553358078,-0.3453429043292999,-0.9374247789382935,0,0,0,-1,-1,3195.42122025,walking,2,2022-06-02T10:54:11.328+02:00,2022-06-02T10:17:13.754+02:00,521,1.585522,0,0,405.4342,0,0,2022-06-02T10:54:24.090+02:00,675852833.4527588,0,5.710938,101.3132,1,0.78
2022-06-02T10:54:26.392+02:00,1654160064.863409,53.22866137252311,10.3982896408892,42.6418,-1,-1,-1,-1,29.29669761657715,52.3311376,-9999,3206.557438666667,-0.018768310546875,-0.3018798828125,-0.895477294921875,3206.552441666667,0.4263632975695696,-0.04736969052020423,0.3498555827795279,-0.2768996357917786,-0.0158260352909565,0.02100455015897751,0.03297837823629379,0.03346648812294006,0.06114071607589722,XArbitraryZVertical,0.1749836884439148,0.01401750976310622,0.2042550559976837,0.9630493299058372,-0.0444834977388382,-0.3427621424198151,-0.9383684396743774,0,0,0,-1,-1,3195.42122025,walking,2,2022-06-02T10:54:11.328+02:00,2022-06-02T10:17:13.754+02:00,521,1.585522,0,0,405.4342,0,0,2022-06-02T10:54:24.090+02:00,675852833.4527588,0,5.710938,101.3132,1,0.78
2022-06-02T10:54:26.409+02:00,1654160064.863409,53.22866137252311,10.3982896408892,42.6418,-1,-1,-1,-1,29.29669761657715,52.3311376,-9999,3206.567432666667,-0.0318145751953125,-0.3162994384765625,-0.9271087646484375,3206.562435666667,0.4263880969159215,-0.04716595383688155,0.3470341127721503,-0.2616707980632782,-0.01546830497682095,0.037544846534729,0.02556942403316498,0.03823032975196838,0.04386246204376221,XArbitraryZVertical,0.1736063775506668,0.01381825961075348,0.2043685663723468,0.9632773829159756,-0.04433773830533028,-0.3401102423667908,-0.9393397569656372,0,0,0,-1,-1,3195.42122025,walking,2,2022-06-02T10:54:11.328+02:00,2022-06-02T10:17:13.754+02:00,521,1.585522,0,0,405.4342,0,0,2022-06-02T10:54:24.090+02:00,675852833.4527588,0,5.710938,101.3132,1,0.78
2022-06-02T10:54:26.412+02:00,1654160064.863409,53.22866137252311,10.3982896408892,42.6418,-1,-1,-1,-1,29.29669761657715,52.3311376,-9999,3206.577426666667,-0.0279693603515625,-0.33221435546875,-0.9516754150390625,3206.572429666667,0.4264650144173908,-0.04672306783103091,0.3441523787228589,-0.2325861752033234,0.002075534546747804,0.03867455571889877,0.01215273886919022,0.02109944820404053,0.01322567462921143,XArbitraryZVertical,0.17217490621221,0.01373228920661641,0.204528856539543,0.9635015600021889,-0.04396731033921242,-0.337398886680603,-0.9403344392776489,0,0,0,-1,-1,3195.42122025,walking,2,2022-06-02T10:54:11.328+02:00,2022-06-02T10:17:13.754+02:00,521,1.585522,0,0,405.4342,0,0,2022-06-02T10:54:24.090+02:00,675852833.4527588,0,5.710938,101.3132,1,0.78
2022-06-02T10:54:26.423+02:00,1654160064.863409,53.22866137252311,10.3982896408892,42.6418,-1,-1,-1,-1,29.29669761657715,52.3311376,-9999,3206.587420666667,-0.01123046875,-0.347320556640625,-0.9621124267578125,3206.582423666667,0.4266484358370272,-0.04621877379739201,0.3411683502693108,-0.2102358937263489,0.008312058635056019,0.05158562585711479,0.01557005941867828,0.002373963594436646,-0.01031738519668579,XArbitraryZVertical,0.1706868427978584,0.01367411334012257,0.204747680241227,0.9637205791067771,-0.04353941977024078,-0.3345883190631866,-0.9413580298423767,0,0,0,-1,-1,3195.42122025,walking,2,2022-06-02T10:54:11.328+02:00,2022-06-02T10:17:13.754+02:00,521,1.585522,0,0,405.4342,0,0,2022-06-02T10:54:24.090+02:00,675852833.4527588,0,5.710938,101.3132,1,0.78
2022-06-02T10:54:26.432+02:00,1654160064.863409,53.22866137252311,10.3982896408892,42.6418,-1,-1,-1,-1,29.29669761657715,52.3311376,-9999,3206.597414666667,0.0054779052734375,-0.3533477783203125,-0.9647979736328125,3206.592417666667,0.4268839652374287,-0.0459130573084481,0.338721130389367,-0.1727146208286285,0.01236698776483536,0.02709759771823883,0.03205861523747444,-0.01503938436508179,-0.01992595195770264,XArbitraryZVertical,0.1694766269004352,0.01358149380857314,0.2049581521408572,0.9638906842017103,-0.04328908026218414,-0.3322811722755432,-0.9421864151954651,0,0,0,-1,-1,3195.42122025,walking,2,2022-06-02T10:54:11.328+02:00,2022-06-02T10:17:13.754+02:00,521,1.585522,0,0,405.4342,0,0,2022-06-02T10:54:24.090+02:00,675852833.4527588,0,5.710938,101.3132,1,0.78
2022-06-02T10:54:26.442+02:00,1654160064.863409,53.22866137252311,10.3982896408892,42.6418,-1,-1,-1,-1,29.29669761657715,52.3311376,-9999,3206.607408666667,0.009307861328125,-0.3529052734375,-0.97308349609375,3206.602411666667,0.4267907043475074,-0.04535716529862967,0.3366977937613295,-0.1442382335662842,-0.007541739381849766,0.00468097161501646,0.04827362671494484,-0.02297565340995789,-0.02191787958145142,XArbitraryZVertical,0.1684467027084345,0.01362658379572471,0.2050183971686552,0.9640577798105552,-0.04279571771621704,-0.3303720951080322,-0.9428800344467163,0,0,0,-1,-1,3195.42122025,walking,2,2022-06-02T10:54:11.328+02:00,2022-06-02T10:17:13.754+02:00,521,1.585522,0,0,405.4342,0,0,2022-06-02T10:54:24.090+02:00,675852833.4527588,0,5.710938,101.3132,1,0.78
2022-06-02T10:54:26.453+02:00,1654160064.863409,53.22866137252311,10.3982896408892,42.6418,-1,-1,-1,-1,29.29669761657715,52.3311376,-9999,3206.617402666667,-0.0057373046875,-0.3519439697265625,-0.980987548828125,3206.612405666667,0.426381262891791,-0.04464741159993611,0.335220624916087,-0.0976659432053566,-0.03361595049500465,-0.01773698627948761,0.05145609378814697,-0.02392774820327759,-0.02968680858612061,XArbitraryZVertical,0.1676658620068388,0.01377751591911126,0.2049228167536809,0.9642119859880462,-0.04214822873473167,-0.3289775252342224,-0.9433966875076294,0,0,0,-1,-1,3195.42122025,walking,2,2022-06-02T10:54:11.328+02:00,2022-06-02T10:17:13.754+02:00,521,1.585522,0,0,405.4342,0,0,2022-06-02T10:54:24.090+02:00,675852833.4527588,0,5.710938,101.3132,1,0.78
2022-06-02T10:54:26.462+02:00,1654160064.863409,53.22866137252311,10.3982896408892,42.6418,-1,-1,-1,-1,29.29669761657715,52.3311376,-9999,3206.627396666667,-0.0257720947265625,-0.345611572265625,-0.9803009033203125,3206.622399666667,0.4257841936079097,-0.04403766867068234,0.3343805694388524,-0.0697743222117424,-0.03342220559716225,-0.03309370577335358,0.03584784269332886,-0.0237598717212677,-0.03728955984115601,XArbitraryZVertical,0.1672031667415841,0.0139324371650232,0.2047097355331463,0.9643355011136894,-0.04158514365553856,-0.3281840980052948,-0.943697988986969,0,0,0,-1,-1,3195.42122025,walking,2,2022-06-02T10:54:11.328+02:00,2022-06-02T10:17:13.754+02:00,521,1.585522,0,0,405.4342,0,0,2022-06-02T10:54:24.090+02:00,675852833.4527588,0,5.710938,101.3132,1,0.78
2022-06-02T10:54:26.472+02:00,1654160064.863409,53.22866137252311,10.3982896408892,42.6418,-1,-1,-1,-1,29.29669761657715,52.3311376,-9999,3206.637390666667,-0.0259857177734375,-0.34332275390625,-0.980712890625,3206.632393666667,0.4251939595064955,-0.04342428261763466,0.333984804977801,-0.04822828248143196,-0.01784883812069893,-0.02783822268247604,0.01523982733488083,-0.01780137419700623,-0.03644788265228271,XArbitraryZVertical,0.1669540266127696,0.01413700293339169,0.204487486092965,0.9644228597750107,-0.04101192206144333,-0.3278102278709412,-0.9438530206680298,0,0,0,-1,-1,3195.42122025,walking,2,2022-06-02T10:54:11.328+02:00,2022-06-02T10:17:13.754+02:00,521,1.585522,0,0,405.4342,0,0,2022-06-02T10:54:24.090+02:00,675852833.4527588,0,5.710938,101.3132,1,0.78
2022-06-02T10:54:26.482+02:00,1654160064.863409,53.22866137252311,10.3982896408892,42.6418,-1,-1,-1,-1,29.29669761657715,52.3311376,-9999,3206.647384666667,-0.0172576904296875,-0.33624267578125,-0.9733123779296875,3206.642387666667,0.4247633789050974,-0.04297759741078713,0.3333607204260435,-0.05640917643904686,-0.005461810622364283,-0.01911250874400139,0.01461337879300117,-0.01610216498374939,-0.03663742542266846,XArbitraryZVertical,0.1666109608446943,0.01425053769878337,0.2043345340523935,0.9645128408903813,-0.04059909284114838,-0.3272205889225006,-0.9440754055976868,0,0,0,-1,-1,3195.42122025,walking,2,2022-06-02T10:54:11.328+02:00,2022-06-02T10:17:13.754+02:00,521,1.585522,0,0,405.4342,0,0,2022-06-02T10:54:24.090+02:00,675852833.4527588,0,5.710938,101.3132,1,0.78
2022-06-02T10:54:26.492+02:00,1654160064.863409,53.22866137252311,10.3982896408892,42.6418,-1,-1,-1,-1,29.29669761657715,52.3311376,-9999,3206.657378666667,-0.0151824951171875,-0.32763671875,-0.9820098876953125,3206.652381666667,0.424514619277514,-0.04282626247472558,0.3327066374473288,-0.06206733360886574,-0.009632054716348648,-0.01222211122512817,0.02320769056677818,-0.009640246629714966,-0.02901715040206909,XArbitraryZVertical,0.1662823133478077,0.01423373435585052,0.2042453376423121,0.9645887098103388,-0.04046537727117538,-0.326602429151535,-0.9442951679229736,0,0,0,-1,-1,3195.42122025,walking,2,2022-06-02T10:54:11.328+02:00,2022-06-02T10:17:13.754+02:00,521,1.585522,0,0,405.4342,0,0,2022-06-02T10:54:24.090+02:00,675852833.4527588,0,5.710938,101.3132,1,0.78
2022-06-02T10:54:26.502+02:00,1654160064.863409,53.22866137252311,10.3982896408892,42.6418,-1,-1,-1,-1,29.29669761657715,52.3311376,-9999,3206.667372666667,-0.0257720947265625,-0.3166046142578125,-0.9913787841796875,3206.662375666667,0.4242658503221973,-0.04255912823483872,0.3320486628799971,-0.08866192400455475,-0.002871353644877672,-0.01055151131004095,0.02503976225852966,-0.001656264066696167,-0.03748941421508789,XArbitraryZVertical,0.1659399474291124,0.01427246126360883,0.2041657658116808,0.9646639578241603,-0.04022225365042686,-0.3259804546833038,-0.9445204734802246,0,0,0,-1,-1,3195.42122025,walking,2,2022-06-02T10:54:11.328+02:00,2022-06-02T10:17:13.754+02:00,521,1.585522,0,0,405.4342,0,0,2022-06-02T10:54:24.090+02:00,675852833.4527588,0,5.710938,101.3132,1,0.78
2022-06-02T10:54:26.512+02:00,1654160064.863409,53.22866137252311,10.3982896408892,42.6418,-1,-1,-1,-1,29.29669761657715,52.3311376,-9999,3206.677366666667,-0.0354156494140625,-0.3095245361328125,-1.0059814453125,3206.672369666667,0.4239232150272668,-0.04178111436221451,0.3314546044020666,-0.08239870518445969,0.01379763800650835,-0.003531418740749359,0.01372338458895683,0.008814215660095215,-0.04663395881652832,XArbitraryZVertical,0.1655769053216887,0.01455668902072919,0.204081338071419,0.9647399336363039,-0.03949547559022903,-0.3254188001155853,-0.9447447657585144,0,0,0,-1,-1,3195.42122025,walking,2,2022-06-02T10:54:11.328+02:00,2022-06-02T10:17:13.754+02:00,521,1.585522,0,0,405.4342,0,0,2022-06-02T10:54:24.090+02:00,675852833.4527588,0,5.710938,101.3132,1,0.78
2022-06-02T10:54:26.522+02:00,1654160064.863409,53.22866137252311,10.3982896408892,42.6418,-1,-1,-1,-1,29.29669761657715,52.3311376,-9999,3206.687360666667,-0.027984619140625,-0.2943267822265625,-1.007965087890625,3206.682363666667,0.4235804790632556,-0.04060566406318149,0.3311923112393309,-0.04319460690021515,0.0305216908454895,0.0006599314510822296,0.002972759306430817,0.01564621925354004,-0.06110560894012451,XArbitraryZVertical,0.1653331725922881,0.0150677158659102,0.2040203940216568,0.9647868212349341,-0.03838841244578362,-0.3251707851886749,-0.9448758363723755,0,0,0,-1,-1,3195.42122025,walking,2,2022-06-02T10:54:11.328+02:00,2022-06-02T10:17:13.754+02:00,521,1.585522,0,0,405.4342,0,0,2022-06-02T10:54:24.090+02:00,675852833.4527588,0,5.710938,101.3132,1,0.78
2022-06-02T10:54:26.532+02:00,1654160064.863409,53.22866137252311,10.3982896408892,42.6418,-1,-1,-1,-1,29.29669761657715,52.3311376,-9999,3206.697353666667,-0.0169677734375,-0.292388916015625,-1.013671875,3206.692357666667,0.4232586716049774,-0.03928464745233349,0.3314083166940898,0.01167982537299395,0.03926671296358109,-0.002141181379556656,0.009152799844741821,0.0310482382774353,-0.06310957670211792,XArbitraryZVertical,0.1653049529984076,0.0157010915697357,0.2039685228373906,0.9647925580552106,-0.03713742271065712,-0.3253750205039978,-0.9448555111885071,0,0,0,-1,-1,3195.42122025,walking,2,2022-06-02T10:54:11.328+02:00,2022-06-02T10:17:13.754+02:00,521,1.585522,0,0,405.4342,0,0,2022-06-02T10:54:24.090+02:00,675852833.4527588,0,5.710938,101.3132,1,0.78
2022-06-02T10:54:26.542+02:00,1654160064.863409,53.22866137252311,10.3982896408892,42.6418,-1,-1,-1,-1,29.29669761657715,52.3311376,-9999,3206.707347666667,-0.0028533935546875,-0.3000946044921875,-1.004791259765625,3206.702350666667,0.422960747924529,-0.0381626046473186,0.3319562411772438,0.03279703110456467,0.03392773866653442,-0.01494339667260647,0.01910264790058136,0.03350415825843811,-0.06895357370376587,XArbitraryZVertical,0.1654568779168882,0.01627530720691561,0.2039029907164266,0.9647707927180039,-0.03607042133808136,-0.3258931040763855,-0.9447183012962341,0,0,0,-1,-1,3195.42122025,walking,2,2022-06-02T10:54:11.328+02:00,2022-06-02T10:17:13.754+02:00,521,1.585522,0,0,405.4342,0,0,2022-06-02T10:54:24.090+02:00,675852833.4527588,0,5.710938,101.3132,1,0.78
2022-06-02T10:54:26.557+02:00,1654160064.863409,53.22866137252311,10.3982896408892,42.6418,-1,-1,-1,-1,29.29669761657715,52.3311376,-9999,3206.717341666667,-0.00018310546875,-0.3153533935546875,-0.995361328125,3206.712344666667,0.4227079685424019,-0.03753863168446461,0.3323707783296918,0.01346540823578835,0.02957107499241829,-0.02015680074691772,0.03262247145175934,0.02619034051895142,-0.06018573045730591,XArbitraryZVertical,0.1655950406566909,0.01659889923534305,0.2038217183075869,0.9647587836247041,-0.03547586500644684,-0.3262849748134613,-0.9446055293083191,0,0,0,-1,-1,3195.42122025,walking,2,2022-06-02T10:54:11.328+02:00,2022-06-02T10:17:13.754+02:00,521,1.585522,0,0,405.4342,0,0,2022-06-02T10:54:24.090+02:00,675852833.4527588,0,5.710938,101.3132,1,0.78
2022-06-02T10:54:26.562+02:00,1654160064.863409,53.22866137252311,10.3982896408892,42.6418,-1,-1,-1,-1,29.29669761657715,52.3311376,-9999,3206.727335666667,-0.00482177734375,-0.32183837890625,-0.9809722900390625,3206.722338666667,0.4224121635097414,-0.0370355349277537,0.3323427412685851,-0.03635834157466888,0.02198293060064316,-0.02308015152812004,0.03481786325573921,0.01090508699417114,-0.05072891712188721,XArbitraryZVertical,0.1655327638663084,0.01681416705345209,0.2037214310675877,0.9647868184947215,-0.03500096872448921,-0.3262584805488586,-0.944632351398468,0,0,0,-1,-1,3195.42122025,walking,2,2022-06-02T10:54:11.328+02:00,2022-06-02T10:17:13.754+02:00,521,1.585522,0,0,405.4342,0,0,2022-06-02T10:54:24.090+02:00,675852833.4527588,0,5.710938,101.3132,1,0.78
2022-06-02T10:54:26.572+02:00,1654160064.863409,53.22866137252311,10.3982896408892,42.6418,-1,-1,-1,-1,29.29669761657715,52.3311376,-9999,3206.737329666667,-0.01397705078125,-0.3250274658203125,-0.9747772216796875,3206.732332666667,0.4220250432296819,-0.03646309438139922,0.3317144817524351,-0.09649225324392319,0.02548125758767128,-0.02646449767053127,0.02964590489864349,0.003826141357421875,-0.03611534833908081,XArbitraryZVertical,0.1651750468549292,0.01699246561625296,0.2035984305379569,0.9648710597935689,-0.03446768224239349,-0.3256645202636719,-0.9448569416999817,0,0,0,-1,-1,3195.42122025,walking,2,2022-06-02T10:54:11.328+02:00,2022-06-02T10:17:13.754+02:00,521,1.585522,0,0,405.4342,0,0,2022-06-02T10:54:24.090+02:00,675852833.4527588,0,5.710938,101.3132,1,0.78
2022-06-02T10:54:26.582+02:00,1654160064.863409,53.22866137252311,10.3982896408892,42.6418,-1,-1,-1,-1,29.29669761657715,52.3311376,-9999,3206.747323666667,-0.0221405029296875,-0.3241119384765625,-0.95806884765625,3206.742326666667,0.4216474136973934,-0.03578830485428355,0.3303687727280979,-0.1575243473052979,0.03896370902657509,-0.01846322976052761,0.01986869797110558,-0.0006355941295623779,-0.02946013212203979,XArbitraryZVertical,0.1644611802650603,0.01714604152201305,0.2035067880785424,0.9650095201209553,-0.03384574502706528,-0.3243918716907501,-0.9453170895576477,0,0,0,-1,-1,3195.42122025,walking,2,2022-06-02T10:54:11.328+02:00,2022-06-02T10:17:13.754+02:00,521,1.585522,0,0,405.4342,0,0,2022-06-02T10:54:24.090+02:00,675852833.4527588,0,5.710938,101.3132,1,0.78
2022-06-02T10:54:26.592+02:00,1654160064.863409,53.22866137252311,10.3982896408892,42.6418,-1,-1,-1,-1,29.29669761657715,52.3311376,-9999,3206.757317666667,-0.0248870849609375,-0.3162994384765625,-0.9589996337890625,3206.752320666667,0.4213991579049313,-0.03521785190335735,0.3283939455439857,-0.1881006360054016,0.04393529891967773,-0.008523780852556229,0.01118847355246544,-0.001588702201843262,-0.01209419965744019,XArbitraryZVertical,0.1634535249181551,0.01719440861794594,0.2034845306127099,0.9651845178349744,-0.03332897275686264,-0.3225232064723969,-0.945974588394165,0,0,0,-1,-1,3195.42122025,walking,2,2022-06-02T10:54:11.328+02:00,2022-06-02T10:17:13.754+02:00,521,1.585522,0,0,405.4342,0,0,2022-06-02T10:54:24.090+02:00,675852833.4527588,0,5.710938,101.3132,1,0.78
2022-06-02T10:54:26.602+02:00,1654160064.863409,53.22866137252311,10.3982896408892,42.6418,-1,-1,-1,-1,29.29669761657715,52.3311376,-9999,3206.767311666667,-0.0258941650390625,-0.300628662109375,-0.9668731689453125,3206.762314666667,0.4212916731502145,-0.03474219811881255,0.3261579880735037,-0.184334397315979,0.04855109006166458,-0.002043777145445347,0.008016899228096008,0.004106462001800537,-0.01229089498519897,XArbitraryZVertical,0.1623282040475677,0.01718146626013873,0.2035283159786654,0.9653655438849238,-0.03290398046374321,-0.3204059302806854,-0.9467086791992188,0,0,0,-1,-1,3195.42122025,walking,2,2022-06-02T10:54:11.328+02:00,2022-06-02T10:17:13.754+02:00,521,1.585522,0,0,405.4342,0,0,2022-06-02T10:54:24.090+02:00,675852833.4527588,0,5.710938,101.3132,1,0.78
2022-06-02T10:54:26.612+02:00,1654160064.863409,53.22866137252311,10.3982896408892,42.6418,-1,-1,-1,-1,29.29669761657715,52.3311376,-9999,3206.777305666667,-0.02587890625,-0.3032684326171875,-0.963043212890625,3206.772308666667,0.421193586343995,-0.03423906823756563,0.324040037255162,-0.1331625580787659,0.03809844702482224,-0.0070553133264184,0.00655665248632431,0.01777026057243347,-0.01947194337844849,XArbitraryZVertical,0.1612566973830374,0.0171950734219823,0.2035751260538759,0.9655349391775766,-0.03245081752538681,-0.3183989226818085,-0.947401225566864,0,0,0,-1,-1,3195.42122025,walking,2,2022-06-02T10:54:11.328+02:00,2022-06-02T10:17:13.754+02:00,521,1.585522,0,0,405.4342,0,0,2022-06-02T10:54:24.090+02:00,675852833.4527588,0,5.710938,101.3132,1,0.78
2022-06-02T10:54:26.622+02:00,1654160064.863409,53.22866137252311,10.3982896408892,42.6418,-1,-1,-1,-1,29.29669761657715,52.3311376,-9999,3206.787299666667,-0.02984619140625,-0.3072357177734375,-0.9634246826171875,3206.782302666667,0.4209517136225643,-0.03366079020936004,0.3225174524323939,-0.06342580914497375,0.02550595998764038,-0.01863047666847706,0.006040323525667191,0.01368677616119385,-0.01513993740081787,XArbitraryZVertical,0.160465689668989,0.01729577803926391,0.2035429350238127,0.9656716962344269,-0.03191922977566719,-0.3169552087783813,-0.9479032158851624,0,0,0,-1,-1,3195.42122025,walking,2,2022-06-02T10:54:11.328+02:00,2022-06-02T10:17:13.754+02:00,521,1.585522,0,0,405.4342,0,0,2022-06-02T10:54:24.090+02:00,675852833.4527588,0,5.710938,101.3132,1,0.78
2022-06-02T10:54:26.632+02:00,1654160064.863409,53.22866137252311,10.3982896408892,42.6418,-1,-1,-1,-1,29.29669761657715,52.3311376,-9999,3206.797293666667,-0.0312652587890625,-0.3194732666015625,-0.9593353271484375,3206.792296666667,0.4204944010454956,-0.032954287530286,0.3218932146792432,0.01511560287326574,0.007169562391936779,-0.03772427514195442,0.001409851014614105,0.009127378463745117,-0.01530152559280396,XArbitraryZVertical,0.1600967284647151,0.01753513321084944,0.2033942104371948,0.9657599378907382,-0.03125603869557381,-0.3163630962371826,-0.9481230974197388,0,0,0,-1,-1,3195.42122025,walking,2,2022-06-02T10:54:11.328+02:00,2022-06-02T10:17:13.754+02:00,521,1.585522,0,0,405.4342,0,0,2022-06-02T10:54:24.090+02:00,675852833.4527588,0,5.710938,101.3132,1,0.78
2022-06-02T10:54:26.642+02:00,1654160064.863409,53.22866137252311,10.3982896408892,42.6418,-1,-1,-1,-1,29.29669761657715,52.3311376,-9999,3206.807287666667,-0.0259552001953125,-0.323486328125,-0.96392822265625,3206.802290666667,0.4198888977894063,-0.03225023424824849,0.3221324978811264,0.05885110050439835,-0.0004002064233645797,-0.04197521507740021,-0.0006792023777961731,-0.002883195877075195,-0.01126611232757568,XArbitraryZVertical,0.1601459494586023,0.01785157019349064,0.2031523101533093,0.9657968619974195,-0.03058605827391148,-0.3165901005268097,-0.9480692148208618,0,0,0,-1,-1,3195.42122025,walking,2,2022-06-02T10:54:11.328+02:00,2022-06-02T10:17:13.754+02:00,521,1.585522,0,0,405.4342,0,0,2022-06-02T10:54:24.090+02:00,675852833.4527588,0,5.710938,101.3132,1,0.78
2022-06-02T10:54:26.652+02:00,1654160064.863409,53.22866137252311,10.3982896408892,42.6418,-1,-1,-1,-1,29.29669761657715,52.3311376,-9999,3206.817281666667,-0.01971435546875,-0.33807373046875,-0.95733642578125,3206.812284666667,0.4193143413063098,-0.03162770770449288,0.3227621305337821,0.0672597661614418,0.0002362889936193824,-0.04804375767707825,0.004034342244267464,-0.006299018859863281,-0.01603955030441284,XArbitraryZVertical,0.1603916335312167,0.0181716382520085,0.2029093572437118,0.9658012445754154,-0.02998954430222511,-0.3171872794628143,-0.9478886127471924,0,0,0,-1,-1,3195.42122025,walking,2,2022-06-02T10:54:11.328+02:00,2022-06-02T10:17:13.754+02:00,521,1.585522,0,0,405.4342,0,0,2022-06-02T10:54:24.090+02:00,675852833.4527588,0,5.710938,101.3132,1,0.78
2022-06-02T10:54:26.662+02:00,1654160064.863409,53.22866137252311,10.3982896408892,42.6418,-1,-1,-1,-1,29.29669761657715,52.3311376,-9999,3206.827275666667,-0.010833740234375,-0.37530517578125,-0.92730712890625,3206.822278666667,0.418606077365234,-0.03111284008299953,0.3232508176893206,0.01742136850953102,-0.001830057706683874,-0.07117437571287155,0.009782321751117706,-0.02042308449745178,-0.009587526321411133,XArbitraryZVertical,0.1605816382978554,0.01841417866025958,0.2025967614378307,0.9658307814518777,-0.02949667908251286,-0.3176506757736206,-0.9477488994598389,0,0,0,-1,-1,3195.42122025,walking,2,2022-06-02T10:54:11.328+02:00,2022-06-02T10:17:13.754+02:00,521,1.585522,0,0,405.4342,0,0,2022-06-02T10:54:24.090+02:00,675852833.4527588,0,5.710938,101.3132,1,0.78
2022-06-02T10:54:26.672+02:00,1654160064.863409,53.22866137252311,10.3982896408892,42.6418,-1,-1,-1,-1,29.29669761657715,52.3311376,-9999,3206.837269666667,-0.0063323974609375,-0.402557373046875,-0.905120849609375,3206.832272666667,0.417694973275419,-0.030684839007188,0.3231693423440244,-0.05148150026798248,-0.002307496033608913,-0.0848524421453476,0.01825808733701706,-0.0577317476272583,0.02048015594482422,XArbitraryZVertical,0.1605074498325589,0.01853930437669294,0.2021930931563044,0.9659252248022472,-0.02909183129668236,-0.3175734281539917,-0.9477872848510742,0,0,0,-1,-1,3206.825183666667,unknown,2,2022-06-02T10:54:26.659+02:00,2022-06-02T10:17:13.754+02:00,521,1.609496,0,0,405.4342,0,0,2022-06-02T10:54:26.659+02:00,675852866.6587945,0,5.441406,101.3207,1,0.78
2022-06-02T10:54:26.682+02:00,1654160064.863409,53.22866137252311,10.3982896408892,42.6418,-1,-1,-1,-1,29.29669761657715,52.3311376,-9999,3206.847263666667,-0.0104217529296875,-0.362548828125,-0.905731201171875,3206.842266666667,0.4168536964403107,-0.0303575692175101,0.322209298650707,-0.1182803437113762,-0.007485679350793362,-0.05979695171117783,0.02245848998427391,-0.08589443564414978,0.04298025369644165,XArbitraryZVertical,0.160018980599491,0.01853069278204679,0.2018360305054178,0.9660810599886355,-0.02879088930785656,-0.3166629374027252,-0.9481011033058167,0,0,0,-1,-1,3206.825183666667,unknown,2,2022-06-02T10:54:26.659+02:00,2022-06-02T10:17:13.754+02:00,521,1.609496,0,0,405.4342,0,0,2022-06-02T10:54:26.659+02:00,675852866.6587945,0,5.441406,101.3207,1,0.78
2022-06-02T10:54:26.692+02:00,1654160064.863409,53.22866137252311,10.3982896408892,42.6418,-1,-1,-1,-1,29.29669761657715,52.3311376,-9999,3206.857257666667,-0.02374267578125,-0.3054656982421875,-0.9288177490234375,3206.852260666667,0.4163033551650056,-0.03026875770898295,0.3204897769853477,-0.09972875565290451,-0.01999188400804996,-0.0390823557972908,0.01830136775970459,-0.04751741886138916,0.04291528463363647,XArbitraryZVertical,0.1591852719576263,0.01835215764793403,0.2016182694438885,0.9662677087376818,-0.02872312255203724,-0.3150314390659332,-0.9486464858055115,0,0,0,-1,-1,3206.825183666667,unknown,2,2022-06-02T10:54:26.659+02:00,2022-06-02T10:17:13.754+02:00,521,1.609496,0,0,405.4342,0,0,2022-06-02T10:54:26.659+02:00,675852866.6587945,0,5.441406,101.3207,1,0.78
2022-06-02T10:54:26.702+02:00,1654160064.863409,53.22866137252311,10.3982896408892,42.6418,-1,-1,-1,-1,29.29669761657715,52.3311376,-9999,3206.867251666667,-0.0277252197265625,-0.27252197265625,-0.9615325927734375,3206.862254666667,0.4158417788072243,-0.03036652218262711,0.3196349808530292,0.02577327378094196,-0.03853807225823402,-0.04323695227503777,0.005081351846456528,0.008754342794418335,0.02009475231170654,XArbitraryZVertical,0.1587867662674582,0.01818008674342731,0.2014078125964837,0.9663803690051134,-0.02882403321564198,-0.3142200410366058,-0.948912501335144,0,0,0,-1,-1,3206.825183666667,unknown,2,2022-06-02T10:54:26.659+02:00,2022-06-02T10:17:13.754+02:00,521,1.609496,0,0,405.4342,0,0,2022-06-02T10:54:26.659+02:00,675852866.6587945,0,5.441406,101.3207,1,0.78
2022-06-02T10:54:26.712+02:00,1654160064.863409,53.22866137252311,10.3982896408892,42.6418,-1,-1,-1,-1,29.29669761657715,52.3311376,-9999,3206.877245666667,-0.0196685791015625,-0.28057861328125,-0.9729461669921875,3206.872248666667,0.4154708917678165,-0.0308087373133665,0.3201902068743812,0.1335500776767731,-0.06515556573867798,-0.03552949801087379,0.001513052731752396,0.04222512245178223,-0.01280742883682251,XArbitraryZVertical,0.1591026306206018,0.01799414380748781,0.2011802385147821,0.9663792878252989,-0.02923827432096004,-0.3147470951080322,-0.9487251043319702,0,0,0,-1,-1,3206.825183666667,unknown,2,2022-06-02T10:54:26.659+02:00,2022-06-02T10:17:13.754+02:00,521,1.609496,0,0,405.4342,0,0,2022-06-02T10:54:26.659+02:00,675852866.6587945,0,5.441406,101.3207,1,0.78
2022-06-02T10:54:26.722+02:00,1654160064.863409,53.22866137252311,10.3982896408892,42.6418,-1,-1,-1,-1,29.29669761657715,52.3311376,-9999,3206.887239666667,-0.0090179443359375,-0.314117431640625,-0.976593017578125,3206.882242666667,0.41519453104892,-0.03148500872789202,0.3217394342745259,0.1606168746948242,-0.0814196914434433,-0.0310053862631321,0.0101959016174078,0.03563860058784485,-0.02472949028015137,XArbitraryZVertical,0.1599208382657502,0.01780487332176277,0.2009556071768187,0.9662944542330814,-0.02986447699368,-0.3162172138690948,-0.9482166171073914,0,0,0,-1,-1,3206.825183666667,unknown,2,2022-06-02T10:54:26.659+02:00,2022-06-02T10:17:13.754+02:00,521,1.609496,0,0,405.4342,0,0,2022-06-02T10:54:26.659+02:00,675852866.6587945,0,5.441406,101.3207,1,0.78
2022-06-02T10:54:26.732+02:00,1654160064.863409,53.22866137252311,10.3982896408892,42.6418,-1,-1,-1,-1,29.29669761657715,52.3311376,-9999,3206.897233666667,-0.011016845703125,-0.3343353271484375,-0.9869384765625,3206.892236666667,0.4149439990838095,-0.03214562610103023,0.3231216594139381,0.09836761653423309,-0.08563627302646637,-0.01735934987664223,0.02145886234939098,0.003410786390304565,-0.02883404493331909,XArbitraryZVertical,0.1606564535203146,0.01760789048834326,0.2007481370553461,0.9662192323041995,-0.03047680296003819,-0.3175282180309296,-0.9477589130401611,0,0,0,-1,-1,3206.825183666667,unknown,2,2022-06-02T10:54:26.659+02:00,2022-06-02T10:17:13.754+02:00,521,1.609496,0,0,405.4342,0,0,2022-06-02T10:54:26.659+02:00,675852866.6587945,0,5.441406,101.3207,1,0.78
2022-06-02T10:54:26.742+02:00,1654160064.863409,53.22866137252311,10.3982896408892,42.6418,-1,-1,-1,-1,29.29669761657715,52.3311376,-9999,3206.907227666667,-0.0263214111328125,-0.34619140625,-0.973663330078125,3206.902230666667,0.4146147361952957,-0.03249668486205405,0.3240116534892974,0.01001977734267712,-0.05419286340475082,-0.02822611108422279,0.01978347823023796,-0.01596331596374512,-0.03947311639785767,XArbitraryZVertical,0.1611240403540297,0.01750335728933412,0.2005391231366559,0.9661866914336591,-0.03080032579600811,-0.3183720111846924,-0.9474653601646423,0,0,0,-1,-1,3206.825183666667,unknown,2,2022-06-02T10:54:26.659+02:00,2022-06-02T10:17:13.754+02:00,521,1.609496,0,0,405.4342,0,0,2022-06-02T10:54:26.659+02:00,675852866.6587945,0,5.441406,101.3207,1,0.78
2022-06-02T10:54:26.752+02:00,1654160064.863409,53.22866137252311,10.3982896408892,42.6418,-1,-1,-1,-1,29.29669761657715,52.3311376,-9999,3206.917220666667,-0.0276031494140625,-0.329193115234375,-0.957305908203125,3206.912224666667,0.4141187613683033,-0.03219026998959004,0.3250841596628267,-0.05218261107802391,-0.02028363384306431,-0.02552060596644878,0.004177585244178772,-0.02680286765098572,-0.02653038501739502,XArbitraryZVertical,0.1616152315875444,0.01772157821371633,0.2002980478524067,0.9661507166804603,-0.03049900010228157,-0.3193885385990143,-0.94713294506073,0,0,0,-1,-1,3206.825183666667,unknown,2,2022-06-02T10:54:26.659+02:00,2022-06-02T10:17:13.754+02:00,521,1.609496,0,0,405.4342,0,0,2022-06-02T10:54:26.659+02:00,675852866.6587945,0,5.441406,101.3207,1,0.78
2022-06-02T10:54:26.762+02:00,1654160064.863409,53.22866137252311,10.3982896408892,42.6418,-1,-1,-1,-1,29.29669761657715,52.3311376,-9999,3206.927214666667,-0.0212860107421875,-0.30010986328125,-0.9521026611328125,3206.922217666667,0.4136851559334832,-0.03146129971374237,0.3263411152758633,-0.08766473829746246,0.01038020290434361,-0.01046142913401127,0.002192754298448563,-0.008613705635070801,-0.01055300235748291,XArbitraryZVertical,0.162152683812522,0.01816762587291226,0.2001170196140312,0.9660897912259204,-0.02979590743780136,-0.3205794095993042,-0.9467529058456421,0,0,0,-1,-1,3206.825183666667,unknown,2,2022-06-02T10:54:26.659+02:00,2022-06-02T10:17:13.754+02:00,521,1.609496,0,0,405.4342,0,0,2022-06-02T10:54:26.659+02:00,675852866.6587945,0,5.441406,101.3207,1,0.78
2022-06-02T10:54:26.772+02:00,1654160064.863409,53.22866137252311,10.3982896408892,42.6418,-1,-1,-1,-1,29.29669761657715,52.3311376,-9999,3206.937208666667,-0.010467529296875,-0.279327392578125,-0.9445343017578125,3206.932211666667,0.4133990999497606,-0.03074707997431894,0.3265814856293618,-0.0908629298210144,0.02538098953664303,-0.01371394749730825,0.007831331342458725,0.0206972062587738,-0.005405783653259277,XArbitraryZVertical,0.1621998454397121,0.0185140722961233,0.2000309439082998,0.9660931129840984,-0.02911734022200108,-0.3208070695400238,-0.9466968774795532,0,0,0,-1,-1,3206.825183666667,unknown,2,2022-06-02T10:54:26.659+02:00,2022-06-02T10:17:13.754+02:00,521,1.609496,0,0,405.4342,0,0,2022-06-02T10:54:26.659+02:00,675852866.6587945,0,5.441406,101.3207,1,0.78
2022-06-02T10:54:26.782+02:00,1654160064.863409,53.22866137252311,10.3982896408892,42.6418,-1,-1,-1,-1,29.29669761657715,52.3311376,-9999,3206.947202666667,-0.0041961669921875,-0.28460693359375,-0.9296112060546875,3206.942205666667,0.4130930305107509,-0.03036453876286381,0.3255592241962028,-0.08520135283470154,0.01623323000967503,-0.03303085267543793,0.01829760149121284,0.04051128029823303,0.002500951290130615,XArbitraryZVertical,0.1616711119653229,0.01856937975419987,0.1999386086029925,0.9661998653222909,-0.02876513078808784,-0.319838672876358,-0.9470352530479431,0,0,0,-1,-1,3206.825183666667,unknown,2,2022-06-02T10:54:26.659+02:00,2022-06-02T10:17:13.754+02:00,521,1.609496,0,0,405.4342,0,0,2022-06-02T10:54:26.659+02:00,675852866.6587945,0,5.441406,101.3207,1,0.78
2022-06-02T10:54:26.792+02:00,1654160064.863409,53.22866137252311,10.3982896408892,42.6418,-1,-1,-1,-1,29.29669761657715,52.3311376,-9999,3206.957196666667,-0.0101318359375,-0.3040008544921875,-0.91009521484375,3206.952199666667,0.4126320898118095,-0.03017576596600601,0.3238061198258327,-0.1079796329140663,-0.003101051319390535,-0.05127190798521042,0.02440705895423889,0.03357023000717163,0.01798850297927856,XArbitraryZVertical,0.1608103841534067,0.01844403921203955,0.1997729705197593,0.9663801805488017,-0.02860322780907154,-0.3181771636009216,-0.9475996494293213,0,0,0,-1,-1,3206.825183666667,unknown,2,2022-06-02T10:54:26.659+02:00,2022-06-02T10:17:13.754+02:00,521,1.609496,0,0,405.4342,0,0,2022-06-02T10:54:26.659+02:00,675852866.6587945,0,5.441406,101.3207,1,0.78
2022-06-02T10:54:26.802+02:00,1654160064.863409,53.22866137252311,10.3982896408892,42.6418,-1,-1,-1,-1,29.29669761657715,52.3311376,-9999,3206.967190666667,-0.0238800048828125,-0.3211822509765625,-0.8854217529296875,3206.962193666667,0.4119365606112635,-0.02985139279241033,0.3216416563323573,-0.1939851492643356,0.007356250192970037,-0.06726725399494171,0.01818450167775154,0.01212358474731445,0.03819984197616577,XArbitraryZVertical,0.15973950605945,0.01832389287798373,0.199514142865215,0.9666134271420795,-0.02831633947789669,-0.3161244690418243,-0.9482950568199158,0,0,0,-1,-1,3206.825183666667,unknown,2,2022-06-02T10:54:26.659+02:00,2022-06-02T10:17:13.754+02:00,521,1.609496,0,0,405.4342,0,0,2022-06-02T10:54:26.659+02:00,675852866.6587945,0,5.441406,101.3207,1,0.78
2022-06-02T10:54:26.812+02:00,1654160064.863409,53.22866137252311,10.3982896408892,42.6418,-1,-1,-1,-1,29.29669761657715,52.3311376,-9999,3206.977184666667,-0.040802001953125,-0.329620361328125,-0.857269287109375,3206.972187666667,0.410888829414895,-0.02903030032297108,0.3189912609224356,-0.3231812417507172,0.0351141095161438,-0.09815113991498947,0.003681909292936325,-0.007573395967483521,0.06373041868209839,XArbitraryZVertical,0.1583874073181528,0.01836723343148445,0.1991350107638911,0.96691320543168,-0.02756191417574883,-0.313608855009079,-0.9491521716117859,0,0,0,-1,-1,3206.825183666667,unknown,2,2022-06-02T10:54:26.659+02:00,2022-06-02T10:17:13.754+02:00,521,1.609496,0,0,405.4342,0,0,2022-06-02T10:54:26.659+02:00,675852866.6587945,0,5.441406,101.3207,1,0.78
2022-06-02T10:54:26.822+02:00,1654160064.863409,53.22866137252311,10.3982896408892,42.6418,-1,-1,-1,-1,29.29669761657715,52.3311376,-9999,3206.987178666667,-0.0680084228515625,-0.3499908447265625,-0.81707763671875,3206.982181666667,0.409371507776554,-0.02786413503488518,0.3150472368695011,-0.5176016092300415,0.04824815690517426,-0.1508011668920517,-0.01431272178888321,-0.01975899934768677,0.09314340353012085,XArbitraryZVertical,0.1563800120396646,0.01841092859328552,0.1985835486854271,0.9673524273050075,-0.02648928202688694,-0.3098613917827606,-0.9504126310348511,0,0,0,-1,-1,3206.825183666667,unknown,2,2022-06-02T10:54:26.659+02:00,2022-06-02T10:17:13.754+02:00,521,1.609496,0,0,405.4342,0,0,2022-06-02T10:54:26.659+02:00,675852866.6587945,0,5.441406,101.3207,1,0.78
2022-06-02T10:54:26.832+02:00,1654160064.863409,53.22866137252311,10.3982896408892,42.6418,-1,-1,-1,-1,29.29669761657715,52.3311376,-9999,3206.997171041667,-0.11297607421875,-0.3709869384765625,-0.7354583740234375,3206.992174041667,0.4071762150642737,-0.0266570388755272,0.3088718030734211,-0.8067029118537903,0.05085432529449463,-0.2320169359445572,-0.04261587932705879,-0.04600682854652405,0.135261058807373,XArbitraryZVertical,0.1532952007998127,0.01820031984102281,0.1977527576068903,0.968020180334687,-0.02539254352450371,-0.3039840161800385,-0.9523386359214783,0,0,0,-1,-1,3206.825183666667,unknown,2,2022-06-02T10:54:26.659+02:00,2022-06-02T10:17:13.754+02:00,521,1.609496,0,0,405.4342,0,0,2022-06-02T10:54:26.659+02:00,675852866.6587945,0,5.441406,101.3207,1,0.78
2022-06-02T10:54:26.842+02:00,1654160064.863409,53.22866137252311,10.3982896408892,42.6418,-1,-1,-1,-1,29.29669761657715,52.3311376,-9999,3207.007165041667,-0.149200439453125,-0.384185791015625,-0.640899658203125,3207.002168041667,0.4042154691279896,-0.02547523345093104,0.2988894490680186,-1.243707776069641,0.004591156728565693,-0.2703418731689453,-0.08863294124603271,-0.07652783393859863,0.2198956608772278,XArbitraryZVertical,0.1483750214056316,0.01754583776936443,0.1966232720670493,0.9690284524449039,-0.02434313297271729,-0.2944590747356415,-0.9553539752960205,0,0,0,-1,-1,3206.825183666667,unknown,2,2022-06-02T10:54:26.659+02:00,2022-06-02T10:17:13.754+02:00,521,1.609496,0,0,405.4342,0,0,2022-06-02T10:54:26.659+02:00,675852866.6587945,0,5.441406,101.3207,1,0.78
2022-06-02T10:54:26.852+02:00,1654160064.863409,53.22866137252311,10.3982896408892,42.6418,-1,-1,-1,-1,29.29669761657715,52.3311376,-9999,3207.017159041667,-0.226837158203125,-0.5367279052734375,-0.52978515625,3207.012162041667,0.4006146628729572,-0.02472534427346036,0.2838662261810301,-1.825402617454529,-0.06855282932519913,-0.3972846269607544,-0.1254670321941376,-0.1041165590286255,0.3187867403030396,XArbitraryZVertical,0.1410531162666575,0.01615028835068171,0.1952409462645618,0.9704246302790179,-0.02373341284692287,-0.2800692319869995,-0.9596863985061646,0,0,0,-1,-1,3206.825183666667,unknown,2,2022-06-02T10:54:26.659+02:00,2022-06-02T10:17:13.754+02:00,521,1.609496,0,0,405.4342,0,0,2022-06-02T10:54:26.659+02:00,675852866.6587945,0,5.441406,101.3207,1,0.78
2022-06-02T10:54:26.862+02:00,1654160064.863409,53.22866137252311,10.3982896408892,42.6418,-1,-1,-1,-1,29.29669761657715,52.3311376,-9999,3207.027153041667,-0.2646942138671875,-0.641387939453125,-0.4990234375,3207.022156041667,0.393975476807886,-0.02316782417123316,0.2622013659285338,-2.539904832839966,0.03259682282805443,-0.6980909705162048,-0.2044631689786911,-0.277520626783371,0.4357773661613464,XArbitraryZVertical,0.1304363618726423,0.01432122813455832,0.1925386951193074,0.9724762345436156,-0.0223739854991436,-0.2592073082923889,-0.9655625224113464,0,0,0,-1,-1,3206.825183666667,unknown,2,2022-06-02T10:54:26.659+02:00,2022-06-02T10:17:13.754+02:00,521,1.609496,0,0,405.4342,0,0,2022-06-02T10:54:26.659+02:00,675852866.6587945,0,5.441406,101.3207,1,0.78
2022-06-02T10:54:26.872+02:00,1654160064.863409,53.22866137252311,10.3982896408892,42.6418,-1,-1,-1,-1,29.29669761657715,52.3311376,-9999,3207.037147041667,-0.1941375732421875,-0.61895751953125,-0.45721435546875,3207.032150041667,0.3856908510107608,-0.02065145079290751,0.2325616480273786,-3.464808225631714,0.04630731046199799,-0.8186205625534058,-0.2446001470088959,-0.4109169840812683,0.473848283290863,XArbitraryZVertical,0.115827783548406,0.01216842144318277,0.1891722229825009,0.9750126516294406,-0.02009406872093678,-0.2304709702730179,-0.972871720790863,0,0,0,-1,-1,3206.825183666667,unknown,2,2022-06-02T10:54:26.659+02:00,2022-06-02T10:17:13.754+02:00,521,1.609496,0,0,405.4342,0,0,2022-06-02T10:54:26.659+02:00,675852866.6587945,0,5.441406,101.3207,1,0.78
2022-06-02T10:54:26.882+02:00,1654160064.863409,53.22866137252311,10.3982896408892,42.6418,-1,-1,-1,-1,29.29669761657715,52.3311376,-9999,3207.047141041667,-0.1981048583984375,-0.5370941162109375,-0.5078277587890625,3207.042144041667,0.3760758952314282,-0.0185831682514065,0.1936387489267021,-4.373451709747314,-0.03592797368764877,-0.8929887413978577,-0.1759027689695358,-0.4265266358852386,0.5239267349243164,XArbitraryZVertical,0.09668883034453622,0.008984652650998804,0.1851659294471137,0.9778978598924873,-0.01823480986058712,-0.1924308985471725,-0.9811410903930664,0,0,0,-1,-1,3206.825183666667,unknown,2,2022-06-02T10:54:26.659+02:00,2022-06-02T10:17:13.754+02:00,521,1.609496,0,0,405.4342,0,0,2022-06-02T10:54:26.659+02:00,675852866.6587945,0,5.441406,101.3207,1,0.78
2022-06-02T10:54:26.892+02:00,1654160064.863409,53.22866137252311,10.3982896408892,42.6418,-1,-1,-1,-1,29.29669761657715,52.3311376,-9999,3207.057135041667,-0.2484588623046875,-0.45977783203125,-0.5480499267578125,3207.052138041667,0.3655987311056753,-0.0177706870976856,0.1469753050675053,-5.068008899688721,-0.1274086236953735,-1.025497555732727,-0.1805266886949539,-0.3906474113464355,0.481234610080719,XArbitraryZVertical,0.07380620109509574,0.004632654271132474,0.1806437229392511,0.9807644926846916,-0.01757816784083843,-0.1464467197656631,-0.9890623688697815,0,0,0,-1,-1,3206.825183666667,unknown,2,2022-06-02T10:54:26.659+02:00,2022-06-02T10:17:13.754+02:00,521,1.609496,0,0,405.4342,0,0,2022-06-02T10:54:26.659+02:00,675852866.6587945,0,5.441406,101.3207,1,0.78
2022-06-02T10:54:26.902+02:00,1654160064.863409,53.22866137252311,10.3982896408892,42.6418,-1,-1,-1,-1,29.29669761657715,52.3311376,-9999,3207.067129041667,-0.3138275146484375,-0.3828887939453125,-0.5927276611328125,3207.062132041667,0.3531232333778739,-0.01762957241055895,0.09362782071601994,-5.660227298736572,-0.1231883093714714,-1.283989787101746,-0.2309074103832245,-0.3662867844104767,0.4474154710769653,XArbitraryZVertical,0.04761406040715432,-0.0004487870492103184,0.1750403668141101,0.9834090884005335,-0.01755144819617271,-0.0934910848736763,-0.9954653978347778,0,0,0,-1,-1,3206.825183666667,unknown,2,2022-06-02T10:54:26.659+02:00,2022-06-02T10:17:13.754+02:00,521,1.609496,0,0,405.4342,0,0,2022-06-02T10:54:26.659+02:00,675852866.6587945,0,5.441406,101.3207,1,0.78
2022-06-02T10:54:26.912+02:00,1654160064.863409,53.22866137252311,10.3982896408892,42.6418,-1,-1,-1,-1,29.29669761657715,52.3311376,-9999,3207.077123041667,-0.362762451171875,-0.339874267578125,-0.65582275390625,3207.072126041667,0.3377003278978066,-0.01741178333933763,0.03544749105089615,-6.012754917144775,-0.02168512158095837,-1.585247039794922,-0.2964275479316711,-0.3474487662315369,0.4064926505088806,XArbitraryZVertical,0.01893288137050884,-0.005602437300094006,0.1678641210781736,0.9856123791350988,-0.01739996671676636,-0.03544006869196892,-0.9992203116416931,0,0,0,-1,-1,3206.825183666667,unknown,2,2022-06-02T10:54:26.659+02:00,2022-06-02T10:17:13.754+02:00,521,1.609496,0,0,405.4342,0,0,2022-06-02T10:54:26.659+02:00,675852866.6587945,0,5.441406,101.3207,1,0.78
2022-06-02T10:54:26.922+02:00,1654160064.863409,53.22866137252311,10.3982896408892,42.6418,-1,-1,-1,-1,29.29669761657715,52.3311376,-9999,3207.087117041667,-0.3896942138671875,-0.2355804443359375,-0.69635009765625,3207.082120041667,0.3197707042240416,-0.01721731967393997,-0.02531932911150097,-6.222747325897217,0.03475159034132957,-1.77786660194397,-0.3455514907836914,-0.3651909232139587,0.3437085747718811,XArbitraryZVertical,-0.01112698554221881,-0.01051342908030866,0.1592939583342608,0.9871124757934192,-0.01721095107495785,0.0253166239708662,-0.9995313286781311,0,0,0,-1,-1,3206.825183666667,unknown,2,2022-06-02T10:54:26.659+02:00,2022-06-02T10:17:13.754+02:00,521,1.609496,0,0,405.4342,0,0,2022-06-02T10:54:26.659+02:00,675852866.6587945,0,5.441406,101.3207,1,0.78
2022-06-02T10:54:26.932+02:00,1654160064.863409,53.22866137252311,10.3982896408892,42.6418,-1,-1,-1,-1,29.29669761657715,52.3311376,-9999,3207.097111041667,-0.449066162109375,-0.1710662841796875,-0.72552490234375,3207.092114041667,0.3000259847143483,-0.0179303713177976,-0.08809103587901884,-6.398007869720459,0.05719724297523499,-1.956112861633301,-0.3718343377113342,-0.3235576450824738,0.299612283706665,XArbitraryZVertical,-0.04219648192088254,-0.01543603715229671,0.149690349207892,0.9877114533736924,-0.01785988919436932,0.08797714859247208,-0.995962381362915,0,0,0,-1,-1,3206.825183666667,unknown,2,2022-06-02T10:54:26.659+02:00,2022-06-02T10:17:13.754+02:00,521,1.609496,0,0,405.4342,0,0,2022-06-02T10:54:26.659+02:00,675852866.6587945,0,5.441406,101.3207,1,0.78
2022-06-02T10:54:26.942+02:00,1654160064.863409,53.22866137252311,10.3982896408892,42.6418,-1,-1,-1,-1,29.29669761657715,52.3311376,-9999,3207.107105041667,-0.50482177734375,-0.099395751953125,-0.693267822265625,3207.102108041667,0.2781176471020737,-0.01955728358685784,-0.1517303293636726,-6.416916370391846,0.1510509699583054,-2.148767709732056,-0.4297347962856293,-0.3222151398658752,0.2627970576286316,XArbitraryZVertical,-0.07370568694303574,-0.02016140662867286,0.1389397676417855,0.9873482716876727,-0.01933135837316513,0.1511488109827042,-0.9883219599723816,0,0,0,-1,-1,3206.825183666667,unknown,2,2022-06-02T10:54:26.659+02:00,2022-06-02T10:17:13.754+02:00,521,1.609496,0,0,405.4342,0,0,2022-06-02T10:54:26.659+02:00,675852866.6587945,0,5.441406,101.3207,1,0.78
2022-06-02T10:54:26.952+02:00,1654160064.863409,53.22866137252311,10.3982896408892,42.6418,-1,-1,-1,-1,29.29669761657715,52.3311376,-9999,3207.117099041667,-0.5372161865234375,-0.06573486328125,-0.6315765380859375,3207.112102041667,0.2543590635861303,-0.02174784678713064,-0.2162588452145319,-6.626551628112793,0.2935617864131927,-2.252835273742676,-0.4835821688175201,-0.3139729201793671,0.2832082509994507,XArbitraryZVertical,-0.1056697827890988,-0.02441018648380035,0.1272527487510504,0.9859232641289676,-0.02123960107564926,0.2145771235227585,-0.9764760732650757,0,0,0,-1,-1,3206.825183666667,unknown,2,2022-06-02T10:54:26.659+02:00,2022-06-02T10:17:13.754+02:00,521,1.609496,0,0,405.4342,0,0,2022-06-02T10:54:26.659+02:00,675852866.6587945,0,5.441406,101.3207,1,0.78
2022-06-02T10:54:26.962+02:00,1654160064.863409,53.22866137252311,10.3982896408892,42.6418,-1,-1,-1,-1,29.29669761657715,52.3311376,-9999,3207.127093041667,-0.554718017578125,-0.0690155029296875,-0.5840606689453125,3207.122096041667,0.229047633725405,-0.02421934986810396,-0.2832863190930215,-6.902354717254639,0.4731786847114563,-2.339156150817871,-0.5139644145965576,-0.3452474176883698,0.3282839059829712,XArbitraryZVertical,-0.1388650421518234,-0.02804040612728997,0.1148192190083645,0.98323280688657,-0.02325174398720264,0.279512494802475,-0.9598604440689087,0,0,0,-1,-1,3206.825183666667,unknown,2,2022-06-02T10:54:26.659+02:00,2022-06-02T10:17:13.754+02:00,521,1.609496,0,0,405.4342,0,0,2022-06-02T10:54:26.659+02:00,675852866.6587945,0,5.441406,101.3207,1,0.78
2022-06-02T10:54:26.972+02:00,1654160064.863409,53.22866137252311,10.3982896408892,42.6418,-1,-1,-1,-1,29.29669761657715,52.3311376,-9999,3207.137086041667,-0.56268310546875,0.055816650390625,-0.524688720703125,3207.132090041667,0.2024722460520745,-0.02681412217817018,-0.3530919741699035,-7.203066825866699,0.6841356158256531,-2.337810039520264,-0.5295611023902893,-0.414816290140152,0.3539100289344788,XArbitraryZVertical,-0.1733815207577693,-0.03087887786817082,0.1018260032358869,0.9790897350819222,-0.02515689097344875,0.3458006680011749,-0.9379706978797913,0,0,0,-1,-1,3206.825183666667,unknown,2,2022-06-02T10:54:26.659+02:00,2022-06-02T10:17:13.754+02:00,521,1.609496,0,0,405.4342,0,0,2022-06-02T10:54:26.659+02:00,675852866.6587945,0,5.441406,101.3207,1,0.78
2022-06-02T10:54:26.982+02:00,1654160064.863409,53.22866137252311,10.3982896408892,42.6418,-1,-1,-1,-1,29.29669761657715,52.3311376,-9999,3207.147080041667,-0.5760345458984375,0.2511444091796875,-0.5418548583984375,3207.142083041667,0.1752019238029638,-0.02874209688601779,-0.4253970419394594,-7.400225639343262,1.015498757362366,-2.319819450378418,-0.5365062355995178,-0.3568658828735352,0.3858099579811096,XArbitraryZVertical,-0.209038284346059,-0.03245972490900374,0.08853052957402961,0.9733506898527289,-0.02617685124278069,0.4126824736595154,-0.9104987382888794,0,0,0,-1,-1,3206.825183666667,unknown,2,2022-06-02T10:54:26.659+02:00,2022-06-02T10:17:13.754+02:00,521,1.609496,0,0,405.4342,0,0,2022-06-02T10:54:26.659+02:00,675852866.6587945,0,5.441406,101.3207,1,0.78
2022-06-02T10:54:26.992+02:00,1654160064.863409,53.22866137252311,10.3982896408892,42.6418,-1,-1,-1,-1,29.29669761657715,52.3311376,-9999,3207.157074041667,-0.5797271728515625,0.4368743896484375,-0.642669677734375,3207.152077041667,0.1461242126159102,-0.02938832919795439,-0.4994580979043675,-7.568632125854492,1.434992432594299,-2.460874557495117,-0.5502399206161499,-0.2278055846691132,0.3356083035469055,XArbitraryZVertical,-0.2454161672814681,-0.03223851436768414,0.07434679445162198,0.9660248736964977,-0.02579460293054581,0.4789499044418335,-0.877463161945343,0,0,0,-1,-1,3206.825183666667,unknown,2,2022-06-02T10:54:26.659+02:00,2022-06-02T10:17:13.754+02:00,521,1.609496,0,0,405.4342,0,0,2022-06-02T10:54:26.659+02:00,675852866.6587945,0,5.441406,101.3207,1,0.78
2022-06-02T10:54:27.002+02:00,1654160064.863409,53.22866137252311,10.3982896408892,42.6418,-1,-1,-1,-1,29.29669761657715,52.3311376,-9999,3207.167068041667,-0.5412445068359375,0.5677337646484375,-0.7510223388671875,3207.162071041667,0.1142544291711348,-0.02935539540030119,-0.5746841376634307,-7.606081008911133,1.843213319778442,-2.568495750427246,-0.5550908446311951,-0.1066954135894775,0.1963326930999756,XArbitraryZVertical,-0.282107816612058,-0.03023200110272811,0.05890212363642451,0.9570954868768882,-0.02463632449507713,0.5435696840286255,-0.8390024304389954,0,0,0,-1,-1,3206.825183666667,unknown,2,2022-06-02T10:54:26.659+02:00,2022-06-02T10:17:13.754+02:00,521,1.609496,0,0,405.4342,0,0,2022-06-02T10:54:26.659+02:00,675852866.6587945,0,5.441406,101.3207,1,0.78
2022-06-02T10:54:27.012+02:00,1654160064.863409,53.22866137252311,10.3982896408892,42.6418,-1,-1,-1,-1,29.29669761657715,52.3311376,-9999,3207.177062041667,-0.52471923828125,0.6778106689453125,-0.95751953125,3207.172065041667,0.07927497194168724,-0.02908646880438384,-0.6484130032982883,-7.26422119140625,2.256079196929932,-2.734381914138794,-0.5180646181106567,-0.03618860244750977,0.04568374156951904,XArbitraryZVertical,-0.3177265791343653,-0.02639641893075934,0.04218775522983823,0.9468755370151071,-0.02317990362644196,0.6039222478866577,-0.7967060804367065,0,0,0,-1,-1,3206.825183666667,unknown,2,2022-06-02T10:54:26.659+02:00,2022-06-02T10:17:13.754+02:00,521,1.609496,0,0,405.4342,0,0,2022-06-02T10:54:26.659+02:00,675852866.6587945,0,5.441406,101.3207,1,0.78
2022-06-02T10:54:27.022+02:00,1654160064.863409,53.22866137252311,10.3982896408892,42.6418,-1,-1,-1,-1,29.29669761657715,52.3311376,-9999,3207.187056041667,-0.464141845703125,0.8224029541015625,-0.9105987548828125,3207.182059041667,0.04039725276931946,-0.02924460803921048,-0.7173508449340401,-6.740180015563965,2.606792449951172,-2.863497972488403,-0.5026850700378418,0.02041983604431152,-0.2042919397354126,XArbitraryZVertical,-0.3506486259069948,-0.02077766994893248,0.02404163262096471,0.9359678091495092,-0.02203412912786007,0.6573907136917114,-0.7532276511192322,0,0,0,-1,-1,3206.825183666667,unknown,2,2022-06-02T10:54:26.659+02:00,2022-06-02T10:17:13.754+02:00,521,1.609496,0,0,405.4342,0,0,2022-06-02T10:54:26.659+02:00,675852866.6587945,0,5.441406,101.3207,1,0.78
2022-06-02T10:54:27.032+02:00,1654160064.863409,53.22866137252311,10.3982896408892,42.6418,-1,-1,-1,-1,29.29669761657715,52.3311376,-9999,3207.197050041667,-0.43377685546875,0.927703857421875,-0.9510345458984375,3207.192053041667,-0.001657915376399547,-0.03046211486883201,-0.7824580181495856,-6.487235069274902,2.865250110626221,-2.908521890640259,-0.4425419569015503,0.1173781156539917,-0.2017450928688049,XArbitraryZVertical,-0.3812921560734984,-0.01376360076294996,0.005041520376394226,0.924338386051518,-0.02159986458718777,0.7050247192382812,-0.7088537216186523,0,0,0,-1,-1,3206.825183666667,unknown,2,2022-06-02T10:54:26.659+02:00,2022-06-02T10:17:13.754+02:00,521,1.609496,0,0,405.4342,0,0,2022-06-02T10:54:26.659+02:00,675852866.6587945,0,5.441406,101.3207,1,0.78
2022-06-02T10:54:27.042+02:00,1654160064.863409,53.22866137252311,10.3982896408892,42.6418,-1,-1,-1,-1,29.29669761657715,52.3311376,-9999,3207.207044041667,-0.44195556640625,0.9574432373046875,-1.018829345703125,3207.202047041667,-0.04728605463622425,-0.03352146489811639,-0.8448713662442394,-6.182870864868164,3.190782785415649,-2.948482513427734,-0.4115285277366638,0.1798180341720581,-0.287580132484436,XArbitraryZVertical,-0.4101725264082119,-0.00559137733607951,-0.014690226337773,0.9118723912192099,-0.02224829979240894,0.7478857040405273,-0.6634544730186462,0,0,0,-1,-1,3206.825183666667,unknown,2,2022-06-02T10:54:26.659+02:00,2022-06-02T10:17:13.754+02:00,521,1.609496,0,0,405.4342,0,0,2022-06-02T10:54:26.659+02:00,675852866.6587945,0,5.441406,101.3207,1,0.78
2022-06-02T10:54:27.065+02:00,1654160064.863409,53.22866137252311,10.3982896408892,42.6418,-1,-1,-1,-1,29.29669761657715,52.3311376,-9999,3207.217038041667,-0.4313812255859375,0.8726959228515625,-1.036239624023438,3207.212041041667,-0.09660861643262555,-0.03773737168217701,-0.9032472936626867,-5.709757328033447,3.527586936950684,-2.944707632064819,-0.4185992777347565,0.1721017956733704,-0.4002071619033813,XArbitraryZVertical,-0.4366599948788584,0.004113256693783163,-0.03521195987053564,0.8989278428109769,-0.02335626631975174,0.7853413224220276,-0.6186222434043884,0,0,0,-1,-1,3206.825183666667,unknown,2,2022-06-02T10:54:26.659+02:00,2022-06-02T10:17:13.754+02:00,521,1.609496,0,0,405.4342,0,0,2022-06-02T10:54:26.659+02:00,675852866.6587945,0,5.441406,101.3207,1,0.78
2022-06-02T10:54:27.069+02:00,1654160064.863409,53.22866137252311,10.3982896408892,42.6418,-1,-1,-1,-1,29.29669761657715,52.3311376,-9999,3207.227032041667,-0.3713836669921875,0.895050048828125,-0.960601806640625,3207.222035041667,-0.1478320912844562,-0.04224610426937755,-0.9572208961822926,-5.396468162536621,3.784387588500977,-2.707403659820557,-0.407063364982605,0.05510121583938599,-0.4609591364860535,XArbitraryZVertical,-0.4605708050635291,0.01530620172948493,-0.05583532041789738,0.8857327396424967,-0.02431782893836498,0.8175945281982422,-0.575280487537384,0,0,0,-1,-1,3206.825183666667,unknown,2,2022-06-02T10:54:26.659+02:00,2022-06-02T10:17:13.754+02:00,521,1.609496,0,0,405.4342,0,0,2022-06-02T10:54:26.659+02:00,675852866.6587945,0,5.441406,101.3207,1,0.78
2022-06-02T10:54:27.072+02:00,1654160064.863409,53.22866137252311,10.3982896408892,42.6418,-1,-1,-1,-1,29.29669761657715,52.3311376,-9999,3207.237026041667,-0.2950897216796875,1.032806396484375,-0.8563995361328125,3207.232029041667,-0.1974809229965438,-0.04457917035125993,-1.010633280914298,-5.57871675491333,4.033028125762939,-2.319625854492188,-0.3477054834365845,0.04788142442703247,-0.4298054575920105,XArbitraryZVertical,-0.4835295542516648,0.02830200899074738,-0.07550165703884677,0.8716062828698738,-0.02367814816534519,0.847168505191803,-0.5307963490486145,0,0,0,-1,-1,3206.825183666667,unknown,2,2022-06-02T10:54:26.659+02:00,2022-06-02T10:17:13.754+02:00,521,1.609496,0,0,405.4342,0,0,2022-06-02T10:54:26.659+02:00,675852866.6587945,0,5.441406,101.3207,1,0.78
2022-06-02T10:54:27.082+02:00,1654160064.863409,53.22866137252311,10.3982896408892,42.6418,-1,-1,-1,-1,29.29669761657715,52.3311376,-9999,3207.247020041667,-0.2158203125,1.2271728515625,-0.788818359375,3207.242023041667,-0.2443365604180676,-0.04314807659483534,-1.067183888322633,-5.942776203155518,4.337256908416748,-1.93589448928833,-0.2742732167243958,0.1569613814353943,-0.3742562532424927,XArbitraryZVertical,-0.506984300046193,0.04353443248051082,-0.09400871783442248,0.8557066874320243,-0.02081647887825966,0.8758449554443359,-0.4821433424949646,0,0,0,-1,-1,3206.825183666667,unknown,2,2022-06-02T10:54:26.659+02:00,2022-06-02T10:17:13.754+02:00,521,1.609496,0,0,405.4342,0,0,2022-06-02T10:54:26.659+02:00,675852866.6587945,0,5.441406,101.3207,1,0.78
2022-06-02T10:54:27.092+02:00,1654160064.863409,53.22866137252311,10.3982896408892,42.6418,-1,-1,-1,-1,29.29669761657715,52.3311376,-9999,3207.257014041667,-0.1355743408203125,1.416275024414062,-0.72357177734375,3207.252017041667,-0.2884981455568119,-0.03763621958969333,-1.126533119795594,-6.055669784545898,4.617626190185547,-1.618934869766235,-0.1996483504772186,0.3242451548576355,-0.3593302369117737,XArbitraryZVertical,-0.5305990027131151,0.06099671813209292,-0.1115777772228491,0.8380300544496733,-0.01617194898426533,0.902927577495575,-0.4294882118701935,0,0,0,-1,-1,3206.825183666667,unknown,2,2022-06-02T10:54:26.659+02:00,2022-06-02T10:17:13.754+02:00,521,1.609496,0,0,405.4342,0,0,2022-06-02T10:54:26.659+02:00,675852866.6587945,0,5.441406,101.3207,1,0.78
2022-06-02T10:54:27.105+02:00,1654160064.863409,53.22866137252311,10.3982896408892,42.6418,-1,-1,-1,-1,29.29669761657715,52.3311376,-9999,3207.267008041667,-0.076995849609375,1.587432861328125,-0.6863250732421875,3207.262011041667,-0.330630848320526,-0.0291121484770419,-1.185478820914572,-5.828392028808594,4.792810440063477,-1.38541841506958,-0.1246339678764343,0.4895957708358765,-0.3478779196739197,XArbitraryZVertical,-0.5529474808490961,0.080013262817017,-0.1284563176491896,0.819356952422522,-0.01094034779816866,0.9266791343688965,-0.3756939172744751,0,0,0,-1,-1,3206.825183666667,unknown,2,2022-06-02T10:54:26.659+02:00,2022-06-02T10:17:13.754+02:00,521,1.609496,0,0,405.4342,0,0,2022-06-02T10:54:26.659+02:00,675852866.6587945,0,5.441406,101.3207,1,0.78
2022-06-02T10:54:27.112+02:00,1654160064.863409,53.22866137252311,10.3982896408892,42.6418,-1,-1,-1,-1,29.29669761657715,52.3311376,-9999,3207.277002041667,-0.0306243896484375,1.700180053710938,-0.591461181640625,3207.272005041667,-0.3710319352573733,-0.01853458783467058,-1.241162437194826,-5.40276575088501,4.885581493377686,-1.159908890724182,-0.07099658250808716,0.6412718296051025,-0.3626842498779297,XArbitraryZVertical,-0.5728962922150237,0.09984689177568273,-0.1447576640798753,0.8005407981098985,-0.005999237298965454,0.9461609125137329,-0.3236408829689026,0,0,0,-1,-1,3206.825183666667,unknown,2,2022-06-02T10:54:26.659+02:00,2022-06-02T10:17:13.754+02:00,521,1.609496,0,0,405.4342,0,0,2022-06-02T10:54:26.659+02:00,675852866.6587945,0,5.441406,101.3207,1,0.78
2022-06-02T10:54:27.122+02:00,1654160064.863409,53.22866137252311,10.3982896408892,42.6418,-1,-1,-1,-1,29.29669761657715,52.3311376,-9999,3207.286996041667,-0.013580322265625,1.705291748046875,-0.3863525390625,3207.281999041667,-0.4073941171738743,-0.004262037904007878,-1.292467367297414,-4.987143993377686,4.919752597808838,-0.8704631328582764,-0.02945336699485779,0.738663911819458,-0.3167150914669037,XArbitraryZVertical,-0.5900769567516932,0.1201503005036532,-0.1602437555965043,0.7821091947627664,-0.001170985749922693,0.9615159034729004,-0.2747461795806885,0,0,0,-1,-1,3206.825183666667,unknown,2,2022-06-02T10:54:26.659+02:00,2022-06-02T10:17:13.754+02:00,521,1.609496,0,0,405.4342,0,0,2022-06-02T10:54:26.659+02:00,675852866.6587945,0,5.441406,101.3207,1,0.78
2022-06-02T10:54:27.132+02:00,1654160064.863409,53.22866137252311,10.3982896408892,42.6418,-1,-1,-1,-1,29.29669761657715,52.3311376,-9999,3207.296990041667,-0.0412750244140625,1.635787963867188,-0.17486572265625,3207.291993041667,-0.4350696397439,0.0184635621931368,-1.340666438287009,-4.747698783874512,4.995414733886719,-0.5779820084571838,-0.01779164373874664,0.7316547632217407,-0.1582882702350616,XArbitraryZVertical,-0.6050190204166396,0.1411376002757578,-0.174715083756746,0.7638760176402283,0.00421135826036334,0.9736367464065552,-0.2280643284320831,0,0,0,-1,-1,3206.825183666667,unknown,2,2022-06-02T10:54:26.659+02:00,2022-06-02T10:17:13.754+02:00,521,1.609496,0,0,405.4342,0,0,2022-06-02T10:54:26.659+02:00,675852866.6587945,0,5.441406,101.3207,1,0.78
2022-06-02T10:54:27.142+02:00,1654160064.863409,53.22866137252311,10.3982896408892,42.6418,-1,-1,-1,-1,29.29669761657715,52.3311376,-9999,3207.306984041667,-0.022186279296875,1.560195922851562,0.037811279296875,3207.301987041667,-0.4474256273346435,0.05688225827514561,-1.387351708283991,-4.611536502838135,5.114434242248535,-0.2677424848079681,-0.05164572596549988,0.6525667309761047,0.007256746292114258,XArbitraryZVertical,-0.6183320594879169,0.1631078635417945,-0.1882415928907917,0.7454035306321826,0.01037073135375977,0.983221173286438,-0.1821225732564926,0,0,0,-1,-1,3206.825183666667,unknown,2,2022-06-02T10:54:26.659+02:00,2022-06-02T10:17:13.754+02:00,521,1.609496,0,0,405.4342,0,0,2022-06-02T10:54:26.659+02:00,675852866.6587945,0,5.441406,101.3207,1,0.78
2022-06-02T10:54:27.152+02:00,1654160064.863409,53.22866137252311,10.3982896408892,42.6418,-1,-1,-1,-1,29.29669761657715,52.3311376,-9999,3207.316978041667,0.0526123046875,1.562820434570312,0.2547760009765625,3207.311981041667,-0.4265673810637651,0.129243503302713,-1.433065126743744,-4.594253063201904,5.243113040924072,0.09065213799476624,-0.03988149762153625,0.569665789604187,0.1739619970321655,XArbitraryZVertical,-0.6302447974522341,0.1863225820552706,-0.2007361682198217,0.7264849183689136,0.01769524067640305,0.9905300140380859,-0.1361507773399353,0,0,0,-1,-1,3206.825183666667,unknown,2,2022-06-02T10:54:26.659+02:00,2022-06-02T10:17:13.754+02:00,521,1.609496,0,0,405.4342,0,0,2022-06-02T10:54:26.659+02:00,675852866.6587945,0,5.441406,101.3207,1,0.78
2022-06-02T10:54:27.162+02:00,1654160064.863409,53.22866137252311,10.3982896408892,42.6418,-1,-1,-1,-1,29.29669761657715,52.3311376,-9999,3207.326972041667,0.15655517578125,1.593994140625,0.45123291015625,3207.321975041667,-0.3197696895226487,0.288330483760832,-1.477267108072152,-4.550751686096191,5.34279203414917,0.5003646016120911,0.02605634741485119,0.567190945148468,0.3443120121955872,XArbitraryZVertical,-0.6408845024492172,0.2109478736312088,-0.2119870521569676,0.7069861190964963,0.02655600383877754,0.9956293106079102,-0.08953610062599182,0,0,0,-1,-1,3206.825183666667,unknown,2,2022-06-02T10:54:26.659+02:00,2022-06-02T10:17:13.754+02:00,521,1.609496,0,0,405.4342,0,0,2022-06-02T10:54:26.659+02:00,675852866.6587945,0,5.441406,101.3207,1,0.78
2022-06-02T10:54:27.172+02:00,1654160064.863409,53.22866137252311,10.3982896408892,42.6418,-1,-1,-1,-1,29.29669761657715,52.3311376,-9999,3207.336966041667,0.252471923828125,1.590805053710938,0.6522064208984375,3207.331969041667,0.03847526459499737,0.6987302131161355,-1.513238536002044,-4.209312915802002,5.252442359924316,0.8768210411071777,0.1195524930953979,0.5956500172615051,0.4952774047851562,XArbitraryZVertical,-0.6496667535985855,0.2364547198786491,-0.2217924719504429,0.6876265785587956,0.03700270876288414,0.9983440041542053,-0.04404455050826073,0,0,0,-1,-1,3206.825183666667,unknown,2,2022-06-02T10:54:26.659+02:00,2022-06-02T10:17:13.754+02:00,521,1.609496,0,0,405.4342,0,0,2022-06-02T10:54:26.659+02:00,675852866.6587945,0,5.441406,101.3207,1,0.78
2022-06-02T10:54:27.182+02:00,1654160064.863409,53.22866137252311,10.3982896408892,42.6418,-1,-1,-1,-1,29.29669761657715,52.3311376,-9999,3207.346960041667,0.3176422119140625,1.5634765625,0.8267059326171875,3207.341963041667,0.7954179700166243,1.50588624923477,-1.521909442037874,-3.488239049911499,4.965935230255127,1.240664601325989,0.203709214925766,0.5919997096061707,0.6553759574890137,XArbitraryZVertical,-0.6557114288151308,0.2616442222590167,-0.2300866354824789,0.6698095824114315,0.04876274242997169,0.9988052845001221,-0.003169646253809333,0,0,0,-1,-1,3206.825183666667,unknown,2,2022-06-02T10:54:26.659+02:00,2022-06-02T10:17:13.754+02:00,521,1.609496,0,0,405.4342,0,0,2022-06-02T10:54:26.659+02:00,675852866.6587945,0,5.441406,101.3207,1,0.78
2022-06-02T10:54:27.192+02:00,1654160064.863409,53.22866137252311,10.3982896408892,42.6418,-1,-1,-1,-1,29.29669761657715,52.3311376,-9999,3207.356954041667,0.3330841064453125,1.496826171875,0.9002227783203125,3207.351956041667,1.258233130139564,2.015528874551915,-1.502041872951232,-2.53786563873291,4.528563499450684,1.530663132667542,0.2556259632110596,0.5658391118049622,0.7971503734588623,XArbitraryZVertical,-0.658235823062652,0.2854878345932405,-0.2369877183536829,0.6550259741215324,0.06201628223061562,0.9976373314857483,0.02955540455877781,0,0,0,-1,-1,3206.825183666667,unknown,2,2022-06-02T10:54:26.659+02:00,2022-06-02T10:17:13.754+02:00,521,1.609496,0,0,405.4342,0,0,2022-06-02T10:54:26.659+02:00,675852866.6587945,0,5.441406,101.3207,1,0.78
2022-06-02T10:54:27.202+02:00,1654160064.863409,53.22866137252311,10.3982896408892,42.6418,-1,-1,-1,-1,29.29669761657715,52.3311376,-9999,3207.366947041667,0.3061065673828125,1.364334106445312,0.9926605224609375,3207.361950041667,1.370885353106239,2.170481920482073,-1.477910089235337,-1.453076839447021,4.002926349639893,1.731500267982483,0.2565167248249054,0.5011368989944458,0.8478753566741943,XArbitraryZVertical,-0.6571600006704196,0.3071064280247452,-0.2427578044249167,0.6441233557708412,0.07656741142272949,0.9956891536712646,0.05234725028276443,0,0,0,-1,-1,3206.825183666667,unknown,2,2022-06-02T10:54:26.659+02:00,2022-06-02T10:17:13.754+02:00,521,1.609496,0,0,405.4342,0,0,2022-06-02T10:54:26.659+02:00,675852866.6587945,0,5.441406,101.3207,1,0.78
2022-06-02T10:54:27.212+02:00,1654160064.863409,53.22866137252311,10.3982896408892,42.6418,-1,-1,-1,-1,29.29669761657715,52.3311376,-9999,3207.376941041667,0.253143310546875,1.26837158203125,1.096603393554688,3207.371944041667,1.349947782497863,2.187025825493999,-1.457538907777431,-0.5716207027435303,3.47881007194519,1.858508348464966,0.2138795256614685,0.3707407712936401,0.9273422956466675,XArbitraryZVertical,-0.6528966405817413,0.3261672357835301,-0.247684503945452,0.6371759629570736,0.09222708642482758,0.9935932159423828,0.06531817466020584,0,0,0,-1,-1,3206.825183666667,unknown,2,2022-06-02T10:54:26.659+02:00,2022-06-02T10:17:13.754+02:00,521,1.609496,0,0,405.4342,0,0,2022-06-02T10:54:26.659+02:00,675852866.6587945,0,5.441406,101.3207,1,0.78
2022-06-02T10:54:27.222+02:00,1654160064.863409,53.22866137252311,10.3982896408892,42.6418,-1,-1,-1,-1,29.29669761657715,52.3311376,-9999,3207.386935041667,0.2117767333984375,1.169769287109375,1.172042846679688,3207.381938041667,1.279269799311297,2.149305264108313,-1.440385656712545,0.03467122837901115,3.028685569763184,1.940091848373413,0.1442627906799316,0.2768629193305969,1.025500059127808,XArbitraryZVertical,-0.6464745581890652,0.3429610651525189,-0.2517594073272952,0.6332973307830499,0.1088805496692657,0.9915085434913635,0.0711032897233963,0,0,0,-1,-1,3206.825183666667,unknown,2,2022-06-02T10:54:26.659+02:00,2022-06-02T10:17:13.754+02:00,521,1.609496,0,0,405.4342,0,0,2022-06-02T10:54:26.659+02:00,675852866.6587945,0,5.441406,101.3207,1,0.78
2022-06-02T10:54:27.232+02:00,1654160064.863409,53.22866137252311,10.3982896408892,42.6418,-1,-1,-1,-1,29.29669761657715,52.3311376,-9999,3207.396929041667,0.233428955078125,1.093612670898438,1.325119018554688,3207.391932041667,1.188576648433472,2.087938861541263,-1.42504020589551,0.4719801247119904,2.675249099731445,1.975458979606628,0.08552937209606171,0.1803727746009827,1.100236535072327,XArbitraryZVertical,-0.6385906902463685,0.3579176253820416,-0.2551786040369203,0.6316491467764001,0.1262473613023758,0.9893963932991028,0.07180619239807129,0,0,0,-1,-1,3206.825183666667,unknown,2,2022-06-02T10:54:26.659+02:00,2022-06-02T10:17:13.754+02:00,521,1.609496,0,0,405.4342,0,0,2022-06-02T10:54:26.659+02:00,675852866.6587945,0,5.441406,101.3207,1,0.78
2022-06-02T10:54:27.242+02:00,1654160064.863409,53.22866137252311,10.3982896408892,42.6418,-1,-1,-1,-1,29.29669761657715,52.3311376,-9999,3207.406923041667,0.3234100341796875,1.038864135742188,1.430877685546875,3207.401926041667,1.094345118666702,2.019702445447756,-1.410236939957587,0.6659393310546875,2.302342653274536,1.98194682598114,0.08939896523952484,0.1064744591712952,1.255738735198975,XArbitraryZVertical,-0.6299427896186262,0.3712979717125548,-0.2578986268423641,0.6315045964632358,0.1440299898386002,0.987138032913208,0.06938020139932632,0,0,0,-1,-1,3206.825183666667,unknown,2,2022-06-02T10:54:26.659+02:00,2022-06-02T10:17:13.754+02:00,521,1.609496,0,0,405.4342,0,0,2022-06-02T10:54:26.659+02:00,675852866.6587945,0,5.441406,101.3207,1,0.78
2022-06-02T10:54:27.252+02:00,1654160064.863409,53.22866137252311,10.3982896408892,42.6418,-1,-1,-1,-1,29.29669761657715,52.3311376,-9999,3207.416917041667,0.3856964111328125,0.926361083984375,1.48193359375,3207.411920041667,1.009437029566507,1.956835344462223,-1.394828660184488,0.6699340343475342,1.864925265312195,1.983309507369995,0.1612333357334137,0.05430632829666138,1.36496376991272,XArbitraryZVertical,-0.6213714592535268,0.3832158943027921,-0.2594263687153925,0.632250622211854,0.1621766984462738,0.9845576286315918,0.06591382622718811,0,0,0,-1,-1,3206.825183666667,unknown,2,2022-06-02T10:54:26.659+02:00,2022-06-02T10:17:13.754+02:00,521,1.609496,0,0,405.4342,0,0,2022-06-02T10:54:26.659+02:00,675852866.6587945,0,5.441406,101.3207,1,0.78
2022-06-02T10:54:27.262+02:00,1654160064.863409,53.22866137252311,10.3982896408892,42.6418,-1,-1,-1,-1,29.29669761657715,52.3311376,-9999,3207.426911041667,0.399627685546875,0.8477020263671875,1.574905395507812,3207.421914041667,0.9382970172771872,1.903365898553429,-1.378641672137685,0.6086466312408447,1.435977816581726,1.955574512481689,0.2051862627267838,-0.05523395538330078,1.419585466384888,XArbitraryZVertical,-0.6133474043741123,0.3936736345253362,-0.2595313820548153,0.6336162016853969,0.1805101931095123,0.9815950393676758,0.06234793737530708,0,0,0,-1,-1,3206.825183666667,unknown,2,2022-06-02T10:54:26.659+02:00,2022-06-02T10:17:13.754+02:00,521,1.609496,0,0,405.4342,0,0,2022-06-02T10:54:26.659+02:00,675852866.6587945,0,5.441406,101.3207,1,0.78
2022-06-02T10:54:27.290+02:00,1654160064.863409,53.22866137252311,10.3982896408892,42.6418,-1,-1,-1,-1,29.29669761657715,52.3311376,-9999,3207.436905041667,0.3905487060546875,0.838623046875,1.643539428710938,3207.431908041667,0.8861392843338231,1.86454778517876,-1.361654327403986,0.2934966683387756,1.02020251750946,1.91785991191864,0.2009008824825287,-0.1305074691772461,1.514789819717407,XArbitraryZVertical,-0.6064242812454689,0.4028738196059997,-0.2580682925172065,0.6350928877666228,0.1987268328666687,0.9782094359397888,0.06011544540524483,0,0,0,-1,-1,3206.825183666667,unknown,2,2022-06-02T10:54:26.659+02:00,2022-06-02T10:17:13.754+02:00,521,1.609496,0,0,405.4342,0,0,2022-06-02T10:54:26.659+02:00,675852866.6587945,0,5.441406,101.3207,1,0.78
2022-06-02T10:54:27.297+02:00,1654160064.863409,53.22866137252311,10.3982896408892,42.6418,-1,-1,-1,-1,29.29669761657715,52.3311376,-9999,3207.446899041667,0.3410186767578125,0.8031768798828125,1.673477172851562,3207.441902041667,0.8559169968576403,1.843284125788486,-1.343778871381351,-0.008802181109786034,0.6331533789634705,1.871561527252197,0.1737811863422394,-0.1357191801071167,1.582966089248657,XArbitraryZVertical,-0.6010949392261803,0.4110613744389063,-0.2547834628407298,0.6362378766777829,0.2167675346136093,0.9743419885635376,0.06057316064834595,0,0,0,-1,-1,3206.825183666667,unknown,2,2022-06-02T10:54:26.659+02:00,2022-06-02T10:17:13.754+02:00,521,1.609496,0,0,405.4342,0,0,2022-06-02T10:54:26.659+02:00,675852866.6587945,0,5.441406,101.3207,1,0.78
2022-06-02T10:54:27.300+02:00,1654160064.863409,53.22866137252311,10.3982896408892,42.6418,-1,-1,-1,-1,29.29669761657715,52.3311376,-9999,3207.456893041667,0.2916107177734375,0.803680419921875,1.697891235351562,3207.451896041667,0.8409931190136438,1.833142788785957,-1.325849870528258,-0.2702108919620514,0.228760689496994,1.762632608413696,0.1068123877048492,-0.1669735908508301,1.610584378242493,XArbitraryZVertical,-0.597205020404509,0.4180819635284397,-0.2500094107206361,0.6372195764264379,0.2342062741518021,0.9701502919197083,0.06289272755384445,0,0,0,-1,-1,3206.825183666667,unknown,2,2022-06-02T10:54:26.659+02:00,2022-06-02T10:17:13.754+02:00,521,1.609496,0,0,405.4342,0,0,2022-06-02T10:54:26.659+02:00,675852866.6587945,0,5.441406,101.3207,1,0.78
2022-06-02T10:54:27.303+02:00,1654160064.863409,53.22866137252311,10.3982896408892,42.6418,-1,-1,-1,-1,29.29669761657715,52.3311376,-9999,3207.466887041667,0.259796142578125,0.7894439697265625,1.6668701171875,3207.461890041667,0.8378204942664753,1.8296519873595,-1.308387109558635,-0.4635084867477417,-0.3358801901340485,1.663916349411011,0.0408456027507782,-0.1620875000953674,1.631489396095276,XArbitraryZVertical,-0.5948530543945949,0.423498190495093,-0.2436535086530794,0.6383040026115339,0.2507651150226593,0.9657678008079529,0.06640174984931946,0,0,0,-1,-1,3206.825183666667,unknown,2,2022-06-02T10:54:26.659+02:00,2022-06-02T10:17:13.754+02:00,521,1.609496,0,0,405.4342,0,0,2022-06-02T10:54:26.659+02:00,675852866.6587945,0,5.441406,101.3207,1,0.78
2022-06-02T10:54:27.313+02:00,1654160064.863409,53.22866137252311,10.3982896408892,42.6418,-1,-1,-1,-1,29.29669761657715,52.3311376,-9999,3207.476881041667,0.1909637451171875,0.763214111328125,1.732147216796875,3207.471884041667,0.8415841325995999,1.82684593734785,-1.290995831019949,-0.6317939162254333,-0.9431062340736389,1.639909267425537,-0.007364213466644287,-0.1716666221618652,1.596928477287292,XArbitraryZVertical,-0.5938284601372184,0.4270111444851097,-0.2353002404484413,0.6400492350815449,0.2671603560447693,0.961110532283783,0.06994151324033737,0,0,0,-1,-1,3206.825183666667,unknown,2,2022-06-02T10:54:26.659+02:00,2022-06-02T10:17:13.754+02:00,521,1.609496,0,0,405.4342,0,0,2022-06-02T10:54:26.659+02:00,675852866.6587945,0,5.441406,101.3207,1,0.78
2022-06-02T10:54:27.322+02:00,1654160064.863409,53.22866137252311,10.3982896408892,42.6418,-1,-1,-1,-1,29.29669761657715,52.3311376,-9999,3207.486875041667,0.0954132080078125,0.7772369384765625,1.749267578125,3207.481878041667,0.8526488026909039,1.825117841933333,-1.273703334409125,-0.8473919630050659,-1.516189575195312,1.537660121917725,-0.09236136078834534,-0.1929775476455688,1.658496618270874,XArbitraryZVertical,-0.5942143236603568,0.4286426945027728,-0.2249416387325082,0.6423207251341521,0.2833250761032104,0.9561915397644043,0.07365044206380844,0,0,0,-1,-1,3206.825183666667,unknown,2,2022-06-02T10:54:26.659+02:00,2022-06-02T10:17:13.754+02:00,521,1.609496,0,0,405.4342,0,0,2022-06-02T10:54:26.659+02:00,675852866.6587945,0,5.441406,101.3207,1,0.78
2022-06-02T10:54:27.332+02:00,1654160064.863409,53.22866137252311,10.3982896408892,42.6418,-1,-1,-1,-1,29.29669761657715,52.3311376,-9999,3207.496869041667,0.028106689453125,0.8019256591796875,1.718353271484375,3207.491872041667,0.8697735545419739,1.823720227193838,-1.257339066633572,-0.9380978941917419,-2.027571439743042,1.366072654724121,-0.2031257152557373,-0.1740363836288452,1.672107458114624,XArbitraryZVertical,-0.5959638710492299,0.4282605194039967,-0.2130364392646721,0.6450080772945229,0.2985389530658722,0.9512732028961182,0.07716001570224762,0,0,0,-1,-1,3206.825183666667,unknown,2,2022-06-02T10:54:26.659+02:00,2022-06-02T10:17:13.754+02:00,521,1.609496,0,0,405.4342,0,0,2022-06-02T10:54:26.659+02:00,675852866.6587945,0,5.441406,101.3207,1,0.78
2022-06-02T10:54:27.342+02:00,1654160064.863409,53.22866137252311,10.3982896408892,42.6418,-1,-1,-1,-1,29.29669761657715,52.3311376,-9999,3207.506863041667,0.011138916015625,0.8279876708984375,1.67596435546875,3207.501866041667,0.8864850227283567,1.816757717494038,-1.242817570930578,-0.7761192321777344,-2.549715042114258,1.188573837280273,-0.2843284606933594,-0.1447698473930359,1.639918088912964,XArbitraryZVertical,-0.5984060202186595,0.4255910972691065,-0.2002364883407374,0.6486044766093025,0.3124351501464844,0.9466953873634338,0.07843509316444397,0,0,0,-1,-1,3206.825183666667,unknown,2,2022-06-02T10:54:26.659+02:00,2022-06-02T10:17:13.754+02:00,521,1.609496,0,0,405.4342,0,0,2022-06-02T10:54:26.659+02:00,675852866.6587945,0,5.441406,101.3207,1,0.78
2022-06-02T10:54:27.352+02:00,1654160064.863409,53.22866137252311,10.3982896408892,42.6418,-1,-1,-1,-1,29.29669761657715,52.3311376,-9999,3207.516857041667,0.000518798828125,0.8161163330078125,1.71685791015625,3207.511860041667,0.8962555641162195,1.796982567926547,-1.230276930655601,-0.3975529968738556,-3.294588327407837,1.116105794906616,-0.3143311142921448,-0.1145936250686646,1.601065754890442,XArbitraryZVertical,-0.6007611688048944,0.4201610035867928,-0.1865349536820459,0.6540302041662789,0.3254700601100922,0.9425813555717468,0.07489850372076035,0,0,0,-1,-1,3206.825183666667,unknown,2,2022-06-02T10:54:26.659+02:00,2022-06-02T10:17:13.754+02:00,521,1.609496,0,0,405.4342,0,0,2022-06-02T10:54:26.659+02:00,675852866.6587945,0,5.441406,101.3207,1,0.78
2022-06-02T10:54:27.362+02:00,1654160064.863409,53.22866137252311,10.3982896408892,42.6418,-1,-1,-1,-1,29.29669761657715,52.3311376,-9999,3207.526851041667,-0.0948333740234375,0.784271240234375,1.931289672851562,3207.521854041667,0.8944566159892521,1.758006944041385,-1.219141195595016,0.02352510020136833,-4.178541660308838,1.065606594085693,-0.3379144966602325,-0.1226876974105835,1.652748823165894,XArbitraryZVertical,-0.6023606999339524,0.4113588400062468,-0.1713418245426602,0.6622592885552563,0.3384332656860352,0.9388039112091064,0.06410901248455048,0,0,0,-1,-1,3206.825183666667,unknown,2,2022-06-02T10:54:26.659+02:00,2022-06-02T10:17:13.754+02:00,521,1.609496,0,0,405.4342,0,0,2022-06-02T10:54:26.659+02:00,675852866.6587945,0,5.441406,101.3207,1,0.78
2022-06-02T10:54:27.372+02:00,1654160064.863409,53.22866137252311,10.3982896408892,42.6418,-1,-1,-1,-1,29.29669761657715,52.3311376,-9999,3207.536845041667,-0.251983642578125,0.7755279541015625,2.039779663085938,3207.531848041667,0.8867941227476415,1.704299854723507,-1.209296978027132,0.186102569103241,-5.151381969451904,0.9595091342926025,-0.445363461971283,-0.1510963439941406,1.884212493896484,XArbitraryZVertical,-0.6037349417009032,0.3988014976178622,-0.1541421572710818,0.6728311445319065,0.3505301177501678,0.9353675842285156,0.04707702994346619,0,0,0,-1,-1,3206.825183666667,unknown,2,2022-06-02T10:54:26.659+02:00,2022-06-02T10:17:13.754+02:00,521,1.609496,0,0,405.4342,0,0,2022-06-02T10:54:26.659+02:00,675852866.6587945,0,5.441406,101.3207,1,0.78
2022-06-02T10:54:27.382+02:00,1654160064.863409,53.22866137252311,10.3982896408892,42.6418,-1,-1,-1,-1,29.29669761657715,52.3311376,-9999,3207.546839041667,-0.381256103515625,0.815948486328125,2.084869384765625,3207.541842041667,0.8778113207788381,1.638642585034989,-1.200708449558236,0.2499059736728668,-6.354859828948975,0.8125016689300537,-0.6128486394882202,-0.1567676663398743,2.015258550643921,XArbitraryZVertical,-0.6053409483835799,0.3818675479838448,-0.1342745161028514,0.6853537713044912,0.3608649969100952,0.932295560836792,0.02452097646892071,0,0,0,-1,-1,3206.825183666667,unknown,2,2022-06-02T10:54:26.659+02:00,2022-06-02T10:17:13.754+02:00,521,1.609496,0,0,405.4342,0,0,2022-06-02T10:54:26.659+02:00,675852866.6587945,0,5.441406,101.3207,1,0.78
2022-06-02T10:54:27.395+02:00,1654160064.863409,53.22866137252311,10.3982896408892,42.6418,-1,-1,-1,-1,29.29669761657715,52.3311376,-9999,3207.556833041667,-0.4692840576171875,0.805694580078125,1.982925415039062,3207.551836041667,0.8723523102591478,1.562853073486615,-1.192916217592867,0.1489732414484024,-7.827705860137939,0.7641466856002808,-0.750195324420929,-0.1135004758834839,2.087800025939941,XArbitraryZVertical,-0.6076022163767503,0.3596584868131295,-0.110439562542889,0.6994772109044155,0.3689391911029816,0.9294488430023193,-0.002930639078840613,0,0,0,-1,-1,3206.825183666667,unknown,2,2022-06-02T10:54:26.659+02:00,2022-06-02T10:17:13.754+02:00,521,1.609496,0,0,405.4342,0,0,2022-06-02T10:54:26.659+02:00,675852866.6587945,0,5.441406,101.3207,1,0.78
2022-06-02T10:54:27.402+02:00,1654160064.863409,53.22866137252311,10.3982896408892,42.6418,-1,-1,-1,-1,29.29669761657715,52.3311376,-9999,3207.566827041667,-0.5771484375,0.8882598876953125,1.841461181640625,3207.561830041667,0.8662585988841723,1.470383168207991,-1.185703812965491,0.373197615146637,-9.565555572509766,0.6255375146865845,-0.8430365324020386,-0.1210691928863525,2.020581722259521,XArbitraryZVertical,-0.6096160155546757,0.3309685150731266,-0.08197083011983526,0.7156178103778669,0.3737524747848511,0.9267637133598328,-0.03765631094574928,0,0,0,-1,-1,3206.825183666667,unknown,2,2022-06-02T10:54:26.659+02:00,2022-06-02T10:17:13.754+02:00,521,1.609496,0,0,405.4342,0,0,2022-06-02T10:54:26.659+02:00,675852866.6587945,0,5.441406,101.3207,1,0.78
2022-06-02T10:54:27.412+02:00,1654160064.863409,53.22866137252311,10.3982896408892,42.6418,-1,-1,-1,-1,29.29669761657715,52.3311376,-9999,3207.576821041667,-0.636016845703125,0.98675537109375,1.557373046875,3207.571824041667,0.8587013380448796,1.359853452095775,-1.179576583306126,0.390115350484848,-11.11001205444336,0.5006685256958008,-0.95001220703125,-0.03618484735488892,1.92130184173584,XArbitraryZVertical,-0.6107580795786762,0.2950495055747923,-0.04893429307788662,0.7331614526179149,0.3728638291358948,0.9244446158409119,-0.07984071224927902,0,0,0,-1,-1,3206.825183666667,unknown,2,2022-06-02T10:54:26.659+02:00,2022-06-02T10:17:13.754+02:00,521,1.609496,0,0,405.4342,0,0,2022-06-02T10:54:26.659+02:00,675852866.6587945,0,5.441406,101.3207,1,0.78
2022-06-02T10:54:27.422+02:00,1654160064.863409,53.22866137252311,10.3982896408892,42.6418,-1,-1,-1,-1,29.29669761657715,52.3311376,-9999,3207.586814041667,-0.658355712890625,0.837005615234375,1.574951171875,3207.581818041667,0.8523183537709214,1.236090871104252,-1.175155595292043,0.3197459876537323,-12.53139686584473,0.1776456981897354,-1.000029325485229,0.06400543451309204,1.68397319316864,XArbitraryZVertical,-0.6107466630927237,0.2523656136322419,-0.01208030301453072,0.7504359543945605,0.3640124499797821,0.9227498173713684,-0.1266002207994461,0,0,0,-1,-1,3206.825183666667,unknown,2,2022-06-02T10:54:26.659+02:00,2022-06-02T10:17:13.754+02:00,521,1.609496,0,0,405.4342,0,0,2022-06-02T10:54:26.659+02:00,675852866.6587945,0,5.441406,101.3207,1,0.78
2022-06-02T10:54:27.431+02:00,1654160064.863409,53.22866137252311,10.3982896408892,42.6418,-1,-1,-1,-1,29.29669761657715,52.3311376,-9999,3207.596808041667,-0.8063507080078125,0.471343994140625,2.241073608398438,3207.591811041667,0.8466067855888045,1.098448507641705,-1.17495705326584,0.2669256627559662,-13.87892055511475,-0.2951292991638184,-1.001717805862427,-0.08566778898239136,1.750382661819458,XArbitraryZVertical,-0.6095050862146898,0.2019597537449491,0.02781828813390843,0.7661212764002573,0.3433620929718018,0.9226732850074768,-0.1754316091537476,0,0,0,-1,-1,3206.825183666667,unknown,2,2022-06-02T10:54:26.659+02:00,2022-06-02T10:17:13.754+02:00,521,1.609496,0,0,405.4342,0,0,2022-06-02T10:54:26.659+02:00,675852866.6587945,0,5.441406,101.3207,1,0.78
2022-06-02T10:54:27.441+02:00,1654160064.863409,53.22866137252311,10.3982896408892,42.6418,-1,-1,-1,-1,29.29669761657715,52.3311376,-9999,3207.606802041667,-1.035354614257812,0.0981292724609375,3.365158081054688,3207.601805041667,0.8231931127023976,0.9314921151223413,-1.175415367483794,1.271697759628296,-15.21466827392578,-0.7814997434616089,-1.115445613861084,-0.4515060186386108,2.470874071121216,XArbitraryZVertical,-0.6035467379617762,0.1443296607973271,0.0692789273998855,0.7810893920949943,0.3090948760509491,0.9228498935699463,-0.2298005670309067,0,0,0,-1,-1,3206.825183666667,unknown,2,2022-06-02T10:54:26.659+02:00,2022-06-02T10:17:13.754+02:00,521,1.609496,0,0,405.4342,0,0,2022-06-02T10:54:26.659+02:00,675852866.6587945,0,5.441406,101.3207,1,0.78
2022-06-02T10:54:27.451+02:00,1654160064.863409,53.22866137252311,10.3982896408892,42.6418,-1,-1,-1,-1,29.29669761657715,52.3311376,-9999,3207.616796041667,-2.417739868164062,-0.33453369140625,3.43878173828125,3207.611799041667,0.7668527097203441,0.7244552667766231,-1.168928254958138,2.927856683731079,-15.68091678619385,-1.237501859664917,-1.294572710990906,-0.8222028017044067,3.658065795898438,XArbitraryZVertical,-0.5890459245839625,0.08106130165512254,0.1104354536561589,0.7964031070971699,0.2592180669307709,0.9203319549560547,-0.2929079234600067,0,0,0,-1,-1,3206.825183666667,unknown,2,2022-06-02T10:54:26.659+02:00,2022-06-02T10:17:13.754+02:00,521,1.609496,0,0,405.4342,0,0,2022-06-02T10:54:26.659+02:00,675852866.6587945,0,5.441406,101.3207,1,0.78
2022-06-02T10:54:27.461+02:00,1654160064.863409,53.22866137252311,10.3982896408892,42.6418,-1,-1,-1,-1,29.29669761657715,52.3311376,-9999,3207.626790041667,-16.9908447265625,0.9448089599609375,-30.53936767578125,3207.621793041667,0.5952136352371008,0.5456999742497951,-1.127551485398363,13.28008365631104,8.03543758392334,-7.792121410369873,-2.640331983566284,-1.237898588180542,3.80536675453186,XArbitraryZVertical,-0.5587819013050233,0.06685947935821157,0.1010111337517884,0.8204201836712871,0.2225921154022217,0.9033647775650024,-0.3665851950645447,0,0,0,-1,-1,3206.825183666667,unknown,2,2022-06-02T10:54:26.659+02:00,2022-06-02T10:17:13.754+02:00,521,1.609496,0,0,405.4342,0,0,2022-06-02T10:54:26.659+02:00,675852866.6587945,0,5.441406,101.3207,1,0.78
2022-06-02T10:54:27.472+02:00,1654160064.863409,53.22866137252311,10.3982896408892,42.6418,-1,-1,-1,-1,29.29669761657715,52.3311376,-9999,3207.636784041667,-0.3433685302734375,-4.25439453125,-19.40798950195312,3207.631787041667,0.4182926532999169,0.4276666607596079,-1.072206332589473,10.10471630096436,-0.2318586558103561,0.2550318837165833,-17.18917274475098,0.06655114889144897,-30.104248046875,XArbitraryZVertical,-0.5261573146438741,0.07482310560354305,0.06839961009907464,0.8443229808433325,0.1983276456594467,0.878257691860199,-0.4351199567317963,0,0,0,-1,-1,3206.825183666667,unknown,2,2022-06-02T10:54:26.659+02:00,2022-06-02T10:17:13.754+02:00,521,1.609496,0,0,405.4342,0,0,2022-06-02T10:54:26.659+02:00,675852866.6587945,0,5.441406,101.3207,1,0.78
2022-06-02T10:54:27.481+02:00,1654160064.863409,53.22866137252311,10.3982896408892,42.6418,-1,-1,-1,-1,29.29669761657715,52.3311376,-9999,3207.646778041667,-1.388198852539062,-1.489456176757812,7.133621215820312,3207.641781041667,0.4491388916062954,0.409078369716541,-1.029524735679806,-2.681432247161865,-7.077291965484619,5.645686149597168,-0.548306941986084,-5.111448764801025,-18.93527603149414,XArbitraryZVertical,-0.5093303662750482,0.06500533100129242,0.09229949938738839,0.8531340303950051,0.2049383968114853,0.8570542335510254,-0.4727137684822083,0,0,0,-1,-1,3206.825183666667,unknown,2,2022-06-02T10:54:26.659+02:00,2022-06-02T10:17:13.754+02:00,521,1.609496,0,0,405.4342,0,0,2022-06-02T10:54:26.659+02:00,675852866.6587945,0,5.441406,101.3207,1,0.78
2022-06-02T10:54:27.491+02:00,1654160064.863409,53.22866137252311,10.3982896408892,42.6418,-1,-1,-1,-1,29.29669761657715,52.3311376,-9999,3207.656772041667,-0.2958526611328125,0.553558349609375,8.62493896484375,3207.651775041667,0.5626104531105454,0.5074391441441973,-1.07715645267644,-11.55437278747559,8.448487281799316,-0.07437902688980103,-1.618454217910767,-2.370070219039917,7.547748565673828,XArbitraryZVertical,-0.5367975616597518,0.06917204871980634,0.1069969772528878,0.8340354565071804,0.2302553206682205,0.8806139826774597,-0.4141272008419037,0,0,0,-1,-1,3206.825183666667,unknown,2,2022-06-02T10:54:26.659+02:00,2022-06-02T10:17:13.754+02:00,521,1.609496,0,0,405.4342,0,0,2022-06-02T10:54:26.659+02:00,675852866.6587945,0,5.441406,101.3207,1,0.78
2022-06-02T10:54:27.501+02:00,1654160064.863409,53.22866137252311,10.3982896408892,42.6418,-1,-1,-1,-1,29.29669761657715,52.3311376,-9999,3207.666766041667,1.805435180664062,3.8421630859375,-4.316604614257812,3207.661769041667,0.6894082743382562,0.7125367499527882,-1.189987263826078,-10.92685222625732,5.829292297363281,-3.24205207824707,-0.5388351082801819,-0.3748059868812561,8.906185150146484,XArbitraryZVertical,-0.5920107533883511,0.09434068165878966,0.0782822974227681,0.7965519535350186,0.2429824322462082,0.9283642172813416,-0.2812462151050568,0,0,0,-1,-1,3206.825183666667,unknown,2,2022-06-02T10:54:26.659+02:00,2022-06-02T10:17:13.754+02:00,521,1.609496,0,0,405.4342,0,0,2022-06-02T10:54:26.659+02:00,675852866.6587945,0,5.441406,101.3207,1,0.78
2022-06-02T10:54:27.511+02:00,1654160064.863409,53.22866137252311,10.3982896408892,42.6418,-1,-1,-1,-1,29.29669761657715,52.3311376,-9999,3207.676760041667,-0.059051513671875,1.372589111328125,-2.9130859375,3207.671763041667,0.7366175238790026,0.7772496192210285,-1.235695524134725,5.891060352325439,-1.668651700019836,-0.7821028828620911,1.574795722961426,2.897785663604736,-4.082175731658936,XArbitraryZVertical,-0.6113377214763144,0.09514020907308876,0.06681326287526514,0.7827837102166538,0.2306393533945084,0.9443771839141846,-0.2344290614128113,0,0,0,-1,-1,3206.825183666667,unknown,2,2022-06-02T10:54:26.659+02:00,2022-06-02T10:17:13.754+02:00,521,1.609496,0,0,405.4342,0,0,2022-06-02T10:54:26.659+02:00,675852866.6587945,0,5.441406,101.3207,1,0.78
2022-06-02T10:54:27.530+02:00,1654160064.863409,53.22866137252311,10.3982896408892,42.6418,-1,-1,-1,-1,29.29669761657715,52.3311376,-9999,3207.686754041667,-3.444915771484375,2.823638916015625,1.58270263671875,3207.681757041667,0.5190887378600321,0.5690806396424531,-1.140967142870844,15.01232719421387,1.558962464332581,-0.9837707877159119,-0.283601850271225,0.4635519981384277,-2.56204628944397,XArbitraryZVertical,-0.5615987354619789,0.09532595921534713,0.06079316678564037,0.8196486391356136,0.2245503216981888,0.9090369343757629,-0.3510396480560303,0,0,0,-1,-1,3206.825183666667,unknown,2,2022-06-02T10:54:26.659+02:00,2022-06-02T10:17:13.754+02:00,521,1.609496,0,0,405.4342,0,0,2022-06-02T10:54:26.659+02:00,675852866.6587945,0,5.441406,101.3207,1,0.78
2022-06-02T10:54:27.533+02:00,1654160064.863409,53.22866137252311,10.3982896408892,42.6418,-1,-1,-1,-1,29.29669761657715,52.3311376,-9999,3207.696748041667,-2.372726440429688,0.0529327392578125,0.3710479736328125,3207.691751041667,0.3607889594615765,0.4527563444536021,-1.061352313008979,5.400717258453369,2.561758995056152,-3.841078281402588,-3.658254623413086,1.950623035430908,2.021256923675537,XArbitraryZVertical,-0.5199319108954389,0.1019492844083714,0.03903900992023882,0.847203039810449,0.2133387476205826,0.873015820980072,-0.4385543167591095,0,0,0,-1,-1,3206.825183666667,unknown,2,2022-06-02T10:54:26.659+02:00,2022-06-02T10:17:13.754+02:00,521,1.609496,0,0,405.4342,0,0,2022-06-02T10:54:26.659+02:00,675852866.6587945,0,5.441406,101.3207,1,0.78
2022-06-02T10:54:27.541+02:00,1654160064.863409,53.22866137252311,10.3982896408892,42.6418,-1,-1,-1,-1,29.29669761657715,52.3311376,-9999,3207.706742041667,-0.936767578125,-2.079330444335938,-0.887359619140625,3207.701745041667,0.2514070501675894,0.3805176042852629,-1.053935550882803,1.334611058235168,2.278263092041016,-4.628774166107178,-2.556255578994751,-0.81644207239151,0.829855740070343,XArbitraryZVertical,-0.5104364137219417,0.1002534198292958,0.01205145397934296,0.8539664242894491,0.1835291087627411,0.869374692440033,-0.4588078260421753,0,0,0,-1,-1,3206.825183666667,unknown,2,2022-06-02T10:54:26.659+02:00,2022-06-02T10:17:13.754+02:00,521,1.609496,0,0,405.4342,0,0,2022-06-02T10:54:26.659+02:00,675852866.6587945,0,5.441406,101.3207,1,0.78
2022-06-02T10:54:27.551+02:00,1654160064.863409,53.22866137252311,10.3982896408892,42.6418,-1,-1,-1,-1,29.29669761657715,52.3311376,-9999,3207.716736041667,-0.1998443603515625,0.65472412109375,-0.2212982177734375,3207.711739041667,0.1904749322169297,0.3508835327520763,-1.056987523671323,0.2765712738037109,2.467224597930908,-1.257048487663269,-1.105708837509155,-2.950209379196167,-0.4258093237876892,XArbitraryZVertical,-0.5085765517408574,0.102833450893492,-0.006752507264181752,0.8548271056319636,0.1689413040876389,0.8708788156509399,-0.4615503549575806,0,0,0,-1,-1,3206.825183666667,unknown,2,2022-06-02T10:54:26.659+02:00,2022-06-02T10:17:13.754+02:00,521,1.609496,0,0,405.4342,0,0,2022-06-02T10:54:26.659+02:00,675852866.6587945,0,5.441406,101.3207,1,0.78
2022-06-02T10:54:27.561+02:00,1654160064.863409,53.22866137252311,10.3982896408892,42.6418,-1,-1,-1,-1,29.29669761657715,52.3311376,-9999,3207.726730041667,-0.4869842529296875,1.729904174804688,-0.1961669921875,3207.721733041667,0.1718760850971987,0.3603853294693443,-1.057970040908993,0.3046112954616547,2.791069746017456,-1.140618920326233,-0.37286177277565,-0.2166373133659363,0.2378251850605011,XArbitraryZVertical,-0.5079346176812299,0.1115378330766405,-0.01720952430540047,0.8539704117722456,0.1730173975229263,0.8713613152503967,-0.4591234624385834,0,0,0,-1,-1,3206.825183666667,unknown,2,2022-06-02T10:54:26.659+02:00,2022-06-02T10:17:13.754+02:00,521,1.609496,0,0,405.4342,0,0,2022-06-02T10:54:26.659+02:00,675852866.6587945,0,5.441406,101.3207,1,0.78
2022-06-02T10:54:27.571+02:00,1654160064.863409,53.22866137252311,10.3982896408892,42.6418,-1,-1,-1,-1,29.29669761657715,52.3311376,-9999,3207.736724041667,-0.4793243408203125,1.672592163085938,-0.2266998291015625,3207.731727041667,0.1249934941705396,0.3478353163714059,-1.059985520561159,0.9569368362426758,2.900492906570435,-3.177509307861328,-0.6536271572113037,0.8575555682182312,0.2634395062923431,XArbitraryZVertical,-0.5062538385613109,0.1179142821062979,-0.03423195714777682,0.853598989799178,0.1666429042816162,0.872348427772522,-0.4596065580844879,0,0,0,-1,-1,3206.825183666667,unknown,2,2022-06-02T10:54:26.659+02:00,2022-06-02T10:17:13.754+02:00,521,1.609496,0,0,405.4342,0,0,2022-06-02T10:54:26.659+02:00,675852866.6587945,0,5.441406,101.3207,1,0.78
2022-06-02T10:54:27.581+02:00,1654160064.863409,53.22866137252311,10.3982896408892,42.6418,-1,-1,-1,-1,29.29669761657715,52.3311376,-9999,3207.746718041667,-0.250946044921875,1.029281616210938,0.130340576171875,3207.741721041667,0.05241502428629123,0.3126673169649462,-1.058345658124807,1.441505074501038,2.780285596847534,-3.257056713104248,-0.6301440000534058,0.8010465502738953,0.2398424744606018,XArbitraryZVertical,-0.50201380161181,0.1212887047922201,-0.05622768551143044,0.8544645170640861,0.1508196443319321,0.8715455532073975,-0.4665423929691315,0,0,0,-1,-1,3206.825183666667,unknown,2,2022-06-02T10:54:26.659+02:00,2022-06-02T10:17:13.754+02:00,521,1.609496,0,0,405.4342,0,0,2022-06-02T10:54:26.659+02:00,675852866.6587945,0,5.441406,101.3207,1,0.78
2022-06-02T10:54:27.591+02:00,1654160064.863409,53.22866137252311,10.3982896408892,42.6418,-1,-1,-1,-1,29.29669761657715,52.3311376,-9999,3207.756712041667,-0.1465606689453125,0.642486572265625,0.3062591552734375,3207.751715041667,-0.01484714837721783,0.2817125520049988,-1.059006068230412,0.19228196144104,2.813880205154419,-3.154316425323486,-0.3870939910411835,0.1574124097824097,0.6007742285728455,XArbitraryZVertical,-0.4991887639107704,0.1248747432307389,-0.07725361854725535,0.8539606218223903,0.1361479461193085,0.8718691468238831,-0.4704337418079376,0,0,0,-1,-1,3206.825183666667,unknown,2,2022-06-02T10:54:26.659+02:00,2022-06-02T10:17:13.754+02:00,521,1.609496,0,0,405.4342,0,0,2022-06-02T10:54:26.659+02:00,675852866.6587945,0,5.441406,101.3207,1,0.78
2022-06-02T10:54:27.601+02:00,1654160064.863409,53.22866137252311,10.3982896408892,42.6418,-1,-1,-1,-1,29.29669761657715,52.3311376,-9999,3207.766706041667,0.045257568359375,0.796112060546875,0.3428192138671875,3207.761709041667,-0.07520390136129367,0.2568934336698949,-1.072403551204796,-1.153906464576721,2.79418158531189,-3.147974967956543,-0.2680131793022156,-0.2358655333518982,0.7685868740081787,XArbitraryZVertical,-0.5021682295343485,0.1290858344304635,-0.09744449423559831,0.8495106964529412,0.1214525327086449,0.8783519864082336,-0.4623278379440308,0,0,0,-1,-1,3206.825183666667,unknown,2,2022-06-02T10:54:26.659+02:00,2022-06-02T10:17:13.754+02:00,521,1.609496,0,0,405.4342,0,0,2022-06-02T10:54:26.659+02:00,675852866.6587945,0,5.441406,101.3207,1,0.78
2022-06-02T10:54:27.611+02:00,1654160064.863409,53.22866137252311,10.3982896408892,42.6418,-1,-1,-1,-1,29.29669761657715,52.3311376,-9999,3207.776700041667,0.116455078125,0.9484405517578125,0.3299407958984375,3207.771703041667,-0.1302637748089093,0.2350648528440088,-1.094877992022335,-1.935858845710754,2.581047534942627,-2.935755968093872,-0.06144943088293076,-0.09276044368743896,0.7883743047714233,XArbitraryZVertical,-0.5092985618663606,0.1335567216079001,-0.1160965744209021,0.8421989235675675,0.1067070141434669,0.8888723850250244,-0.4455551505088806,0,0,0,-1,-1,3206.825183666667,unknown,2,2022-06-02T10:54:26.659+02:00,2022-06-02T10:17:13.754+02:00,521,1.609496,0,0,405.4342,0,0,2022-06-02T10:54:26.659+02:00,675852866.6587945,0,5.441406,101.3207,1,0.78
2022-06-02T10:54:27.621+02:00,1654160064.863409,53.22866137252311,10.3982896408892,42.6418,-1,-1,-1,-1,29.29669761657715,52.3311376,-9999,3207.786694041667,0.0807342529296875,0.823028564453125,0.4097900390625,3207.781697041667,-0.1830277575574495,0.2121484158955704,-1.122644584764945,-2.475032329559326,2.324248790740967,-2.869649887084961,0.02521909028291702,0.04719096422195435,0.7535268068313599,XArbitraryZVertical,-0.5189084913189702,0.1376260245271705,-0.1330506636391975,0.8331209057964338,0.09123599529266357,0.9012494683265686,-0.4235861003398895,0,0,0,-1,-1,3206.825183666667,unknown,2,2022-06-02T10:54:26.659+02:00,2022-06-02T10:17:13.754+02:00,521,1.609496,0,0,405.4342,0,0,2022-06-02T10:54:26.659+02:00,675852866.6587945,0,5.441406,101.3207,1,0.78
2022-06-02T10:54:27.631+02:00,1654160064.863409,53.22866137252311,10.3982896408892,42.6418,-1,-1,-1,-1,29.29669761657715,52.3311376,-9999,3207.796688041667,0.028564453125,0.7239227294921875,0.4061737060546875,3207.791691041667,-0.2375803551920002,0.1850614213365659,-1.154608237086231,-2.9442458152771,2.218550443649292,-2.797864437103271,0.00634455680847168,-0.09160816669464111,0.8071637153625488,XArbitraryZVertical,-0.5304269120427916,0.1412814047898812,-0.1489527511416839,0.8224961076290167,0.07438971847295761,0.9146366715431213,-0.3973737061023712,0,0,0,-1,-1,3206.825183666667,unknown,2,2022-06-02T10:54:26.659+02:00,2022-06-02T10:17:13.754+02:00,521,1.609496,0,0,405.4342,0,0,2022-06-02T10:54:26.659+02:00,675852866.6587945,0,5.441406,101.3207,1,0.78
2022-06-02T10:54:27.642+02:00,1654160064.863409,53.22866137252311,10.3982896408892,42.6418,-1,-1,-1,-1,29.29669761657715,52.3311376,-9999,3207.806682041667,0.007110595703125,0.80810546875,0.343536376953125,3207.801685041667,-0.2952246930645061,0.1538166972103745,-1.189319876298398,-3.339131116867065,2.252291202545166,-2.609208345413208,-0.02847456932067871,-0.2041932940483093,0.7740693092346191,XArbitraryZVertical,-0.5431361930071448,0.145104179209478,-0.1640449745344099,0.8105782365763888,0.0570390522480011,0.9281159639358521,-0.3678956925868988,0,0,0,-1,-1,3206.825183666667,unknown,2,2022-06-02T10:54:26.659+02:00,2022-06-02T10:17:13.754+02:00,521,1.609496,0,0,405.4342,0,0,2022-06-02T10:54:26.659+02:00,675852866.6587945,0,5.441406,101.3207,1,0.78
2022-06-02T10:54:27.651+02:00,1654160064.863409,53.22866137252311,10.3982896408892,42.6418,-1,-1,-1,-1,29.29669761657715,52.3311376,-9999,3207.816676041667,0.0100250244140625,0.923553466796875,0.2700042724609375,3207.811679041667,-0.3541295916294531,0.121419129404504,-1.226034646083335,-3.403147459030151,2.301373481750488,-2.486461400985718,-0.03382490947842598,-0.1330506801605225,0.6790202856063843,XArbitraryZVertical,-0.5565583253773051,0.1500029170419029,-0.178164445069001,0.7974956183826034,0.04093552753329277,0.9411560297012329,-0.3354839086532593,0,0,0,-1,-1,3206.825183666667,unknown,2,2022-06-02T10:54:26.659+02:00,2022-06-02T10:17:13.754+02:00,521,1.609496,0,0,405.4342,0,0,2022-06-02T10:54:26.659+02:00,675852866.6587945,0,5.441406,101.3207,1,0.78
2022-06-02T10:54:27.662+02:00,1654160064.863409,53.22866137252311,10.3982896408892,42.6418,-1,-1,-1,-1,29.29669761657715,52.3311376,-9999,3207.826670041667,0.004608154296875,0.9960174560546875,0.211151123046875,3207.821673041667,-0.4200302896600193,0.08237998626180147,-1.261717092221114,-3.313676595687866,2.391178846359253,-2.41542649269104,-0.01500506699085236,-0.0290607213973999,0.5731539726257324,XArbitraryZVertical,-0.5694567038169829,0.1553838994348606,-0.191959930870782,0.7840447591710827,0.02503012493252754,0.9526140689849854,-0.3031498193740845,0,0,0,-1,-1,3206.825183666667,unknown,2,2022-06-02T10:54:26.659+02:00,2022-06-02T10:17:13.754+02:00,521,1.609496,0,0,405.4342,0,0,2022-06-02T10:54:26.659+02:00,675852866.6587945,0,5.441406,101.3207,1,0.78
2022-06-02T10:54:27.671+02:00,1654160064.863409,53.22866137252311,10.3982896408892,42.6418,-1,-1,-1,-1,29.29669761657715,52.3311376,-9999,3207.836664041667,-0.0085906982421875,0.9065704345703125,0.2275390625,3207.831667041667,-0.4965068959865923,0.03372262319940799,-1.296307677374334,-3.383157730102539,2.536850929260254,-2.348943948745728,-0.004530743695795536,0.03345340490341187,0.4820514023303986,XArbitraryZVertical,-0.5818218730825795,0.1613479276991683,-0.2057201028215157,0.7701488585998362,0.009138933382928371,0.9625639319419861,-0.2709003090858459,0,0,0,-1,-1,3206.825183666667,unknown,2,2022-06-02T10:54:26.659+02:00,2022-06-02T10:17:13.754+02:00,521,1.609496,0,0,405.4342,0,0,2022-06-02T10:54:26.659+02:00,675852866.6587945,0,5.441406,101.3207,1,0.78
2022-06-02T10:54:27.681+02:00,1654160064.863409,53.22866137252311,10.3982896408892,42.6418,-1,-1,-1,-1,29.29669761657715,52.3311376,-9999,3207.846658041667,-0.0093231201171875,0.7562255859375,0.3185272216796875,3207.841661041667,-0.5877436602227389,-0.02856031907295791,-1.331367234279104,-3.681433439254761,2.658550262451172,-2.271657466888428,-0.001818595919758081,-0.06490331888198853,0.4645896553993225,XArbitraryZVertical,-0.5943133608733974,0.1681258318375802,-0.2193520946465577,0.7552547823269525,-0.006772084161639214,0.9714735150337219,-0.2370506674051285,0,0,0,-1,-1,3206.825183666667,unknown,2,2022-06-02T10:54:26.659+02:00,2022-06-02T10:17:13.754+02:00,521,1.609496,0,0,405.4342,0,0,2022-06-02T10:54:26.659+02:00,675852866.6587945,0,5.441406,101.3207,1,0.78
2022-06-02T10:54:27.691+02:00,1654160064.863409,53.22866137252311,10.3982896408892,42.6418,-1,-1,-1,-1,29.29669761657715,52.3311376,-9999,3207.856651041667,-0.0279541015625,0.71240234375,0.436798095703125,3207.851654041667,-0.701492147948964,-0.1123262461063458,-1.369766636142787,-4.368579864501953,2.794887065887451,-2.121826171875,0.01305884309113026,-0.2236360311508179,0.51694655418396,XArbitraryZVertical,-0.6080703469175086,0.1761838193506645,-0.2323478505052022,0.7383928779563929,-0.02238192036747932,0.9798614978790283,-0.1984194368124008,0,0,0,-1,-1,3206.825183666667,unknown,2,2022-06-02T10:54:26.659+02:00,2022-06-02T10:17:13.754+02:00,521,1.609496,0,0,405.4342,0,0,2022-06-02T10:54:26.659+02:00,675852866.6587945,0,5.441406,101.3207,1,0.78
2022-06-02T10:54:27.701+02:00,1654160064.863409,53.22866137252311,10.3982896408892,42.6418,-1,-1,-1,-1,29.29669761657715,52.3311376,-9999,3207.866645041667,-0.056610107421875,0.8576812744140625,0.493988037109375,3207.861649041667,-0.8614693327395536,-0.240923151746788,-1.41297041603146,-5.144338130950928,2.97925066947937,-1.964828848838806,0.009546875953674316,-0.2751690745353699,0.5894297957420349,XArbitraryZVertical,-0.6237607011918674,0.1860287287084681,-0.2444135154308151,0.7187335216319672,-0.03750092536211014,0.9875712990760803,-0.1526318043470383,0,0,0,-1,-1,3206.825183666667,unknown,2,2022-06-02T10:54:26.659+02:00,2022-06-02T10:17:13.754+02:00,521,1.609496,0,0,405.4342,0,0,2022-06-02T10:54:26.659+02:00,675852866.6587945,0,5.441406,101.3207,1,0.78
2022-06-02T10:54:27.712+02:00,1654160064.863409,53.22866137252311,10.3982896408892,42.6418,-1,-1,-1,-1,29.29669761657715,52.3311376,-9999,3207.876639041667,-0.0871734619140625,1.0665283203125,0.4471435546875,3207.871642041667,-1.137881217992633,-0.4838617516948941,-1.45800514861259,-5.818467140197754,3.22098970413208,-1.813298106193542,-0.004250943660736084,-0.1359646320343018,0.5936191082000732,XArbitraryZVertical,-0.6411147998406702,0.1978792758831052,-0.2556620319794626,0.6960261878746951,-0.05235910788178444,0.9936457872390747,-0.09963121265172958,0,0,0,-1,-1,3206.825183666667,unknown,2,2022-06-02T10:54:26.659+02:00,2022-06-02T10:17:13.754+02:00,521,1.609496,0,0,405.4342,0,0,2022-06-02T10:54:26.659+02:00,675852866.6587945,0,5.441406,101.3207,1,0.78
2022-06-02T10:54:27.721+02:00,1654160064.863409,53.22866137252311,10.3982896408892,42.6418,-1,-1,-1,-1,29.29669761657715,52.3311376,-9999,3207.886633041667,-0.13116455078125,1.186508178710938,0.3617706298828125,3207.881636041667,-1.701012852355403,-1.011654294104654,-1.491309825680394,-6.098083972930908,3.353738069534302,-1.647681474685669,-0.01986413449048996,0.06968557834625244,0.4892625212669373,XArbitraryZVertical,-0.6590127639424864,0.2112880088423842,-0.2661902526844511,0.6709710664568413,-0.06730926781892776,0.996842622756958,-0.0421191081404686,0,0,0,-1,-1,3206.825183666667,unknown,2,2022-06-02T10:54:26.659+02:00,2022-06-02T10:17:13.754+02:00,521,1.609496,0,0,405.4342,0,0,2022-06-02T10:54:26.659+02:00,675852866.6587945,0,5.441406,101.3207,1,0.78
2022-06-02T10:54:27.731+02:00,1654160064.863409,53.22866137252311,10.3982896408892,42.6418,-1,-1,-1,-1,29.29669761657715,52.3311376,-9999,3207.896627041667,-0.192718505859375,1.223602294921875,0.2777557373046875,3207.891630041667,-2.489935005146187,-1.764052466417084,-1.486683777633684,-6.092445850372314,3.47564697265625,-1.463144659996033,-0.04871624708175659,0.1900434494018555,0.3456355333328247,XArbitraryZVertical,-0.6761548118649047,0.2255707725331808,-0.2760667510934046,0.6447631731074001,-0.08244827389717102,0.9964646100997925,0.01613500528037548,0,0,0,-1,-1,3206.825183666667,unknown,2,2022-06-02T10:54:26.659+02:00,2022-06-02T10:17:13.754+02:00,521,1.609496,0,0,405.4342,0,0,2022-06-02T10:54:26.659+02:00,675852866.6587945,0,5.441406,101.3207,1,0.78
2022-06-02T10:54:27.741+02:00,1654160064.863409,53.22866137252311,10.3982896408892,42.6418,-1,-1,-1,-1,29.29669761657715,52.3311376,-9999,3207.906621041667,-0.2252197265625,1.25531005859375,0.2628326416015625,3207.901624041667,-2.97104390902456,-2.207370328077327,-1.449042612875908,-5.801956176757812,3.602126359939575,-1.269124150276184,-0.09505490958690643,0.2310048937797546,0.2055595964193344,XArbitraryZVertical,-0.6915880334503501,0.2404246277668663,-0.2855706649440962,0.6183455216773535,-0.0976635217666626,0.9925971627235413,0.07219602167606354,0,0,0,-1,-1,3206.825183666667,unknown,2,2022-06-02T10:54:26.659+02:00,2022-06-02T10:17:13.754+02:00,521,1.609496,0,0,405.4342,0,0,2022-06-02T10:54:26.659+02:00,675852866.6587945,0,5.441406,101.3207,1,0.78
2022-06-02T10:54:27.751+02:00,1654160064.863409,53.22866137252311,10.3982896408892,42.6418,-1,-1,-1,-1,29.29669761657715,52.3311376,-9999,3207.916615041667,-0.234619140625,1.303085327148438,0.3655853271484375,3207.911618041667,3.080021226571048,-2.400714519045667,-1.402753752455346,-5.326768398284912,3.674788236618042,-1.078708171844482,-0.1123352572321892,0.2693958878517151,0.1394212245941162,XArbitraryZVertical,-0.7046061164978994,0.2554130945656723,-0.294953785139352,0.5927027191782978,-0.112884409725666,0.9859140515327454,0.1234112530946732,0,0,0,-1,-1,3206.825183666667,unknown,2,2022-06-02T10:54:26.659+02:00,2022-06-02T10:17:13.754+02:00,521,1.609496,0,0,405.4342,0,0,2022-06-02T10:54:26.659+02:00,675852866.6587945,0,5.441406,101.3207,1,0.78
2022-06-02T10:54:27.761+02:00,1654160064.863409,53.22866137252311,10.3982896408892,42.6418,-1,-1,-1,-1,29.29669761657715,52.3311376,-9999,3207.926609041667,-0.25390625,1.285812377929688,0.4472808837890625,3207.921612041667,2.951222091560787,-2.490059278685187,-1.357468334271032,-4.745084285736084,3.75784707069397,-0.970809280872345,-0.1062353700399399,0.3257533311843872,0.1972410529851913,XArbitraryZVertical,-0.7149960331498715,0.2700976291685626,-0.3045068978629084,0.5684217302414285,-0.1283837258815765,0.9773317575454712,0.168344110250473,0,0,0,-1,-1,3206.825183666667,unknown,2,2022-06-02T10:54:26.659+02:00,2022-06-02T10:17:13.754+02:00,521,1.609496,0,0,405.4342,0,0,2022-06-02T10:54:26.659+02:00,675852866.6587945,0,5.441406,101.3207,1,0.78
2022-06-02T10:54:27.771+02:00,1654160064.863409,53.22866137252311,10.3982896408892,42.6418,-1,-1,-1,-1,29.29669761657715,52.3311376,-9999,3207.936603041667,-0.2522430419921875,1.238616943359375,0.511260986328125,3207.931606041667,2.871687772954063,-2.529435586682499,-1.316409084491167,-4.085185527801514,3.832111835479736,-0.8773885369300842,-0.1092983782291412,0.3179945945739746,0.2413262128829956,XArbitraryZVertical,-0.7226665255071775,0.2841309412554257,-0.3146803231905924,0.545892758717464,-0.1446078270673752,0.9678176641464233,0.2059545964002609,0,0,0,-1,-1,3206.825183666667,unknown,2,2022-06-02T10:54:26.659+02:00,2022-06-02T10:17:13.754+02:00,521,1.609496,0,0,405.4342,0,0,2022-06-02T10:54:26.659+02:00,675852866.6587945,0,5.441406,101.3207,1,0.78
2022-06-02T10:54:27.782+02:00,1654160064.863409,53.22866137252311,10.3982896408892,42.6418,-1,-1,-1,-1,29.29669761657715,52.3311376,-9999,3207.946597041667,-0.2354583740234375,1.101150512695312,0.6260833740234375,3207.941600041667,2.816657084057586,-2.544248430492214,-1.280549263783852,-3.534597158432007,3.789084434509277,-0.7378538250923157,-0.09127640724182129,0.2804436683654785,0.2746306657791138,XArbitraryZVertical,-0.7279008474370421,0.2974483134586537,-0.3252182330492462,0.525278937982785,-0.1609665900468826,0.9581732153892517,0.2366302907466888,0,0,0,-1,-1,3206.825183666667,unknown,2,2022-06-02T10:54:26.659+02:00,2022-06-02T10:17:13.754+02:00,521,1.609496,0,0,405.4342,0,0,2022-06-02T10:54:26.659+02:00,675852866.6587945,0,5.441406,101.3207,1,0.78
2022-06-02T10:54:27.792+02:00,1654160064.863409,53.22866137252311,10.3982896408892,42.6418,-1,-1,-1,-1,29.29669761657715,52.3311376,-9999,3207.956591041667,-0.2461395263671875,0.95330810546875,0.65533447265625,3207.951594041667,2.776028283993984,-2.545336089719867,-1.250008852005973,-2.93456768989563,3.727503538131714,-0.652190089225769,-0.05839422345161438,0.152163028717041,0.3651789426803589,XArbitraryZVertical,-0.7310353262022853,0.3099024280392599,-0.3358967114559408,0.5066766072038339,-0.1770641058683395,0.9489874243736267,0.2609043121337891,0,0,0,-1,-1,3206.825183666667,unknown,2,2022-06-02T10:54:26.659+02:00,2022-06-02T10:17:13.754+02:00,521,1.609496,0,0,405.4342,0,0,2022-06-02T10:54:26.659+02:00,675852866.6587945,0,5.441406,101.3207,1,0.78
2022-06-02T10:54:27.801+02:00,1654160064.863409,53.22866137252311,10.3982896408892,42.6418,-1,-1,-1,-1,29.29669761657715,52.3311376,-9999,3207.966585041667,-0.2698516845703125,0.952392578125,0.6997528076171875,3207.961588041667,2.746802954679432,-2.536071843537754,-1.224724209187994,-2.416945219039917,3.616606950759888,-0.5675114989280701,-0.05306726694107056,0.01259559392929077,0.3764381110668182,XArbitraryZVertical,-0.7322959079417621,0.3212333011753804,-0.3468413434474655,0.4901559178098665,-0.193072184920311,0.9407123327255249,0.2788962721824646,0,0,0,-1,-1,3206.825183666667,unknown,2,2022-06-02T10:54:26.659+02:00,2022-06-02T10:17:13.754+02:00,521,1.609496,0,0,405.4342,0,0,2022-06-02T10:54:26.659+02:00,675852866.6587945,0,5.441406,101.3207,1,0.78
2022-06-02T10:54:27.811+02:00,1654160064.863409,53.22866137252311,10.3982896408892,42.6418,-1,-1,-1,-1,29.29669761657715,52.3311376,-9999,3207.976579041667,-0.2867889404296875,1.044815063476562,0.6958465576171875,3207.971582041667,2.72695228487084,-2.518771609800728,-1.204728572482966,-1.755533456802368,3.529437065124512,-0.5435500144958496,-0.06105135381221771,0.0186503529548645,0.4090159833431244,XArbitraryZVertical,-0.7318349789328821,0.3313395984983369,-0.3580846989810823,0.4758223054805712,-0.20880027115345,0.9337421059608459,0.2907367348670959,0,0,0,-1,-1,3206.825183666667,unknown,2,2022-06-02T10:54:26.659+02:00,2022-06-02T10:17:13.754+02:00,521,1.609496,0,0,405.4342,0,0,2022-06-02T10:54:26.659+02:00,675852866.6587945,0,5.441406,101.3207,1,0.78
2022-06-02T10:54:27.822+02:00,1654160064.863409,53.22866137252311,10.3982896408892,42.6418,-1,-1,-1,-1,29.29669761657715,52.3311376,-9999,3207.986573041667,-0.2735748291015625,1.13787841796875,0.624725341796875,3207.981576041667,2.718118381377183,-2.491774966893177,-1.190634014396073,-1.020665645599365,3.472965478897095,-0.5374213457107544,-0.0622754693031311,0.1162106990814209,0.4004017412662506,XArbitraryZVertical,-0.7295072040564878,0.339914134400413,-0.3700890563083121,0.4640169501657154,-0.2245134264230728,0.9286044239997864,0.2954447567462921,0,0,0,-1,-1,3206.825183666667,unknown,2,2022-06-02T10:54:26.659+02:00,2022-06-02T10:17:13.754+02:00,521,1.609496,0,0,405.4342,0,0,2022-06-02T10:54:26.659+02:00,675852866.6587945,0,5.441406,101.3207,1,0.78
2022-06-02T10:54:27.831+02:00,1654160064.863409,53.22866137252311,10.3982896408892,42.6418,-1,-1,-1,-1,29.29669761657715,52.3311376,-9999,3207.996568625,-0.28955078125,1.051437377929688,0.5496826171875,3207.991571625,2.718342907966189,-2.457084032398867,-1.181686317660726,-0.4664365649223328,3.40155816078186,-0.5535345077514648,-0.03370533883571625,0.2126312255859375,0.3308200538158417,XArbitraryZVertical,-0.7255818494346762,0.3471074011166545,-0.3827212475555556,0.4545016548155963,-0.2398694008588791,0.9252470731735229,0.2939051389694214,0,0,0,-1,-1,3206.825183666667,unknown,2,2022-06-02T10:54:26.659+02:00,2022-06-02T10:17:13.754+02:00,521,1.609496,0,0,405.4342,0,0,2022-06-02T10:54:26.659+02:00,675852866.6587945,0,5.441406,101.3207,1,0.78
