loggingTime(txt),locationTimestamp_since1970(s),locationLatitude(WGS84),locationLongitude(WGS84),locationAltitude(m),locationSpeed(m/s),locationSpeedAccuracy(m/s),locationCourse(°),locationCourseAccuracy(°),locationVerticalAccuracy(m),locationHorizontalAccuracy(m),locationFloor(Z),accelerometerTimestamp_sinceReboot(s),accelerometerAccelerationX(G),accelerometerAccelerationY(G),accelerometerAccelerationZ(G),motionTimestamp_sinceReboot(s),motionYaw(rad),motionRoll(rad),motionPitch(rad),motionRotationRateX(rad/s),motionRotationRateY(rad/s),motionRotationRateZ(rad/s),motionUserAccelerationX(G),motionUserAccelerationY(G),motionUserAccelerationZ(G),motionAttitudeReferenceFrame(txt),motionQuaternionX(R),motionQuaternionY(R),motionQuaternionZ(R),motionQuaternionW(R),motionGravityX(G),motionGravityY(G),motionGravityZ(G),motionMagneticFieldX(µT),motionMagneticFieldY(µT),motionMagneticFieldZ(µT),motionHeading(°),motionMagneticFieldCalibrationAccuracy(Z),activityTimestamp_sinceReboot(s),activity(txt),activityActivityConfidence(Z),activityActivityStartDate(txt),pedometerStartDate(txt),pedometerNumberofSteps(N),pedometerAverageActivePace(s/m),pedometerCurrentPace(s/m),pedometerCurrentCadence(steps/s),pedometerDistance(m),pedometerFloorAscended(N),pedometerFloorDescended(N),pedometerEndDate(txt),altimeterTimestamp_sinceReboot(s),altimeterReset(bool),altimeterRelativeAltitude(m),altimeterPressure(kPa),batteryState(N),batteryLevel(R)
2022-06-02T11:12:45.333+02:00,1654161164.998786,53.22911019056088,10.39860531461296,36.55441,0.2181662,0.7090729,333.8109883625764,66.43211408036639,2.400000095367432,7.999579855010836,-9999,4249.435735,-0.3048095703125,-0.6051025390625,-0.78289794921875,4249.425741,-0.5193469490824174,-0.3498610025246372,0.7684631422905315,0.202521875500679,-0.5029687285423279,-0.5474970936775208,-0.03721816837787628,0.07619565725326538,-0.1550049781799316,XArbitraryZVertical,-0.3153218058310101,0.2507191607476176,0.2974616178747977,-0.8655799027086392,-0.2464426606893539,-0.6950311064720154,-0.6754240989685059,0,0,0,-1,-1,4245.271171375,unknown,2,2022-06-02T11:12:41.134+02:00,2022-06-02T10:17:13.754+02:00,768,1.733297,0,0,615.1182,0,0,2022-06-02T11:12:43.691+02:00,675853963.6906114,0,3.75,101.337,1,0.72
2022-06-02T11:12:45.336+02:00,1654161164.998786,53.22911019056088,10.39860531461296,36.55441,0.2181662,0.7090729,333.8109883625764,66.43211408036639,2.400000095367432,7.999579855010836,-9999,4249.445729,-0.33917236328125,-0.5931854248046875,-0.7653961181640625,4249.435735,-0.5254644290373187,-0.3506246043245487,0.7725225575544977,0.2520191073417664,-0.488835334777832,-0.5544193983078003,-0.04478421807289124,0.056815505027771,-0.1136897206306458,XArbitraryZVertical,-0.3162619422812408,0.2523651342705199,0.300349614550998,-0.863759400331377,-0.245987206697464,-0.6979439854621887,-0.6725804209709167,0,0,0,-1,-1,4245.271171375,unknown,2,2022-06-02T11:12:41.134+02:00,2022-06-02T10:17:13.754+02:00,768,1.733297,0,0,615.1182,0,0,2022-06-02T11:12:43.691+02:00,675853963.6906114,0,3.75,101.337,1,0.72
2022-06-02T11:12:45.339+02:00,1654161164.998786,53.22911019056088,10.39860531461296,36.55441,0.2181662,0.7090729,333.8109883625764,66.43211408036639,2.400000095367432,7.999579855010836,-9999,4249.455724,-0.33929443359375,-0.6021881103515625,-0.749755859375,4249.445729,-0.5314340393062917,-0.3510254085032893,0.7767080928161642,0.230706050992012,-0.4217365980148315,-0.5376788973808289,-0.0812421590089798,0.113288938999176,-0.1046050190925598,XArbitraryZVertical,-0.3173238495052537,0.2538488171398584,0.3031117988341306,-0.8619683158275363,-0.2452500760555267,-0.7009353637695312,-0.6697326898574829,0,0,0,-1,-1,4245.271171375,unknown,2,2022-06-02T11:12:41.134+02:00,2022-06-02T10:17:13.754+02:00,768,1.733297,0,0,615.1182,0,0,2022-06-02T11:12:43.691+02:00,675853963.6906114,0,3.75,101.337,1,0.72
2022-06-02T11:12:45.355+02:00,1654161164.998786,53.22911019056088,10.39860531461296,36.55441,0.2181662,0.7090729,333.8109883625764,66.43211408036639,2.400000095367432,7.999579855010836,-9999,4249.465718,-0.3437652587890625,-0.6246490478515625,-0.7417144775390625,4249.455724,-0.5374656682089891,-0.3507150516926598,0.7801929369071744,0.1144617274403572,-0.3595427274703979,-0.5118363499641418,-0.09616096317768097,0.1060960292816162,-0.08979815244674683,XArbitraryZVertical,-0.3181652951251621,0.2549812518269878,0.3057590881071841,-0.8603875184873867,-0.2442015111446381,-0.7034165859222412,-0.6675108075141907,0,0,0,-1,-1,4245.271171375,unknown,2,2022-06-02T11:12:41.134+02:00,2022-06-02T10:17:13.754+02:00,768,1.733297,0,0,615.1182,0,0,2022-06-02T11:12:43.691+02:00,675853963.6906114,0,3.75,101.337,1,0.72
2022-06-02T11:12:45.368+02:00,1654161164.998786,53.22911019056088,10.39860531461296,36.55441,0.2181662,0.7090729,333.8109883625764,66.43211408036639,2.400000095367432,7.999579855010836,-9999,4249.475713,-0.327606201171875,-0.620025634765625,-0.7467803955078125,4249.465718,-0.5439727602794808,-0.3494588429254102,0.7823610098041892,-0.0186907947063446,-0.3056814968585968,-0.5024605989456177,-0.1011845469474792,0.08837878704071045,-0.07797163724899292,XArbitraryZVertical,-0.3184978542793911,0.2556712725854808,0.3084160236577256,-0.8591104923386589,-0.2428400665521622,-0.7049559354782104,-0.6663826107978821,0,0,0,-1,-1,4245.271171375,unknown,2,2022-06-02T11:12:41.134+02:00,2022-06-02T10:17:13.754+02:00,768,1.733297,0,0,615.1182,0,0,2022-06-02T11:12:43.691+02:00,675853963.6906114,0,3.75,101.337,1,0.72
2022-06-02T11:12:45.370+02:00,1654161164.998786,53.22911019056088,10.39860531461296,36.55441,0.2181662,0.7090729,333.8109883625764,66.43211408036639,2.400000095367432,7.999579855010836,-9999,4249.485707,-0.31488037109375,-0.642486572265625,-0.7436065673828125,4249.475713,-0.5507796546541325,-0.3475573571370624,0.783445484192104,-0.1058027967810631,-0.2677929699420929,-0.4813752770423889,-0.09340476989746094,0.08502769470214844,-0.07710111141204834,XArbitraryZVertical,-0.3184065025006962,0.2560376908154545,0.3110640376316158,-0.8580799091724692,-0.2413119673728943,-0.7057246565818787,-0.6661239862442017,0,0,0,-1,-1,4245.271171375,unknown,2,2022-06-02T11:12:41.134+02:00,2022-06-02T10:17:13.754+02:00,768,1.733297,0,0,615.1182,0,0,2022-06-02T11:12:43.691+02:00,675853963.6906114,0,3.75,101.337,1,0.72
2022-06-02T11:12:45.372+02:00,1654161164.998786,53.22911019056088,10.39860531461296,36.55441,0.2181662,0.7090729,333.8109883625764,66.43211408036639,2.400000095367432,7.999579855010836,-9999,4249.495701,-0.3058013916015625,-0.6132965087890625,-0.7249755859375,4249.495701,-0.5645792045989905,-0.342079612243864,0.783273703703417,-0.207571804523468,-0.1568095237016678,-0.4457205533981323,-0.0718853622674942,0.07106631994247437,-0.06749635934829712,XArbitraryZVertical,-0.317422641137296,0.2558669306876322,0.3161048116308247,-0.8566519214802991,-0.2377001494169235,-0.7056029438972473,-0.6675499677658081,0,0,0,-1,-1,4245.271171375,unknown,2,2022-06-02T11:12:41.134+02:00,2022-06-02T10:17:13.754+02:00,768,1.733297,0,0,615.1182,0,0,2022-06-02T11:12:43.691+02:00,675853963.6906114,0,3.75,101.337,1,0.72
2022-06-02T11:12:45.373+02:00,1654161164.998786,53.22911019056088,10.39860531461296,36.55441,0.2181662,0.7090729,333.8109883625764,66.43211408036639,2.400000095367432,7.999579855010836,-9999,4249.505696,-0.286834716796875,-0.594696044921875,-0.697418212890625,4249.495701,-0.5645792045989905,-0.342079612243864,0.783273703703417,-0.207571804523468,-0.1568095237016678,-0.4457205533981323,-0.0718853622674942,0.07106631994247437,-0.06749635934829712,XArbitraryZVertical,-0.317422641137296,0.2558669306876322,0.3161048116308247,-0.8566519214802991,-0.2377001494169235,-0.7056029438972473,-0.6675499677658081,0,0,0,-1,-1,4245.271171375,unknown,2,2022-06-02T11:12:41.134+02:00,2022-06-02T10:17:13.754+02:00,768,1.733297,0,0,615.1182,0,0,2022-06-02T11:12:43.691+02:00,675853963.6906114,0,3.75,101.337,1,0.72
2022-06-02T11:12:45.380+02:00,1654161164.998786,53.22911019056088,10.39860531461296,36.55441,0.2181662,0.7090729,333.8109883625764,66.43211408036639,2.400000095367432,7.999579855010836,-9999,4249.51569,-0.2764129638671875,-0.593231201171875,-0.65869140625,4249.505696,-0.5714632431280723,-0.3386446898164751,0.7828078053051835,-0.2084738463163376,-0.1193791255354881,-0.4526652097702026,-0.0589643269777298,0.1083337068557739,-0.04368400573730469,XArbitraryZVertical,-0.3168796778918484,0.2554427245982048,0.3184972728201662,-0.856093285080876,-0.2355149686336517,-0.7052727341651917,-0.6686725616455078,0,0,0,-1,-1,4245.271171375,unknown,2,2022-06-02T11:12:41.134+02:00,2022-06-02T10:17:13.754+02:00,768,1.733297,0,0,615.1182,0,0,2022-06-02T11:12:43.691+02:00,675853963.6906114,0,3.75,101.337,1,0.72
2022-06-02T11:12:45.388+02:00,1654161164.998786,53.22911019056088,10.39860531461296,36.55441,0.2181662,0.7090729,333.8109883625764,66.43211408036639,2.400000095367432,7.999579855010836,-9999,4249.525684,-0.25054931640625,-0.5993499755859375,-0.621429443359375,4249.51569,-0.5786001730973072,-0.3345880917117933,0.7822715026439,-0.235284149646759,-0.07347714900970459,-0.4751803874969482,-0.05073614418506622,0.1099981069564819,-0.009646832942962646,XArbitraryZVertical,-0.3163785471730109,0.254783835614303,0.3208978465787999,-0.8555783599800415,-0.232924684882164,-0.7048924565315247,-0.6699796319007874,0,0,0,-1,-1,4245.271171375,unknown,2,2022-06-02T11:12:41.134+02:00,2022-06-02T10:17:13.754+02:00,768,1.733297,0,0,615.1182,0,0,2022-06-02T11:12:43.691+02:00,675853963.6906114,0,3.75,101.337,1,0.72
2022-06-02T11:12:45.398+02:00,1654161164.998786,53.22911019056088,10.39860531461296,36.55441,0.2181662,0.7090729,333.8109883625764,66.43211408036639,2.400000095367432,7.999579855010836,-9999,4249.535679000001,-0.2229461669921875,-0.5929718017578125,-0.609588623046875,4249.525684,-0.5860697889700753,-0.3299088708095515,0.7814375648006409,-0.2679399847984314,-0.04119457677006721,-0.4754693508148193,-0.03624251484870911,0.1101235151290894,0.03436529636383057,XArbitraryZVertical,-0.3158105608317634,0.2538792195267473,0.323336849890663,-0.8551386958364646,-0.2299775034189224,-0.7043007016181946,-0.6716180443763733,0,0,0,-1,-1,4245.271171375,unknown,2,2022-06-02T11:12:41.134+02:00,2022-06-02T10:17:13.754+02:00,768,1.733297,0,0,615.1182,0,0,2022-06-02T11:12:43.691+02:00,675853963.6906114,0,3.75,101.337,1,0.72
2022-06-02T11:12:45.408+02:00,1654161164.998786,53.22911019056088,10.39860531461296,36.55441,0.2181662,0.7090729,333.8109883625764,66.43211408036639,2.400000095367432,7.999579855010836,-9999,4249.545673000001,-0.217742919921875,-0.5577545166015625,-0.6223297119140625,4249.535679000001,-0.5936071913260741,-0.3249364027517989,0.7803370035822963,-0.2744889557361603,-0.02333887852728367,-0.4691208899021149,-0.005493640899658203,0.1028873324394226,0.06057244539260864,XArbitraryZVertical,-0.3151723424662415,0.2528293490167926,0.3257552624137617,-0.8547672260560887,-0.2268823832273483,-0.7035189867019653,-0.6734874248504639,0,0,0,-1,-1,4245.271171375,unknown,2,2022-06-02T11:12:41.134+02:00,2022-06-02T10:17:13.754+02:00,768,1.733297,0,0,615.1182,0,0,2022-06-02T11:12:43.691+02:00,675853963.6906114,0,3.75,101.337,1,0.72
2022-06-02T11:12:45.418+02:00,1654161164.998786,53.22911019056088,10.39860531461296,36.55441,0.2181662,0.7090729,333.8109883625764,66.43211408036639,2.400000095367432,7.999579855010836,-9999,4249.555668,-0.2087554931640625,-0.563629150390625,-0.6482391357421875,4249.545673000001,-0.6009144988150867,-0.3199614801977181,0.7793019633709435,-0.2497566193342209,-0.0005052683409303427,-0.4547863304615021,0.005526840686798096,0.1299223303794861,0.06189537048339844,XArbitraryZVertical,-0.3146029090583688,0.2517452366894916,0.3280780356959774,-0.8544085627245127,-0.2237579673528671,-0.7027829885482788,-0.6752986907958984,0,0,0,-1,-1,4245.271171375,unknown,2,2022-06-02T11:12:41.134+02:00,2022-06-02T10:17:13.754+02:00,768,1.733297,0,0,615.1182,0,0,2022-06-02T11:12:43.691+02:00,675853963.6906114,0,3.75,101.337,1,0.72
2022-06-02T11:12:45.428+02:00,1654161164.998786,53.22911019056088,10.39860531461296,36.55441,0.2181662,0.7090729,333.8109883625764,66.43211408036639,2.400000095367432,7.999579855010836,-9999,4249.565662,-0.1942138671875,-0.5685882568359375,-0.6686859130859375,4249.555668,-0.6078229594763698,-0.3150551257359729,0.7784332339981958,-0.2278377264738083,0.007615242153406143,-0.4278820157051086,0.004520982503890991,0.1448833346366882,0.04113489389419556,XArbitraryZVertical,-0.3141561536329818,0.2506423896260746,0.3302453577565305,-0.854062134129013,-0.2206311225891113,-0.7021647095680237,-0.6769686341285706,0,0,0,-1,-1,4245.271171375,unknown,2,2022-06-02T11:12:41.134+02:00,2022-06-02T10:17:13.754+02:00,768,1.733297,0,0,615.1182,0,0,2022-06-02T11:12:43.691+02:00,675853963.6906114,0,3.75,101.337,1,0.72
2022-06-02T11:12:45.438+02:00,1654161164.998786,53.22911019056088,10.39860531461296,36.55441,0.2181662,0.7090729,333.8109883625764,66.43211408036639,2.400000095367432,7.999579855010836,-9999,4249.575656,-0.1880340576171875,-0.56231689453125,-0.6811981201171875,4249.565662,-0.6142932398518123,-0.3104864731821452,0.7775955378432651,-0.2174542844295502,0.004327370319515467,-0.4008544683456421,0.01976342499256134,0.135039746761322,0.02063143253326416,XArbitraryZVertical,-0.3137311126893374,0.2496158700866591,0.3322802910520178,-0.8537297283766724,-0.2177156507968903,-0.7015680074691772,-0.6785294413566589,0,0,0,-1,-1,4245.271171375,unknown,2,2022-06-02T11:12:41.134+02:00,2022-06-02T10:17:13.754+02:00,768,1.733297,0,0,615.1182,0,0,2022-06-02T11:12:43.691+02:00,675853963.6906114,0,3.75,101.337,1,0.72
2022-06-02T11:12:45.448+02:00,1654161164.998786,53.22911019056088,10.39860531461296,36.55441,0.2181662,0.7090729,333.8109883625764,66.43211408036639,2.400000095367432,7.999579855010836,-9999,4249.585651,-0.189971923828125,-0.548004150390625,-0.679473876953125,4249.575656,-0.6203015489282537,-0.306330219270355,0.7768201674415582,-0.1917167007923126,-0.01359730120748281,-0.3738974332809448,0.02369719743728638,0.1342428922653198,0.001617372035980225,XArbitraryZVertical,-0.3133304917204002,0.2486977682906672,0.3341845898202659,-0.8534013959899016,-0.2150575965642929,-0.701015293598175,-0.6799468398094177,0,0,0,-1,-1,4245.271171375,unknown,2,2022-06-02T11:12:41.134+02:00,2022-06-02T10:17:13.754+02:00,768,1.733297,0,0,615.1182,0,0,2022-06-02T11:12:43.691+02:00,675853963.6906114,0,3.75,101.337,1,0.72
2022-06-02T11:12:45.457+02:00,1654161164.998786,53.22911019056088,10.39860531461296,36.55441,0.2181662,0.7090729,333.8109883625764,66.43211408036639,2.400000095367432,7.999579855010836,-9999,4249.595645,-0.1904296875,-0.5421600341796875,-0.6598358154296875,4249.585651,-0.6258720137516965,-0.3026692767047831,0.7762439890304174,-0.1645752042531967,-0.02863450720906258,-0.3535261750221252,0.02469906210899353,0.1445130109786987,-0.001685261726379395,XArbitraryZVertical,-0.31299627555617,0.2479431549842975,0.3359823171124155,-0.8530376811067742,-0.2126872837543488,-0.700604259967804,-0.6811150312423706,0,0,0,-1,-1,4245.271171375,unknown,2,2022-06-02T11:12:41.134+02:00,2022-06-02T10:17:13.754+02:00,768,1.733297,0,0,615.1182,0,0,2022-06-02T11:12:43.691+02:00,675853963.6906114,0,3.75,101.337,1,0.72
2022-06-02T11:12:45.468+02:00,1654161164.998786,53.22911019056088,10.39860531461296,36.55441,0.2181662,0.7090729,333.8109883625764,66.43211408036639,2.400000095367432,7.999579855010836,-9999,4249.605640000001,-0.1950531005859375,-0.549896240234375,-0.6375885009765625,4249.595645,-0.6311502814315609,-0.2993652429007398,0.7756736254882713,-0.1748068034648895,-0.04807957634329796,-0.3364103138446808,0.01926937699317932,0.1579303741455078,0.01128208637237549,XArbitraryZVertical,-0.3126460311316644,0.2472945008785619,0.3377116543114471,-0.8526714650031745,-0.2105535119771957,-0.700197160243988,-0.682195782661438,0,0,0,-1,-1,4245.271171375,unknown,2,2022-06-02T11:12:41.134+02:00,2022-06-02T10:17:13.754+02:00,768,1.733297,0,0,615.1182,0,0,2022-06-02T11:12:43.691+02:00,675853963.6906114,0,3.75,101.337,1,0.72
2022-06-02T11:12:45.478+02:00,1654161164.998786,53.22911019056088,10.39860531461296,36.55441,0.2181662,0.7090729,333.8109883625764,66.43211408036639,2.400000095367432,7.999579855010836,-9999,4249.615634000001,-0.1895904541015625,-0.5464019775390625,-0.622039794921875,4249.605640000001,-0.6362519781704058,-0.296268506664147,0.7747792238900639,-0.2069154381752014,-0.04238167777657509,-0.3051672279834747,0.01581268012523651,0.1545907258987427,0.03668421506881714,XArbitraryZVertical,-0.3121433438897033,0.2466675939253399,0.3393963038122549,-0.8523683146184577,-0.2086226940155029,-0.6995583176612854,-0.6834432482719421,0,0,0,-1,-1,4245.271171375,unknown,2,2022-06-02T11:12:41.134+02:00,2022-06-02T10:17:13.754+02:00,768,1.733297,0,0,615.1182,0,0,2022-06-02T11:12:43.691+02:00,675853963.6906114,0,3.75,101.337,1,0.72
2022-06-02T11:12:45.487+02:00,1654161164.998786,53.22911019056088,10.39860531461296,36.55441,0.2181662,0.7090729,333.8109883625764,66.43211408036639,2.400000095367432,7.999579855010836,-9999,4249.625628000001,-0.186981201171875,-0.5552520751953125,-0.6102447509765625,4249.615634000001,-0.6408107799682964,-0.2934695428067279,0.7735720826160172,-0.2159017324447632,-0.03244942054152489,-0.2529325187206268,0.01441773772239685,0.1491194367408752,0.05488848686218262,XArbitraryZVertical,-0.3115224089400768,0.2460438981123651,0.3408953516855872,-0.8521775168426647,-0.2069530785083771,-0.6986952424049377,-0.6848323941230774,0,0,0,-1,-1,4245.271171375,unknown,2,2022-06-02T11:12:41.134+02:00,2022-06-02T10:17:13.754+02:00,768,1.733297,0,0,615.1182,0,0,2022-06-02T11:12:43.691+02:00,675853963.6906114,0,3.75,101.337,1,0.72
2022-06-02T11:12:45.498+02:00,1654161164.998786,53.22911019056088,10.39860531461296,36.55441,0.2181662,0.7090729,333.8109883625764,66.43211408036639,2.400000095367432,7.999579855010836,-9999,4249.635623,-0.191070556640625,-0.5958251953125,-0.6175384521484375,4249.625628000001,-0.6446777160155935,-0.2910688319692265,0.7720801191699753,-0.237922415137291,-0.02350852079689503,-0.2007943540811539,0.01825997233390808,0.1518507599830627,0.07153314352035522,XArbitraryZVertical,-0.3107956812738937,0.2454455542736353,0.3421618364953921,-0.8521078315085934,-0.2056073099374771,-0.697627067565918,-0.6863250732421875,0,0,0,-1,-1,4245.271171375,unknown,2,2022-06-02T11:12:41.134+02:00,2022-06-02T10:17:13.754+02:00,768,1.733297,0,0,615.1182,0,0,2022-06-02T11:12:43.691+02:00,675853963.6906114,0,3.75,101.337,1,0.72
2022-06-02T11:12:45.507+02:00,1654161164.998786,53.22911019056088,10.39860531461296,36.55441,0.2181662,0.7090729,333.8109883625764,66.43211408036639,2.400000095367432,7.999579855010836,-9999,4249.645617,-0.20147705078125,-0.6025543212890625,-0.639892578125,4249.635623,-0.6482689813219352,-0.2889318379682153,0.7702470101715229,-0.2571176588535309,-0.04660851508378983,-0.1910783499479294,0.01508165895938873,0.1210715174674988,0.0784904956817627,XArbitraryZVertical,-0.3099090398620684,0.2448726276798232,0.3433522709852357,-0.8521168069658033,-0.2045042216777802,-0.6963125467300415,-0.6879875659942627,0,0,0,-1,-1,4245.271171375,unknown,2,2022-06-02T11:12:41.134+02:00,2022-06-02T10:17:13.754+02:00,768,1.733297,0,0,615.1182,0,0,2022-06-02T11:12:43.691+02:00,675853963.6906114,0,3.75,101.337,1,0.72
2022-06-02T11:12:45.518+02:00,1654161164.998786,53.22911019056088,10.39860531461296,36.55441,0.2181662,0.7090729,333.8109883625764,66.43211408036639,2.400000095367432,7.999579855010836,-9999,4249.655612,-0.2081756591796875,-0.6004486083984375,-0.6563720703125,4249.645617,-0.6517425714952285,-0.2870016385764799,0.7682975395139908,-0.2523650228977203,-0.04288648068904877,-0.1807468831539154,0.008460953831672668,0.09148800373077393,0.06036335229873657,XArbitraryZVertical,-0.308952020669724,0.2443518731752718,0.34452633722,-0.8521399261023231,-0.2035597562789917,-0.6949120163917542,-0.6896816492080688,0,0,0,-1,-1,4245.271171375,unknown,2,2022-06-02T11:12:41.134+02:00,2022-06-02T10:17:13.754+02:00,768,1.733297,0,0,615.1182,0,0,2022-06-02T11:12:43.691+02:00,675853963.6906114,0,3.75,101.337,1,0.72
2022-06-02T11:12:45.528+02:00,1654161164.998786,53.22911019056088,10.39860531461296,36.55441,0.2181662,0.7090729,333.8109883625764,66.43211408036639,2.400000095367432,7.999579855010836,-9999,4249.665606,-0.219451904296875,-0.59234619140625,-0.6646728515625,4249.655612,-0.6549233828906819,-0.2852057655472816,0.7664558304235345,-0.231290876865387,-0.03306154906749725,-0.1634885221719742,-0.002641633152961731,0.09312266111373901,0.04350686073303223,XArbitraryZVertical,-0.3080574039149453,0.2438527132714966,0.3455988125453235,-0.8521724388406964,-0.2026805728673935,-0.6935864686965942,-0.6912729740142822,0,0,0,-1,-1,4245.271171375,unknown,2,2022-06-02T11:12:41.134+02:00,2022-06-02T10:17:13.754+02:00,768,1.733297,0,0,615.1182,0,0,2022-06-02T11:12:43.691+02:00,675853963.6906114,0,3.75,101.337,1,0.72
2022-06-02T11:12:45.538+02:00,1654161164.998786,53.22911019056088,10.39860531461296,36.55441,0.2181662,0.7090729,333.8109883625764,66.43211408036639,2.400000095367432,7.999579855010836,-9999,4249.6756,-0.2161102294921875,-0.5899505615234375,-0.6658172607421875,4249.665606,-0.6578478004318705,-0.2833901578020547,0.7647988678842095,-0.2056335806846619,-0.00592420157045126,-0.150223046541214,-0.01378412544727325,0.09586483240127563,0.03034293651580811,XArbitraryZVertical,-0.3072811191509139,0.2433252781794073,0.3465612973522793,-0.8522125353403239,-0.2017462104558945,-0.6923918724060059,-0.6927422285079956,0,0,0,-1,-1,4245.271171375,unknown,2,2022-06-02T11:12:41.134+02:00,2022-06-02T10:17:13.754+02:00,768,1.733297,0,0,615.1182,0,0,2022-06-02T11:12:43.691+02:00,675853963.6906114,0,3.75,101.337,1,0.72
2022-06-02T11:12:45.548+02:00,1654161164.998786,53.22911019056088,10.39860531461296,36.55441,0.2181662,0.7090729,333.8109883625764,66.43211408036639,2.400000095367432,7.999579855010836,-9999,4249.685595,-0.2205963134765625,-0.590789794921875,-0.6656951904296875,4249.6756,-0.6604645166126476,-0.2816318020768879,0.7633033989142354,-0.1922831535339355,-0.0005102616269141436,-0.1338584721088409,-0.01744629442691803,0.1023076772689819,0.02685344219207764,XArbitraryZVertical,-0.3066055227793066,0.2427924272206593,0.3474033783504807,-0.8522649570943611,-0.2008153647184372,-0.6913120746612549,-0.6940897703170776,0,0,0,-1,-1,4245.271171375,unknown,2,2022-06-02T11:12:41.134+02:00,2022-06-02T10:17:13.754+02:00,768,1.733297,0,0,615.1182,0,0,2022-06-02T11:12:43.691+02:00,675853963.6906114,0,3.75,101.337,1,0.72
2022-06-02T11:12:45.557+02:00,1654161164.998786,53.22911019056088,10.39860531461296,36.55441,0.2181662,0.7090729,333.8109883625764,66.43211408036639,2.400000095367432,7.999579855010836,-9999,4249.695589,-0.2202606201171875,-0.59857177734375,-0.6656646728515625,4249.685595,-0.6627406278618777,-0.2800033076251726,0.7618834171577878,-0.1739739924669266,0.01636286079883575,-0.106216587126255,-0.01992319524288177,0.09836649894714355,0.02963292598724365,XArbitraryZVertical,-0.3059835082877835,0.2422700028351758,0.348121650481012,-0.8523441792859504,-0.1999558806419373,-0.6902853846549988,-0.6953586935997009,0,0,0,-1,-1,4245.271171375,unknown,2,2022-06-02T11:12:41.134+02:00,2022-06-02T10:17:13.754+02:00,768,1.733297,0,0,615.1182,0,0,2022-06-02T11:12:43.691+02:00,675853963.6906114,0,3.75,101.337,1,0.72
2022-06-02T11:12:45.567+02:00,1654161164.998786,53.22911019056088,10.39860531461296,36.55441,0.2181662,0.7090729,333.8109883625764,66.43211408036639,2.400000095367432,7.999579855010836,-9999,4249.705584,-0.2191619873046875,-0.6147308349609375,-0.6749114990234375,4249.695589,-0.6645979437405982,-0.2785044900485788,0.7604670162526249,-0.1768440753221512,0.03151704743504524,-0.07979004085063934,-0.02014774084091187,0.09738677740097046,0.03117638826370239,XArbitraryZVertical,-0.3053923433458653,0.2417376043730854,0.3486825440012735,-0.8524780102796833,-0.1991820186376572,-0.6892598867416382,-0.6965969204902649,0,0,0,-1,-1,4245.271171375,unknown,2,2022-06-02T11:12:41.134+02:00,2022-06-02T10:17:13.754+02:00,768,1.733297,0,0,615.1182,0,0,2022-06-02T11:12:43.691+02:00,675853963.6906114,0,3.75,101.337,1,0.72
2022-06-02T11:12:45.578+02:00,1654161164.998786,53.22911019056088,10.39860531461296,36.55441,0.2181662,0.7090729,333.8109883625764,66.43211408036639,2.400000095367432,7.999579855010836,-9999,4249.715578,-0.218902587890625,-0.6436920166015625,-0.6929473876953125,4249.705584,-0.6660838809557266,-0.2770907252212314,0.7588804970921192,-0.1899915486574173,0.05228231474757195,-0.04368269816040993,-0.02152051031589508,0.08328181505203247,0.02881556749343872,XArbitraryZVertical,-0.3047566607187792,0.2411618093562764,0.3490990604962454,-0.8526980742221766,-0.1984958946704865,-0.6881095767021179,-0.6979287266731262,0,0,0,-1,-1,4245.271171375,unknown,2,2022-06-02T11:12:41.134+02:00,2022-06-02T10:17:13.754+02:00,768,1.733297,0,0,615.1182,0,0,2022-06-02T11:12:43.691+02:00,675853963.6906114,0,3.75,101.337,1,0.72
2022-06-02T11:12:45.588+02:00,1654161164.998786,53.22911019056088,10.39860531461296,36.55441,0.2181662,0.7090729,333.8109883625764,66.43211408036639,2.400000095367432,7.999579855010836,-9999,4249.725572,-0.2140960693359375,-0.6643218994140625,-0.7102813720703125,4249.715578,-0.6671407619799252,-0.2756859358001783,0.7570815019175838,-0.1944398283958435,0.08927202224731445,-0.009568937122821808,-0.02073016762733459,0.05690509080886841,0.01578795909881592,XArbitraryZVertical,-0.3040775324600808,0.2404961381416449,0.3493349785949251,-0.8530318746047226,-0.1978519111871719,-0.6868031024932861,-0.6993969082832336,0,0,0,-1,-1,4245.271171375,unknown,2,2022-06-02T11:12:41.134+02:00,2022-06-02T10:17:13.754+02:00,768,1.733297,0,0,615.1182,0,0,2022-06-02T11:12:43.691+02:00,675853963.6906114,0,3.75,101.337,1,0.72
2022-06-02T11:12:45.597+02:00,1654161164.998786,53.22911019056088,10.39860531461296,36.55441,0.2181662,0.7090729,333.8109883625764,66.43211408036639,2.400000095367432,7.999579855010836,-9999,4249.735567000001,-0.21136474609375,-0.66888427734375,-0.7193756103515625,4249.725572,-0.667738798492946,-0.2742761021823692,0.7552324973722293,-0.1878218650817871,0.11765306442976,0.02043024078011513,-0.02022840082645416,0.03120690584182739,-0.001358866691589355,XArbitraryZVertical,-0.3034325311210975,0.2397509106356446,0.3493754610730344,-0.8534546370962794,-0.1972092986106873,-0.6854579448699951,-0.7008963823318481,0,0,0,-1,-1,4245.271171375,unknown,2,2022-06-02T11:12:41.134+02:00,2022-06-02T10:17:13.754+02:00,768,1.733297,0,0,615.1182,0,0,2022-06-02T11:12:43.691+02:00,675853963.6906114,0,3.75,101.337,1,0.72
2022-06-02T11:12:45.608+02:00,1654161164.998786,53.22911019056088,10.39860531461296,36.55441,0.2181662,0.7090729,333.8109883625764,66.43211408036639,2.400000095367432,7.999579855010836,-9999,4249.745561000001,-0.215850830078125,-0.6515350341796875,-0.7208404541015625,4249.735567000001,-0.6679344836213252,-0.2729058275502769,0.7534645664492492,-0.1605753302574158,0.1314810067415237,0.04541575163602829,-0.01492699980735779,0.0130881667137146,-0.01388514041900635,XArbitraryZVertical,-0.3028646873949608,0.2389707342335569,0.3492510701749749,-0.8539260285478321,-0.1965750306844711,-0.6841696500778198,-0.7023319602012634,0,0,0,-1,-1,4245.271171375,unknown,2,2022-06-02T11:12:41.134+02:00,2022-06-02T10:17:13.754+02:00,768,1.733297,0,0,615.1182,0,0,2022-06-02T11:12:43.691+02:00,675853963.6906114,0,3.75,101.337,1,0.72
2022-06-02T11:12:45.618+02:00,1654161164.998786,53.22911019056088,10.39860531461296,36.55441,0.2181662,0.7090729,333.8109883625764,66.43211408036639,2.400000095367432,7.999579855010836,-9999,4249.755555000001,-0.2260894775390625,-0.6342620849609375,-0.7208709716796875,4249.745561000001,-0.6677065511303316,-0.2717221553903797,0.7519641265193124,-0.1140681803226471,0.1433008313179016,0.06154978275299072,-0.01729896664619446,0.02397125959396362,-0.01567083597183228,XArbitraryZVertical,-0.3024331672870835,0.2382395585567955,0.3489746904109818,-0.8543960737741781,-0.1960188448429108,-0.6830745935440063,-0.7035521864891052,0,0,0,-1,-1,4245.271171375,unknown,2,2022-06-02T11:12:41.134+02:00,2022-06-02T10:17:13.754+02:00,768,1.733297,0,0,615.1182,0,0,2022-06-02T11:12:43.691+02:00,675853963.6906114,0,3.75,101.337,1,0.72
2022-06-02T11:12:45.627+02:00,1654161164.998786,53.22911019056088,10.39860531461296,36.55441,0.2181662,0.7090729,333.8109883625764,66.43211408036639,2.400000095367432,7.999579855010836,-9999,4249.76555,-0.2333221435546875,-0.6394500732421875,-0.7165679931640625,4249.755555000001,-0.6670573505512544,-0.2706389514218007,0.7509843938812366,-0.05158376693725586,0.1665643453598022,0.07668665796518326,-0.02509975433349609,0.03855991363525391,-0.01710319519042969,XArbitraryZVertical,-0.3022647107942335,0.2375536289931107,0.3485336649536984,-0.8548265929852783,-0.1954354643821716,-0.6823586821556091,-0.7044086456298828,0,0,0,-1,-1,4245.271171375,unknown,2,2022-06-02T11:12:41.134+02:00,2022-06-02T10:17:13.754+02:00,768,1.733297,0,0,615.1182,0,0,2022-06-02T11:12:43.691+02:00,675853963.6906114,0,3.75,101.337,1,0.72
2022-06-02T11:12:45.638+02:00,1654161164.998786,53.22911019056088,10.39860531461296,36.55441,0.2181662,0.7090729,333.8109883625764,66.43211408036639,2.400000095367432,7.999579855010836,-9999,4249.775544,-0.2389984130859375,-0.6459503173828125,-0.724945068359375,4249.76555,-0.6652601840356428,-0.2706119960631121,0.7493052628957569,-0.02131674066185951,0.2044074684381485,0.0988919585943222,-0.0338611900806427,0.04819577932357788,-0.0115697979927063,XArbitraryZVertical,-0.3017375641181022,0.2370568728219432,0.3477612359737559,-0.855465052039683,-0.1957224905490875,-0.6811302900314331,-0.7055169343948364,0,0,0,-1,-1,4245.271171375,unknown,2,2022-06-02T11:12:41.134+02:00,2022-06-02T10:17:13.754+02:00,768,1.733297,0,0,615.1182,0,0,2022-06-02T11:12:43.691+02:00,675853963.6906114,0,3.75,101.337,1,0.72
2022-06-02T11:12:45.648+02:00,1654161164.998786,53.22911019056088,10.39860531461296,36.55441,0.2181662,0.7090729,333.8109883625764,66.43211408036639,2.400000095367432,7.999579855010836,-9999,4249.785539,-0.239105224609375,-0.650787353515625,-0.726654052734375,4249.775544,-0.6628541833717856,-0.270696854568618,0.7475952303383726,0.004674646072089672,0.2540780901908875,0.1303729116916656,-0.03979203104972839,0.03534603118896484,-0.01408147811889648,XArbitraryZVertical,-0.3012484436760893,0.236513318050917,0.346743908398026,-0.8562005113172672,-0.1960935294628143,-0.6798772215843201,-0.7066216468811035,0,0,0,-1,-1,4245.271171375,unknown,2,2022-06-02T11:12:41.134+02:00,2022-06-02T10:17:13.754+02:00,768,1.733297,0,0,615.1182,0,0,2022-06-02T11:12:43.691+02:00,675853963.6906114,0,3.75,101.337,1,0.72
2022-06-02T11:12:45.658+02:00,1654161164.998786,53.22911019056088,10.39860531461296,36.55441,0.2181662,0.7090729,333.8109883625764,66.43211408036639,2.400000095367432,7.999579855010836,-9999,4249.795533,-0.23358154296875,-0.6639556884765625,-0.723876953125,4249.785539,-0.6597524475218688,-0.2709467418109596,0.7458705554199785,-0.003725862130522728,0.3113014996051788,0.1640240252017975,-0.04273514449596405,0.03058600425720215,-0.01918154954910278,XArbitraryZVertical,-0.3008052790771632,0.235935342007579,0.3454516587662828,-0.8570377808726154,-0.1965836435556412,-0.6786115169525146,-0.7077013850212097,0,0,0,-1,-1,4245.271171375,unknown,2,2022-06-02T11:12:41.134+02:00,2022-06-02T10:17:13.754+02:00,768,1.733297,0,0,615.1182,0,0,2022-06-02T11:12:43.691+02:00,675853963.6906114,0,3.75,101.337,1,0.72
2022-06-02T11:12:45.668+02:00,1654161164.998786,53.22911019056088,10.39860531461296,36.55441,0.2181662,0.7090729,333.8109883625764,66.43211408036639,2.400000095367432,7.999579855010836,-9999,4249.805527,-0.2287139892578125,-0.6656341552734375,-0.7177276611328125,4249.795533,-0.6562174294933686,-0.27093934194306,0.7439441193370843,-0.04624988883733749,0.3704231381416321,0.1969169974327087,-0.04013256728649139,0.01890063285827637,-0.0179065465927124,XArbitraryZVertical,-0.3003663095683846,0.2351584686796795,0.3439323983919087,-0.8580157275938759,-0.1969279199838638,-0.6771952509880066,-0.7089611291885376,0,0,0,-1,-1,4245.271171375,unknown,2,2022-06-02T11:12:41.134+02:00,2022-06-02T10:17:13.754+02:00,768,1.733297,0,0,615.1182,0,0,2022-06-02T11:12:43.691+02:00,675853963.6906114,0,3.75,101.337,1,0.72
2022-06-02T11:12:45.678+02:00,1654161164.998786,53.22911019056088,10.39860531461296,36.55441,0.2181662,0.7090729,333.8109883625764,66.43211408036639,2.400000095367432,7.999579855010836,-9999,4249.815522,-0.217987060546875,-0.6671295166015625,-0.7038421630859375,4249.805527,-0.6524340471622546,-0.2705136813486195,0.7418666314720354,-0.06604170054197311,0.4108866751194,0.2219757437705994,-0.03542016446590424,0.00841367244720459,-0.0107923150062561,XArbitraryZVertical,-0.2999586846699764,0.2341478932253893,0.3422407273787345,-0.8591104717462759,-0.197001650929451,-0.6756651997566223,-0.7103990912437439,0,0,0,-1,-1,4245.271171375,unknown,2,2022-06-02T11:12:41.134+02:00,2022-06-02T10:17:13.754+02:00,768,1.733297,0,0,615.1182,0,0,2022-06-02T11:12:43.691+02:00,675853963.6906114,0,3.75,101.337,1,0.72
2022-06-02T11:12:45.688+02:00,1654161164.998786,53.22911019056088,10.39860531461296,36.55441,0.2181662,0.7090729,333.8109883625764,66.43211408036639,2.400000095367432,7.999579855010836,-9999,4249.825516,-0.215362548828125,-0.6804962158203125,-0.69439697265625,4249.815522,-0.6496542977979265,-0.2681788028105175,0.7406023444627717,-0.07137254625558853,0.4352996051311493,0.2357738465070724,-0.02571426331996918,0.01135677099227905,0.000986933708190918,XArbitraryZVertical,-0.3001186114874453,0.2325697400599634,0.3406933093717735,-0.8600977632912017,-0.1955686211585999,-0.6747326254844666,-0.7116802930831909,0,0,0,-1,-1,4245.271171375,unknown,2,2022-06-02T11:12:41.134+02:00,2022-06-02T10:17:13.754+02:00,768,1.733297,0,0,615.1182,0,0,2022-06-02T11:12:43.691+02:00,675853963.6906114,0,3.75,101.337,1,0.72
2022-06-02T11:12:45.698+02:00,1654161164.998786,53.22911019056088,10.39860531461296,36.55441,0.2181662,0.7090729,333.8109883625764,66.43211408036639,2.400000095367432,7.999579855010836,-9999,4249.835511,-0.20794677734375,-0.6826019287109375,-0.67083740234375,4249.825516,-0.6467777267932512,-0.2657271414370651,0.7392289646797099,-0.07914821058511734,0.4569249451160431,0.2443356961011887,-0.02100616693496704,0.001034677028656006,0.01395440101623535,XArbitraryZVertical,-0.3002565478701663,0.2309122649435661,0.3390851245368441,-0.86113109164396,-0.1940664052963257,-0.6737183332443237,-0.7130510807037354,0,0,0,-1,-1,4245.271171375,unknown,2,2022-06-02T11:12:41.134+02:00,2022-06-02T10:17:13.754+02:00,768,1.733297,0,0,615.1182,0,0,2022-06-02T11:12:43.691+02:00,675853963.6906114,0,3.75,101.337,1,0.72
2022-06-02T11:12:45.708+02:00,1654161164.998786,53.22911019056088,10.39860531461296,36.55441,0.2181662,0.7090729,333.8109883625764,66.43211408036639,2.400000095367432,7.999579855010836,-9999,4249.845505,-0.203826904296875,-0.684234619140625,-0.646514892578125,4249.835511,-0.6439413615303343,-0.2630909666271421,0.7376706782143861,-0.1118161454796791,0.4520175457000732,0.2424267679452896,-0.0229341983795166,-0.0117906928062439,0.02902615070343018,XArbitraryZVertical,-0.3003337934223834,0.2291574032523115,0.3374648746297932,-0.8622086752334976,-0.1924587935209274,-0.6725659370422363,-0.7145729660987854,0,0,0,-1,-1,4245.271171375,unknown,2,2022-06-02T11:12:41.134+02:00,2022-06-02T10:17:13.754+02:00,768,1.733297,0,0,615.1182,0,0,2022-06-02T11:12:43.691+02:00,675853963.6906114,0,3.75,101.337,1,0.72
2022-06-02T11:12:45.718+02:00,1654161164.998786,53.22911019056088,10.39860531461296,36.55441,0.2181662,0.7090729,333.8109883625764,66.43211408036639,2.400000095367432,7.999579855010836,-9999,4249.855499,-0.207794189453125,-0.67742919921875,-0.6208953857421875,4249.845505,-0.6412248987496868,-0.2604341309810613,0.7357552332273607,-0.1584905683994293,0.4438485503196716,0.2402469515800476,-0.01305791735649109,-0.01380449533462524,0.05909878015518188,XArbitraryZVertical,-0.3002363630783597,0.2273664102281605,0.3358914794132229,-0.8633303682118573,-0.1908909827470779,-0.6711472272872925,-0.7163252830505371,0,0,0,-1,-1,4245.271171375,unknown,2,2022-06-02T11:12:41.134+02:00,2022-06-02T10:17:13.754+02:00,768,1.733297,0,0,615.1182,0,0,2022-06-02T11:12:43.691+02:00,675853963.6906114,0,3.75,101.337,1,0.72
2022-06-02T11:12:45.728+02:00,1654161164.998786,53.22911019056088,10.39860531461296,36.55441,0.2181662,0.7090729,333.8109883625764,66.43211408036639,2.400000095367432,7.999579855010836,-9999,4249.865494000001,-0.2043914794921875,-0.6758880615234375,-0.5988616943359375,4249.855499,-0.6387820366089367,-0.2577077393805814,0.7333624777398973,-0.2136499583721161,0.4298621416091919,0.2310279011726379,-0.01620502769947052,-0.009766697883605957,0.08445227146148682,XArbitraryZVertical,-0.2999013408214256,0.2255265439164686,0.3344242700298724,-0.8644982907759649,-0.189346045255661,-0.669371485710144,-0.7183939218521118,0,0,0,-1,-1,4245.271171375,unknown,2,2022-06-02T11:12:41.134+02:00,2022-06-02T10:17:13.754+02:00,768,1.733297,0,0,615.1182,0,0,2022-06-02T11:12:43.691+02:00,675853963.6906114,0,3.75,101.337,1,0.72
2022-06-02T11:12:45.738+02:00,1654161164.998786,53.22911019056088,10.39860531461296,36.55441,0.2181662,0.7090729,333.8109883625764,66.43211408036639,2.400000095367432,7.999579855010836,-9999,4249.875488000001,-0.19354248046875,-0.6830902099609375,-0.5875396728515625,4249.865494000001,-0.636546001575878,-0.2549418802255937,0.7303890223883878,-0.2780760824680328,0.4270296394824982,0.2471115291118622,-0.02133849263191223,-0.009811937808990479,0.1127444505691528,XArbitraryZVertical,-0.2992851306345907,0.2236281715224977,0.3330396349896579,-0.865738608074782,-0.1878594607114792,-0.6671594977378845,-0.7208377122879028,0,0,0,-1,-1,4245.271171375,unknown,2,2022-06-02T11:12:41.134+02:00,2022-06-02T10:17:13.754+02:00,768,1.733297,0,0,615.1182,0,0,2022-06-02T11:12:43.691+02:00,675853963.6906114,0,3.75,101.337,1,0.72
2022-06-02T11:12:45.748+02:00,1654161164.998786,53.22911019056088,10.39860531461296,36.55441,0.2181662,0.7090729,333.8109883625764,66.43211408036639,2.400000095367432,7.999579855010836,-9999,4249.885483,-0.1972503662109375,-0.6796112060546875,-0.5796051025390625,4249.875488000001,-0.6341047126964464,-0.2523602664869763,0.7266426649963206,-0.3562023043632507,0.4179439842700958,0.291394829750061,-0.01107211410999298,-0.01391953229904175,0.132304847240448,XArbitraryZVertical,-0.2983101570918452,0.2216829375340994,0.3315928005113571,-0.86712962458955,-0.186620682477951,-0.6643640995025635,-0.7237354516983032,0,0,0,-1,-1,4245.271171375,unknown,2,2022-06-02T11:12:41.134+02:00,2022-06-02T10:17:13.754+02:00,768,1.733297,0,0,615.1182,0,0,2022-06-02T11:12:43.691+02:00,675853963.6906114,0,3.75,101.337,1,0.72
2022-06-02T11:12:45.758+02:00,1654161164.998786,53.22911019056088,10.39860531461296,36.55441,0.2181662,0.7090729,333.8109883625764,66.43211408036639,2.400000095367432,7.999579855010836,-9999,4249.895477,-0.196014404296875,-0.657928466796875,-0.576995849609375,4249.885483,-0.6315061848256359,-0.2499777279465369,0.7220230654654488,-0.4396130740642548,0.4000182449817657,0.3123957216739655,-0.01101738214492798,-0.02394062280654907,0.1425493359565735,XArbitraryZVertical,-0.2969225429332947,0.2196929778630237,0.3301061305138153,-0.8686781930331089,-0.1856530904769897,-0.6609042882919312,-0.7271440029144287,0,0,0,-1,-1,4245.271171375,unknown,2,2022-06-02T11:12:41.134+02:00,2022-06-02T10:17:13.754+02:00,768,1.733297,0,0,615.1182,0,0,2022-06-02T11:12:43.691+02:00,675853963.6906114,0,3.75,101.337,1,0.72
2022-06-02T11:12:45.768+02:00,1654161164.998786,53.22911019056088,10.39860531461296,36.55441,0.2181662,0.7090729,333.8109883625764,66.43211408036639,2.400000095367432,7.999579855010836,-9999,4249.905471,-0.192169189453125,-0.6230926513671875,-0.561553955078125,4249.895477,-0.6288578382451389,-0.2478774642175156,0.7168052534585645,-0.477407842874527,0.3751688003540039,0.3289299309253693,-0.01133519411087036,-0.01608568429946899,0.15374755859375,XArbitraryZVertical,-0.2952189535173057,0.2177453043360536,0.328638005680218,-0.870304414883637,-0.1849690675735474,-0.656979501247406,-0.730865478515625,0,0,0,-1,-1,4245.271171375,unknown,2,2022-06-02T11:12:41.134+02:00,2022-06-02T10:17:13.754+02:00,768,1.733297,0,0,615.1182,0,0,2022-06-02T11:12:43.691+02:00,675853963.6906114,0,3.75,101.337,1,0.72
2022-06-02T11:12:45.778+02:00,1654161164.998786,53.22911019056088,10.39860531461296,36.55441,0.2181662,0.7090729,333.8109883625764,66.43211408036639,2.400000095367432,7.999579855010836,-9999,4249.915466,-0.1704559326171875,-0.6158447265625,-0.546722412109375,4249.905471,-0.6261767215541105,-0.2460353410890303,0.710871548194928,-0.5949462652206421,0.3538458347320557,0.3559736907482147,-0.01078958809375763,0.01450932025909424,0.1645994782447815,XArbitraryZVertical,-0.2931481628949996,0.2158185468090542,0.3271910280685347,-0.8720277876454844,-0.1845686435699463,-0.652494490146637,-0.7349730134010315,0,0,0,-1,-1,4245.271171375,unknown,2,2022-06-02T11:12:41.134+02:00,2022-06-02T10:17:13.754+02:00,768,1.733297,0,0,615.1182,0,0,2022-06-02T11:12:43.691+02:00,675853963.6906114,0,3.75,101.337,1,0.72
2022-06-02T11:12:45.788+02:00,1654161164.998786,53.22911019056088,10.39860531461296,36.55441,0.2181662,0.7090729,333.8109883625764,66.43211408036639,2.400000095367432,7.999579855010836,-9999,4249.92546,-0.1695098876953125,-0.623199462890625,-0.560028076171875,4249.915466,-0.6234986053946232,-0.244515006871088,0.7030489868288378,-0.834886372089386,0.2896409928798676,0.4170506298542023,0.001758754253387451,0.02891671657562256,0.1875550150871277,XArbitraryZVertical,-0.2901674826092158,0.2138025862369602,0.3257861475723205,-0.8740449422028567,-0.1846810430288315,-0.6465466618537903,-0.7401825785636902,0,0,0,-1,-1,4245.271171375,unknown,2,2022-06-02T11:12:41.134+02:00,2022-06-02T10:17:13.754+02:00,768,1.733297,0,0,615.1182,0,0,2022-06-02T11:12:43.691+02:00,675853963.6906114,0,3.75,101.337,1,0.72
2022-06-02T11:12:45.798+02:00,1654161164.998786,53.22911019056088,10.39860531461296,36.55441,0.2181662,0.7090729,333.8109883625764,66.43211408036639,2.400000095367432,7.999579855010836,-9999,4249.935454,-0.200836181640625,-0.6290435791015625,-0.5635986328125,4249.92546,-0.6212442515558593,-0.2435797104726768,0.6926796091994556,-1.092710137367249,0.1918989270925522,0.4113083779811859,0.02138066291809082,0.01929306983947754,0.1955214142799377,XArbitraryZVertical,-0.2858896096038984,0.2117932989178788,0.324639073687063,-0.8763675817877523,-0.185595691204071,-0.638601541519165,-0.7468214631080627,0,0,0,-1,-1,4245.271171375,unknown,2,2022-06-02T11:12:41.134+02:00,2022-06-02T10:17:13.754+02:00,768,1.733297,0,0,615.1182,0,0,2022-06-02T11:12:43.691+02:00,675853963.6906114,0,3.75,101.337,1,0.72
2022-06-02T11:12:45.808+02:00,1654161164.998786,53.22911019056088,10.39860531461296,36.55441,0.2181662,0.7090729,333.8109883625764,66.43211408036639,2.400000095367432,7.999579855010836,-9999,4249.945449,-0.1855926513671875,-0.6449432373046875,-0.532470703125,4249.935454,-0.6203579542831565,-0.2426751219150137,0.6801391526159578,-1.310148477554321,0.1064199879765511,0.3123751580715179,0.003281950950622559,0.001429378986358643,0.189777672290802,XArbitraryZVertical,-0.2804706862665995,0.2097243586192626,0.3240800250494345,-0.8788195924868052,-0.1868298500776291,-0.6289012432098389,-0.7547037601470947,0,0,0,-1,-1,4245.271171375,unknown,2,2022-06-02T11:12:41.134+02:00,2022-06-02T10:17:13.754+02:00,768,1.733297,0,0,615.1182,0,0,2022-06-02T11:12:43.691+02:00,675853963.6906114,0,3.75,101.337,1,0.72
2022-06-02T11:12:45.818+02:00,1654161164.998786,53.22911019056088,10.39860531461296,36.55441,0.2181662,0.7090729,333.8109883625764,66.43211408036639,2.400000095367432,7.999579855010836,-9999,4249.955443,-0.2232513427734375,-0.7407989501953125,-0.506072998046875,4249.945449,-0.6215908585250608,-0.2413637084955277,0.6650573603384705,-1.694603323936462,0.002762363757938147,0.2565999627113342,-0.02561336755752563,-0.01499104499816895,0.2086520195007324,XArbitraryZVertical,-0.2737343999527955,0.207445167134076,0.3243773599196204,-0.8813712093241035,-0.1880859136581421,-0.6171042919158936,-0.7640719413757324,0,0,0,-1,-1,4245.271171375,unknown,2,2022-06-02T11:12:41.134+02:00,2022-06-02T10:17:13.754+02:00,768,1.733297,0,0,615.1182,0,0,2022-06-02T11:12:43.691+02:00,675853963.6906114,0,3.75,101.337,1,0.72
2022-06-02T11:12:45.828+02:00,1654161164.998786,53.22911019056088,10.39860531461296,36.55441,0.2181662,0.7090729,333.8109883625764,66.43211408036639,2.400000095367432,7.999579855010836,-9999,4249.965438,-0.351531982421875,-0.886138916015625,-0.201904296875,4249.955443,-0.6256627016077789,-0.2398527379637362,0.6460604974699182,-2.130461454391479,-0.148687869310379,-0.02922406420111656,0.03015165030956268,-0.07343053817749023,0.2555388212203979,XArbitraryZVertical,-0.2649504537503239,0.2049370618410336,0.325875192842681,-0.8840855485215597,-0.1896822303533554,-0.6020455360412598,-0.7756041288375854,0,0,0,-1,-1,4245.271171375,unknown,2,2022-06-02T11:12:41.134+02:00,2022-06-02T10:17:13.754+02:00,768,1.733297,0,0,615.1182,0,0,2022-06-02T11:12:43.691+02:00,675853963.6906114,0,3.75,101.337,1,0.72
2022-06-02T11:12:45.838+02:00,1654161164.998786,53.22911019056088,10.39860531461296,36.55441,0.2181662,0.7090729,333.8109883625764,66.43211408036639,2.400000095367432,7.999579855010836,-9999,4249.975432,-0.2028656005859375,-0.784637451171875,-0.4827117919921875,4249.965438,-0.639168112312465,-0.2370324157304195,0.6170297775208389,-3.957812786102295,-0.5709856748580933,-0.6783564686775208,-0.0992986261844635,-0.1922130584716797,0.371805727481842,XArbitraryZVertical,-0.2508537204306613,0.2016793038261694,0.3313231219030498,-0.8869176169644797,-0.1915185749530792,-0.5786151885986328,-0.792795717716217,0,0,0,-1,-1,4245.271171375,unknown,2,2022-06-02T11:12:41.134+02:00,2022-06-02T10:17:13.754+02:00,768,1.733297,0,0,615.1182,0,0,2022-06-02T11:12:43.691+02:00,675853963.6906114,0,3.75,101.337,1,0.72
2022-06-02T11:12:45.848+02:00,1654161164.998786,53.22911019056088,10.39860531461296,36.55441,0.2181662,0.7090729,333.8109883625764,66.43211408036639,2.400000095367432,7.999579855010836,-9999,4249.985426,-0.2991943359375,-0.336669921875,-0.4876251220703125,4249.975432,-0.6571769866037972,-0.2321590339181855,0.5786271033859371,-4.208723068237305,-0.6112539768218994,-0.4386764764785767,-0.09881724417209625,-0.4182128310203552,0.4770306348800659,XArbitraryZVertical,-0.2323912501593689,0.1965136496892773,0.3384888665453153,-0.8903942781212995,-0.1926255524158478,-0.5468750596046448,-0.8147534132003784,0,0,0,-1,-1,4245.271171375,unknown,2,2022-06-02T11:12:41.134+02:00,2022-06-02T10:17:13.754+02:00,768,1.733297,0,0,615.1182,0,0,2022-06-02T11:12:43.691+02:00,675853963.6906114,0,3.75,101.337,1,0.72
2022-06-02T11:12:45.876+02:00,1654161164.998786,53.22911019056088,10.39860531461296,36.55441,0.2181662,0.7090729,333.8109883625764,66.43211408036639,2.400000095367432,7.999579855010836,-9999,4249.995421000001,-0.955108642578125,-0.5074310302734375,-0.6069183349609375,4249.985426,-0.6707215584363331,-0.2330963710660773,0.5378390282258627,-4.198135852813721,-1.053844690322876,0.2618885934352875,-0.003555387258529663,0.03017985820770264,0.3418020009994507,XArbitraryZVertical,-0.2122918625596787,0.192707875790724,0.3443032230132244,-0.8940084145080016,-0.1983793824911118,-0.5122812986373901,-0.8355916738510132,0,0,0,-1,-1,4245.271171375,unknown,2,2022-06-02T11:12:41.134+02:00,2022-06-02T10:17:13.754+02:00,768,1.733297,0,0,615.1182,0,0,2022-06-02T11:12:43.691+02:00,675853963.6906114,0,3.75,101.337,1,0.72
2022-06-02T11:12:45.879+02:00,1654161164.998786,53.22911019056088,10.39860531461296,36.55441,0.2181662,0.7090729,333.8109883625764,66.43211408036639,2.400000095367432,7.999579855010836,-9999,4250.005415000001,-0.7550811767578125,-0.553741455078125,-0.4468231201171875,4249.995421000001,-0.6703974217902443,-0.2361435648168747,0.4976068864856583,-3.551915407180786,0.6464930176734924,1.000510215759277,-0.3685902953147888,0.1578812897205353,0.3354347944259644,XArbitraryZVertical,-0.1933635317394505,0.1882560604648638,0.3440003684653858,-0.8993518623372089,-0.2055826187133789,-0.4773240089416504,-0.8543403744697571,0,0,0,-1,-1,4245.271171375,unknown,2,2022-06-02T11:12:41.134+02:00,2022-06-02T10:17:13.754+02:00,768,1.733297,0,0,615.1182,0,0,2022-06-02T11:12:43.691+02:00,675853963.6906114,0,3.75,101.337,1,0.72
2022-06-02T11:12:45.883+02:00,1654161164.998786,53.22911019056088,10.39860531461296,36.55441,0.2181662,0.7090729,333.8109883625764,66.43211408036639,2.400000095367432,7.999579855010836,-9999,4250.01541,-0.21038818359375,-0.5932159423828125,-0.37408447265625,4250.005415000001,-0.6699675272099382,-0.2250128165194205,0.4606094770953783,-3.81542706489563,1.513988256454468,0.8861648440361023,-0.8242124915122986,-0.1886997818946838,0.2978828549385071,XArbitraryZVertical,-0.1782883630900784,0.177800907529211,0.342253814877,-0.9052415552387879,-0.1998657882213593,-0.4444941580295563,-0.8732001781463623,0,0,0,-1,-1,4245.271171375,unknown,2,2022-06-02T11:12:41.134+02:00,2022-06-02T10:17:13.754+02:00,768,1.733297,0,0,615.1182,0,0,2022-06-02T11:12:43.691+02:00,675853963.6906114,0,3.75,101.337,1,0.72
2022-06-02T11:12:45.887+02:00,1654161164.998786,53.22911019056088,10.39860531461296,36.55441,0.2181662,0.7090729,333.8109883625764,66.43211408036639,2.400000095367432,7.999579855010836,-9999,4250.025404,-0.001708984375,-0.532257080078125,-0.354644775390625,4250.01541,-0.6716374366071958,-0.2081816839017677,0.418965802277527,-4.390711784362793,1.544753432273865,0.5861637592315674,-0.2697517275810242,-0.1373887658119202,0.5102715492248535,XArbitraryZVertical,-0.1617834192435277,0.1641132173499818,0.3409934371815396,-0.9113815924369281,-0.1888053566217422,-0.4068159162998199,-0.8937859535217285,0,0,0,-1,-1,4245.271171375,unknown,2,2022-06-02T11:12:41.134+02:00,2022-06-02T10:17:13.754+02:00,768,1.733297,0,0,615.1182,0,0,2022-06-02T11:12:43.691+02:00,675853963.6906114,0,3.75,101.337,1,0.72
2022-06-02T11:12:45.897+02:00,1654161164.998786,53.22911019056088,10.39860531461296,36.55441,0.2181662,0.7090729,333.8109883625764,66.43211408036639,2.400000095367432,7.999579855010836,-9999,4250.035398,-0.29132080078125,-0.386138916015625,-0.3571929931640625,4250.025404,-0.6769417619992323,-0.1934927366389504,0.372516886733057,-4.897210597991943,1.000145554542542,0.2917972803115845,0.1356271803379059,-0.2252877950668335,0.5477302670478821,XArbitraryZVertical,-0.1423405473937855,0.1507407802820736,0.3416491585978522,-0.9166745868541015,-0.1790994256734848,-0.3639608323574066,-0.9140327572822571,0,0,0,-1,-1,4245.271171375,unknown,2,2022-06-02T11:12:41.134+02:00,2022-06-02T10:17:13.754+02:00,768,1.733297,0,0,615.1182,0,0,2022-06-02T11:12:43.691+02:00,675853963.6906114,0,3.75,101.337,1,0.72
2022-06-02T11:12:45.907+02:00,1654161164.998786,53.22911019056088,10.39860531461296,36.55441,0.2181662,0.7090729,333.8109883625764,66.43211408036639,2.400000095367432,7.999579855010836,-9999,4250.045391625,-0.4984130859375,-0.21234130859375,-0.3463134765625,4250.035398,-0.6857663364422996,-0.1808455423512122,0.3218669914307061,-5.365529537200928,1.00744366645813,-0.01239508390426636,0.05549737811088562,-0.1489785313606262,0.579004168510437,XArbitraryZVertical,-0.1203287321870206,0.1375973935190452,0.3441309809864601,-0.9209569887771416,-0.1706248670816422,-0.3163382112979889,-0.9331759214401245,0,0,0,-1,-1,4245.271171375,unknown,2,2022-06-02T11:12:41.134+02:00,2022-06-02T10:17:13.754+02:00,768,1.733297,0,0,615.1182,0,0,2022-06-02T11:12:43.691+02:00,675853963.6906114,0,3.75,101.337,1,0.72
2022-06-02T11:12:45.917+02:00,1654161164.998786,53.22911019056088,10.39860531461296,36.55441,0.2181662,0.7090729,333.8109883625764,66.43211408036639,2.400000095367432,7.999579855010836,-9999,4250.055385625,-0.420989990234375,-0.174346923828125,-0.3321075439453125,4250.045391625,-0.6960871835723077,-0.1657027061769745,0.2667070522048774,-5.862194061279297,1.445269227027893,-0.007905859500169754,-0.2801563143730164,-0.02988541126251221,0.5971066355705261,XArbitraryZVertical,-0.09658362055871786,0.1222952076218223,0.3472152494516433,-0.9247470013549599,-0.1591136455535889,-0.2635563611984253,-0.9514309763908386,0,0,0,-1,-1,4245.271171375,unknown,2,2022-06-02T11:12:41.134+02:00,2022-06-02T10:17:13.754+02:00,768,1.733297,0,0,615.1182,0,0,2022-06-02T11:12:43.691+02:00,675853963.6906114,0,3.75,101.337,1,0.72
2022-06-02T11:12:45.928+02:00,1654161164.998786,53.22911019056088,10.39860531461296,36.55441,0.2181662,0.7090729,333.8109883625764,66.43211408036639,2.400000095367432,7.999579855010836,-9999,4250.065380625,-0.2321624755859375,-0.1600799560546875,-0.3286895751953125,4250.065380625,-0.7150290046869202,-0.1266837280892145,0.1415481544134504,-6.759539127349854,1.901691675186157,-0.04833850264549255,-0.1998695731163025,-0.03633800148963928,0.6574802994728088,XArbitraryZVertical,-0.04401479616535147,0.08384549376435206,0.3525640824009535,-0.9309839197781324,-0.1250815391540527,-0.1410759538412094,-0.9820652604103088,0,0,0,-1,-1,4245.271171375,unknown,2,2022-06-02T11:12:41.134+02:00,2022-06-02T10:17:13.754+02:00,768,1.733297,0,0,615.1182,0,0,2022-06-02T11:12:43.691+02:00,675853963.6906114,0,3.75,101.337,1,0.72
2022-06-02T11:12:45.938+02:00,1654161164.998786,53.22911019056088,10.39860531461296,36.55441,0.2181662,0.7090729,333.8109883625764,66.43211408036639,2.400000095367432,7.999579855010836,-9999,4250.075374625,-0.150543212890625,-0.0688629150390625,-0.326416015625,4250.065380625,-0.7150290046869202,-0.1266837280892145,0.1415481544134504,-6.759539127349854,1.901691675186157,-0.04833850264549255,-0.1998695731163025,-0.03633800148963928,0.6574802994728088,XArbitraryZVertical,-0.04401479616535147,0.08384549376435206,0.3525640824009535,-0.9309839197781324,-0.1250815391540527,-0.1410759538412094,-0.9820652604103088,0,0,0,-1,-1,4245.271171375,unknown,2,2022-06-02T11:12:41.134+02:00,2022-06-02T10:17:13.754+02:00,768,1.733297,0,0,615.1182,0,0,2022-06-02T11:12:43.691+02:00,675853963.6906114,0,3.75,101.337,1,0.72
2022-06-02T11:12:45.948+02:00,1654161164.998786,53.22911019056088,10.39860531461296,36.55441,0.2181662,0.7090729,333.8109883625764,66.43211408036639,2.400000095367432,7.999579855010836,-9999,4250.085368625,-0.14501953125,0.0524444580078125,-0.308929443359375,4250.075374625,-0.7239551229750896,-0.106872400726706,0.07243051986206697,-7.20140552520752,1.880922794342041,-0.1043266728520393,-0.07079561799764633,-0.04944372177124023,0.6599310040473938,XArbitraryZVertical,-0.01491106066754202,0.0627205224868999,0.355195572255609,-0.9325661918075006,-0.1063893884420395,-0.07236720621585846,-0.9916875958442688,0,0,0,-1,-1,4245.271171375,unknown,2,2022-06-02T11:12:41.134+02:00,2022-06-02T10:17:13.754+02:00,768,1.733297,0,0,615.1182,0,0,2022-06-02T11:12:43.691+02:00,675853963.6906114,0,3.75,101.337,1,0.72
2022-06-02T11:12:45.958+02:00,1654161164.998786,53.22911019056088,10.39860531461296,36.55441,0.2181662,0.7090729,333.8109883625764,66.43211408036639,2.400000095367432,7.999579855010836,-9999,4250.095363625001,-0.160858154296875,0.1785888671875,-0.33099365234375,4250.085368625,-0.732411569708863,-0.08787685525603948,-0.001789151342508893,-7.754250049591064,1.881107330322266,-0.1393827944993973,-0.0573931559920311,-0.01222618296742439,0.6814119219779968,XArbitraryZVertical,0.01656265867642649,0.04069175963208326,0.3576929934389226,-0.9328051013377182,-0.08776365220546722,0.001789150410331786,-0.9961397051811218,0,0,0,-1,-1,4245.271171375,unknown,2,2022-06-02T11:12:41.134+02:00,2022-06-02T10:17:13.754+02:00,768,1.733297,0,0,615.1182,0,0,2022-06-02T11:12:43.691+02:00,675853963.6906114,0,3.75,101.337,1,0.72
2022-06-02T11:12:45.968+02:00,1654161164.998786,53.22911019056088,10.39860531461296,36.55441,0.2181662,0.7090729,333.8109883625764,66.43211408036639,2.400000095367432,7.999579855010836,-9999,4250.105357625001,-0.1833953857421875,0.3878021240234375,-0.3142242431640625,4250.095363625001,-0.7404670165513765,-0.06916787096457447,-0.08113360979203392,-8.163144111633301,1.95042359828949,-0.2136967033147812,-0.0848926454782486,0.03025295585393906,0.675235390663147,XArbitraryZVertical,0.05028596583148898,0.0175420667422719,0.3600119934281776,-0.9314262323357616,-0.06888538599014282,0.08104462921619415,-0.994327187538147,0,0,0,-1,-1,4245.271171375,unknown,2,2022-06-02T11:12:41.134+02:00,2022-06-02T10:17:13.754+02:00,768,1.733297,0,0,615.1182,0,0,2022-06-02T11:12:43.691+02:00,675853963.6906114,0,3.75,101.337,1,0.72
2022-06-02T11:12:45.978+02:00,1654161164.998786,53.22911019056088,10.39860531461296,36.55441,0.2181662,0.7090729,333.8109883625764,66.43211408036639,2.400000095367432,7.999579855010836,-9999,4250.115352625,-0.16021728515625,0.60125732421875,-0.3907012939453125,4250.105357625001,-0.7480091569810715,-0.05042122671600333,-0.1636773386788552,-8.408235549926758,2.032667636871338,-0.268667995929718,-0.1295186877250671,0.1032267957925797,0.6530444025993347,XArbitraryZVertical,0.08525091528821802,-0.006469758668691472,0.3620893810132598,-0.9282142481007406,-0.04972625896334648,0.162947490811348,-0.9853808283805847,0,0,0,-1,-1,4245.271171375,unknown,2,2022-06-02T11:12:41.134+02:00,2022-06-02T10:17:13.754+02:00,768,1.733297,0,0,615.1182,0,0,2022-06-02T11:12:43.691+02:00,675853963.6906114,0,3.75,101.337,1,0.72
2022-06-02T11:12:45.988+02:00,1654161164.998786,53.22911019056088,10.39860531461296,36.55441,0.2181662,0.7090729,333.8109883625764,66.43211408036639,2.400000095367432,7.999579855010836,-9999,4250.125346625,-0.1160888671875,0.8116302490234375,-0.440216064453125,4250.115352625,-0.7543680265827765,-0.03090814713150277,-0.2473047332632299,-8.327735900878906,2.122615814208984,-0.2877160012722015,-0.1428732424974442,0.2613576650619507,0.628307580947876,XArbitraryZVertical,0.1203019724567714,-0.03116279401065774,0.3636761700012391,-0.9231987252018611,-0.02996301837265491,0.2447915822267532,-0.9691126346588135,0,0,0,-1,-1,4245.271171375,unknown,2,2022-06-02T11:12:41.134+02:00,2022-06-02T10:17:13.754+02:00,768,1.733297,0,0,615.1182,0,0,2022-06-02T11:12:43.691+02:00,675853963.6906114,0,3.75,101.337,1,0.72
2022-06-02T11:12:45.998+02:00,1654161164.998786,53.22911019056088,10.39860531461296,36.55441,0.2181662,0.7090729,333.8109883625764,66.43211408036639,2.400000095367432,7.999579855010836,-9999,4250.135340625,-0.0708770751953125,0.89111328125,-0.515899658203125,4250.125346625,-0.7591038126186758,-0.01053725814483885,-0.3299730269495715,-8.255295753479004,2.239026546478271,-0.2916113436222076,-0.129557728767395,0.3755826652050018,0.5372918844223022,XArbitraryZVertical,0.1544736796735632,-0.05602323938458902,0.3646642775606597,-0.9165255951497728,-0.009968600235879421,0.3240175247192383,-0.9459985494613647,0,0,0,-1,-1,4245.271171375,unknown,2,2022-06-02T11:12:41.134+02:00,2022-06-02T10:17:13.754+02:00,768,1.733297,0,0,615.1182,0,0,2022-06-02T11:12:43.691+02:00,675853963.6906114,0,3.75,101.337,1,0.72
2022-06-02T11:12:46.008+02:00,1654161164.998786,53.22911019056088,10.39860531461296,36.55441,0.2181662,0.7090729,333.8109883625764,66.43211408036639,2.400000095367432,7.999579855010836,-9999,4250.145335625,-0.0242462158203125,0.8083953857421875,-0.5840911865234375,4250.135340625,-0.7622282032518956,0.01146773742053363,-0.4123968471911662,-8.244815826416016,2.403014183044434,-0.2803195416927338,-0.1017841249704361,0.4846458435058594,0.4243117570877075,XArbitraryZVertical,0.1879597227762865,-0.08136261472248338,0.3651592385895815,-0.9081354064630726,0.01050608418881893,0.4008063673973083,-0.9161025285720825,0,0,0,-1,-1,4245.271171375,unknown,2,2022-06-02T11:12:41.134+02:00,2022-06-02T10:17:13.754+02:00,768,1.733297,0,0,615.1182,0,0,2022-06-02T11:12:43.691+02:00,675853963.6906114,0,3.75,101.337,1,0.72
2022-06-02T11:12:46.018+02:00,1654161164.998786,53.22911019056088,10.39860531461296,36.55441,0.2181662,0.7090729,333.8109883625764,66.43211408036639,2.400000095367432,7.999579855010836,-9999,4250.155329625,-0.000640869140625,1.046585083007812,-0.7882843017578125,4250.145335625,-0.7628441086605809,0.03611770975989934,-0.4944171130039414,-8.109389305114746,2.571962118148804,-0.2410654127597809,-0.0791182667016983,0.3708944916725159,0.3633292317390442,XArbitraryZVertical,0.2205588391143136,-0.1073224872327028,0.3649666607904548,-0.8981285680709991,0.03178553655743599,0.4745186567306519,-0.8796713352203369,0,0,0,-1,-1,4245.271171375,unknown,2,2022-06-02T11:12:41.134+02:00,2022-06-02T10:17:13.754+02:00,768,1.733297,0,0,615.1182,0,0,2022-06-02T11:12:43.691+02:00,675853963.6906114,0,3.75,101.337,1,0.72
2022-06-02T11:12:46.029+02:00,1654161164.998786,53.22911019056088,10.39860531461296,36.55441,0.2181662,0.7090729,333.8109883625764,66.43211408036639,2.400000095367432,7.999579855010836,-9999,4250.165324625,0.020050048828125,1.23486328125,-0.7262115478515625,4250.165324625,-0.7599811312301837,0.09139555224501281,-0.6500621125229431,-7.700745105743408,2.804178953170776,-0.4982061386108398,-0.05754759907722473,0.6051064729690552,0.03483492136001587,XArbitraryZVertical,0.2801928651020332,-0.1585246928384989,0.364671519602401,-0.8737142002164856,0.07265383750200272,0.6052358746528625,-0.7927237749099731,0,0,0,-1,-1,4245.271171375,unknown,2,2022-06-02T11:12:41.134+02:00,2022-06-02T10:17:13.754+02:00,768,1.733297,0,0,615.1182,0,0,2022-06-02T11:12:43.691+02:00,675853963.6906114,0,3.75,101.337,1,0.72
2022-06-02T11:12:46.038+02:00,1654161164.998786,53.22911019056088,10.39860531461296,36.55441,0.2181662,0.7090729,333.8109883625764,66.43211408036639,2.400000095367432,7.999579855010836,-9999,4250.175318625,0.0434722900390625,0.9357452392578125,-0.79522705078125,4250.165324625,-0.7599811312301837,0.09139555224501281,-0.6500621125229431,-7.700745105743408,2.804178953170776,-0.4982061386108398,-0.05754759907722473,0.6051064729690552,0.03483492136001587,XArbitraryZVertical,0.2801928651020332,-0.1585246928384989,0.364671519602401,-0.8737142002164856,0.07265383750200272,0.6052358746528625,-0.7927237749099731,0,0,0,-1,-1,4245.271171375,unknown,2,2022-06-02T11:12:41.134+02:00,2022-06-02T10:17:13.754+02:00,768,1.733297,0,0,615.1182,0,0,2022-06-02T11:12:43.691+02:00,675853963.6906114,0,3.75,101.337,1,0.72
2022-06-02T11:12:46.060+02:00,1654161164.998786,53.22911019056088,10.39860531461296,36.55441,0.2181662,0.7090729,333.8109883625764,66.43211408036639,2.400000095367432,7.999579855010836,-9999,4250.185312625,0.06884765625,0.905029296875,-0.802490234375,4250.175318625,-0.7561981539805843,0.1220979867584715,-0.7268428313701278,-7.623466014862061,2.842308282852173,-0.5568084716796875,-0.0646471381187439,0.4430149793624878,-0.01016402244567871,XArbitraryZVertical,0.3086995033212234,-0.1839788081232496,0.3645567926339564,-0.8590428879460034,0.09101437032222748,0.6645136475563049,-0.7417128086090088,0,0,0,-1,-1,4245.271171375,unknown,2,2022-06-02T11:12:41.134+02:00,2022-06-02T10:17:13.754+02:00,768,1.733297,0,0,615.1182,0,0,2022-06-02T11:12:43.691+02:00,675853963.6906114,0,3.75,101.337,1,0.72
2022-06-02T11:12:46.064+02:00,1654161164.998786,53.22911019056088,10.39860531461296,36.55441,0.2181662,0.7090729,333.8109883625764,66.43211408036639,2.400000095367432,7.999579855010836,-9999,4250.195307625,0.0286712646484375,1.170333862304688,-0.80230712890625,4250.185312625,-0.7502944473909788,0.1547453218343263,-0.8025273067380386,-7.483709812164307,2.87169885635376,-0.6881775856018066,-0.04196277260780334,0.1368118524551392,-0.125194787979126,XArbitraryZVertical,0.3362589943387955,-0.2088919373790978,0.3643864147977856,-0.8429214249593779,0.107102558016777,0.7191146016120911,-0.6865881085395813,0,0,0,-1,-1,4245.271171375,unknown,2,2022-06-02T11:12:41.134+02:00,2022-06-02T10:17:13.754+02:00,768,1.733297,0,0,615.1182,0,0,2022-06-02T11:12:43.691+02:00,675853963.6906114,0,3.75,101.337,1,0.72
2022-06-02T11:12:46.068+02:00,1654161164.998786,53.22911019056088,10.39860531461296,36.55441,0.2181662,0.7090729,333.8109883625764,66.43211408036639,2.400000095367432,7.999579855010836,-9999,4250.205301625,0.0331268310546875,1.432540893554688,-0.8593597412109375,4250.195307625,-0.7417440002211118,0.190723122530694,-0.8753375650798387,-7.01179313659668,3.073382377624512,-0.646894097328186,-0.07295626401901245,0.2630780935287476,-0.1620030403137207,XArbitraryZVertical,0.3619623975417799,-0.2332884819468989,0.3643872003139432,-0.8257006350824367,0.1214639693498611,0.7677598595619202,-0.6291193962097168,0,0,0,-1,-1,4245.271171375,unknown,2,2022-06-02T11:12:41.134+02:00,2022-06-02T10:17:13.754+02:00,768,1.733297,0,0,615.1182,0,0,2022-06-02T11:12:43.691+02:00,675853963.6906114,0,3.75,101.337,1,0.72
2022-06-02T11:12:46.080+02:00,1654161164.998786,53.22911019056088,10.39860531461296,36.55441,0.2181662,0.7090729,333.8109883625764,66.43211408036639,2.400000095367432,7.999579855010836,-9999,4250.215295625,0.0433197021484375,1.658660888671875,-0.91180419921875,4250.205301625,-0.7288390470413956,0.2324372226353877,-0.9414489453224429,-6.224784851074219,3.22938346862793,-0.5865891575813293,-0.1143171042203903,0.4983659982681274,-0.2536889910697937,XArbitraryZVertical,0.3840573900947805,-0.2571107103442966,0.3646381797464228,-0.8083519236743317,0.1355879008769989,0.8084118366241455,-0.5727880001068115,0,0,0,-1,-1,4245.271171375,unknown,2,2022-06-02T11:12:41.134+02:00,2022-06-02T10:17:13.754+02:00,768,1.733297,0,0,615.1182,0,0,2022-06-02T11:12:43.691+02:00,675853963.6906114,0,3.75,101.337,1,0.72
2022-06-02T11:12:46.088+02:00,1654161164.998786,53.22911019056088,10.39860531461296,36.55441,0.2181662,0.7090729,333.8109883625764,66.43211408036639,2.400000095367432,7.999579855010836,-9999,4250.225290625001,0.0366058349609375,1.6478271484375,-0.98675537109375,4250.215295625,-0.7129789895596609,0.2786603484949955,-0.9999219905770478,-5.566118240356445,3.400427341461182,-0.6034533381462097,-0.105379194021225,0.7162493467330933,-0.365746021270752,XArbitraryZVertical,0.4023624180545426,-0.2798979884380747,0.3656949339475626,-0.7912198707165542,0.1486379057168961,0.841428816318512,-0.5195232033729553,0,0,0,-1,-1,4245.271171375,unknown,2,2022-06-02T11:12:41.134+02:00,2022-06-02T10:17:13.754+02:00,768,1.733297,0,0,615.1182,0,0,2022-06-02T11:12:43.691+02:00,675853963.6906114,0,3.75,101.337,1,0.72
2022-06-02T11:12:46.097+02:00,1654161165.998783,53.22911319762073,10.39859922123104,36.46539,0.3776615,0.6892981,281.2722990026245,38.43790420039509,2.400000095367432,7.999579855010836,-9999,4250.235284625001,0.0648193359375,1.57794189453125,-1.039031982421875,4250.225290625001,-0.6932269781151515,0.3308477966680833,-1.051665183079046,-4.928897857666016,3.656105518341064,-0.5564544796943665,-0.1223761290311813,0.8139393925666809,-0.4790378212928772,XArbitraryZVertical,0.4172543179238541,-0.3021406507672755,0.3675483326199016,-0.7742855578978917,0.1611640304327011,0.8682505488395691,-0.4692197144031525,0,0,0,-1,-1,4245.271171375,unknown,2,2022-06-02T11:12:41.134+02:00,2022-06-02T10:17:13.754+02:00,768,1.733297,0,0,615.1182,0,0,2022-06-02T11:12:43.691+02:00,675853963.6906114,0,3.75,101.337,1,0.72
2022-06-02T11:12:46.107+02:00,1654161165.998783,53.22911319762073,10.39859922123104,36.46539,0.3776615,0.6892981,281.2722990026245,38.43790420039509,2.400000095367432,7.999579855010836,-9999,4250.245279625,0.1206207275390625,1.556976318359375,-1.117996215820312,4250.235284625001,-0.6702214980198929,0.3887483039744924,-1.096674498973603,-4.283592224121094,3.879180431365967,-0.5511752963066101,-0.1298971623182297,0.7110748887062073,-0.5890754461288452,XArbitraryZVertical,0.4287928629869212,-0.3238692990579379,0.3704570541454847,-0.7576323252287944,0.1730490177869797,0.8896939754486084,-0.4224907159805298,0,0,0,-1,-1,4245.271171375,unknown,2,2022-06-02T11:12:41.134+02:00,2022-06-02T10:17:13.754+02:00,768,1.733297,0,0,615.1182,0,0,2022-06-02T11:12:43.691+02:00,675853963.6906114,0,3.75,101.337,1,0.72
2022-06-02T11:12:46.117+02:00,1654161165.998783,53.22911319762073,10.39859922123104,36.46539,0.3776615,0.6892981,281.2722990026245,38.43790420039509,2.400000095367432,7.999579855010836,-9999,4250.255273625,0.1641082763671875,1.5076904296875,-1.127471923828125,4250.245279625,-0.6443385034844662,0.4518632035715846,-1.135111980434785,-3.676774263381958,4.103551864624023,-0.5006924867630005,-0.09067921340465546,0.6637463569641113,-0.6997939944267273,XArbitraryZVertical,0.4371478889737938,-0.3450576559735809,0.3744267841194083,-0.7413781453778104,0.1842766553163528,0.9065814614295959,-0.3796738684177399,0,0,0,-1,-1,4245.271171375,unknown,2,2022-06-02T11:12:41.134+02:00,2022-06-02T10:17:13.754+02:00,768,1.733297,0,0,615.1182,0,0,2022-06-02T11:12:43.691+02:00,675853963.6906114,0,3.75,101.337,1,0.72
2022-06-02T11:12:46.127+02:00,1654161165.998783,53.22911319762073,10.39859922123104,36.46539,0.3776615,0.6892981,281.2722990026245,38.43790420039509,2.400000095367432,7.999579855010836,-9999,4250.265267625,0.22076416015625,1.473953247070312,-1.066055297851562,4250.255273625,-0.6169968724240705,0.518886102034038,-1.166985869803093,-2.998520135879517,4.310546398162842,-0.487587034702301,-0.05752746760845184,0.6165927052497864,-0.7909666299819946,XArbitraryZVertical,0.44235924326758,-0.365671703447983,0.379578272947638,-0.7256188171663858,0.1948566287755966,0.9195704460144043,-0.3412050008773804,0,0,0,-1,-1,4245.271171375,unknown,2,2022-06-02T11:12:41.134+02:00,2022-06-02T10:17:13.754+02:00,768,1.733297,0,0,615.1182,0,0,2022-06-02T11:12:43.691+02:00,675853963.6906114,0,3.75,101.337,1,0.72
2022-06-02T11:12:46.137+02:00,1654161165.998783,53.22911319762073,10.39859922123104,36.46539,0.3776615,0.6892981,281.2722990026245,38.43790420039509,2.400000095367432,7.999579855010836,-9999,4250.275262625,0.246795654296875,1.45166015625,-0.9609375,4250.265267625,-0.5902682361245633,0.587678855291179,-1.192200161084503,-2.389435529708862,4.504594326019287,-0.4206987619400024,-0.01011767983436584,0.5562280416488647,-0.7969474792480469,XArbitraryZVertical,0.4444083166174796,-0.3856142740499723,0.3859588064929161,-0.7105199853648541,0.2049266844987869,0.9291844367980957,-0.3076057732105255,0,0,0,-1,-1,4245.271171375,unknown,2,2022-06-02T11:12:41.134+02:00,2022-06-02T10:17:13.754+02:00,768,1.733297,0,0,615.1182,0,0,2022-06-02T11:12:43.691+02:00,675853963.6906114,0,3.75,101.337,1,0.72
2022-06-02T11:12:46.147+02:00,1654161165.998783,53.22911319762073,10.39859922123104,36.46539,0.3776615,0.6892981,281.2722990026245,38.43790420039509,2.400000095367432,7.999579855010836,-9999,4250.285256625,0.2646026611328125,1.434982299804688,-0.8210296630859375,4250.275262625,-0.5648368389575047,0.6571089430717931,-1.212165111483069,-1.956162452697754,4.647480487823486,-0.4112357497215271,0.02252614498138428,0.5262530446052551,-0.7388668060302734,XArbitraryZVertical,0.4439149693518445,-0.4049545177914263,0.3933215742793669,-0.6958803826471265,0.2143971472978592,0.9363781213760376,-0.2779026627540588,0,0,0,-1,-1,4245.271171375,unknown,2,2022-06-02T11:12:41.134+02:00,2022-06-02T10:17:13.754+02:00,768,1.733297,0,0,615.1182,0,0,2022-06-02T11:12:43.691+02:00,675853963.6906114,0,3.75,101.337,1,0.72
2022-06-02T11:12:46.157+02:00,1654161165.998783,53.22911319762073,10.39859922123104,36.46539,0.3776615,0.6892981,281.2722990026245,38.43790420039509,2.400000095367432,7.999579855010836,-9999,4250.295251625001,0.294036865234375,1.432525634765625,-0.687652587890625,4250.285256625,-0.5403011711236344,0.7272453715738976,-1.228661549802106,-1.659400701522827,4.767736911773682,-0.3863498568534851,0.03283005952835083,0.5020970106124878,-0.6464893817901611,XArbitraryZVertical,0.4416206227796242,-0.4238642380870098,0.4013937993945249,-0.6813174163030117,0.2230446189641953,0.9420406222343445,-0.2506206631660461,0,0,0,-1,-1,4245.271171375,unknown,2,2022-06-02T11:12:41.134+02:00,2022-06-02T10:17:13.754+02:00,768,1.733297,0,0,615.1182,0,0,2022-06-02T11:12:43.691+02:00,675853963.6906114,0,3.75,101.337,1,0.72
2022-06-02T11:12:46.167+02:00,1654161165.998783,53.22911319762073,10.39859922123104,36.46539,0.3776615,0.6892981,281.2722990026245,38.43790420039509,2.400000095367432,7.999579855010836,-9999,4250.305245625001,0.30413818359375,1.45391845703125,-0.5827484130859375,4250.295251625001,-0.5166500136182191,0.7975665572628349,-1.241937302526346,-1.348008155822754,4.846959114074707,-0.3131233155727386,0.04752476513385773,0.478667676448822,-0.5233888626098633,XArbitraryZVertical,0.4377026389823317,-0.4423003295903554,0.4098922028160482,-0.6669145763454657,0.2311312705278397,0.9464114308357239,-0.2255736291408539,0,0,0,-1,-1,4245.271171375,unknown,2,2022-06-02T11:12:41.134+02:00,2022-06-02T10:17:13.754+02:00,768,1.733297,0,0,615.1182,0,0,2022-06-02T11:12:43.691+02:00,675853963.6906114,0,3.75,101.337,1,0.72
2022-06-02T11:12:46.177+02:00,1654161165.998783,53.22911319762073,10.39859922123104,36.46539,0.3776615,0.6892981,281.2722990026245,38.43790420039509,2.400000095367432,7.999579855010836,-9999,4250.315239625001,0.2996673583984375,1.4361572265625,-0.49786376953125,4250.305245625001,-0.4951316181224362,0.8666544840188747,-1.252217082910257,-1.069789886474609,4.894031047821045,-0.2863714993000031,0.06278952956199646,0.4977366924285889,-0.4284853935241699,XArbitraryZVertical,0.432244527642771,-0.4601948357162391,0.4187644297047048,-0.6527033777292118,0.2387241870164871,0.9496814012527466,-0.2027707695960999,0,0,0,-1,-1,4245.271171375,unknown,2,2022-06-02T11:12:41.134+02:00,2022-06-02T10:17:13.754+02:00,768,1.733297,0,0,615.1182,0,0,2022-06-02T11:12:43.691+02:00,675853963.6906114,0,3.75,101.337,1,0.72
2022-06-02T11:12:46.187+02:00,1654161165.998783,53.22911319762073,10.39859922123104,36.46539,0.3776615,0.6892981,281.2722990026245,38.43790420039509,2.400000095367432,7.999579855010836,-9999,4250.325234625,0.275482177734375,1.389511108398438,-0.3760528564453125,4250.315239625001,-0.4754220603986931,0.934677325835463,-1.260478294052013,-0.9504753351211548,4.976319789886475,-0.2424474507570267,0.05845770239830017,0.4981875419616699,-0.3568302392959595,XArbitraryZVertical,0.4256427073491562,-0.477623414248715,0.4278785413284068,-0.6384543586914397,0.2456347346305847,0.9522364735603333,-0.1814083158969879,0,0,0,-1,-1,4245.271171375,unknown,2,2022-06-02T11:12:41.134+02:00,2022-06-02T10:17:13.754+02:00,768,1.733297,0,0,615.1182,0,0,2022-06-02T11:12:43.691+02:00,675853963.6906114,0,3.75,101.337,1,0.72
2022-06-02T11:12:46.197+02:00,1654161165.998783,53.22911319762073,10.39859922123104,36.46539,0.3776615,0.6892981,281.2722990026245,38.43790420039509,2.400000095367432,7.999579855010836,-9999,4250.335228625,0.2656402587890625,1.357513427734375,-0.260040283203125,4250.325234625,-0.4525901890532719,1.006597010201927,-1.267780342615214,-1.02116322517395,5.05278491973877,-0.1754130274057388,0.03643655776977539,0.4625206589698792,-0.2840526700019836,XArbitraryZVertical,0.4184166440211395,-0.4951206306640478,0.4367486778126325,-0.6237255462022924,0.2521529495716095,0.9544408321380615,-0.1595661491155624,0,0,0,-1,-1,4245.271171375,unknown,2,2022-06-02T11:12:41.134+02:00,2022-06-02T10:17:13.754+02:00,768,1.733297,0,0,615.1182,0,0,2022-06-02T11:12:43.691+02:00,675853963.6906114,0,3.75,101.337,1,0.72
2022-06-02T11:12:46.207+02:00,1654161165.998783,53.22911319762073,10.39859922123104,36.46539,0.3776615,0.6892981,281.2722990026245,38.43790420039509,2.400000095367432,7.999579855010836,-9999,4250.345223625,0.279296875,1.375778198242188,-0.1822662353515625,4250.335228625,-0.4232288501615863,1.084947298227994,-1.274412725149322,-1.144312858581543,4.999947071075439,-0.1037122160196304,0.00981605052947998,0.4098424911499023,-0.1746686846017838,XArbitraryZVertical,0.4110166010616477,-0.5127128296800472,0.4448801022312171,-0.6085003440578953,0.2582656443119049,0.9563989639282227,-0.1363818198442459,0,0,0,-1,-1,4245.271171375,unknown,2,2022-06-02T11:12:41.134+02:00,2022-06-02T10:17:13.754+02:00,768,1.733297,0,0,615.1182,0,0,2022-06-02T11:12:43.691+02:00,675853963.6906114,0,3.75,101.337,1,0.72
2022-06-02T11:12:46.217+02:00,1654161165.998783,53.22911319762073,10.39859922123104,36.46539,0.3776615,0.6892981,281.2722990026245,38.43790420039509,2.400000095367432,7.999579855010836,-9999,4250.355217625,0.2875213623046875,1.362274169921875,-0.1102294921875,4250.345223625,-0.3872828988433803,1.168975790858533,-1.279551072370064,-1.168900847434998,4.919777393341064,0.08375647664070129,0.003792107105255127,0.4062181711196899,-0.1090889126062393,XArbitraryZVertical,0.4034214407105254,-0.5301892733662935,0.4520084956980757,-0.5931600174183281,0.2642743289470673,0.9578870534896851,-0.1123009547591209,0,0,0,-1,-1,4245.271171375,unknown,2,2022-06-02T11:12:41.134+02:00,2022-06-02T10:17:13.754+02:00,768,1.733297,0,0,615.1182,0,0,2022-06-02T11:12:43.691+02:00,675853963.6906114,0,3.75,101.337,1,0.72
2022-06-02T11:12:46.227+02:00,1654161165.998783,53.22911319762073,10.39859922123104,36.46539,0.3776615,0.6892981,281.2722990026245,38.43790420039509,2.400000095367432,7.999579855010836,-9999,4250.365211625,0.287200927734375,1.273818969726562,0.00140380859375,4250.355217625,-0.3481642568977468,1.255116374836127,-1.282037589596734,-1.105330586433411,4.830316543579102,0.2486335933208466,0.01661655306816101,0.4201250076293945,-0.05677920579910278,XArbitraryZVertical,0.3952415178116331,-0.5473390430604546,0.4581982408974455,-0.5781509344001319,0.2706912159919739,0.9585980772972107,-0.08840823173522949,0,0,0,-1,-1,4245.271171375,unknown,2,2022-06-02T11:12:41.134+02:00,2022-06-02T10:17:13.754+02:00,768,1.733297,0,0,615.1182,0,0,2022-06-02T11:12:43.691+02:00,675853963.6906114,0,3.75,101.337,1,0.72
2022-06-02T11:12:46.237+02:00,1654161165.998783,53.22911319762073,10.39859922123104,36.46539,0.3776615,0.6892981,281.2722990026245,38.43790420039509,2.400000095367432,7.999579855010836,-9999,4250.375206625,0.2827301025390625,1.216796875,0.136962890625,4250.365211625,-0.3102919662888976,1.339238747047644,-1.281530013902099,-0.9279177784919739,4.751426219940186,0.4361659288406372,0.007489830255508423,0.3679625988006592,0.0004756972193717957,XArbitraryZVertical,0.3862008201526502,-0.5640190251510239,0.4637191413365063,-0.5636453345592016,0.2776359617710114,0.9584534168243408,-0.06546293199062347,0,0,0,-1,-1,4245.271171375,unknown,2,2022-06-02T11:12:41.134+02:00,2022-06-02T10:17:13.754+02:00,768,1.733297,0,0,615.1182,0,0,2022-06-02T11:12:43.691+02:00,675853963.6906114,0,3.75,101.337,1,0.72
2022-06-02T11:12:46.247+02:00,1654161165.998783,53.22911319762073,10.39859922123104,36.46539,0.3776615,0.6892981,281.2722990026245,38.43790420039509,2.400000095367432,7.999579855010836,-9999,4250.385200625,0.2773590087890625,1.223800659179688,0.2831878662109375,4250.375206625,-0.2790223968732171,1.416180780673142,-1.278203160528562,-0.7222874164581299,4.655421733856201,0.5529130101203918,0.003869146108627319,0.2741749286651611,0.1098946332931519,XArbitraryZVertical,0.3760915374957832,-0.5799530706910759,0.4689507684190561,-0.5498132971554247,0.2849949896335602,0.9574991464614868,-0.04441918060183525,0,0,0,-1,-1,4245.271171375,unknown,2,2022-06-02T11:12:41.134+02:00,2022-06-02T10:17:13.754+02:00,768,1.733297,0,0,615.1182,0,0,2022-06-02T11:12:43.691+02:00,675853963.6906114,0,3.75,101.337,1,0.72
2022-06-02T11:12:46.269+02:00,1654161165.998783,53.22911319762073,10.39859922123104,36.46539,0.3776615,0.6892981,281.2722990026245,38.43790420039509,2.400000095367432,7.999579855010836,-9999,4250.395195625,0.2899017333984375,1.203720092773438,0.4493255615234375,4250.385200625,-0.2563828719685678,1.483737795377017,-1.272968268869932,-0.4365187883377075,4.523223400115967,0.6558806896209717,-0.01628604531288147,0.2666647434234619,0.2336748838424683,XArbitraryZVertical,0.3651155541393828,-0.5949229813936315,0.4740931694390512,-0.5366496167966266,0.292332798242569,0.9559760689735413,-0.02551455609500408,0,0,0,-1,-1,4245.271171375,unknown,2,2022-06-02T11:12:41.134+02:00,2022-06-02T10:17:13.754+02:00,768,1.733297,0,0,615.1182,0,0,2022-06-02T11:12:43.691+02:00,675853963.6906114,0,3.75,101.337,1,0.72
2022-06-02T11:12:46.277+02:00,1654161165.998783,53.22911319762073,10.39859922123104,36.46539,0.3776615,0.6892981,281.2722990026245,38.43790420039509,2.400000095367432,7.999579855010836,-9999,4250.405189625,0.2900848388671875,1.173721313476562,0.6272430419921875,4250.395195625,-0.2472461229639561,1.536866162315396,-1.266063872626828,-0.01810989528894424,4.370588779449463,0.7617109417915344,-0.01411327719688416,0.2598633766174316,0.3789984583854675,XArbitraryZVertical,0.353013775470822,-0.6085163052850352,0.4795045320440598,-0.5245611275479132,0.2998645901679993,0.9539272785186768,-0.01017836108803749,0,0,0,-1,-1,4245.271171375,unknown,2,2022-06-02T11:12:41.134+02:00,2022-06-02T10:17:13.754+02:00,768,1.733297,0,0,615.1182,0,0,2022-06-02T11:12:43.691+02:00,675853963.6906114,0,3.75,101.337,1,0.72
2022-06-02T11:12:46.280+02:00,1654161165.998783,53.22911319762073,10.39859922123104,36.46539,0.3776615,0.6892981,281.2722990026245,38.43790420039509,2.400000095367432,7.999579855010836,-9999,4250.415183625,0.3048095703125,1.088623046875,0.72869873046875,4250.405189625,-0.2507991723116176,1.576290801751048,-1.258047536869189,0.2327484935522079,4.192653179168701,0.8302794694900513,-0.01847043633460999,0.2436073422431946,0.5320008993148804,XArbitraryZVertical,0.3399200533659818,-0.6207250672436969,0.4852110390558032,-0.5135415193171062,0.3076702654361725,0.9514914155006409,0.001690503559075296,0,0,0,-1,-1,4245.271171375,unknown,2,2022-06-02T11:12:41.134+02:00,2022-06-02T10:17:13.754+02:00,768,1.733297,0,0,615.1182,0,0,2022-06-02T11:12:43.691+02:00,675853963.6906114,0,3.75,101.337,1,0.72
2022-06-02T11:12:46.287+02:00,1654161165.998783,53.22911319762073,10.39859922123104,36.46539,0.3776615,0.6892981,281.2722990026245,38.43790420039509,2.400000095367432,7.999579855010836,-9999,4250.425178625001,0.3232421875,1.042892456054688,0.785491943359375,4250.415183625,-0.2635436813520159,1.605401063614498,-1.249889887668238,0.5321077704429626,4.075124740600586,0.8289026021957397,-0.02011772990226746,0.1807039380073547,0.6774871349334717,XArbitraryZVertical,0.3263115670976494,-0.6316465020419405,0.4911748394860675,-0.5032799743181108,0.3152379989624023,0.9489498734474182,0.01091308519244194,0,0,0,-1,-1,4245.271171375,unknown,2,2022-06-02T11:12:41.134+02:00,2022-06-02T10:17:13.754+02:00,768,1.733297,0,0,615.1182,0,0,2022-06-02T11:12:43.691+02:00,675853963.6906114,0,3.75,101.337,1,0.72
2022-06-02T11:12:46.297+02:00,1654161165.998783,53.22911319762073,10.39859922123104,36.46539,0.3776615,0.6892981,281.2722990026245,38.43790420039509,2.400000095367432,7.999579855010836,-9999,4250.435172625001,0.3619384765625,0.912811279296875,0.845611572265625,4250.425178625001,-0.2840842999465542,1.62550569467193,-1.241883610764464,0.6865293979644775,3.846800804138184,0.8507963418960571,-0.01772129535675049,0.1210191249847412,0.7389134168624878,XArbitraryZVertical,0.312349247865711,-0.6413029630879031,0.4973974973844557,-0.4937247893939565,0.3225308656692505,0.9463940858840942,0.01766308583319187,0,0,0,-1,-1,4245.271171375,unknown,2,2022-06-02T11:12:41.134+02:00,2022-06-02T10:17:13.754+02:00,768,1.733297,0,0,615.1182,0,0,2022-06-02T11:12:46.250+02:00,675853966.2502766,0,3.671875,101.3376,1,0.72
2022-06-02T11:12:46.307+02:00,1654161165.998783,53.22911319762073,10.39859922123104,36.46539,0.3776615,0.6892981,281.2722990026245,38.43790420039509,2.400000095367432,7.999579855010836,-9999,4250.445166625001,0.31817626953125,0.774566650390625,0.8442230224609375,4250.435172625001,-0.3054047738336886,1.642496679009996,-1.233418752222634,0.5501995086669922,3.597391843795776,0.9033101201057434,0.02431413531303406,0.04674559831619263,0.7934709787368774,XArbitraryZVertical,0.2986191810496692,-0.6501409862570805,0.5029698499154307,-0.484937602234132,0.3301627337932587,0.9436259865760803,0.02371343411505222,0,0,0,-1,-1,4245.271171375,unknown,2,2022-06-02T11:12:41.134+02:00,2022-06-02T10:17:13.754+02:00,768,1.733297,0,0,615.1182,0,0,2022-06-02T11:12:46.250+02:00,675853966.2502766,0,3.671875,101.3376,1,0.72
2022-06-02T11:12:46.317+02:00,1654161165.998783,53.22911319762073,10.39859922123104,36.46539,0.3776615,0.6892981,281.2722990026245,38.43790420039509,2.400000095367432,7.999579855010836,-9999,4250.455161625,0.3502655029296875,0.7139739990234375,0.9078521728515625,4250.445166625001,-0.3206662239377961,1.66284422538914,-1.225399044695589,0.3288064002990723,3.383158206939697,0.8294579982757568,0.004949599504470825,-0.1106035709381104,0.820624828338623,XArbitraryZVertical,0.2860280072971814,-0.6585957294682656,0.5074760462350603,-0.4763482914085665,0.3371371626853943,0.9409410357475281,0.03112071193754673,0,0,0,-1,-1,4245.271171375,unknown,2,2022-06-02T11:12:41.134+02:00,2022-06-02T10:17:13.754+02:00,768,1.733297,0,0,615.1182,0,0,2022-06-02T11:12:46.250+02:00,675853966.2502766,0,3.671875,101.3376,1,0.72
2022-06-02T11:12:46.327+02:00,1654161165.998783,53.22911319762073,10.39859922123104,36.46539,0.3776615,0.6892981,281.2722990026245,38.43790420039509,2.400000095367432,7.999579855010836,-9999,4250.465155625,0.359619140625,0.6462249755859375,1.04473876953125,4250.455161625,-0.3294817200497031,1.687047647529854,-1.217058213166681,0.09844401478767395,3.106404542922974,0.865594744682312,-0.01200681924819946,-0.1926926374435425,0.8174557685852051,XArbitraryZVertical,0.2744012529043843,-0.6669285933295632,0.5107026078585214,-0.46807369729045,0.3440685868263245,0.9380843639373779,0.04017959162592888,0,0,0,-1,-1,4245.271171375,unknown,2,2022-06-02T11:12:41.134+02:00,2022-06-02T10:17:13.754+02:00,768,1.733297,0,0,615.1182,0,0,2022-06-02T11:12:46.250+02:00,675853966.2502766,0,3.671875,101.3376,1,0.72
2022-06-02T11:12:46.337+02:00,1654161165.998783,53.22911319762073,10.39859922123104,36.46539,0.3776615,0.6892981,281.2722990026245,38.43790420039509,2.400000095367432,7.999579855010836,-9999,4250.475150625,0.383026123046875,0.6130828857421875,1.194580078125,4250.465155625,-0.3329193902271658,1.713477844121945,-1.208413492451226,-0.08707701414823532,2.827251434326172,0.8871046304702759,0.002752304077148438,-0.2554894685745239,0.9229484796524048,XArbitraryZVertical,0.2638688530763506,-0.6749651961208619,0.5126930391925614,-0.4603704416771947,0.3509005904197693,0.9350547790527344,0.05040957406163216,0,0,0,-1,-1,4245.271171375,unknown,2,2022-06-02T11:12:41.134+02:00,2022-06-02T10:17:13.754+02:00,768,1.733297,0,0,615.1182,0,0,2022-06-02T11:12:46.250+02:00,675853966.2502766,0,3.671875,101.3376,1,0.72
2022-06-02T11:12:46.347+02:00,1654161165.998783,53.22911319762073,10.39859922123104,36.46539,0.3776615,0.6892981,281.2722990026245,38.43790420039509,2.400000095367432,7.999579855010836,-9999,4250.485144625,0.4137725830078125,0.5967559814453125,1.301315307617188,4250.475150625,-0.3312888122170641,1.741543960738291,-1.19932095480128,-0.3091276586055756,2.489619731903076,0.8843247890472412,0.009948849678039551,-0.3062283396720886,1.064770460128784,XArbitraryZVertical,0.2544981893393052,-0.6826933236368919,0.5134242582508561,-0.4533827682761828,0.3577117025852203,0.9317927956581116,0.06167900562286377,0,0,0,-1,-1,4245.271171375,unknown,2,2022-06-02T11:12:41.134+02:00,2022-06-02T10:17:13.754+02:00,768,1.733297,0,0,615.1182,0,0,2022-06-02T11:12:46.250+02:00,675853966.2502766,0,3.671875,101.3376,1,0.72
2022-06-02T11:12:46.357+02:00,1654161165.998783,53.22911319762073,10.39859922123104,36.46539,0.3776615,0.6892981,281.2722990026245,38.43790420039509,2.400000095367432,7.999579855010836,-9999,4250.495138625,0.4085693359375,0.62042236328125,1.402130126953125,4250.485144625,-0.3251261639577865,1.770463954665702,-1.18990724844109,-0.4891946017742157,2.147685289382935,0.8870052099227905,0.03587782382965088,-0.3292135000228882,1.175793528556824,XArbitraryZVertical,0.2464070070930604,-0.6900364371843547,0.5129799667223102,-0.4471966050302161,0.3643601834774017,0.9283344745635986,0.07373339682817459,0,0,0,-1,-1,4245.271171375,unknown,2,2022-06-02T11:12:41.134+02:00,2022-06-02T10:17:13.754+02:00,768,1.733297,0,0,615.1182,0,0,2022-06-02T11:12:46.250+02:00,675853966.2502766,0,3.671875,101.3376,1,0.72
2022-06-02T11:12:46.367+02:00,1654161165.998783,53.22911319762073,10.39859922123104,36.46539,0.3776615,0.6892981,281.2722990026245,38.43790420039509,2.400000095367432,7.999579855010836,-9999,4250.505133625,0.3856201171875,0.633087158203125,1.462127685546875,4250.495138625,-0.3151935011667105,1.799364493609271,-1.180036945456709,-0.6684192419052124,1.806987643241882,0.8802874088287354,0.04378002882003784,-0.3180680274963379,1.267029047012329,XArbitraryZVertical,0.2395715315181564,-0.696962828788642,0.5114119426948794,-0.4419345140111379,0.3709843754768372,0.9246200919151306,0.08630340546369553,0,0,0,-1,-1,4245.271171375,unknown,2,2022-06-02T11:12:41.134+02:00,2022-06-02T10:17:13.754+02:00,768,1.733297,0,0,615.1182,0,0,2022-06-02T11:12:46.250+02:00,675853966.2502766,0,3.671875,101.3376,1,0.72
2022-06-02T11:12:46.377+02:00,1654161165.998783,53.22911319762073,10.39859922123104,36.46539,0.3776615,0.6892981,281.2722990026245,38.43790420039509,2.400000095367432,7.999579855010836,-9999,4250.515127625,0.3543243408203125,0.622467041015625,1.498992919921875,4250.505133625,-0.3021056728448174,1.827694996568483,-1.170011526962081,-0.7871629595756531,1.456452012062073,0.8239789009094238,0.02157321572303772,-0.291955828666687,1.338478922843933,XArbitraryZVertical,0.2340497438809958,-0.7034092867817949,0.5089053157427618,-0.4375515246677999,0.3773373067378998,0.9207550883293152,0.09912781417369843,0,0,0,-1,-1,4245.271171375,unknown,2,2022-06-02T11:12:41.134+02:00,2022-06-02T10:17:13.754+02:00,768,1.733297,0,0,615.1182,0,0,2022-06-02T11:12:46.250+02:00,675853966.2502766,0,3.671875,101.3376,1,0.72
2022-06-02T11:12:46.387+02:00,1654161165.998783,53.22911319762073,10.39859922123104,36.46539,0.3776615,0.6892981,281.2722990026245,38.43790420039509,2.400000095367432,7.999579855010836,-9999,4250.525122625,0.3389434814453125,0.61651611328125,1.55853271484375,4250.515127625,-0.2869916503036444,1.854623501615821,-1.160168169938926,-0.8956974148750305,1.152958989143372,0.7610207200050354,-0.01445490121841431,-0.2885439395904541,1.364182829856873,XArbitraryZVertical,0.2297795848998512,-0.7092909153428355,0.5057391607131506,-0.433976474334386,0.3832140862941742,0.9168702363967896,0.1117845177650452,0,0,0,-1,-1,4245.271171375,unknown,2,2022-06-02T11:12:41.134+02:00,2022-06-02T10:17:13.754+02:00,768,1.733297,0,0,615.1182,0,0,2022-06-02T11:12:46.250+02:00,675853966.2502766,0,3.671875,101.3376,1,0.72
2022-06-02T11:12:46.397+02:00,1654161165.998783,53.22911319762073,10.39859922123104,36.46539,0.3776615,0.6892981,281.2722990026245,38.43790420039509,2.400000095367432,7.999579855010836,-9999,4250.535116625,0.32305908203125,0.6093292236328125,1.57757568359375,4250.525122625,-0.269373934716568,1.880671466512441,-1.150412188052248,-1.038121938705444,0.8265999555587769,0.6810362935066223,-0.04339724779129028,-0.2918387055397034,1.406373620033264,XArbitraryZVertical,0.226785888761514,-0.7146976536407385,0.5018679332087271,-0.4311656444409334,0.3886730074882507,0.9129322171211243,0.124449148774147,0,0,0,-1,-1,4245.271171375,unknown,2,2022-06-02T11:12:41.134+02:00,2022-06-02T10:17:13.754+02:00,768,1.733297,0,0,615.1182,0,0,2022-06-02T11:12:46.250+02:00,675853966.2502766,0,3.671875,101.3376,1,0.72
2022-06-02T11:12:46.407+02:00,1654161165.998783,53.22911319762073,10.39859922123104,36.46539,0.3776615,0.6892981,281.2722990026245,38.43790420039509,2.400000095367432,7.999579855010836,-9999,4250.545110625,0.29193115234375,0.593597412109375,1.561492919921875,4250.535116625,-0.2486354416882672,1.906214707497758,-1.140856811032425,-1.186071157455444,0.4899860322475433,0.5870349407196045,-0.06057974696159363,-0.2961828708648682,1.435705661773682,XArbitraryZVertical,0.2252441747273624,-0.7196286907279177,0.497258432384224,-0.4291078627420186,0.3935875296592712,0.9089909791946411,0.1372007876634598,0,0,0,-1,-1,4245.271171375,unknown,2,2022-06-02T11:12:41.134+02:00,2022-06-02T10:17:13.754+02:00,768,1.733297,0,0,615.1182,0,0,2022-06-02T11:12:46.250+02:00,675853966.2502766,0,3.671875,101.3376,1,0.72
2022-06-02T11:12:46.417+02:00,1654161165.998783,53.22911319762073,10.39859922123104,36.46539,0.3776615,0.6892981,281.2722990026245,38.43790420039509,2.400000095367432,7.999579855010836,-9999,4250.555105625001,0.2844085693359375,0.5721282958984375,1.5484619140625,4250.545110625,-0.225378888820016,1.930657575126309,-1.131549003887283,-1.286812663078308,0.1738083362579346,0.4976004064083099,-0.09194236993789673,-0.3037691116333008,1.422482848167419,XArbitraryZVertical,0.2251136179967066,-0.7240165401560595,0.4920084209013174,-0.4278451349224017,0.3980183303356171,0.9050719738006592,0.1497521847486496,0,0,0,-1,-1,4245.271171375,unknown,2,2022-06-02T11:12:41.134+02:00,2022-06-02T10:17:13.754+02:00,768,1.733297,0,0,615.1182,0,0,2022-06-02T11:12:46.250+02:00,675853966.2502766,0,3.671875,101.3376,1,0.72
2022-06-02T11:12:46.427+02:00,1654161165.998783,53.22911319762073,10.39859922123104,36.46539,0.3776615,0.6892981,281.2722990026245,38.43790420039509,2.400000095367432,7.999579855010836,-9999,4250.565099625001,0.2708892822265625,0.5301666259765625,1.478897094726562,4250.555105625001,-0.2000301387266432,1.953678051366978,-1.122486308807564,-1.407087922096252,-0.15160171687603,0.3993246853351593,-0.1154522895812988,-0.315991222858429,1.393380880355835,XArbitraryZVertical,0.2263226852616864,-0.7278352201521643,0.4861870267534814,-0.4273827357332098,0.4020580947399139,0.9011809229850769,0.1619321256875992,0,0,0,-1,-1,4245.271171375,unknown,2,2022-06-02T11:12:41.134+02:00,2022-06-02T10:17:13.754+02:00,768,1.733297,0,0,615.1182,0,0,2022-06-02T11:12:46.250+02:00,675853966.2502766,0,3.671875,101.3376,1,0.72
2022-06-02T11:12:46.437+02:00,1654161165.998783,53.22911319762073,10.39859922123104,36.46539,0.3776615,0.6892981,281.2722990026245,38.43790420039509,2.400000095367432,7.999579855010836,-9999,4250.575094625,0.257171630859375,0.50634765625,1.363296508789062,4250.565099625001,-0.17208962652229,1.975497010288624,-1.113639361343756,-1.527474761009216,-0.5073829293251038,0.2875365912914276,-0.1251489520072937,-0.3435695171356201,1.350203990936279,XArbitraryZVertical,0.2289906357134233,-0.7310692830715999,0.4797121958464244,-0.4277583917353101,0.4057428538799286,0.8973110318183899,0.1737980097532272,0,0,0,-1,-1,4245.271171375,unknown,2,2022-06-02T11:12:41.134+02:00,2022-06-02T10:17:13.754+02:00,768,1.733297,0,0,615.1182,0,0,2022-06-02T11:12:46.250+02:00,675853966.2502766,0,3.671875,101.3376,1,0.72
2022-06-02T11:12:46.447+02:00,1654161165.998783,53.22911319762073,10.39859922123104,36.46539,0.3776615,0.6892981,281.2722990026245,38.43790420039509,2.400000095367432,7.999579855010836,-9999,4250.585088625,0.2566375732421875,0.523101806640625,1.264999389648438,4250.575094625,-0.1424657758426149,1.995121848324131,-1.105247117115222,-1.54725706577301,-0.8781543374061584,0.1866794675588608,-0.1484822630882263,-0.382344663143158,1.234857082366943,XArbitraryZVertical,0.2330759635859616,-0.733543359464173,0.4727502236196978,-0.4290652179521404,0.4091024696826935,0.893575131893158,0.1848205327987671,0,0,0,-1,-1,4245.271171375,unknown,2,2022-06-02T11:12:41.134+02:00,2022-06-02T10:17:13.754+02:00,768,1.733297,0,0,615.1182,0,0,2022-06-02T11:12:46.250+02:00,675853966.2502766,0,3.671875,101.3376,1,0.72
2022-06-02T11:12:46.457+02:00,1654161165.998783,53.22911319762073,10.39859922123104,36.46539,0.3776615,0.6892981,281.2722990026245,38.43790420039509,2.400000095367432,7.999579855010836,-9999,4250.595082625,0.2454376220703125,0.556610107421875,1.200668334960938,4250.585088625,-0.1132709032786415,2.010612444544693,-1.09769929733024,-1.480462789535522,-1.232476115226746,0.07847463339567184,-0.1566052436828613,-0.380029559135437,1.117857575416565,XArbitraryZVertical,0.23832383920245,-0.7349847000869406,0.465659787103556,-0.4314628684358452,0.4122815430164337,0.890161395072937,0.1940015256404877,0,0,0,-1,-1,4245.271171375,unknown,2,2022-06-02T11:12:41.134+02:00,2022-06-02T10:17:13.754+02:00,768,1.733297,0,0,615.1182,0,0,2022-06-02T11:12:46.250+02:00,675853966.2502766,0,3.671875,101.3376,1,0.72
2022-06-02T11:12:46.467+02:00,1654161165.998783,53.22911319762073,10.39859922123104,36.46539,0.3776615,0.6892981,281.2722990026245,38.43790420039509,2.400000095367432,7.999579855010836,-9999,4250.605077625,0.200164794921875,0.5704345703125,1.184890747070312,4250.595082625,-0.0851907360291372,2.021447157854315,-1.091204557158035,-1.415465235710144,-1.589115262031555,-0.02024714834988117,-0.1605289280414581,-0.3477090001106262,1.027971982955933,XArbitraryZVertical,0.2445931638749518,-0.735295559793655,0.4585873969914703,-0.4349851896991074,0.4153506755828857,0.8871833682060242,0.2009707540273666,0,0,0,-1,-1,4245.271171375,unknown,2,2022-06-02T11:12:41.134+02:00,2022-06-02T10:17:13.754+02:00,768,1.733297,0,0,615.1182,0,0,2022-06-02T11:12:46.250+02:00,675853966.2502766,0,3.671875,101.3376,1,0.72
2022-06-02T11:12:46.477+02:00,1654161165.998783,53.22911319762073,10.39859922123104,36.46539,0.3776615,0.6892981,281.2722990026245,38.43790420039509,2.400000095367432,7.999579855010836,-9999,4250.615071625,0.1345977783203125,0.57830810546875,1.240142822265625,4250.605077625,-0.0569051287603551,2.028914631139591,-1.08579315166244,-1.429096937179565,-1.926489353179932,-0.1599272191524506,-0.1914079189300537,-0.3172602653503418,0.9794056415557861,XArbitraryZVertical,0.2520208892581257,-0.7345604025610551,0.451394786423142,-0.4394873723066661,0.4181382060050964,0.8846734762191772,0.2061870247125626,0,0,0,-1,-1,4245.271171375,unknown,2,2022-06-02T11:12:41.134+02:00,2022-06-02T10:17:13.754+02:00,768,1.733297,0,0,615.1182,0,0,2022-06-02T11:12:46.250+02:00,675853966.2502766,0,3.671875,101.3376,1,0.72
2022-06-02T11:12:46.487+02:00,1654161165.998783,53.22911319762073,10.39859922123104,36.46539,0.3776615,0.6892981,281.2722990026245,38.43790420039509,2.400000095367432,7.999579855010836,-9999,4250.625065625,0.0479583740234375,0.5927734375,1.32659912109375,4250.615071625,-0.02664397139921006,2.034740933258727,-1.08138799885374,-1.511100172996521,-2.258708477020264,-0.3181674480438232,-0.248719185590744,-0.307904064655304,0.9923359155654907,XArbitraryZVertical,0.2608047129600886,-0.7329131863063055,0.4438608395819772,-0.4447546849865415,0.4204111397266388,0.8826111555099487,0.2103616744279861,0,0,0,-1,-1,4245.271171375,unknown,2,2022-06-02T11:12:41.134+02:00,2022-06-02T10:17:13.754+02:00,768,1.733297,0,0,615.1182,0,0,2022-06-02T11:12:46.250+02:00,675853966.2502766,0,3.671875,101.3376,1,0.72
2022-06-02T11:12:46.497+02:00,1654161165.998783,53.22911319762073,10.39859922123104,36.46539,0.3776615,0.6892981,281.2722990026245,38.43790420039509,2.400000095367432,7.999579855010836,-9999,4250.635060625,-0.037689208984375,0.618988037109375,1.388763427734375,4250.625065625,0.007210081305897491,2.040496767050477,-1.077852535965065,-1.663688898086548,-2.563651561737061,-0.4870680570602417,-0.3318853974342346,-0.2985155582427979,1.071134924888611,XArbitraryZVertical,0.2711256251170335,-0.73046931538686,0.4357595724986615,-0.4505764072202146,0.421973317861557,0.8809435963630676,0.2141890525817871,0,0,0,-1,-1,4245.271171375,unknown,2,2022-06-02T11:12:41.134+02:00,2022-06-02T10:17:13.754+02:00,768,1.733297,0,0,615.1182,0,0,2022-06-02T11:12:46.250+02:00,675853966.2502766,0,3.671875,101.3376,1,0.72
2022-06-02T11:12:46.507+02:00,1654161165.998783,53.22911319762073,10.39859922123104,36.46539,0.3776615,0.6892981,281.2722990026245,38.43790420039509,2.400000095367432,7.999579855010836,-9999,4250.645054625,-0.1296234130859375,0.613372802734375,1.451019287109375,4250.635060625,0.04526309534755196,2.047008227704146,-1.075041287668772,-1.802685379981995,-2.835277080535889,-0.6559361815452576,-0.4173674285411835,-0.2715470194816589,1.143383502960205,XArbitraryZVertical,0.2829679794786975,-0.7272980314299742,0.4269950070077201,-0.4567734765984985,0.4227690696716309,0.8796097636222839,0.2180666029453278,0,0,0,-1,-1,4245.271171375,unknown,2,2022-06-02T11:12:41.134+02:00,2022-06-02T10:17:13.754+02:00,768,1.733297,0,0,615.1182,0,0,2022-06-02T11:12:46.250+02:00,675853966.2502766,0,3.671875,101.3376,1,0.72
2022-06-02T11:12:46.517+02:00,1654161165.998783,53.22911319762073,10.39859922123104,36.46539,0.3776615,0.6892981,281.2722990026245,38.43790420039509,2.400000095367432,7.999579855010836,-9999,4250.655049625,-0.2074737548828125,0.6363983154296875,1.5164794921875,4250.645054625,0.08675773274947593,2.05380680635488,-1.073163498117475,-1.877633929252625,-3.104496240615845,-0.8368480801582336,-0.5053040385246277,-0.259223461151123,1.194999814033508,XArbitraryZVertical,0.2961755665839438,-0.7232781440088853,0.4177371123607417,-0.4632973965280805,0.4227387011051178,0.8787149786949158,0.2217024862766266,0,0,0,-1,-1,4245.271171375,unknown,2,2022-06-02T11:12:41.134+02:00,2022-06-02T10:17:13.754+02:00,768,1.733297,0,0,615.1182,0,0,2022-06-02T11:12:46.250+02:00,675853966.2502766,0,3.671875,101.3376,1,0.72
2022-06-02T11:12:46.527+02:00,1654161165.998783,53.22911319762073,10.39859922123104,36.46539,0.3776615,0.6892981,281.2722990026245,38.43790420039509,2.400000095367432,7.999579855010836,-9999,4250.665043625,-0.292022705078125,0.6590423583984375,1.616546630859375,4250.655049625,0.1319195866800266,2.061061475144135,-1.072064028153476,-2.070585489273071,-3.363093852996826,-0.9836719036102295,-0.5954790115356445,-0.2605900764465332,1.260255336761475,XArbitraryZVertical,0.3107253125519759,-0.7183724000843289,0.4078865220725729,-0.4701271082830056,0.4219713509082794,0.8781896233558655,0.2252182513475418,0,0,0,-1,-1,4245.271171375,unknown,2,2022-06-02T11:12:41.134+02:00,2022-06-02T10:17:13.754+02:00,768,1.733297,0,0,615.1182,0,0,2022-06-02T11:12:46.250+02:00,675853966.2502766,0,3.671875,101.3376,1,0.72
2022-06-02T11:12:46.537+02:00,1654161165.998783,53.22911319762073,10.39859922123104,36.46539,0.3776615,0.6892981,281.2722990026245,38.43790420039509,2.400000095367432,7.999579855010836,-9999,4250.675037625,-0.391632080078125,0.6538238525390625,1.839279174804688,4250.665043625,0.1830564963252263,2.070990832459785,-1.071039696891623,-2.318196535110474,-3.636212825775146,-1.173516631126404,-0.6656813621520996,-0.2207626700401306,1.323623299598694,XArbitraryZVertical,0.3268175267570947,-0.7128144101166235,0.3969732091421883,-0.4769676354565368,0.4205031991004944,0.8776991963386536,0.2298281639814377,0,0,0,-1,-1,4245.271171375,unknown,2,2022-06-02T11:12:41.134+02:00,2022-06-02T10:17:13.754+02:00,768,1.733297,0,0,615.1182,0,0,2022-06-02T11:12:46.250+02:00,675853966.2502766,0,3.671875,101.3376,1,0.72
2022-06-02T11:12:46.547+02:00,1654161165.998783,53.22911319762073,10.39859922123104,36.46539,0.3776615,0.6892981,281.2722990026245,38.43790420039509,2.400000095367432,7.999579855010836,-9999,4250.685032625001,-0.5536956787109375,0.64727783203125,2.17236328125,4250.675037625,0.2388194398249729,2.08213212473634,-1.070509496989969,-2.426130771636963,-3.929752826690674,-1.327095985412598,-0.7614469528198242,-0.2286107540130615,1.477309465408325,XArbitraryZVertical,0.3443199284998315,-0.7062627415975157,0.3852431369668731,-0.4839674333097146,0.4183225631713867,0.8774449825286865,0.2347265481948853,0,0,0,-1,-1,4245.271171375,unknown,2,2022-06-02T11:12:41.134+02:00,2022-06-02T10:17:13.754+02:00,768,1.733297,0,0,615.1182,0,0,2022-06-02T11:12:46.250+02:00,675853966.2502766,0,3.671875,101.3376,1,0.72
2022-06-02T11:12:46.557+02:00,1654161165.998783,53.22911319762073,10.39859922123104,36.46539,0.3776615,0.6892981,281.2722990026245,38.43790420039509,2.400000095367432,7.999579855010836,-9999,4250.695026625001,-0.82733154296875,0.4651336669921875,2.4837646484375,4250.685032625001,0.2997814854877764,2.094362518645944,-1.070211976093231,-2.684134721755981,-4.358492851257324,-1.557497620582581,-0.8698241114616394,-0.2067549228668213,1.756687521934509,XArbitraryZVertical,0.3633594455161587,-0.6985324705100919,0.3724288279831762,-0.4912422192804158,0.4156462252140045,0.8773022890090942,0.2399553954601288,0,0,0,-1,-1,4245.271171375,unknown,2,2022-06-02T11:12:41.134+02:00,2022-06-02T10:17:13.754+02:00,768,1.733297,0,0,615.1182,0,0,2022-06-02T11:12:46.250+02:00,675853966.2502766,0,3.671875,101.3376,1,0.72
2022-06-02T11:12:46.567+02:00,1654161165.998783,53.22911319762073,10.39859922123104,36.46539,0.3776615,0.6892981,281.2722990026245,38.43790420039509,2.400000095367432,7.999579855010836,-9999,4250.705021625,-1.071044921875,0.311279296875,2.6279296875,4250.695026625001,0.3679493833953088,2.107287010371678,-1.071738888785337,-2.758308410644531,-5.05861234664917,-2.029337167739868,-1.100277781486511,-0.3121009469032288,2.096777677536011,XArbitraryZVertical,0.3849045267753975,-0.6885925544830175,0.3585616773732737,-0.4991215104375268,0.4113586843013763,0.8780340552330017,0.2446223944425583,0,0,0,-1,-1,4245.271171375,unknown,2,2022-06-02T11:12:41.134+02:00,2022-06-02T10:17:13.754+02:00,768,1.733297,0,0,615.1182,0,0,2022-06-02T11:12:46.250+02:00,675853966.2502766,0,3.671875,101.3376,1,0.72
2022-06-02T11:12:46.577+02:00,1654161165.998783,53.22911319762073,10.39859922123104,36.46539,0.3776615,0.6892981,281.2722990026245,38.43790420039509,2.400000095367432,7.999579855010836,-9999,4250.715015625,-1.327606201171875,0.4829864501953125,2.456085205078125,4250.705021625,0.4396787053740112,2.114226799338312,-1.078038457947393,-2.39385724067688,-6.259140014648438,-2.568479537963867,-1.355699181556702,-0.5095410346984863,2.341529369354248,XArbitraryZVertical,0.4091554167945345,-0.6744590656715923,0.3443250056576724,-0.5090551414389679,0.4049088358879089,0.8810315728187561,0.2446063756942749,0,0,0,-1,-1,4245.271171375,unknown,2,2022-06-02T11:12:41.134+02:00,2022-06-02T10:17:13.754+02:00,768,1.733297,0,0,615.1182,0,0,2022-06-02T11:12:46.250+02:00,675853966.2502766,0,3.671875,101.3376,1,0.72
2022-06-02T11:12:46.587+02:00,1654161165.998783,53.22911319762073,10.39859922123104,36.46539,0.3776615,0.6892981,281.2722990026245,38.43790420039509,2.400000095367432,7.999579855010836,-9999,4250.725009625,-1.476409912109375,0.9725189208984375,1.910232543945312,4250.715015625,0.510257752533561,2.104719605356123,-1.091681972008478,-1.841367363929749,-8.241930961608887,-3.207849264144897,-1.594111680984497,-0.545942485332489,2.357709407806396,XArbitraryZVertical,0.4362720285464425,-0.65342922679073,0.3294405084884776,-0.5236084415373484,0.3968307673931122,0.8874035477638245,0.234606072306633,0,0,0,-1,-1,4245.271171375,unknown,2,2022-06-02T11:12:41.134+02:00,2022-06-02T10:17:13.754+02:00,768,1.733297,0,0,615.1182,0,0,2022-06-02T11:12:46.250+02:00,675853966.2502766,0,3.671875,101.3376,1,0.72
2022-06-02T11:12:46.597+02:00,1654161165.998783,53.22911319762073,10.39859922123104,36.46539,0.3776615,0.6892981,281.2722990026245,38.43790420039509,2.400000095367432,7.999579855010836,-9999,4250.735004625,-1.4718017578125,1.424514770507812,1.418502807617188,4250.725009625,0.5755084197259802,2.066678048762659,-1.116030944066318,-0.8059828877449036,-11.14580821990967,-3.936868906021118,-1.815344095230103,-0.1938506960868835,2.006897449493408,XArbitraryZVertical,0.4667422037874106,-0.6218128342620327,0.3128965829235976,-0.5455237202191767,0.3863432109355927,0.8983641266822815,0.20899897813797,0,0,0,-1,-1,4245.271171375,unknown,2,2022-06-02T11:12:41.134+02:00,2022-06-02T10:17:13.754+02:00,768,1.733297,0,0,615.1182,0,0,2022-06-02T11:12:46.250+02:00,675853966.2502766,0,3.671875,101.3376,1,0.72
2022-06-02T11:12:46.607+02:00,1654161165.998783,53.22911319762073,10.39859922123104,36.46539,0.3776615,0.6892981,281.2722990026245,38.43790420039509,2.400000095367432,7.999579855010836,-9999,4250.744998625,-1.668167114257812,1.6573486328125,1.8756103515625,4250.735004625,0.6232753442315631,1.982160269241085,-1.154085349531023,0.5159884691238403,-14.37481117248535,-4.673381805419922,-1.852907061576843,0.315707802772522,1.451054453849792,XArbitraryZVertical,0.4994351916506106,-0.5757491630910004,0.2936662168892172,-0.5769206745758422,0.3709886968135834,0.9144251346588135,0.1618452221155167,0,0,0,-1,-1,4245.271171375,unknown,2,2022-06-02T11:12:41.134+02:00,2022-06-02T10:17:13.754+02:00,768,1.733297,0,0,615.1182,0,0,2022-06-02T11:12:46.250+02:00,675853966.2502766,0,3.671875,101.3376,1,0.72
2022-06-02T11:12:46.617+02:00,1654161165.998783,53.22911319762073,10.39859922123104,36.46539,0.3776615,0.6892981,281.2722990026245,38.43790420039509,2.400000095367432,7.999579855010836,-9999,4250.754993625001,-2.179290771484375,2.084930419921875,2.91815185546875,4250.744998625,0.6343283126107507,1.837007226994244,-1.205064728081052,2.243257522583008,-16.62494659423828,-5.283185482025146,-1.85632598400116,0.622137188911438,1.376709461212158,XArbitraryZVertical,0.5310526562538656,-0.5148063713914529,0.2719412379765226,-0.6156340580784333,0.3450344502925873,0.9338623881340027,0.09408504515886307,0,0,0,-1,-1,4245.271171375,unknown,2,2022-06-02T11:12:41.134+02:00,2022-06-02T10:17:13.754+02:00,768,1.733297,0,0,615.1182,0,0,2022-06-02T11:12:46.250+02:00,675853966.2502766,0,3.671875,101.3376,1,0.72
2022-06-02T11:12:46.628+02:00,1654161165.998783,53.22911319762073,10.39859922123104,36.46539,0.3776615,0.6892981,281.2722990026245,38.43790420039509,2.400000095367432,7.999579855010836,-9999,4250.764987625001,-2.9285888671875,2.823226928710938,3.063232421875,4250.754993625001,0.54174672198164,1.579622872557118,-1.263836290462627,5.670672416687012,-17.13839912414551,-5.422940254211426,-2.19550633430481,0.8550776839256287,2.473742723464966,XArbitraryZVertical,0.5540128627783817,-0.4409118427210774,0.2522343792294426,-0.6595788062048237,0.3021500408649445,0.9532565474510193,0.002667010296136141,0,0,0,-1,-1,4245.271171375,unknown,2,2022-06-02T11:12:41.134+02:00,2022-06-02T10:17:13.754+02:00,768,1.733297,0,0,615.1182,0,0,2022-06-02T11:12:46.250+02:00,675853966.2502766,0,3.671875,101.3376,1,0.72
2022-06-02T11:12:46.637+02:00,1654161165.998783,53.22911319762073,10.39859922123104,36.46539,0.3776615,0.6892981,281.2722990026245,38.43790420039509,2.400000095367432,7.999579855010836,-9999,4250.774981625001,-8.082916259765625,3.325973510742188,2.0946044921875,4250.764987625001,0.2328599791454261,1.113521132715948,-1.292705063786601,10.50950527191162,-16.79631233215332,-3.943403959274292,-2.790459871292114,1.484326362609863,3.225312948226929,XArbitraryZVertical,0.5568601433119771,-0.3595909389404093,0.2373836337949358,-0.7101057415513897,0.246316209435463,0.9615811705589294,-0.1212022751569748,0,0,0,-1,-1,4245.271171375,unknown,2,2022-06-02T11:12:41.134+02:00,2022-06-02T10:17:13.754+02:00,768,1.733297,0,0,615.1182,0,0,2022-06-02T11:12:46.250+02:00,675853966.2502766,0,3.671875,101.3376,1,0.72
2022-06-02T11:12:46.647+02:00,1654161165.998783,53.22911319762073,10.39859922123104,36.46539,0.3776615,0.6892981,281.2722990026245,38.43790420039509,2.400000095367432,7.999579855010836,-9999,4250.784976625,6.132522583007812,0.008087158203125,-27.91053771972656,4250.774981625001,0.0004821734749386466,0.8213439592289923,-1.250910805794274,-0.9280468821525574,26.09550666809082,6.50602388381958,-3.528435468673706,2.237297534942627,3.342668771743774,XArbitraryZVertical,0.5368646900594269,-0.3235213924615401,0.2335541097553894,-0.743345517315245,0.2302024513483047,0.9492714405059814,-0.2142204195261002,0,0,0,-1,-1,4245.271171375,unknown,2,2022-06-02T11:12:41.134+02:00,2022-06-02T10:17:13.754+02:00,768,1.733297,0,0,615.1182,0,0,2022-06-02T11:12:46.250+02:00,675853966.2502766,0,3.671875,101.3376,1,0.72
2022-06-02T11:12:46.657+02:00,1654161165.998783,53.22911319762073,10.39859922123104,36.46539,0.3776615,0.6892981,281.2722990026245,38.43790420039509,2.400000095367432,7.999579855010836,-9999,4250.794970625,3.788101196289062,4.540176391601562,-15.59530639648438,4250.784976625,0.1043415992092643,0.9895831609050452,-1.260855267085366,-1.330601811408997,2.706061363220215,3.111639976501465,-17.89579010009766,-1.99406909942627,-14.58835601806641,XArbitraryZVertical,0.5380876104717742,-0.3559954218459449,0.2424663699124626,-0.7245267294963842,0.254920095205307,0.9523515701293945,-0.1674579679965973,0,0,0,-1,-1,4245.271171375,unknown,2,2022-06-02T11:12:41.134+02:00,2022-06-02T10:17:13.754+02:00,768,1.733297,0,0,615.1182,0,0,2022-06-02T11:12:46.250+02:00,675853966.2502766,0,3.671875,101.3376,1,0.72
2022-06-02T11:12:46.667+02:00,1654161165.998783,53.22911319762073,10.39859922123104,36.46539,0.3776615,0.6892981,281.2722990026245,38.43790420039509,2.400000095367432,7.999579855010836,-9999,4250.804965625,-2.318771362304688,0.8209381103515625,-2.80718994140625,4250.794970625,0.08312904563912012,0.9643565530805271,-1.224946437160811,2.826772212982178,-2.333276271820068,0.3442428708076477,16.03729438781738,2.824638843536377,-24.6913890838623,XArbitraryZVertical,0.5246735863784948,-0.357928599909196,0.2362303620182887,-0.7353910102236884,0.2785472869873047,0.940787672996521,-0.1932094842195511,0,0,0,-1,-1,4245.271171375,unknown,2,2022-06-02T11:12:41.134+02:00,2022-06-02T10:17:13.754+02:00,768,1.733297,0,0,615.1182,0,0,2022-06-02T11:12:46.250+02:00,675853966.2502766,0,3.671875,101.3376,1,0.72
2022-06-02T11:12:46.677+02:00,1654161165.998783,53.22911319762073,10.39859922123104,36.46539,0.3776615,0.6892981,281.2722990026245,38.43790420039509,2.400000095367432,7.999579855010836,-9999,4250.814959625,-1.060684204101562,0.17376708984375,6.368927001953125,4250.804965625,0.02573080337195907,0.887963853993774,-1.212079639749547,1.809885382652283,-2.586362838745117,-0.1019772961735725,-3.122333765029907,1.797950506210327,-8.448885917663574,XArbitraryZVertical,0.5188910974477756,-0.3463953945865619,0.2351035719250508,-0.7453110543364201,0.2723583281040192,0.9363481402397156,-0.2215245217084885,0,0,0,-1,-1,4245.271171375,unknown,2,2022-06-02T11:12:41.134+02:00,2022-06-02T10:17:13.754+02:00,768,1.733297,0,0,615.1182,0,0,2022-06-02T11:12:46.250+02:00,675853966.2502766,0,3.671875,101.3376,1,0.72
2022-06-02T11:12:46.687+02:00,1654161165.998783,53.22911319762073,10.39859922123104,36.46539,0.3776615,0.6892981,281.2722990026245,38.43790420039509,2.400000095367432,7.999579855010836,-9999,4250.824953625,-1.210189819335938,-1.016555786132812,6.719985961914062,4250.814959625,0.03079027759198495,0.8653806403033737,-1.207769639217952,-1.115628004074097,-1.380129337310791,0.311514675617218,-1.284806370735168,-0.5125547647476196,2.81287407875061,XArbitraryZVertical,0.5207649255386526,-0.3371760338650106,0.2265734848336948,-0.7508531951003121,0.2703563570976257,0.9348263144493103,-0.2302324324846268,0,0,0,-1,-1,4245.271171375,unknown,2,2022-06-02T11:12:41.134+02:00,2022-06-02T10:17:13.754+02:00,768,1.733297,0,0,615.1182,0,0,2022-06-02T11:12:46.250+02:00,675853966.2502766,0,3.671875,101.3376,1,0.72
2022-06-02T11:12:46.697+02:00,1654161165.998783,53.22911319762073,10.39859922123104,36.46539,0.3776615,0.6892981,281.2722990026245,38.43790420039509,2.400000095367432,7.999579855010836,-9999,4250.834948625,0.1772308349609375,0.35125732421875,2.614654541015625,4250.824953625,0.03897056703351656,0.8896525062805239,-1.209552980501484,0.5751275420188904,4.036412239074707,-0.04236197099089622,-1.624788761138916,-1.520724296569824,8.087100982666016,XArbitraryZVertical,0.5200467961501862,-0.3439108812968578,0.2301450059656401,-0.7472013707422913,0.2745690047740936,0.9354581236839294,-0.2225532680749893,0,0,0,-1,-1,4245.271171375,unknown,2,2022-06-02T11:12:41.134+02:00,2022-06-02T10:17:13.754+02:00,768,1.733297,0,0,615.1182,0,0,2022-06-02T11:12:46.250+02:00,675853966.2502766,0,3.671875,101.3376,1,0.72
2022-06-02T11:12:46.707+02:00,1654161165.998783,53.22911319762073,10.39859922123104,36.46539,0.3776615,0.6892981,281.2722990026245,38.43790420039509,2.400000095367432,7.999579855010836,-9999,4250.844942625,2.166244506835938,1.371994018554688,0.753387451171875,4250.834948625,0.03142618779232094,0.9165310455101751,-1.201549704087209,0.4315368235111237,2.772595167160034,0.4323797821998596,-0.9765527248382568,-1.436627984046936,4.679450988769531,XArbitraryZVertical,0.5126281178406547,-0.3569187115792674,0.2384222868946621,-0.7436236293108136,0.2863824367523193,0.9325994849205017,-0.2196428924798965,0,0,0,-1,-1,4245.271171375,unknown,2,2022-06-02T11:12:41.134+02:00,2022-06-02T10:17:13.754+02:00,768,1.733297,0,0,615.1182,0,0,2022-06-02T11:12:46.250+02:00,675853966.2502766,0,3.671875,101.3376,1,0.72
2022-06-02T11:12:46.717+02:00,1654161165.998783,53.22911319762073,10.39859922123104,36.46539,0.3776615,0.6892981,281.2722990026245,38.43790420039509,2.400000095367432,7.999579855010836,-9999,4250.854937625,1.91778564453125,0.7609100341796875,-1.50732421875,4250.844942625,0.02868897804205866,0.9247881234812982,-1.204032775031103,-0.4027440249919891,-0.1786776781082153,-1.043619275093079,0.9692178964614868,0.06815499067306519,1.462931036949158,XArbitraryZVertical,0.5120578830464082,-0.3603591751105177,0.2420177924433556,-0.7411917396013477,0.2863362431526184,0.9334928393363953,-0.2158759832382202,0,0,0,-1,-1,4245.271171375,unknown,2,2022-06-02T11:12:41.134+02:00,2022-06-02T10:17:13.754+02:00,768,1.733297,0,0,615.1182,0,0,2022-06-02T11:12:46.250+02:00,675853966.2502766,0,3.671875,101.3376,1,0.72
2022-06-02T11:12:46.727+02:00,1654161165.998783,53.22911319762073,10.39859922123104,36.46539,0.3776615,0.6892981,281.2722990026245,38.43790420039509,2.400000095367432,7.999579855010836,-9999,4250.864931625,-0.7547760009765625,0.158538818359375,-1.44329833984375,4250.854937625,-0.01367708427653293,0.8702495378363497,-1.212520009898019,1.599296092987061,-1.780913949012756,-2.249924182891846,2.314733266830444,0.3484246134757996,0.2168623358011246,XArbitraryZVertical,0.5143218517651431,-0.3499270405659354,0.245273833363938,-0.7435487587274728,0.2680762410163879,0.9365026354789734,-0.2260482013225555,0,0,0,-1,-1,4245.271171375,unknown,2,2022-06-02T11:12:41.134+02:00,2022-06-02T10:17:13.754+02:00,768,1.733297,0,0,615.1182,0,0,2022-06-02T11:12:46.250+02:00,675853966.2502766,0,3.671875,101.3376,1,0.72
2022-06-02T11:12:46.737+02:00,1654161165.998783,53.22911319762073,10.39859922123104,36.46539,0.3776615,0.6892981,281.2722990026245,38.43790420039509,2.400000095367432,7.999579855010836,-9999,4250.874925625,-0.83709716796875,0.5942535400390625,0.571319580078125,4250.864931625,-0.09196810536016053,0.7826773660546201,-1.219821776064538,1.175352811813354,-1.052402496337891,-2.431068181991577,0.2145505547523499,-0.6227540373802185,-2.106141567230225,XArbitraryZVertical,0.5145589772646085,-0.3366637849297927,0.2530790684401855,-0.7468852117383115,0.2424501925706863,0.939038097858429,-0.2437731027603149,0,0,0,-1,-1,4245.271171375,unknown,2,2022-06-02T11:12:41.134+02:00,2022-06-02T10:17:13.754+02:00,768,1.733297,0,0,615.1182,0,0,2022-06-02T11:12:46.250+02:00,675853966.2502766,0,3.671875,101.3376,1,0.72
2022-06-02T11:12:46.747+02:00,1654161165.998783,53.22911319762073,10.39859922123104,36.46539,0.3776615,0.6892981,281.2722990026245,38.43790420039509,2.400000095367432,7.999579855010836,-9999,4250.884920625001,-0.0494232177734375,1.589492797851562,0.466949462890625,4250.874925625,-0.1539354543197972,0.7248989714708557,-1.227530329376339,0.7286525964736938,1.051971912384033,-1.616058468818665,-1.327837347984314,-0.6802165508270264,0.1991449892520905,XArbitraryZVertical,0.5146492013755674,-0.3304027191907076,0.2623815452214228,-0.7464087356604475,0.2231620401144028,0.941660463809967,-0.2519404888153076,0,0,0,-1,-1,4245.271171375,unknown,2,2022-06-02T11:12:41.134+02:00,2022-06-02T10:17:13.754+02:00,768,1.733297,0,0,615.1182,0,0,2022-06-02T11:12:46.250+02:00,675853966.2502766,0,3.671875,101.3376,1,0.72
2022-06-02T11:12:46.757+02:00,1654161165.998783,53.22911319762073,10.39859922123104,36.46539,0.3776615,0.6892981,281.2722990026245,38.43790420039509,2.400000095367432,7.999579855010836,-9999,4250.894914625001,0.4598541259765625,1.632980346679688,0.5366973876953125,4250.884920625001,-0.1979129037685081,0.6963625137131256,-1.229416880436077,0.8705838918685913,1.338039875030518,-1.034773349761963,-0.633215069770813,0.1524936556816101,0.816457986831665,XArbitraryZVertical,0.5119248234855395,-0.3309259634133919,0.2716747748222252,-0.7447238666516666,0.2147428095340729,0.9422937631607056,-0.2568419575691223,0,0,0,-1,-1,4245.271171375,unknown,2,2022-06-02T11:12:41.134+02:00,2022-06-02T10:17:13.754+02:00,768,1.733297,0,0,615.1182,0,0,2022-06-02T11:12:46.250+02:00,675853966.2502766,0,3.671875,101.3376,1,0.72
