loggingTime(txt),locationTimestamp_since1970(s),locationLatitude(WGS84),locationLongitude(WGS84),locationAltitude(m),locationSpeed(m/s),locationSpeedAccuracy(m/s),locationCourse(°),locationCourseAccuracy(°),locationVerticalAccuracy(m),locationHorizontalAccuracy(m),locationFloor(Z),accelerometerTimestamp_sinceReboot(s),accelerometerAccelerationX(G),accelerometerAccelerationY(G),accelerometerAccelerationZ(G),motionTimestamp_sinceReboot(s),motionYaw(rad),motionRoll(rad),motionPitch(rad),motionRotationRateX(rad/s),motionRotationRateY(rad/s),motionRotationRateZ(rad/s),motionUserAccelerationX(G),motionUserAccelerationY(G),motionUserAccelerationZ(G),motionAttitudeReferenceFrame(txt),motionQuaternionX(R),motionQuaternionY(R),motionQuaternionZ(R),motionQuaternionW(R),motionGravityX(G),motionGravityY(G),motionGravityZ(G),motionMagneticFieldX(µT),motionMagneticFieldY(µT),motionMagneticFieldZ(µT),motionHeading(°),motionMagneticFieldCalibrationAccuracy(Z),activityTimestamp_sinceReboot(s),activity(txt),activityActivityConfidence(Z),activityActivityStartDate(txt),pedometerStartDate(txt),pedometerNumberofSteps(N),pedometerAverageActivePace(s/m),pedometerCurrentPace(s/m),pedometerCurrentCadence(steps/s),pedometerDistance(m),pedometerFloorAscended(N),pedometerFloorDescended(N),pedometerEndDate(txt),altimeterTimestamp_sinceReboot(s),altimeterReset(bool),altimeterRelativeAltitude(m),altimeterPressure(kPa),batteryState(N),batteryLevel(R)
2022-06-02T10:51:52.847+02:00,1654159911.999942,53.22910106456729,10.39847931417128,36.73664,0,20,-1,-1,2.400000095367432,7.999579855010836,-9999,3057.091542541667,-0.0751953125,-0.7113800048828125,-0.6601104736328125,3057.081548541667,-0.03152264919846474,-0.1193566553234914,0.7459139805265212,0.009982826188206673,-0.1032300442457199,0.09436065703630447,0.03247825056314468,0.001519381999969482,0.04009461402893066,XArbitraryZVertical,0.3628015023165633,-0.06126830264965649,-0.03638049132823992,0.9291381609551662,-0.08745564520359039,-0.6786434054374695,-0.7292425036430359,0,0,0,-1,-1,3052.37708675,unknown,2,2022-06-02T10:51:48.099+02:00,2022-06-02T10:17:13.754+02:00,512,1.445976,0,0,397.4887,0,0,2022-06-02T10:51:50.657+02:00,675852700.4210155,0,5.3125,101.3183,1,0.79
2022-06-02T10:51:52.852+02:00,1654159911.999942,53.22910106456729,10.39847931417128,36.73664,0,20,-1,-1,2.400000095367432,7.999579855010836,-9999,3057.101536541667,-0.0849761962890625,-0.686431884765625,-0.6615142822265625,3057.091542541667,-0.03032085404257719,-0.1213479358251159,0.7452919493548252,-0.02975819259881973,-0.115825466811657,0.07576087862253189,0.01338192075490952,-0.02647966146469116,0.06127291917800903,XArbitraryZVertical,0.362513238130573,-0.06197785302947811,-0.03616756381997465,0.9292118786650214,-0.08895867317914963,-0.6781864166259766,-0.729485809803009,0,0,0,-1,-1,3052.37708675,unknown,2,2022-06-02T10:51:48.099+02:00,2022-06-02T10:17:13.754+02:00,512,1.445976,0,0,397.4887,0,0,2022-06-02T10:51:50.657+02:00,675852700.4210155,0,5.3125,101.3183,1,0.79
2022-06-02T10:51:52.854+02:00,1654159911.999942,53.22910106456729,10.39847931417128,36.73664,0,20,-1,-1,2.400000095367432,7.999579855010836,-9999,3057.111531541667,-0.1019134521484375,-0.673858642578125,-0.6744232177734375,3057.101536541667,-0.02924696652586995,-0.1232264112986104,0.7442826163069186,-0.07168847322463989,-0.106385625898838,0.09197632968425751,0.01158605515956879,-0.02404797077178955,0.07154911756515503,XArbitraryZVertical,0.3620434968163667,-0.0626603793805781,-0.03598286254885808,0.9293564202254048,-0.0904129296541214,-0.6774442791938782,-0.729996383190155,0,0,0,-1,-1,3052.37708675,unknown,2,2022-06-02T10:51:48.099+02:00,2022-06-02T10:17:13.754+02:00,512,1.445976,0,0,397.4887,0,0,2022-06-02T10:51:50.657+02:00,675852700.4210155,0,5.3125,101.3183,1,0.79
2022-06-02T10:51:52.861+02:00,1654159911.999942,53.22910106456729,10.39847931417128,36.73664,0,20,-1,-1,2.400000095367432,7.999579855010836,-9999,3057.121525541667,-0.1120147705078125,-0.667388916015625,-0.7005157470703125,3057.111531541667,-0.02805189531906024,-0.1249370573494281,0.7431009445690885,-0.07175771147012711,-0.07422582805156708,0.1007655560970306,-0.0009053498506546021,-0.001312315464019775,0.06376427412033081,XArbitraryZVertical,0.36150093278172,-0.06324462661680812,-0.03570586259072001,0.9295386916883874,-0.09176124632358551,-0.6765745878219604,-0.7306343913078308,0,0,0,-1,-1,3052.37708675,unknown,2,2022-06-02T10:51:48.099+02:00,2022-06-02T10:17:13.754+02:00,512,1.445976,0,0,397.4887,0,0,2022-06-02T10:51:50.657+02:00,675852700.4210155,0,5.3125,101.3183,1,0.79
2022-06-02T10:51:52.863+02:00,1654159911.999942,53.22910106456729,10.39847931417128,36.73664,0,20,-1,-1,2.400000095367432,7.999579855010836,-9999,3057.131519541667,-0.112518310546875,-0.6598358154296875,-0.7230072021484375,3057.121525541667,-0.02670977541077467,-0.1264343572960656,0.7420945395260936,-0.04211146757006645,-0.03859180212020874,0.1066033393144608,-0.01698335260152817,0.004599094390869141,0.04333555698394775,XArbitraryZVertical,0.3610488521656779,-0.06370320922416502,-0.03532555335387405,0.9296975696509623,-0.09294093400239944,-0.6758331656455994,-0.7311712503433228,0,0,0,-1,-1,3052.37708675,unknown,2,2022-06-02T10:51:48.099+02:00,2022-06-02T10:17:13.754+02:00,512,1.445976,0,0,397.4887,0,0,2022-06-02T10:51:50.657+02:00,675852700.4210155,0,5.3125,101.3183,1,0.79
2022-06-02T10:51:52.865+02:00,1654159911.999942,53.22910106456729,10.39847931417128,36.73664,0,20,-1,-1,2.400000095367432,7.999579855010836,-9999,3057.141513541667,-0.119110107421875,-0.6594085693359375,-0.7430419921875,3057.131519541667,-0.02534738117933876,-0.1276486128837202,0.7412430210147942,-0.01697655394673347,-0.01238762680441141,0.09678373485803604,-0.01792971044778824,0.01243984699249268,0.01933294534683228,XArbitraryZVertical,0.3606748919288693,-0.06402651059832998,-0.03488809576993085,0.9298371072537694,-0.09390193223953247,-0.6752053499221802,-0.7316284775733948,0,0,0,-1,-1,3052.37708675,unknown,2,2022-06-02T10:51:48.099+02:00,2022-06-02T10:17:13.754+02:00,512,1.445976,0,0,397.4887,0,0,2022-06-02T10:51:50.657+02:00,675852700.4210155,0,5.3125,101.3183,1,0.79
2022-06-02T10:51:52.873+02:00,1654159911.999942,53.22910106456729,10.39847931417128,36.73664,0,20,-1,-1,2.400000095367432,7.999579855010836,-9999,3057.151508541667,-0.111053466796875,-0.6638946533203125,-0.7503814697265625,3057.141513541667,-0.02434171162434603,-0.1281946836749879,0.7409648902185131,0.006789762526750565,0.01927762292325497,0.06585058569908142,-0.0220533162355423,0.01656818389892578,-0.001757264137268066,XArbitraryZVertical,0.3605682716190889,-0.06410068107834437,-0.03451133795728228,0.9298873347536073,-0.09432543814182281,-0.6750001311302185,-0.7317632436752319,0,0,0,-1,-1,3052.37708675,unknown,2,2022-06-02T10:51:48.099+02:00,2022-06-02T10:17:13.754+02:00,512,1.445976,0,0,397.4887,0,0,2022-06-02T10:51:50.657+02:00,675852700.4210155,0,5.3125,101.3183,1,0.79
2022-06-02T10:51:52.884+02:00,1654159911.999942,53.22910106456729,10.39847931417128,36.73664,0,20,-1,-1,2.400000095367432,7.999579855010836,-9999,3057.161502541667,-0.091400146484375,-0.6799163818359375,-0.7527618408203125,3057.151508541667,-0.02392642172392926,-0.1278722068515904,0.7414592684270016,0.03204797953367233,0.04119597002863884,0.05178190767765045,-0.02303377538919449,0.01259934902191162,-0.01746934652328491,XArbitraryZVertical,0.3608170997985662,-0.06387290673166807,-0.03427376413063778,0.9298152549548527,-0.09404688328504562,-0.6753647923469543,-0.7314625382423401,0,0,0,-1,-1,3052.37708675,unknown,2,2022-06-02T10:51:48.099+02:00,2022-06-02T10:17:13.754+02:00,512,1.445976,0,0,397.4887,0,0,2022-06-02T10:51:50.657+02:00,675852700.4210155,0,5.3125,101.3183,1,0.79
2022-06-02T10:51:52.895+02:00,1654159911.999942,53.22910106456729,10.39847931417128,36.73664,0,20,-1,-1,2.400000095367432,7.999579855010836,-9999,3057.171496541667,-0.0955657958984375,-0.698516845703125,-0.7556915283203125,3057.161502541667,-0.02332409663535411,-0.1277683253343371,0.7418753377515656,0.02780609764158726,0.03275907784700394,0.05310869216918945,-0.006971262395381927,0.007306158542633057,-0.02050018310546875,XArbitraryZVertical,0.361031622859736,-0.06371338657299742,-0.03398649423751762,0.9297534776532501,-0.09393508732318878,-0.6756715774536133,-0.7311935424804688,0,0,0,-1,-1,3052.37708675,unknown,2,2022-06-02T10:51:48.099+02:00,2022-06-02T10:17:13.754+02:00,512,1.445976,0,0,397.4887,0,0,2022-06-02T10:51:50.657+02:00,675852700.4210155,0,5.3125,101.3183,1,0.79
2022-06-02T10:51:52.903+02:00,1654159911.999942,53.22910106456729,10.39847931417128,36.73664,0,20,-1,-1,2.400000095367432,7.999579855010836,-9999,3057.181491541667,-0.095794677734375,-0.6898651123046875,-0.755096435546875,3057.171496541667,-0.02274650742394392,-0.1278416501284341,0.7423110729888999,-0.00322452187538147,0.02089443057775497,0.03730203211307526,0.002291642129421234,-0.01550495624542236,-0.02409499883651733,XArbitraryZVertical,0.3612514061733388,-0.0636404586618195,-0.03374328610060107,0.9296820389575353,-0.09395116567611694,-0.6759927868843079,-0.7308946251869202,0,0,0,-1,-1,3052.37708675,unknown,2,2022-06-02T10:51:48.099+02:00,2022-06-02T10:17:13.754+02:00,512,1.445976,0,0,397.4887,0,0,2022-06-02T10:51:50.657+02:00,675852700.4210155,0,5.3125,101.3183,1,0.79
2022-06-02T10:51:52.913+02:00,1654159911.999942,53.22910106456729,10.39847931417128,36.73664,0,20,-1,-1,2.400000095367432,7.999579855010836,-9999,3057.191485541667,-0.0843048095703125,-0.6901397705078125,-0.7464752197265625,3057.181491541667,-0.02240863025397006,-0.1278769729647232,0.742641511156976,-0.008904212154448032,0.01163415238261223,0.02106387354433537,-0.002593845129013062,-0.01887786388397217,-0.02517437934875488,XArbitraryZVertical,0.3614152286207362,-0.06359373749666176,-0.03360177062455736,0.9296267177949459,-0.09394849091768265,-0.6762362122535706,-0.7306697368621826,0,0,0,-1,-1,3052.37708675,unknown,2,2022-06-02T10:51:48.099+02:00,2022-06-02T10:17:13.754+02:00,512,1.445976,0,0,397.4887,0,0,2022-06-02T10:51:50.657+02:00,675852700.4210155,0,5.3125,101.3183,1,0.79
2022-06-02T10:51:52.923+02:00,1654159911.999942,53.22910106456729,10.39847931417128,36.73664,0,20,-1,-1,2.400000095367432,7.999579855010836,-9999,3057.201479541667,-0.08599853515625,-0.679656982421875,-0.741729736328125,3057.191485541667,-0.02207206720723561,-0.1281301406149683,0.7428548889078965,-0.01125205587595701,-0.01140245702117682,0.02519363723695278,0.00323370099067688,-0.01260191202163696,-0.02207601070404053,XArbitraryZVertical,0.3615209618856077,-0.06364921729752997,-0.03349702844304479,0.9295854987471754,-0.09411502629518509,-0.6763933897018433,-0.730502724647522,0,0,0,-1,-1,3052.37708675,unknown,2,2022-06-02T10:51:48.099+02:00,2022-06-02T10:17:13.754+02:00,512,1.445976,0,0,397.4887,0,0,2022-06-02T10:51:50.657+02:00,675852700.4210155,0,5.3125,101.3183,1,0.79
2022-06-02T10:51:52.933+02:00,1654159911.999942,53.22910106456729,10.39847931417128,36.73664,0,20,-1,-1,2.400000095367432,7.999579855010836,-9999,3057.211473541667,-0.097381591796875,-0.6632232666015625,-0.74212646484375,3057.201479541667,-0.02155479019758762,-0.1288029307878178,0.7429371884839427,-0.006000068038702011,-0.02277475409209728,0.02806192822754383,0.01365147531032562,-0.01016092300415039,-0.01050645112991333,XArbitraryZVertical,0.3615644718923333,-0.06386786959384158,-0.03338052414542333,0.9295577796224348,-0.09459932893514633,-0.6764540076255798,-0.7303840517997742,0,0,0,-1,-1,3052.37708675,unknown,2,2022-06-02T10:51:48.099+02:00,2022-06-02T10:17:13.754+02:00,512,1.445976,0,0,397.4887,0,0,2022-06-02T10:51:50.657+02:00,675852700.4210155,0,5.3125,101.3183,1,0.79
2022-06-02T10:51:52.943+02:00,1654159911.999942,53.22910106456729,10.39847931417128,36.73664,0,20,-1,-1,2.400000095367432,7.999579855010836,-9999,3057.221468541667,-0.104522705078125,-0.660858154296875,-0.744598388671875,3057.211473541667,-0.02102466956662663,-0.129546649398998,0.7430171017652049,0.02567237429320812,-0.01427554246038198,0.01004804112017155,0.002865642309188843,0.00619429349899292,-0.01235485076904297,XArbitraryZVertical,0.3616062132488346,-0.06411714844507385,-0.03327084917545884,0.9295282899909737,-0.09513551741838455,-0.6765128970146179,-0.730259895324707,0,0,0,-1,-1,3052.37708675,unknown,2,2022-06-02T10:51:48.099+02:00,2022-06-02T10:17:13.754+02:00,512,1.445976,0,0,397.4887,0,0,2022-06-02T10:51:50.657+02:00,675852700.4210155,0,5.3125,101.3183,1,0.79
2022-06-02T10:51:52.953+02:00,1654159911.999942,53.22910106456729,10.39847931417128,36.73664,0,20,-1,-1,2.400000095367432,7.999579855010836,-9999,3057.231462541667,-0.0964202880859375,-0.668731689453125,-0.7415618896484375,3057.221468541667,-0.02067347441292607,-0.130031324086528,0.7431768242832293,0.05070152878761292,0.005694370716810226,-0.002150236628949642,-0.008284308016300201,0.01520782709121704,-0.01281332969665527,XArbitraryZVertical,0.3616836972059717,-0.06427779199085136,-0.03319979209600459,0.9294896017423039,-0.09547542780637741,-0.6766304969787598,-0.7301065325737,0,0,0,-1,-1,3052.37708675,unknown,2,2022-06-02T10:51:48.099+02:00,2022-06-02T10:17:13.754+02:00,512,1.445976,0,0,397.4887,0,0,2022-06-02T10:51:50.657+02:00,675852700.4210155,0,5.3125,101.3183,1,0.79
2022-06-02T10:51:52.963+02:00,1654159911.999942,53.22910106456729,10.39847931417128,36.73664,0,20,-1,-1,2.400000095367432,7.999579855010836,-9999,3057.241456541667,-0.093963623046875,-0.6787109375,-0.7394561767578125,3057.231462541667,-0.02031636500257459,-0.1303131274178263,0.7434193907698018,0.062958724796772,0.01531024556607008,0.005498894490301609,-0.005978919565677643,0.01297551393508911,-0.01387274265289307,XArbitraryZVertical,0.3618032825048917,-0.06434245241440582,-0.0330916975039582,0.9294424731566902,-0.09565984457731247,-0.6768090724945068,-0.7299168705940247,0,0,0,-1,-1,3052.37708675,unknown,2,2022-06-02T10:51:48.099+02:00,2022-06-02T10:17:13.754+02:00,512,1.445976,0,0,397.4887,0,0,2022-06-02T10:51:50.657+02:00,675852700.4210155,0,5.3125,101.3183,1,0.79
2022-06-02T10:51:52.973+02:00,1654159911.999942,53.22910106456729,10.39847931417128,36.73664,0,20,-1,-1,2.400000095367432,7.999579855010836,-9999,3057.251450541667,-0.0963897705078125,-0.691314697265625,-0.7382354736328125,3057.241456541667,-0.02008537613159752,-0.1303366449684015,0.7436645571773911,0.04370060935616493,0.0145848011597991,0.01089685689657927,0.001997031271457672,0.004961967468261719,-0.01179647445678711,XArbitraryZVertical,0.361924285495223,-0.06430983407549389,-0.03299559097630937,0.9294010975969896,-0.09565544873476028,-0.6769895553588867,-0.7297500967979431,0,0,0,-1,-1,3052.37708675,unknown,2,2022-06-02T10:51:48.099+02:00,2022-06-02T10:17:13.754+02:00,512,1.445976,0,0,397.4887,0,0,2022-06-02T10:51:50.657+02:00,675852700.4210155,0,5.3125,101.3183,1,0.79
2022-06-02T10:51:52.983+02:00,1654159911.999942,53.22910106456729,10.39847931417128,36.73664,0,20,-1,-1,2.400000095367432,7.999579855010836,-9999,3057.261445541667,-0.093536376953125,-0.6861724853515625,-0.7394561767578125,3057.251450541667,-0.02001033875740797,-0.1301940431389804,0.7438230859647176,0.01583915017545223,0.006914897821843624,0.009789780713617802,0.0006583258509635925,-0.008654296398162842,-0.009203791618347168,XArbitraryZVertical,0.3620027547309212,-0.06422885195154779,-0.03293943176882724,0.929378123896952,-0.0955374464392662,-0.6771062016487122,-0.7296572923660278,0,0,0,-1,-1,3052.37708675,unknown,2,2022-06-02T10:51:48.099+02:00,2022-06-02T10:17:13.754+02:00,512,1.445976,0,0,397.4887,0,0,2022-06-02T10:51:50.657+02:00,675852700.4210155,0,5.3125,101.3183,1,0.79
2022-06-02T10:51:52.993+02:00,1654159911.999942,53.22910106456729,10.39847931417128,36.73664,0,20,-1,-1,2.400000095367432,7.999579855010836,-9999,3057.271439541667,-0.09423828125,-0.68817138671875,-0.7364501953125,3057.261445541667,-0.01990928572144026,-0.1301868861298845,0.7437334254668088,-0.007207744754850864,-0.003236606251448393,0.01526184473186731,0.0003252923488616943,-0.0124891996383667,-0.01063823699951172,XArbitraryZVertical,0.3619644342604798,-0.06420788061233773,-0.03288862387378926,0.9293962913610583,-0.09554010629653931,-0.6770402193069458,-0.7297182083129883,0,0,0,-1,-1,3052.37708675,unknown,2,2022-06-02T10:51:48.099+02:00,2022-06-02T10:17:13.754+02:00,512,1.445976,0,0,397.4887,0,0,2022-06-02T10:51:50.657+02:00,675852700.4210155,0,5.3125,101.3183,1,0.79
2022-06-02T10:51:53.003+02:00,1654159911.999942,53.22910106456729,10.39847931417128,36.73664,0,20,-1,-1,2.400000095367432,7.999579855010836,-9999,3057.281433541667,-0.105010986328125,-0.6723785400390625,-0.7356719970703125,3057.271439541667,-0.01993153953553801,-0.130037957500011,0.7433447232184516,-0.02033127099275589,-0.01119493041187525,0.02184890583157539,0.002356432378292084,-0.0106542706489563,-0.007769227027893066,XArbitraryZVertical,0.3617854884215055,-0.06414549692574627,-0.03286096016850703,0.9294711432018847,-0.09546554088592529,-0.6767541170120239,-0.7299932241439819,0,0,0,-1,-1,3052.37708675,unknown,2,2022-06-02T10:51:48.099+02:00,2022-06-02T10:17:13.754+02:00,512,1.445976,0,0,397.4887,0,0,2022-06-02T10:51:50.657+02:00,675852700.4210155,0,5.3125,101.3183,1,0.79
2022-06-02T10:51:53.013+02:00,1654159911.999942,53.22910106456729,10.39847931417128,36.73664,0,20,-1,-1,2.400000095367432,7.999579855010836,-9999,3057.291427541667,-0.10919189453125,-0.66552734375,-0.733001708984375,3057.281433541667,-0.0202406706045133,-0.1295762312000008,0.7431457944305607,-0.01981524936854839,-0.01758725009858608,0.01530705206096172,-0.004005715250968933,-0.006009519100189209,-0.005134999752044678,XArbitraryZVertical,0.3616906383708473,-0.06398822865258169,-0.03291545823393625,0.9295170604741907,-0.09514587372541428,-0.6766076683998108,-0.7301707863807678,0,0,0,-1,-1,3052.37708675,unknown,2,2022-06-02T10:51:48.099+02:00,2022-06-02T10:17:13.754+02:00,512,1.445976,0,0,397.4887,0,0,2022-06-02T10:51:50.657+02:00,675852700.4210155,0,5.3125,101.3183,1,0.79
2022-06-02T10:51:53.023+02:00,1654159911.999942,53.22910106456729,10.39847931417128,36.73664,0,20,-1,-1,2.400000095367432,7.999579855010836,-9999,3057.301422541667,-0.1025848388671875,-0.6616363525390625,-0.72528076171875,3057.291427541667,-0.02024012117719853,-0.1295874704262558,0.7425745639932401,-0.0008841697126626968,-0.006669088266789913,0.00920867919921875,-0.01334699988365173,0.008843839168548584,-0.004600405693054199,XArbitraryZVertical,0.361424884038446,-0.06399738636026205,-0.03290106178062857,0.9296201992776281,-0.09520400315523148,-0.6761869192123413,-0.7305527925491333,0,0,0,-1,-1,3052.37708675,unknown,2,2022-06-02T10:51:48.099+02:00,2022-06-02T10:17:13.754+02:00,512,1.445976,0,0,397.4887,0,0,2022-06-02T10:51:50.657+02:00,675852700.4210155,0,5.3125,101.3183,1,0.79
2022-06-02T10:51:53.033+02:00,1654159911.999942,53.22910106456729,10.39847931417128,36.73664,0,20,-1,-1,2.400000095367432,7.999579855010836,-9999,3057.311416541667,-0.1023712158203125,-0.6716766357421875,-0.722381591796875,3057.301422541667,-0.01992446744712129,-0.1300521080464898,0.7419436386898061,0.007166632916778326,-0.008929978124797344,0.00568518228828907,-0.009915746748447418,0.01323115825653076,0.001042485237121582,XArbitraryZVertical,0.3611338980625444,-0.06416081441019844,-0.03282033586756451,0.9297249549171951,-0.09559874981641769,-0.6757219433784485,-0.7309314012527466,0,0,0,-1,-1,3052.37708675,unknown,2,2022-06-02T10:51:48.099+02:00,2022-06-02T10:17:13.754+02:00,512,1.445976,0,0,397.4887,0,0,2022-06-02T10:51:50.657+02:00,675852700.4210155,0,5.3125,101.3183,1,0.79
2022-06-02T10:51:53.043+02:00,1654159911.999942,53.22910106456729,10.39847931417128,36.73664,0,20,-1,-1,2.400000095367432,7.999579855010836,-9999,3057.321410541667,-0.0968780517578125,-0.6770782470703125,-0.7235107421875,3057.311416541667,-0.01979370599074885,-0.1303211879300759,0.7414361060884378,0.01704935729503632,-0.00944849569350481,-0.008839164860546589,-0.007202595472335815,0.009240567684173584,0.009367525577545166,XArbitraryZVertical,0.3608976277673964,-0.06426594171995482,-0.03279364701735456,0.9298103593350036,-0.0958399772644043,-0.6753477454185486,-0.7312455773353577,0,0,0,-1,-1,3052.37708675,unknown,2,2022-06-02T10:51:48.099+02:00,2022-06-02T10:17:13.754+02:00,512,1.445976,0,0,397.4887,0,0,2022-06-02T10:51:50.657+02:00,675852700.4210155,0,5.3125,101.3183,1,0.79
2022-06-02T10:51:53.053+02:00,1654159911.999942,53.22910106456729,10.39847931417128,36.73664,0,20,-1,-1,2.400000095367432,7.999579855010836,-9999,3057.331405541667,-0.0933074951171875,-0.689453125,-0.7208251953125,3057.321410541667,-0.01999942250597454,-0.1302123669151142,0.7413070598937803,0.01220743171870708,-0.01491683069616556,-0.006547448225319386,-0.004966780543327332,0.0009514093399047852,0.009678006172180176,XArbitraryZVertical,0.3608327750877332,-0.06425339103189028,-0.03286596897148771,0.9298338516167624,-0.09577171504497528,-0.6752525568008423,-0.7313424348831177,0,0,0,-1,-1,3052.37708675,unknown,2,2022-06-02T10:51:48.099+02:00,2022-06-02T10:17:13.754+02:00,512,1.445976,0,0,397.4887,0,0,2022-06-02T10:51:50.657+02:00,675852700.4210155,0,5.3125,101.3183,1,0.79
2022-06-02T10:51:53.063+02:00,1654159911.999942,53.22910106456729,10.39847931417128,36.73664,0,20,-1,-1,2.400000095367432,7.999579855010836,-9999,3057.341399541667,-0.1009674072265625,-0.6902008056640625,-0.7293701171875,3057.331405541667,-0.02010490650223087,-0.1303231690700792,0.7414151806053269,-0.006487959995865822,-0.02907446213066578,-0.001880524680018425,0.002825714647769928,-0.007544279098510742,0.01061731576919556,XArbitraryZVertical,0.3608778675509303,-0.06432316869598406,-0.03293808810439145,0.9298089442420046,-0.09584326297044754,-0.6753323078155518,-0.7312594056129456,0,0,0,-1,-1,3052.37708675,unknown,2,2022-06-02T10:51:48.099+02:00,2022-06-02T10:17:13.754+02:00,512,1.445976,0,0,397.4887,0,0,2022-06-02T10:51:50.657+02:00,675852700.4210155,0,5.3125,101.3183,1,0.79
2022-06-02T10:51:53.073+02:00,1654159911.999942,53.22910106456729,10.39847931417128,36.73664,0,20,-1,-1,2.400000095367432,7.999579855010836,-9999,3057.351393541667,-0.10455322265625,-0.6883392333984375,-0.732147216796875,3057.341399541667,-0.02015772879139614,-0.1305737101491351,0.7414456066539448,-0.01345502305775881,-0.03876643627882004,0.0002627205103635788,-0.002013899385929108,-0.01530379056930542,0.006346225738525391,XArbitraryZVertical,0.3608861794782658,-0.06444895814555938,-0.03300871983557432,0.9297945234788745,-0.0960237979888916,-0.6753547191619873,-0.7312150001525879,0,0,0,-1,-1,3052.37708675,unknown,2,2022-06-02T10:51:48.099+02:00,2022-06-02T10:17:13.754+02:00,512,1.445976,0,0,397.4887,0,0,2022-06-02T10:51:50.657+02:00,675852700.4210155,0,5.3125,101.3183,1,0.79
2022-06-02T10:51:53.083+02:00,1654159911.999942,53.22910106456729,10.39847931417128,36.73664,0,20,-1,-1,2.400000095367432,7.999579855010836,-9999,3057.361387541667,-0.11309814453125,-0.676849365234375,-0.733734130859375,3057.351393541667,-0.02028916086455564,-0.1308133469389911,0.7414678438626838,-0.01014151703566313,-0.04713142663240433,0.001431315205991268,-0.007074393332004547,-0.01493644714355469,0.0001285076141357422,XArbitraryZVertical,0.3608883161925625,-0.06458392033700479,-0.03311369754988427,0.9297806086560108,-0.09619706124067307,-0.6753711700439453,-0.7311770915985107,0,0,0,-1,-1,3052.37708675,unknown,2,2022-06-02T10:51:48.099+02:00,2022-06-02T10:17:13.754+02:00,512,1.445976,0,0,397.4887,0,0,2022-06-02T10:51:50.657+02:00,675852700.4210155,0,5.3125,101.3183,1,0.79
2022-06-02T10:51:53.093+02:00,1654159911.999942,53.22910106456729,10.39847931417128,36.73664,0,20,-1,-1,2.400000095367432,7.999579855010836,-9999,3057.371382541667,-0.1143341064453125,-0.671844482421875,-0.734710693359375,3057.361387541667,-0.02023007529813081,-0.1313616433150279,0.7414367573626973,-0.009100754745304585,-0.04138778522610664,0.0007013427093625069,-0.0128658190369606,-0.007390975952148438,-0.002558529376983643,XArbitraryZVertical,0.3608666851513702,-0.06482837840294907,-0.03318427238790299,0.929769466013629,-0.09660069644451141,-0.6753482222557068,-0.7311450242996216,0,0,0,-1,-1,3052.37708675,unknown,2,2022-06-02T10:51:48.099+02:00,2022-06-02T10:17:13.754+02:00,512,1.445976,0,0,397.4887,0,0,2022-06-02T10:51:50.657+02:00,675852700.4210155,0,5.3125,101.3183,1,0.79
2022-06-02T10:51:53.103+02:00,1654159911.999942,53.22910106456729,10.39847931417128,36.73664,0,20,-1,-1,2.400000095367432,7.999579855010836,-9999,3057.381376541667,-0.1087799072265625,-0.6779632568359375,-0.7366790771484375,3057.371382541667,-0.01994183217816306,-0.1321625438658743,0.741049327125942,-0.009140701033174992,-0.02709620073437691,-0.004026566632091999,-0.01796785742044449,0.002790749073028564,-0.002575218677520752,XArbitraryZVertical,0.3606825361259727,-0.06515152481599537,-0.03318355368792679,0.9298183997379762,-0.09722071886062622,-0.6750624179840088,-0.7313267588615417,0,0,0,-1,-1,3052.37708675,unknown,2,2022-06-02T10:51:48.099+02:00,2022-06-02T10:17:13.754+02:00,512,1.445976,0,0,397.4887,0,0,2022-06-02T10:51:50.657+02:00,675852700.4210155,0,5.3125,101.3183,1,0.79
2022-06-02T10:51:53.113+02:00,1654159911.999942,53.22910106456729,10.39847931417128,36.73664,0,20,-1,-1,2.400000095367432,7.999579855010836,-9999,3057.391370541667,-0.102752685546875,-0.679412841796875,-0.7386474609375,3057.381376541667,-0.01979044544845426,-0.1326806065390984,0.7406814430099793,-0.0101878559216857,-0.02252248674631119,-0.008324908092617989,-0.01465698331594467,-0.0003341436386108398,-0.005629658699035645,XArbitraryZVertical,0.3605077670604526,-0.06536779787462856,-0.03319589510113041,0.9298705262486453,-0.09763242304325104,-0.6747909784317017,-0.7315223813056946,0,0,0,-1,-1,3052.37708675,unknown,2,2022-06-02T10:51:48.099+02:00,2022-06-02T10:17:13.754+02:00,512,1.445976,0,0,397.4887,0,0,2022-06-02T10:51:50.657+02:00,675852700.4210155,0,5.3125,101.3183,1,0.79
2022-06-02T10:51:53.123+02:00,1654159911.999942,53.22910106456729,10.39847931417128,36.73664,0,20,-1,-1,2.400000095367432,7.999579855010836,-9999,3057.401364541667,-0.101226806640625,-0.674285888671875,-0.7414398193359375,3057.391370541667,-0.01964915669494079,-0.1331682462704683,0.7405807857513567,-0.006639460101723671,-0.02383489347994328,0.00261402502655983,-0.006844967603683472,-0.003917932510375977,-0.006205201148986816,XArbitraryZVertical,0.3604574756540102,-0.06556980190921027,-0.03321516171757823,0.9298751059793335,-0.09799814969301224,-0.6747167110443115,-0.7315419912338257,0,0,0,-1,-1,3052.37708675,unknown,2,2022-06-02T10:51:48.099+02:00,2022-06-02T10:17:13.754+02:00,512,1.445976,0,0,397.4887,0,0,2022-06-02T10:51:50.657+02:00,675852700.4210155,0,5.3125,101.3183,1,0.79
2022-06-02T10:51:53.133+02:00,1654159911.999942,53.22910106456729,10.39847931417128,36.73664,0,20,-1,-1,2.400000095367432,7.999579855010836,-9999,3057.411359541667,-0.10418701171875,-0.6721649169921875,-0.7422637939453125,3057.401364541667,-0.01938853934005163,-0.1336546520152907,0.740642196965292,-0.0138377845287323,-0.02284859120845795,0.02281157113611698,-0.002985142171382904,-0.002316176891326904,-0.008491218090057373,XArbitraryZVertical,0.360486517732898,-0.06574851162322901,-0.03318345850152414,0.9298523742596811,-0.09834843873977661,-0.6747620105743408,-0.7314531803131104,0,0,0,-1,-1,3052.37708675,unknown,2,2022-06-02T10:51:48.099+02:00,2022-06-02T10:17:13.754+02:00,512,1.445976,0,0,397.4887,0,0,2022-06-02T10:51:50.657+02:00,675852700.4210155,0,5.3125,101.3183,1,0.79
2022-06-02T10:51:53.143+02:00,1654159911.999942,53.22910106456729,10.39847931417128,36.73664,0,20,-1,-1,2.400000095367432,7.999579855010836,-9999,3057.421353541667,-0.1053619384765625,-0.6734466552734375,-0.7394866943359375,3057.411359541667,-0.01915657456182977,-0.1339493042266451,0.7408893691044478,-0.01262098737061024,-0.02192846871912479,0.03282825648784637,-0.004485629498958588,0.001162052154541016,-0.01137107610702515,XArbitraryZVertical,0.3606042099960109,-0.06584179470907409,-0.0331359981622284,0.9298018855902054,-0.09854169189929962,-0.6749444007873535,-0.7312589287757874,0,0,0,-1,-1,3052.37708675,unknown,2,2022-06-02T10:51:48.099+02:00,2022-06-02T10:17:13.754+02:00,512,1.445976,0,0,397.4887,0,0,2022-06-02T10:51:50.657+02:00,675852700.4210155,0,5.3125,101.3183,1,0.79
2022-06-02T10:51:53.153+02:00,1654159911.999942,53.22910106456729,10.39847931417128,36.73664,0,20,-1,-1,2.400000095367432,7.999579855010836,-9999,3057.431347541667,-0.1100311279296875,-0.67779541015625,-0.7403411865234375,3057.421353541667,-0.01870136436704302,-0.1344937661825411,0.7411652303317496,-0.01460960321128368,-0.02936594560742378,0.0383695587515831,-0.005546800792217255,0.004234254360198975,-0.01003777980804443,XArbitraryZVertical,0.3607385484763742,-0.06601068824816571,-0.03303072068391794,0.929741472401258,-0.09891483932733536,-0.6751479506492615,-0.7310205698013306,0,0,0,-1,-1,3052.37708675,unknown,2,2022-06-02T10:51:48.099+02:00,2022-06-02T10:17:13.754+02:00,512,1.445976,0,0,397.4887,0,0,2022-06-02T10:51:50.657+02:00,675852700.4210155,0,5.3125,101.3183,1,0.79
2022-06-02T10:51:53.163+02:00,1654159911.999942,53.22910106456729,10.39847931417128,36.73664,0,20,-1,-1,2.400000095367432,7.999579855010836,-9999,3057.441342541667,-0.114593505859375,-0.6804656982421875,-0.7358245849609375,3057.431347541667,-0.01808514655620162,-0.1353022642516689,0.7412999677355576,-0.00796528160572052,-0.03064479492604733,0.0374172106385231,-0.008462347090244293,-0.0009458661079406738,-0.0086517333984375,XArbitraryZVertical,0.3608082815322627,-0.06627430427554019,-0.03289411916169298,0.9297004690959767,-0.09949356317520142,-0.6752473115921021,-0.7308502197265625,0,0,0,-1,-1,3052.37708675,unknown,2,2022-06-02T10:51:48.099+02:00,2022-06-02T10:17:13.754+02:00,512,1.445976,0,0,397.4887,0,0,2022-06-02T10:51:50.657+02:00,675852700.4210155,0,5.3125,101.3183,1,0.79
2022-06-02T10:51:53.173+02:00,1654159911.999942,53.22910106456729,10.39847931417128,36.73664,0,20,-1,-1,2.400000095367432,7.999579855010836,-9999,3057.451336541667,-0.1112060546875,-0.674835205078125,-0.7268524169921875,3057.441342541667,-0.01743307916164277,-0.1362165284392662,0.7412394436606271,-0.01379174552857876,-0.025560287758708,0.03025250881910324,-0.01326654851436615,-0.003477692604064941,-0.008412599563598633,XArbitraryZVertical,0.360786784426708,-0.06658215919901728,-0.03275412243139907,0.9296917628478742,-0.1001672595739365,-0.6752026677131653,-0.7307994365692139,0,0,0,-1,-1,3052.37708675,unknown,2,2022-06-02T10:51:48.099+02:00,2022-06-02T10:17:13.754+02:00,512,1.445976,0,0,397.4887,0,0,2022-06-02T10:51:50.657+02:00,675852700.4210155,0,5.3125,101.3183,1,0.79
2022-06-02T10:51:53.188+02:00,1654159911.999942,53.22910106456729,10.39847931417128,36.73664,0,20,-1,-1,2.400000095367432,7.999579855010836,-9999,3057.461330541667,-0.115570068359375,-0.67376708984375,-0.7307281494140625,3057.451336541667,-0.01671796535841934,-0.1372307629152056,0.7408733976328449,-0.02041822299361229,-0.02060334570705891,0.02375839278101921,-0.01157606393098831,-0.003564655780792236,0.0003972053527832031,XArbitraryZVertical,0.36062382323284,-0.06692772936878469,-0.03259352247873244,0.9297358728845754,-0.1009422168135643,-0.6749326586723328,-0.7309422492980957,0,0,0,-1,-1,3052.37708675,unknown,2,2022-06-02T10:51:48.099+02:00,2022-06-02T10:17:13.754+02:00,512,1.445976,0,0,397.4887,0,0,2022-06-02T10:51:50.657+02:00,675852700.4210155,0,5.3125,101.3183,1,0.79
2022-06-02T10:51:53.193+02:00,1654159911.999942,53.22910106456729,10.39847931417128,36.73664,0,20,-1,-1,2.400000095367432,7.999579855010836,-9999,3057.471324541667,-0.108367919921875,-0.667449951171875,-0.730438232421875,3057.461330541667,-0.01625739289350173,-0.1379025478514225,0.7405632111572255,-0.008107760921120644,-0.005599362775683403,0.01103594060987234,-0.01203282922506332,0.002691447734832764,0.002764344215393066,XArbitraryZVertical,0.3604840528531236,-0.0671596626171882,-0.0324910412899382,0.9297769739681607,-0.1014620140194893,-0.6747037172317505,-0.7310816645622253,0,0,0,-1,-1,3052.37708675,unknown,2,2022-06-02T10:51:48.099+02:00,2022-06-02T10:17:13.754+02:00,512,1.445976,0,0,397.4887,0,0,2022-06-02T10:51:50.657+02:00,675852700.4210155,0,5.3125,101.3183,1,0.79
2022-06-02T10:51:53.204+02:00,1654159911.999942,53.22910106456729,10.39847931417128,36.73664,0,20,-1,-1,2.400000095367432,7.999579855010836,-9999,3057.481319541667,-0.1004486083984375,-0.6695098876953125,-0.7266998291015625,3057.471324541667,-0.01608577964572101,-0.1381142972650962,0.7403898691045144,-0.01321969926357269,-0.008086754940450191,0.01040423754602671,-0.01320470869541168,0.0023193359375,-0.0003608465194702148,XArbitraryZVertical,0.3604057613491917,-0.06722868606296099,-0.03244410352831307,0.9298039729456749,-0.1016329154372215,-0.6745757460594177,-0.73117595911026,0,0,0,-1,-1,3052.37708675,unknown,2,2022-06-02T10:51:48.099+02:00,2022-06-02T10:17:13.754+02:00,512,1.445976,0,0,397.4887,0,0,2022-06-02T10:51:50.657+02:00,675852700.4210155,0,5.3125,101.3183,1,0.79
2022-06-02T10:51:53.213+02:00,1654159911.999942,53.22910106456729,10.39847931417128,36.73664,0,20,-1,-1,2.400000095367432,7.999579855010836,-9999,3057.491313541667,-0.10589599609375,-0.6618499755859375,-0.7284088134765625,3057.481319541667,-0.01604710687682882,-0.1382714943440546,0.7401636838892384,-0.007829993963241577,-0.02484469674527645,0.008431901223957539,-0.001395761966705322,0.006577432155609131,0.00450444221496582,XArbitraryZVertical,0.3602993637907039,-0.06729679116732432,-0.0324475084299697,0.9298400426711243,-0.1017688661813736,-0.6744087934494019,-0.731311023235321,0,0,0,-1,-1,3052.37708675,unknown,2,2022-06-02T10:51:48.099+02:00,2022-06-02T10:17:13.754+02:00,512,1.445976,0,0,397.4887,0,0,2022-06-02T10:51:50.657+02:00,675852700.4210155,0,5.3125,101.3183,1,0.79
2022-06-02T10:51:53.223+02:00,1654159911.999942,53.22910106456729,10.39847931417128,36.73664,0,20,-1,-1,2.400000095367432,7.999579855010836,-9999,3057.501307541667,-0.1147613525390625,-0.6575775146484375,-0.732757568359375,3057.491313541667,-0.01597372813905796,-0.1386235224248005,0.739866304527716,-0.002259459346532822,-0.03825264424085617,0.005388439632952213,-0.001125894486904144,0.007029175758361816,0.005475878715515137,XArbitraryZVertical,0.360157810188925,-0.06744985691276495,-0.03246764059923822,0.9298830697613591,-0.1020540148019791,-0.6741891503334045,-0.7314737439155579,0,0,0,-1,-1,3052.37708675,unknown,2,2022-06-02T10:51:48.099+02:00,2022-06-02T10:17:13.754+02:00,512,1.445976,0,0,397.4887,0,0,2022-06-02T10:51:53.215+02:00,675852713.2145439,0,5.089844,101.3214,1,0.79
2022-06-02T10:51:53.233+02:00,1654159911.999942,53.22910106456729,10.39847931417128,36.73664,0,20,-1,-1,2.400000095367432,7.999579855010836,-9999,3057.511301541667,-0.1153411865234375,-0.6634368896484375,-0.73260498046875,3057.501307541667,-0.01588950393106007,-0.1390872776747558,0.7396757217664631,0.01335728354752064,-0.03998243808746338,0.001162070780992508,-0.008016787469387054,0.01659297943115234,0.00105440616607666,XArbitraryZVertical,0.3600644248085023,-0.06765198714788677,-0.03250608186511369,0.9299033154841311,-0.1024110466241837,-0.6740484237670898,-0.7315536141395569,0,0,0,-1,-1,3052.37708675,unknown,2,2022-06-02T10:51:48.099+02:00,2022-06-02T10:17:13.754+02:00,512,1.445976,0,0,397.4887,0,0,2022-06-02T10:51:53.215+02:00,675852713.2145439,0,5.089844,101.3214,1,0.79
2022-06-02T10:51:53.243+02:00,1654159911.999942,53.22910106456729,10.39847931417128,36.73664,0,20,-1,-1,2.400000095367432,7.999579855010836,-9999,3057.521296541667,-0.11309814453125,-0.674224853515625,-0.7259368896484375,3057.511301541667,-0.01577177671624427,-0.1396640327565554,0.7397028484462954,0.01464572176337242,-0.04235771298408508,-0.004764528013765812,-0.013792484998703,0.01498031616210938,-0.001708507537841797,XArbitraryZVertical,0.3600716483600917,-0.06789871018090433,-0.03255602183681285,0.9298807946271985,-0.1028304100036621,-0.6740684509277344,-0.731476366519928,0,0,0,-1,-1,3052.37708675,unknown,2,2022-06-02T10:51:48.099+02:00,2022-06-02T10:17:13.754+02:00,512,1.445976,0,0,397.4887,0,0,2022-06-02T10:51:53.215+02:00,675852713.2145439,0,5.089844,101.3214,1,0.79
2022-06-02T10:51:53.253+02:00,1654159911.999942,53.22910106456729,10.39847931417128,36.73664,0,20,-1,-1,2.400000095367432,7.999579855010836,-9999,3057.531290541667,-0.11151123046875,-0.6734161376953125,-0.72125244140625,3057.521296541667,-0.01568637299623515,-0.140363327962465,0.7398007494259634,0.01149397064000368,-0.04897546768188477,-0.02078630402684212,-0.01060467213392258,0.004127383232116699,0.001038014888763428,XArbitraryZVertical,0.3601086858177082,-0.06820757621564587,-0.03264527180394022,0.9298407322639688,-0.1033326759934425,-0.6741407513618469,-0.7313389182090759,0,0,0,-1,-1,3052.37708675,unknown,2,2022-06-02T10:51:48.099+02:00,2022-06-02T10:17:13.754+02:00,512,1.445976,0,0,397.4887,0,0,2022-06-02T10:51:53.215+02:00,675852713.2145439,0,5.089844,101.3214,1,0.79
2022-06-02T10:51:53.263+02:00,1654159911.999942,53.22910106456729,10.39847931417128,36.73664,0,20,-1,-1,2.400000095367432,7.999579855010836,-9999,3057.541284541667,-0.1065521240234375,-0.674652099609375,-0.7170562744140625,3057.531290541667,-0.01577501161776097,-0.1409653374016504,0.7399962333031256,0.006821720860898495,-0.04728782176971436,-0.02806632220745087,-0.007436357438564301,0.0007774829864501953,0.007467448711395264,XArbitraryZVertical,0.3601867826301365,-0.06850165851203659,-0.03280102613839338,0.9297832582340787,-0.1037544012069702,-0.6742851138114929,-0.7311460375785828,0,0,0,-1,-1,3052.37708675,unknown,2,2022-06-02T10:51:48.099+02:00,2022-06-02T10:17:13.754+02:00,512,1.445976,0,0,397.4887,0,0,2022-06-02T10:51:53.215+02:00,675852713.2145439,0,5.089844,101.3214,1,0.79
2022-06-02T10:51:53.273+02:00,1654159911.999942,53.22910106456729,10.39847931417128,36.73664,0,20,-1,-1,2.400000095367432,7.999579855010836,-9999,3057.551278541667,-0.1038970947265625,-0.6773529052734375,-0.720245361328125,3057.541284541667,-0.01589113752667539,-0.1415673478488418,0.7400644498431455,0.002057258505374193,-0.05468621477484703,-0.02478517405688763,-0.00665176659822464,0.0008736848831176758,0.01207429170608521,XArbitraryZVertical,0.3602046346485497,-0.06880181963484037,-0.03296558099296892,0.929748337564724,-0.104188047349453,-0.6743354797363281,-0.7310378551483154,0,0,0,-1,-1,3052.37708675,unknown,2,2022-06-02T10:51:48.099+02:00,2022-06-02T10:17:13.754+02:00,512,1.445976,0,0,397.4887,0,0,2022-06-02T10:51:53.215+02:00,675852713.2145439,0,5.089844,101.3214,1,0.79
2022-06-02T10:51:53.283+02:00,1654159911.999942,53.22910106456729,10.39847931417128,36.73664,0,20,-1,-1,2.400000095367432,7.999579855010836,-9999,3057.561273541667,-0.1044158935546875,-0.6761474609375,-0.7233123779296875,3057.551278541667,-0.01594388706472997,-0.1423458605956056,0.7399558871940242,-0.01508257910609245,-0.06960497796535492,-0.01617410965263844,0.0009772628545761108,-0.001068115234375,0.01349973678588867,XArbitraryZVertical,0.3601394350623777,-0.06917421280614422,-0.03312686268186908,0.9297402902272313,-0.1047675237059593,-0.6742553114891052,-0.7310290336608887,0,0,0,-1,-1,3052.37708675,unknown,2,2022-06-02T10:51:48.099+02:00,2022-06-02T10:17:13.754+02:00,512,1.445976,0,0,397.4887,0,0,2022-06-02T10:51:53.215+02:00,675852713.2145439,0,5.089844,101.3214,1,0.79
2022-06-02T10:51:53.293+02:00,1654159911.999942,53.22910106456729,10.39847931417128,36.73664,0,20,-1,-1,2.400000095367432,7.999579855010836,-9999,3057.571267541667,-0.106964111328125,-0.68048095703125,-0.7293853759765625,3057.561273541667,-0.01615903605509581,-0.1429280526214255,0.7397580275772776,-0.01938987523317337,-0.07704618573188782,-0.005033241584897041,0.001223497092723846,-0.003167390823364258,0.009755969047546387,XArbitraryZVertical,0.3600302678427414,-0.06948540105251419,-0.03332540890560973,0.9297523067560006,-0.105212114751339,-0.6741092205047607,-0.7310999631881714,0,0,0,-1,-1,3052.37708675,unknown,2,2022-06-02T10:51:48.099+02:00,2022-06-02T10:17:13.754+02:00,512,1.445976,0,0,397.4887,0,0,2022-06-02T10:51:53.215+02:00,675852713.2145439,0,5.089844,101.3214,1,0.79
2022-06-02T10:51:53.303+02:00,1654159911.999942,53.22910106456729,10.39847931417128,36.73664,0,20,-1,-1,2.400000095367432,7.999579855010836,-9999,3057.581261541667,-0.1119842529296875,-0.685516357421875,-0.7325286865234375,3057.571267541667,-0.01618478311882757,-0.1436650147762131,0.7395101030505499,-0.02042611315846443,-0.08168914169073105,0.01671093516051769,-0.001433417201042175,-0.003381013870239258,0.005967915058135986,XArbitraryZVertical,0.3599017386035078,-0.06983490561485241,-0.03346210154183626,0.9297710180914243,-0.1057748049497604,-0.673926055431366,-0.731187641620636,0,0,0,-1,-1,3052.37708675,unknown,2,2022-06-02T10:51:48.099+02:00,2022-06-02T10:17:13.754+02:00,512,1.445976,0,0,397.4887,0,0,2022-06-02T10:51:53.215+02:00,675852713.2145439,0,5.089844,101.3214,1,0.79
2022-06-02T10:51:53.313+02:00,1654159911.999942,53.22910106456729,10.39847931417128,36.73664,0,20,-1,-1,2.400000095367432,7.999579855010836,-9999,3057.591256541667,-0.1304779052734375,-0.680389404296875,-0.73736572265625,3057.581261541667,-0.01585441005738208,-0.1448480588535355,0.7390120535698552,-0.01646539196372032,-0.0887405201792717,0.01695581525564194,0.0007922202348709106,-0.009715259075164795,0.0001165866851806641,XArbitraryZVertical,0.3596618861795641,-0.0703301037057861,-0.03350532120227833,0.9298248932908739,-0.1066881865262985,-0.6735579967498779,-0.7313939929008484,0,0,0,-1,-1,3052.37708675,unknown,2,2022-06-02T10:51:48.099+02:00,2022-06-02T10:17:13.754+02:00,512,1.445976,0,0,397.4887,0,0,2022-06-02T10:51:53.215+02:00,675852713.2145439,0,5.089844,101.3214,1,0.79
2022-06-02T10:51:53.323+02:00,1654159911.999942,53.22910106456729,10.39847931417128,36.73664,0,20,-1,-1,2.400000095367432,7.999579855010836,-9999,3057.601250541667,-0.1215057373046875,-0.6717376708984375,-0.7394561767578125,3057.591256541667,-0.01549061059701446,-0.146072851482263,0.7385221291322638,-0.01046688947826624,-0.07497810572385788,0.005630454979836941,-0.01533862948417664,-0.009940147399902344,-0.002160191535949707,XArbitraryZVertical,0.3594263303219096,-0.07083878374596504,-0.03354046021248135,0.9298760654023891,-0.1076319292187691,-0.6731958389282227,-0.731589138507843,0,0,0,-1,-1,3052.37708675,unknown,2,2022-06-02T10:51:48.099+02:00,2022-06-02T10:17:13.754+02:00,512,1.445976,0,0,397.4887,0,0,2022-06-02T10:51:53.215+02:00,675852713.2145439,0,5.089844,101.3214,1,0.79
2022-06-02T10:51:53.333+02:00,1654159911.999942,53.22910106456729,10.39847931417128,36.73664,0,20,-1,-1,2.400000095367432,7.999579855010836,-9999,3057.611244541667,-0.1231536865234375,-0.6635284423828125,-0.74169921875,3057.601250541667,-0.0153199812031718,-0.1471006617547302,0.7384634464483464,0.009805193170905113,-0.08741114288568497,-0.002008222974836826,-0.01929591596126556,-0.004551410675048828,-0.007435381412506104,XArbitraryZVertical,0.3593878197435758,-0.07128654536524692,-0.0336439043199856,0.9298530270809252,-0.108389601111412,-0.6731524467468262,-0.7315172553062439,0,0,0,-1,-1,3052.37708675,unknown,2,2022-06-02T10:51:48.099+02:00,2022-06-02T10:17:13.754+02:00,512,1.445976,0,0,397.4887,0,0,2022-06-02T10:51:53.215+02:00,675852713.2145439,0,5.089844,101.3214,1,0.79
2022-06-02T10:51:53.343+02:00,1654159911.999942,53.22910106456729,10.39847931417128,36.73664,0,20,-1,-1,2.400000095367432,7.999579855010836,-9999,3057.621238541667,-0.118408203125,-0.67138671875,-0.743072509765625,3057.611244541667,-0.01528319990328466,-0.1480806068495894,0.7387222912840712,0.01019800920039415,-0.08410003036260605,-0.00648073572665453,-0.01242503523826599,0.006702601909637451,-0.01000314950942993,XArbitraryZVertical,0.3594930130523215,-0.07173299705989941,-0.03381146557332265,0.9297719204236066,-0.1090806797146797,-0.6733438372612,-0.7312383055686951,0,0,0,-1,-1,3052.37708675,unknown,2,2022-06-02T10:51:48.099+02:00,2022-06-02T10:17:13.754+02:00,512,1.445976,0,0,397.4887,0,0,2022-06-02T10:51:53.215+02:00,675852713.2145439,0,5.089844,101.3214,1,0.79
2022-06-02T10:51:53.353+02:00,1654159911.999942,53.22910106456729,10.39847931417128,36.73664,0,20,-1,-1,2.400000095367432,7.999579855010836,-9999,3057.631233541667,-0.1172637939453125,-0.6695404052734375,-0.7383575439453125,3057.621238541667,-0.01539014080402444,-0.148938960789459,0.7390348630913463,0.004987934604287148,-0.08989240229129791,-0.0222005769610405,-0.01211856305599213,0.006536900997161865,-0.01296019554138184,XArbitraryZVertical,0.3596199707428596,-0.07214816705611921,-0.03402587062396285,0.9296828880966674,-0.1096770688891411,-0.6735748648643494,-0.7309362292289734,0,0,0,-1,-1,3052.37708675,unknown,2,2022-06-02T10:51:48.099+02:00,2022-06-02T10:17:13.754+02:00,512,1.445976,0,0,397.4887,0,0,2022-06-02T10:51:53.215+02:00,675852713.2145439,0,5.089844,101.3214,1,0.79
2022-06-02T10:51:53.363+02:00,1654159911.999942,53.22910106456729,10.39847931417128,36.73664,0,20,-1,-1,2.400000095367432,7.999579855010836,-9999,3057.641227541667,-0.114227294921875,-0.66925048828125,-0.7316131591796875,3057.631233541667,-0.01587225595538948,-0.1494324957670783,0.7393318078730108,-0.008892993442714214,-0.08428911119699478,-0.03186678513884544,-0.006370730698108673,0.002697587013244629,-0.01142698526382446,XArbitraryZVertical,0.3597322108838779,-0.07246136137585929,-0.03434862805265149,0.9296031955494527,-0.1100080087780952,-0.6737943291664124,-0.7306841611862183,0,0,0,-1,-1,3052.37708675,unknown,2,2022-06-02T10:51:48.099+02:00,2022-06-02T10:17:13.754+02:00,512,1.445976,0,0,397.4887,0,0,2022-06-02T10:51:53.215+02:00,675852713.2145439,0,5.089844,101.3214,1,0.79
2022-06-02T10:51:53.373+02:00,1654159911.999942,53.22910106456729,10.39847931417128,36.73664,0,20,-1,-1,2.400000095367432,7.999579855010836,-9999,3057.651221541667,-0.1187286376953125,-0.6722412109375,-0.7263336181640625,3057.641227541667,-0.01642269908348017,-0.1497933445801199,0.7394088703060032,-0.03428466990590096,-0.08196210861206055,-0.02676516771316528,-0.00599275529384613,0.005668938159942627,-0.00497204065322876,XArbitraryZVertical,0.3597418087298073,-0.07272733063484754,-0.03467194054261346,0.9295667775522467,-0.110263928771019,-0.6738512516021729,-0.7305931448936462,0,0,0,-1,-1,3052.37708675,unknown,2,2022-06-02T10:51:48.099+02:00,2022-06-02T10:17:13.754+02:00,512,1.445976,0,0,397.4887,0,0,2022-06-02T10:51:53.215+02:00,675852713.2145439,0,5.089844,101.3214,1,0.79
2022-06-02T10:51:53.383+02:00,1654159911.999942,53.22910106456729,10.39847931417128,36.73664,0,20,-1,-1,2.400000095367432,7.999579855010836,-9999,3057.661215541667,-0.126617431640625,-0.6707611083984375,-0.7200927734375,3057.651221541667,-0.01689102563971816,-0.1502883051415477,0.7391514677049871,-0.0591609887778759,-0.08722557872533798,-0.023818114772439,-0.00484224408864975,0.002747416496276855,0.002606332302093506,XArbitraryZVertical,0.3595964459728717,-0.07304409600756115,-0.03497002061373208,0.9295869785941071,-0.1106514930725098,-0.6736610531806946,-0.7307099103927612,0,0,0,-1,-1,3052.37708675,unknown,2,2022-06-02T10:51:48.099+02:00,2022-06-02T10:17:13.754+02:00,512,1.445976,0,0,397.4887,0,0,2022-06-02T10:51:53.215+02:00,675852713.2145439,0,5.089844,101.3214,1,0.79
2022-06-02T10:51:53.393+02:00,1654159911.999942,53.22910106456729,10.39847931417128,36.73664,0,20,-1,-1,2.400000095367432,7.999579855010836,-9999,3057.671210541667,-0.1284637451171875,-0.6644287109375,-0.7170867919921875,3057.661215541667,-0.01744793478798288,-0.1506200116346822,0.7387055842311177,-0.07371529936790466,-0.07251588255167007,-0.02357630059123039,-0.01158911734819412,0.0007088184356689453,0.008481681346893311,XArbitraryZVertical,0.3593628965136746,-0.07330264659509957,-0.03527356369203202,0.9296454600548189,-0.1109389215707779,-0.6733314394950867,-0.7309700846672058,0,0,0,-1,-1,3052.37708675,unknown,2,2022-06-02T10:51:48.099+02:00,2022-06-02T10:17:13.754+02:00,512,1.445976,0,0,397.4887,0,0,2022-06-02T10:51:53.215+02:00,675852713.2145439,0,5.089844,101.3214,1,0.79
2022-06-02T10:51:53.404+02:00,1654159911.999942,53.22910106456729,10.39847931417128,36.73664,0,20,-1,-1,2.400000095367432,7.999579855010836,-9999,3057.681204541667,-0.1273193359375,-0.6672821044921875,-0.71868896484375,3057.671210541667,-0.01766501795045851,-0.1513346751013394,0.7380435085069711,-0.08990359306335449,-0.05707034468650818,-0.02369401231408119,-0.01649273186922073,0.004629015922546387,0.01383239030838013,XArbitraryZVertical,0.3590343759471921,-0.07368015296021964,-0.03548059433729137,0.9297346271658755,-0.1115284711122513,-0.6728417873382568,-0.7313311100006104,0,0,0,-1,-1,3052.37708675,unknown,2,2022-06-02T10:51:48.099+02:00,2022-06-02T10:17:13.754+02:00,512,1.445976,0,0,397.4887,0,0,2022-06-02T10:51:53.215+02:00,675852713.2145439,0,5.089844,101.3214,1,0.79
2022-06-02T10:51:53.413+02:00,1654159911.999942,53.22910106456729,10.39847931417128,36.73664,0,20,-1,-1,2.400000095367432,7.999579855010836,-9999,3057.691198541667,-0.1218719482421875,-0.6686859130859375,-0.7122344970703125,3057.681204541667,-0.01781897095773606,-0.1519730653054755,0.7370056868352134,-0.1144804731011391,-0.03979048877954483,-0.02000972628593445,-0.01590497046709061,0.006576895713806152,0.01445090770721436,XArbitraryZVertical,0.3585345884798917,-0.07401444856561423,-0.03563167656812211,0.9298951755901957,-0.1121009811758995,-0.6720736622810364,-0.7319496273994446,0,0,0,-1,-1,3052.37708675,unknown,2,2022-06-02T10:51:48.099+02:00,2022-06-02T10:17:13.754+02:00,512,1.445976,0,0,397.4887,0,0,2022-06-02T10:51:53.215+02:00,675852713.2145439,0,5.089844,101.3214,1,0.79
2022-06-02T10:51:53.423+02:00,1654159911.999942,53.22910106456729,10.39847931417128,36.73664,0,20,-1,-1,2.400000095367432,7.999579855010836,-9999,3057.701193541667,-0.117584228515625,-0.6699371337890625,-0.7057342529296875,3057.691198541667,-0.01817942898809213,-0.1522398115532689,0.7354439994744053,-0.1580085009336472,-0.03598563373088837,-0.0202917568385601,-0.01175126433372498,0.002886712551116943,0.01689177751541138,XArbitraryZVertical,0.357789874488854,-0.07421785121514035,-0.03579423285723773,0.9301595256813663,-0.1124552562832832,-0.6709164381027222,-0.7329562306404114,0,0,0,-1,-1,3052.37708675,unknown,2,2022-06-02T10:51:48.099+02:00,2022-06-02T10:17:13.754+02:00,512,1.445976,0,0,397.4887,0,0,2022-06-02T10:51:53.215+02:00,675852713.2145439,0,5.089844,101.3214,1,0.79
2022-06-02T10:51:53.433+02:00,1654159911.999942,53.22910106456729,10.39847931417128,36.73664,0,20,-1,-1,2.400000095367432,7.999579855010836,-9999,3057.711187541667,-0.1141204833984375,-0.6742401123046875,-0.6977081298828125,3057.711187541667,-0.01972035364552853,-0.1522868355343789,0.7310884958612316,-0.2792305946350098,-0.0679047480225563,-0.05297480151057243,-0.003523111343383789,-0.00227200984954834,0.0332566499710083,XArbitraryZVertical,0.3557041281685868,-0.07455476023097038,-0.03637232104842126,0.9309097747828161,-0.1129319369792938,-0.6676803827285767,-0.7358323335647583,0,0,0,-1,-1,3052.37708675,unknown,2,2022-06-02T10:51:48.099+02:00,2022-06-02T10:17:13.754+02:00,512,1.445976,0,0,397.4887,0,0,2022-06-02T10:51:53.215+02:00,675852713.2145439,0,5.089844,101.3214,1,0.79
2022-06-02T10:51:53.443+02:00,1654159911.999942,53.22910106456729,10.39847931417128,36.73664,0,20,-1,-1,2.400000095367432,7.999579855010836,-9999,3057.721181541667,-0.106353759765625,-0.678863525390625,-0.6895904541015625,3057.711187541667,-0.01972035364552853,-0.1522868355343789,0.7310884958612316,-0.2792305946350098,-0.0679047480225563,-0.05297480151057243,-0.003523111343383789,-0.00227200984954834,0.0332566499710083,XArbitraryZVertical,0.3557041281685868,-0.07455476023097038,-0.03637232104842126,0.9309097747828161,-0.1129319369792938,-0.6676803827285767,-0.7358323335647583,0,0,0,-1,-1,3052.37708675,unknown,2,2022-06-02T10:51:48.099+02:00,2022-06-02T10:17:13.754+02:00,512,1.445976,0,0,397.4887,0,0,2022-06-02T10:51:53.215+02:00,675852713.2145439,0,5.089844,101.3214,1,0.79
2022-06-02T10:51:53.454+02:00,1654159911.999942,53.22910106456729,10.39847931417128,36.73664,0,20,-1,-1,2.400000095367432,7.999579855010836,-9999,3057.731175541667,-0.1108551025390625,-0.670806884765625,-0.68487548828125,3057.721181541667,-0.0211770547039393,-0.1523196435668852,0.7279746501128651,-0.3845873773097992,-0.1237427815794945,-0.07659883797168732,0.003178864717483521,-0.01449626684188843,0.04377299547195435,XArbitraryZVertical,0.3541984832111961,-0.07485598763032417,-0.0369513770630519,0.931436746636891,-0.113270990550518,-0.6653590202331543,-0.7378800511360168,0,0,0,-1,-1,3052.37708675,unknown,2,2022-06-02T10:51:48.099+02:00,2022-06-02T10:17:13.754+02:00,512,1.445976,0,0,397.4887,0,0,2022-06-02T10:51:53.215+02:00,675852713.2145439,0,5.089844,101.3214,1,0.79
2022-06-02T10:51:53.463+02:00,1654159911.999942,53.22910106456729,10.39847931417128,36.73664,0,20,-1,-1,2.400000095367432,7.999579855010836,-9999,3057.741170541667,-0.1060791015625,-0.662353515625,-0.670562744140625,3057.731175541667,-0.0233346679750251,-0.1525654020908556,0.7238867338245634,-0.5396304726600647,-0.2006783038377762,-0.1192978322505951,0.007831454277038574,-0.01129746437072754,0.05347687005996704,XArbitraryZVertical,0.3522070823353383,-0.07538557149037196,-0.0378625360650952,0.9321123962387865,-0.1138647422194481,-0.662301778793335,-0.7405343651771545,0,0,0,-1,-1,3052.37708675,unknown,2,2022-06-02T10:51:48.099+02:00,2022-06-02T10:17:13.754+02:00,512,1.445976,0,0,397.4887,0,0,2022-06-02T10:51:53.215+02:00,675852713.2145439,0,5.089844,101.3214,1,0.79
2022-06-02T10:51:53.473+02:00,1654159911.999942,53.22910106456729,10.39847931417128,36.73664,0,20,-1,-1,2.400000095367432,7.999579855010836,-9999,3057.751164541667,-0.07916259765625,-0.6685028076171875,-0.6461334228515625,3057.741170541667,-0.02611237970771906,-0.1534457664697886,0.7183480960170799,-0.7311817407608032,-0.3071464896202087,-0.138975590467453,0.002130031585693359,-0.009521663188934326,0.06562662124633789,XArbitraryZVertical,0.3495003521576195,-0.07632607086416299,-0.0391261666386419,0.9330021627116059,-0.115075558423996,-0.6581418514251709,-0.7440476417541504,0,0,0,-1,-1,3052.37708675,unknown,2,2022-06-02T10:51:48.099+02:00,2022-06-02T10:17:13.754+02:00,512,1.445976,0,0,397.4887,0,0,2022-06-02T10:51:53.215+02:00,675852713.2145439,0,5.089844,101.3214,1,0.79
2022-06-02T10:51:53.483+02:00,1654159911.999942,53.22910106456729,10.39847931417128,36.73664,0,20,-1,-1,2.400000095367432,7.999579855010836,-9999,3057.761158541667,-0.0720672607421875,-0.6620941162109375,-0.6145782470703125,3057.751164541667,-0.02934431467964085,-0.1555094297569049,0.7107790564822146,-0.9411941170692444,-0.4992879629135132,-0.1264265179634094,0.02341538667678833,-0.01011216640472412,0.09058177471160889,XArbitraryZVertical,0.345798527080879,-0.07790428947082796,-0.04073828590444518,0.9341812570854683,-0.1173789724707603,-0.6524243950843811,-0.7487086057662964,0,0,0,-1,-1,3052.37708675,unknown,2,2022-06-02T10:51:48.099+02:00,2022-06-02T10:17:13.754+02:00,512,1.445976,0,0,397.4887,0,0,2022-06-02T10:51:53.215+02:00,675852713.2145439,0,5.089844,101.3214,1,0.79
2022-06-02T10:51:53.493+02:00,1654159911.999942,53.22910106456729,10.39847931417128,36.73664,0,20,-1,-1,2.400000095367432,7.999579855010836,-9999,3057.771152541667,-0.095947265625,-0.63262939453125,-0.585418701171875,3057.761158541667,-0.03296104564092024,-0.159381194855317,0.7004193089026242,-1.204451203346252,-0.7459986805915833,-0.08318610489368439,0.05051186680793762,-0.02730613946914673,0.1238391399383545,XArbitraryZVertical,0.3407271774948896,-0.08040026422320129,-0.04273912559545651,0.9357425880150695,-0.1213431358337402,-0.6445383429527283,-0.7548815608024597,0,0,0,-1,-1,3052.37708675,unknown,2,2022-06-02T10:51:48.099+02:00,2022-06-02T10:17:13.754+02:00,512,1.445976,0,0,397.4887,0,0,2022-06-02T10:51:53.215+02:00,675852713.2145439,0,5.089844,101.3214,1,0.79
2022-06-02T10:51:53.503+02:00,1654159911.999942,53.22910106456729,10.39847931417128,36.73664,0,20,-1,-1,2.400000095367432,7.999579855010836,-9999,3057.781147541667,-0.1300811767578125,-0.622039794921875,-0.5511932373046875,3057.771152541667,-0.03646347901024682,-0.1657267707974143,0.6872510884880171,-1.473591804504395,-0.9746441245079041,-0.01936717331409454,0.04612965881824493,-0.01171863079071045,0.1627925038337708,XArbitraryZVertical,0.3342704306441168,-0.08403785974838603,-0.0449864088660414,0.9376443626759002,-0.1275199949741364,-0.6344146728515625,-0.762401819229126,0,0,0,-1,-1,3052.37708675,unknown,2,2022-06-02T10:51:48.099+02:00,2022-06-02T10:17:13.754+02:00,512,1.445976,0,0,397.4887,0,0,2022-06-02T10:51:53.215+02:00,675852713.2145439,0,5.089844,101.3214,1,0.79
2022-06-02T10:51:53.513+02:00,1654159911.999942,53.22910106456729,10.39847931417128,36.73664,0,20,-1,-1,2.400000095367432,7.999579855010836,-9999,3057.791141541667,-0.2392120361328125,-0.681976318359375,-0.5455169677734375,3057.781147541667,-0.03945324474254713,-0.1747371470345168,0.6714423931599961,-1.728925824165344,-1.208985805511475,0.1203148365020752,0.02273821830749512,-0.004745602607727051,0.2025062441825867,XArbitraryZVertical,0.3265046796770776,-0.08884384993885661,-0.04729450421000984,0.9398215495887406,-0.1361109763383865,-0.6221159100532532,-0.7710029482841492,0,0,0,-1,-1,3052.37708675,unknown,2,2022-06-02T10:51:48.099+02:00,2022-06-02T10:17:13.754+02:00,512,1.445976,0,0,397.4887,0,0,2022-06-02T10:51:53.215+02:00,675852713.2145439,0,5.089844,101.3214,1,0.79
2022-06-02T10:51:53.523+02:00,1654159911.999942,53.22910106456729,10.39847931417128,36.73664,0,20,-1,-1,2.400000095367432,7.999579855010836,-9999,3057.801135541667,-0.3414764404296875,-0.681549072265625,-0.505218505859375,3057.791141541667,-0.04024814379706972,-0.1864796218811303,0.6532846002546069,-1.868655204772949,-1.213679313659668,0.411094456911087,-0.02472609281539917,-0.03803026676177979,0.2357994318008423,XArbitraryZVertical,0.3176317897486139,-0.09459262321818361,-0.04884392047904016,0.942218983919995,-0.1472251713275909,-0.6077979803085327,-0.7803245782852173,0,0,0,-1,-1,3052.37708675,unknown,2,2022-06-02T10:51:48.099+02:00,2022-06-02T10:17:13.754+02:00,512,1.445976,0,0,397.4887,0,0,2022-06-02T10:51:53.215+02:00,675852713.2145439,0,5.089844,101.3214,1,0.79
2022-06-02T10:51:53.533+02:00,1654159911.999942,53.22910106456729,10.39847931417128,36.73664,0,20,-1,-1,2.400000095367432,7.999579855010836,-9999,3057.811130541667,-1.205276489257812,-1.1767578125,-0.2819671630859375,3057.801135541667,-0.03829436942334712,-0.1989202805679798,0.6326310268973009,-2.135542869567871,-1.049807667732239,0.6806744337081909,-0.1396124064922333,-0.09295070171356201,0.2556135058403015,XArbitraryZVertical,0.3076661221197116,-0.1002789143134153,-0.04898833556895421,0.9449263706124337,-0.1593682765960693,-0.5912686586380005,-0.790571391582489,0,0,0,-1,-1,3052.37708675,unknown,2,2022-06-02T10:51:48.099+02:00,2022-06-02T10:17:13.754+02:00,512,1.445976,0,0,397.4887,0,0,2022-06-02T10:51:53.215+02:00,675852713.2145439,0,5.089844,101.3214,1,0.79
2022-06-02T10:51:53.543+02:00,1654159911.999942,53.22910106456729,10.39847931417128,36.73664,0,20,-1,-1,2.400000095367432,7.999579855010836,-9999,3057.821124541667,-1.180252075195312,-1.164413452148438,-0.450439453125,3057.811130541667,-0.04372646254417802,-0.2059597947806845,0.6089380817263406,-3.37299656867981,-0.9877174496650696,-2.304315567016602,-0.2788768410682678,-0.1430453062057495,0.3081384301185608,XArbitraryZVertical,0.2959832897889346,-0.1045655514279183,-0.0515556178288747,0.9480515863553826,-0.1677478700876236,-0.5719967484474182,-0.802919864654541,0,0,0,-1,-1,3052.37708675,unknown,2,2022-06-02T10:51:48.099+02:00,2022-06-02T10:17:13.754+02:00,512,1.445976,0,0,397.4887,0,0,2022-06-02T10:51:53.215+02:00,675852713.2145439,0,5.089844,101.3214,1,0.79
2022-06-02T10:51:53.553+02:00,1654159911.999942,53.22910106456729,10.39847931417128,36.73664,0,20,-1,-1,2.400000095367432,7.999579855010836,-9999,3057.831118541667,-0.0224609375,-0.244110107421875,-0.291717529296875,3057.821124541667,-0.07523351947727622,-0.1841123817427083,0.5760360330386385,-3.823368549346924,0.7942956686019897,-0.9534984230995178,-1.610842704772949,-1.106754779815674,0.4367748498916626,XArbitraryZVertical,0.279334881543039,-0.09871470352056962,-0.06199949538127211,0.9530915062620446,-0.1535310447216034,-0.5447039008140564,-0.8244548439979553,0,0,0,-1,-1,3052.37708675,unknown,2,2022-06-02T10:51:48.099+02:00,2022-06-02T10:17:13.754+02:00,512,1.445976,0,0,397.4887,0,0,2022-06-02T10:51:53.215+02:00,675852713.2145439,0,5.089844,101.3214,1,0.79
2022-06-02T10:51:53.563+02:00,1654159911.999942,53.22910106456729,10.39847931417128,36.73664,0,20,-1,-1,2.400000095367432,7.999579855010836,-9999,3057.841111375,-0.081695556640625,-0.629974365234375,-0.35247802734375,3057.831118541667,-0.08705205578394411,-0.171449700206207,0.5381815163997425,-3.915352344512939,0.4767467975616455,0.03632771223783493,-0.1718350499868393,0.03030610084533691,0.5104971528053284,XArbitraryZVertical,0.2610364697163327,-0.09398600607213309,-0.06453330369382249,0.9585728745999212,-0.1464937776327133,-0.5125753879547119,-0.8460531830787659,0,0,0,-1,-1,3052.37708675,unknown,2,2022-06-02T10:51:48.099+02:00,2022-06-02T10:17:13.754+02:00,512,1.445976,0,0,397.4887,0,0,2022-06-02T10:51:53.215+02:00,675852713.2145439,0,5.089844,101.3214,1,0.79
2022-06-02T10:51:53.573+02:00,1654159911.999942,53.22910106456729,10.39847931417128,36.73664,0,20,-1,-1,2.400000095367432,7.999579855010836,-9999,3057.851106375,-0.282135009765625,-0.8150787353515625,-0.3692474365234375,3057.841111375,-0.09648603377546919,-0.1635613145538682,0.5008334515495638,-3.812793254852295,0.182906910777092,-0.4238297641277313,0.162945419549942,0.09526908397674561,0.5566375851631165,XArbitraryZVertical,0.2428756124587139,-0.09095991583250344,-0.06678375789034954,0.9634715890574724,-0.1428342908620834,-0.480156809091568,-0.8654754757881165,0,0,0,-1,-1,3052.37708675,unknown,2,2022-06-02T10:51:48.099+02:00,2022-06-02T10:17:13.754+02:00,512,1.445976,0,0,397.4887,0,0,2022-06-02T10:51:53.215+02:00,675852713.2145439,0,5.089844,101.3214,1,0.79
2022-06-02T10:51:53.583+02:00,1654159911.999942,53.22910106456729,10.39847931417128,36.73664,0,20,-1,-1,2.400000095367432,7.999579855010836,-9999,3057.861100375,-0.48138427734375,-0.6960601806640625,-0.389801025390625,3057.851106375,-0.1111375663483553,-0.1561009284047656,0.4616955560515317,-4.391696453094482,-0.0396241769194603,-0.7970845699310303,-0.01220765709877014,-0.3303358256816864,0.5211617946624756,XArbitraryZVertical,0.2235385921702211,-0.08845479951083744,-0.07171477861848156,0.9680201937077312,-0.1391900181770325,-0.4454667866230011,-0.8844124674797058,0,0,0,-1,-1,3052.37708675,unknown,2,2022-06-02T10:51:48.099+02:00,2022-06-02T10:17:13.754+02:00,512,1.445976,0,0,397.4887,0,0,2022-06-02T10:51:53.215+02:00,675852713.2145439,0,5.089844,101.3214,1,0.79
2022-06-02T10:51:53.593+02:00,1654159911.999942,53.22910106456729,10.39847931417128,36.73664,0,20,-1,-1,2.400000095367432,7.999579855010836,-9999,3057.871094375,-0.600494384765625,-0.553314208984375,-0.4495391845703125,3057.861100375,-0.1280164033473352,-0.149408795288717,0.4168097948271294,-4.961479187011719,-0.03391482308506966,-0.7920368909835815,-0.232344463467598,-0.3657233715057373,0.5353627800941467,XArbitraryZVertical,0.2012293238694923,-0.08606778507890668,-0.07781622702676254,0.9726477578792571,-0.1361094564199448,-0.4048454463481903,-0.904198169708252,0,0,0,-1,-1,3052.37708675,unknown,2,2022-06-02T10:51:48.099+02:00,2022-06-02T10:17:13.754+02:00,512,1.445976,0,0,397.4887,0,0,2022-06-02T10:51:53.215+02:00,675852713.2145439,0,5.089844,101.3214,1,0.79
2022-06-02T10:51:53.603+02:00,1654159911.999942,53.22910106456729,10.39847931417128,36.73664,0,20,-1,-1,2.400000095367432,7.999579855010836,-9999,3057.881088375,-0.5855865478515625,-0.484954833984375,-0.4810028076171875,3057.871094375,-0.1446239088964576,-0.1419255217823019,0.3677160328801567,-5.200860023498535,0.255388617515564,-0.7993800640106201,-0.4123024940490723,-0.2572904229164124,0.5070967078208923,XArbitraryZVertical,0.1768508629226322,-0.0827016141925863,-0.08378140284098406,0.9771718537573232,-0.131993755698204,-0.3594850897789001,-0.9237684011459351,0,0,0,-1,-1,3052.37708675,unknown,2,2022-06-02T10:51:48.099+02:00,2022-06-02T10:17:13.754+02:00,512,1.445976,0,0,397.4887,0,0,2022-06-02T10:51:53.215+02:00,675852713.2145439,0,5.089844,101.3214,1,0.79
2022-06-02T10:51:53.613+02:00,1654159911.999942,53.22910106456729,10.39847931417128,36.73664,0,20,-1,-1,2.400000095367432,7.999579855010836,-9999,3057.891083375,-0.54510498046875,-0.498138427734375,-0.495086669921875,3057.881088375,-0.1612092159786022,-0.131948749937799,0.3170888278898445,-5.271678924560547,0.5989237427711487,-0.8901212215423584,-0.4716113805770874,-0.1950035691261292,0.4725275635719299,XArbitraryZVertical,0.1517844354296877,-0.07757283488430859,-0.08970930869100842,0.9812726590077818,-0.1250072568655014,-0.3118018507957458,-0.9418878555297852,0,0,0,-1,-1,3052.37708675,unknown,2,2022-06-02T10:51:48.099+02:00,2022-06-02T10:17:13.754+02:00,512,1.445976,0,0,397.4887,0,0,2022-06-02T10:51:53.215+02:00,675852713.2145439,0,5.089844,101.3214,1,0.79
2022-06-02T10:51:53.623+02:00,1654159911.999942,53.22910106456729,10.39847931417128,36.73664,0,20,-1,-1,2.400000095367432,7.999579855010836,-9999,3057.901077375,-0.5438079833984375,-0.5180511474609375,-0.4744110107421875,3057.891083375,-0.1780586199598421,-0.1194074958795513,0.2650634381957943,-5.504008769989014,0.9125255942344666,-0.980711042881012,-0.4389151036739349,-0.2188034355640411,0.4731575846672058,XArbitraryZVertical,0.1261275347300764,-0.07063901747601277,-0.09582860093075017,0.9848444887528593,-0.1149636432528496,-0.2619704902172089,-0.9582039713859558,0,0,0,-1,-1,3052.37708675,unknown,2,2022-06-02T10:51:48.099+02:00,2022-06-02T10:17:13.754+02:00,512,1.445976,0,0,397.4887,0,0,2022-06-02T10:51:53.215+02:00,675852713.2145439,0,5.089844,101.3214,1,0.79
2022-06-02T10:51:53.633+02:00,1654159911.999942,53.22910106456729,10.39847931417128,36.73664,0,20,-1,-1,2.400000095367432,7.999579855010836,-9999,3057.911071375,-0.5374908447265625,-0.45794677734375,-0.435791015625,3057.901077375,-0.1951503110561764,-0.1051180331061947,0.2093231286012421,-5.994092464447021,1.127987384796143,-1.054254651069641,-0.4360620379447937,-0.3110772967338562,0.4805392026901245,XArbitraryZVertical,0.0987401279655499,-0.06216234271122655,-0.1022157606170758,0.9878957660154324,-0.1026342362165451,-0.2077978551387787,-0.972772479057312,0,0,0,-1,-1,3052.37708675,unknown,2,2022-06-02T10:51:48.099+02:00,2022-06-02T10:17:13.754+02:00,512,1.445976,0,0,397.4887,0,0,2022-06-02T10:51:53.215+02:00,675852713.2145439,0,5.089844,101.3214,1,0.79
2022-06-02T10:51:53.643+02:00,1654159911.999942,53.22910106456729,10.39847931417128,36.73664,0,20,-1,-1,2.400000095367432,7.999579855010836,-9999,3057.921065375,-0.4835662841796875,-0.35235595703125,-0.430633544921875,3057.911071375,-0.2123881786693098,-0.08946560332571146,0.1478056518239561,-6.589794158935547,1.399837851524353,-1.110318422317505,-0.4545813202857971,-0.3450415134429932,0.532900869846344,XArbitraryZVertical,0.06861927412764246,-0.0521629470852215,-0.1088827176313311,0.9903105306071852,-0.0883721262216568,-0.147268071770668,-0.985140860080719,0,0,0,-1,-1,3052.37708675,unknown,2,2022-06-02T10:51:48.099+02:00,2022-06-02T10:17:13.754+02:00,512,1.445976,0,0,397.4887,0,0,2022-06-02T10:51:53.215+02:00,675852713.2145439,0,5.089844,101.3214,1,0.79
2022-06-02T10:51:53.653+02:00,1654159911.999942,53.22910106456729,10.39847931417128,36.73664,0,20,-1,-1,2.400000095367432,7.999579855010836,-9999,3057.931060375,-0.4056243896484375,-0.2082977294921875,-0.443450927734375,3057.921065375,-0.2290700701961647,-0.07171785410167449,0.07978794159750896,-7.266498565673828,1.743562459945679,-1.083605170249939,-0.4432047307491302,-0.3337641358375549,0.565499484539032,XArbitraryZVertical,0.03550261116401036,-0.04014314096193117,-0.1155409373980693,0.9918560552834748,-0.07142842561006546,-0.07970330864191055,-0.9942561984062195,0,0,0,-1,-1,3052.37708675,unknown,2,2022-06-02T10:51:48.099+02:00,2022-06-02T10:17:13.754+02:00,512,1.445976,0,0,397.4887,0,0,2022-06-02T10:51:53.215+02:00,675852713.2145439,0,5.089844,101.3214,1,0.79
2022-06-02T10:51:53.663+02:00,1654159911.999942,53.22910106456729,10.39847931417128,36.73664,0,20,-1,-1,2.400000095367432,7.999579855010836,-9999,3057.941054375,-0.346588134765625,-0.047332763671875,-0.4759521484375,3057.931060375,-0.244716034907266,-0.05232653998946258,0.004590773092208285,-7.935341835021973,1.992200970649719,-1.104876637458801,-0.3922626674175262,-0.2777579128742218,0.5669496059417725,XArbitraryZVertical,-0.0009154874076383057,-0.02624469404548189,-0.1220704370329492,0.9921739838884498,-0.05230211466550827,-0.004590757191181183,-0.9986207485198975,0,0,0,-1,-1,3052.37708675,unknown,2,2022-06-02T10:51:48.099+02:00,2022-06-02T10:17:13.754+02:00,512,1.445976,0,0,397.4887,0,0,2022-06-02T10:51:53.215+02:00,675852713.2145439,0,5.089844,101.3214,1,0.79
2022-06-02T10:51:53.673+02:00,1654159911.999942,53.22910106456729,10.39847931417128,36.73664,0,20,-1,-1,2.400000095367432,7.999579855010836,-9999,3057.951048375,-0.29864501953125,0.143798828125,-0.4821624755859375,3057.941054375,-0.2594723329965973,-0.03175702043668537,-0.07682297031040838,-8.442748069763184,2.22578501701355,-1.148842096328735,-0.3405190706253052,-0.2078509926795959,0.5334894061088562,XArbitraryZVertical,-0.04012715350436606,-0.01076525018322908,-0.1286561890578242,0.9908185923061046,-0.03165803477168083,0.07674742490053177,-0.9965478181838989,0,0,0,-1,-1,3052.37708675,unknown,2,2022-06-02T10:51:48.099+02:00,2022-06-02T10:17:13.754+02:00,512,1.445976,0,0,397.4887,0,0,2022-06-02T10:51:53.215+02:00,675852713.2145439,0,5.089844,101.3214,1,0.79
2022-06-02T10:51:53.696+02:00,1654159911.999942,53.22910106456729,10.39847931417128,36.73664,0,20,-1,-1,2.400000095367432,7.999579855010836,-9999,3057.961043375,-0.2435455322265625,0.357330322265625,-0.4921722412109375,3057.951048375,-0.272755062428774,-0.009503470036249956,-0.1622364349125043,-8.663297653198242,2.556175470352173,-1.125481963157654,-0.3139246702194214,-0.1168632507324219,0.5062483549118042,XArbitraryZVertical,-0.0809199168116837,0.006324109105266719,-0.1351251384670884,0.9874984427236411,-0.009378533810377121,0.1615256816148758,-0.9868239164352417,0,0,0,-1,-1,3052.37708675,unknown,2,2022-06-02T10:51:48.099+02:00,2022-06-02T10:17:13.754+02:00,512,1.445976,0,0,397.4887,0,0,2022-06-02T10:51:53.215+02:00,675852713.2145439,0,5.089844,101.3214,1,0.79
2022-06-02T10:51:53.700+02:00,1654159911.999942,53.22910106456729,10.39847931417128,36.73664,0,20,-1,-1,2.400000095367432,7.999579855010836,-9999,3057.971037375,-0.1871337890625,0.5847015380859375,-0.5039520263671875,3057.961043375,-0.283714835241229,0.01592534990293521,-0.2485359721372429,-8.564601898193359,2.970148801803589,-1.075961947441101,-0.2894374132156372,0.001039311289787292,0.4821206331253052,XArbitraryZVertical,-0.1215823741488769,0.02534535474150475,-0.1412644650190868,0.9821505195741013,0.01543536875396967,0.2459851801395416,-0.9691506624221802,0,0,0,-1,-1,3052.37708675,unknown,2,2022-06-02T10:51:48.099+02:00,2022-06-02T10:17:13.754+02:00,512,1.445976,0,0,397.4887,0,0,2022-06-02T10:51:53.215+02:00,675852713.2145439,0,5.089844,101.3214,1,0.79
2022-06-02T10:51:53.705+02:00,1654159911.999942,53.22910106456729,10.39847931417128,36.73664,0,20,-1,-1,2.400000095367432,7.999579855010836,-9999,3057.981031375,-0.133819580078125,0.7526702880859375,-0.5030364990234375,3057.971037375,-0.2921438562071982,0.04554311391844836,-0.3329104787851236,-8.257259368896484,3.44013500213623,-1.048466920852661,-0.258680135011673,0.1442894339561462,0.4463582634925842,XArbitraryZVertical,-0.1606122635562325,0.04632582628452223,-0.1472364852234757,0.9748738284521306,0.04302770271897316,0.3267951011657715,-0.9441152215003967,0,0,0,-1,-1,3052.37708675,unknown,2,2022-06-02T10:51:48.099+02:00,2022-06-02T10:17:13.754+02:00,512,1.445976,0,0,397.4887,0,0,2022-06-02T10:51:53.215+02:00,675852713.2145439,0,5.089844,101.3214,1,0.79
2022-06-02T10:51:53.713+02:00,1654159911.999942,53.22910106456729,10.39847931417128,36.73664,0,20,-1,-1,2.400000095367432,7.999579855010836,-9999,3057.991025375,-0.0546112060546875,0.8205108642578125,-0.4936370849609375,3057.981031375,-0.2978604766025179,0.0804054118929783,-0.4141337132198616,-7.897005081176758,3.957853078842163,-1.042229533195496,-0.2343719452619553,0.280708372592926,0.4080215096473694,XArbitraryZVertical,-0.1973139240177507,0.06937879965379992,-0.1532648769694324,0.9657969186346255,0.07352907210588455,0.4023970365524292,-0.9125075936317444,0,0,0,-1,-1,3052.37708675,unknown,2,2022-06-02T10:51:48.099+02:00,2022-06-02T10:17:13.754+02:00,512,1.445976,0,0,397.4887,0,0,2022-06-02T10:51:53.215+02:00,675852713.2145439,0,5.089844,101.3214,1,0.79
2022-06-02T10:51:53.723+02:00,1654159911.999942,53.22910106456729,10.39847931417128,36.73664,0,20,-1,-1,2.400000095367432,7.999579855010836,-9999,3058.001020375,0.089508056640625,0.8463592529296875,-0.41265869140625,3057.991025375,-0.3010549380880421,0.1213331761776752,-0.4919336326166824,-7.566497325897217,4.507479190826416,-1.090605020523071,-0.2097412645816803,0.3211563527584076,0.3732779026031494,XArbitraryZVertical,-0.2314795551001773,0.09458674957950451,-0.1597746163647146,0.9549568890366669,0.1066834256052971,0.4723311066627502,-0.8749411106109619,0,0,0,-1,-1,3052.37708675,unknown,2,2022-06-02T10:51:48.099+02:00,2022-06-02T10:17:13.754+02:00,512,1.445976,0,0,397.4887,0,0,2022-06-02T10:51:53.215+02:00,675852713.2145439,0,5.089844,101.3214,1,0.79
2022-06-02T10:51:53.733+02:00,1654159911.999942,53.22910106456729,10.39847931417128,36.73664,0,20,-1,-1,2.400000095367432,7.999579855010836,-9999,3058.011014375,0.2669219970703125,0.8546295166015625,-0.25518798828125,3058.001020375,-0.3012665430574828,0.168585290783356,-0.567586733880762,-7.440904140472412,4.943806648254395,-1.117195725440979,-0.1333459168672562,0.2987353801727295,0.3660674095153809,XArbitraryZVertical,-0.2637167887048895,0.1217786203515809,-0.1668572244412093,0.9422218917176564,0.1414788663387299,0.537598729133606,-0.8312468528747559,0,0,0,-1,-1,3052.37708675,unknown,2,2022-06-02T10:51:48.099+02:00,2022-06-02T10:17:13.754+02:00,512,1.445976,0,0,397.4887,0,0,2022-06-02T10:51:53.215+02:00,675852713.2145439,0,5.089844,101.3214,1,0.79
2022-06-02T10:51:53.743+02:00,1654159911.999942,53.22910106456729,10.39847931417128,36.73664,0,20,-1,-1,2.400000095367432,7.999579855010836,-9999,3058.021008375,0.4159698486328125,0.8720855712890625,-0.04736328125,3058.011014375,-0.2966111102746511,0.2223387248877369,-0.6430622308670281,-7.566483020782471,5.271952152252197,-1.051312565803528,-0.0008995085954666138,0.2506013512611389,0.4393929839134216,XArbitraryZVertical,-0.2950684786924095,0.1505073123097338,-0.173999209676896,0.9273652941960627,0.1764671504497528,0.5996488332748413,-0.7805643081665039,0,0,0,-1,-1,3052.37708675,unknown,2,2022-06-02T10:51:48.099+02:00,2022-06-02T10:17:13.754+02:00,512,1.445976,0,0,397.4887,0,0,2022-06-02T10:51:53.215+02:00,675852713.2145439,0,5.089844,101.3214,1,0.79
2022-06-02T10:51:53.753+02:00,1654159911.999942,53.22910106456729,10.39847931417128,36.73664,0,20,-1,-1,2.400000095367432,7.999579855010836,-9999,3058.031002375,0.5557708740234375,0.9268646240234375,0.227081298828125,3058.021008375,-0.2841251365754763,0.2844596762478398,-0.7205366466449536,-7.961206436157227,5.601655960083008,-0.9564871191978455,0.1368459612131119,0.2012958526611328,0.5643625855445862,XArbitraryZVertical,-0.3266688355028542,0.1807227635586441,-0.1806251989229436,0.9099457863432717,0.2108865827322006,0.6597880125045776,-0.721253514289856,0,0,0,-1,-1,3052.37708675,unknown,2,2022-06-02T10:51:48.099+02:00,2022-06-02T10:17:13.754+02:00,512,1.445976,0,0,397.4887,0,0,2022-06-02T10:51:53.215+02:00,675852713.2145439,0,5.089844,101.3214,1,0.79
2022-06-02T10:51:53.763+02:00,1654159911.999942,53.22910106456729,10.39847931417128,36.73664,0,20,-1,-1,2.400000095367432,7.999579855010836,-9999,3058.040997375,0.7029266357421875,1.077468872070312,0.490020751953125,3058.031002375,-0.2599100379292691,0.3590754757415315,-0.8013234711583039,-8.478815078735352,5.970432281494141,-0.8231921792030334,0.237362265586853,0.17390376329422,0.7328189015388489,XArbitraryZVertical,-0.3592139389740992,0.212776759674598,-0.1864702571771129,0.88933695229548,0.2444950342178345,0.7182775139808655,-0.6513828039169312,0,0,0,-1,-1,3052.37708675,unknown,2,2022-06-02T10:51:48.099+02:00,2022-06-02T10:17:13.754+02:00,512,1.445976,0,0,397.4887,0,0,2022-06-02T10:51:53.215+02:00,675852713.2145439,0,5.089844,101.3214,1,0.79
2022-06-02T10:51:53.773+02:00,1654159911.999942,53.22910106456729,10.39847931417128,36.73664,0,20,-1,-1,2.400000095367432,7.999579855010836,-9999,3058.050991375,0.8936614990234375,1.358627319335938,0.7165985107421875,3058.040997375,-0.2202653199160313,0.4499030505846388,-0.8832353973785841,-8.684793472290039,6.23591947555542,-0.7706917524337769,0.3559302091598511,0.2095339298248291,0.9305537343025208,XArbitraryZVertical,-0.3919455531427767,0.2462297361125176,-0.1916204783984477,0.865465819652052,0.2759972512722015,0.7727962732315063,-0.571499228477478,0,0,0,-1,-1,3052.37708675,unknown,2,2022-06-02T10:51:48.099+02:00,2022-06-02T10:17:13.754+02:00,512,1.445976,0,0,397.4887,0,0,2022-06-02T10:51:53.215+02:00,675852713.2145439,0,5.089844,101.3214,1,0.79
2022-06-02T10:51:53.783+02:00,1654159911.999942,53.22910106456729,10.39847931417128,36.73664,0,20,-1,-1,2.400000095367432,7.999579855010836,-9999,3058.060985375,1.060577392578125,1.5594482421875,0.8176422119140625,3058.050991375,-0.1592686176360537,0.5612895606552198,-0.9637805512839591,-8.97511100769043,6.244063854217529,-0.5700473189353943,0.4881569743156433,0.3919485807418823,1.100101828575134,XArbitraryZVertical,-0.4243877421291256,0.2800811882161068,-0.1956920002491082,0.838542874975778,0.3036215901374817,0.8213539123535156,-0.4828991591930389,0,0,0,-1,-1,3052.37708675,unknown,2,2022-06-02T10:51:48.099+02:00,2022-06-02T10:17:13.754+02:00,512,1.445976,0,0,397.4887,0,0,2022-06-02T10:51:53.215+02:00,675852713.2145439,0,5.089844,101.3214,1,0.79
2022-06-02T10:51:53.793+02:00,1654159911.999942,53.22910106456729,10.39847931417128,36.73664,0,20,-1,-1,2.400000095367432,7.999579855010836,-9999,3058.070980375,1.015487670898438,1.70269775390625,0.8402099609375,3058.060985375,-0.06803339044029252,0.6991166284776117,-1.038906886891758,-8.878247261047363,5.897655010223389,-0.3156794607639313,0.6573690176010132,0.6136135458946228,1.169697284698486,XArbitraryZVertical,-0.4560038922871165,0.3129959676408883,-0.1976504630420123,0.8093382235641073,0.3263804316520691,0.861850380897522,-0.3881879448890686,0,0,0,-1,-1,3052.37708675,unknown,2,2022-06-02T10:51:48.099+02:00,2022-06-02T10:17:13.754+02:00,512,1.445976,0,0,397.4887,0,0,2022-06-02T10:51:53.215+02:00,675852713.2145439,0,5.089844,101.3214,1,0.79
2022-06-02T10:51:53.803+02:00,1654159911.999942,53.22910106456729,10.39847931417128,36.73664,0,20,-1,-1,2.400000095367432,7.999579855010836,-9999,3058.080974375,1.059280395507812,1.8623046875,0.9653472900390625,3058.070980375,0.04926504268155513,0.8588406202705352,-1.101694934329687,-7.863736629486084,5.514859199523926,-0.304264098405838,0.7026702761650085,0.7380451560020447,1.131276249885559,XArbitraryZVertical,-0.484481122955871,0.3429300288564601,-0.1987709270571399,0.779850668986853,0.3422668874263763,0.8919748663902283,-0.2953540682792664,0,0,0,-1,-1,3052.37708675,unknown,2,2022-06-02T10:51:48.099+02:00,2022-06-02T10:17:13.754+02:00,512,1.445976,0,0,397.4887,0,0,2022-06-02T10:51:53.215+02:00,675852713.2145439,0,5.089844,101.3214,1,0.79
2022-06-02T10:51:53.813+02:00,1654159911.999942,53.22910106456729,10.39847931417128,36.73664,0,20,-1,-1,2.400000095367432,7.999579855010836,-9999,3058.090968375,1.247833251953125,2.050399780273438,0.967559814453125,3058.080974375,0.1832828391398764,1.035818116725072,-1.143130726399245,-6.424803733825684,5.616217136383057,0.1835297495126724,0.7004671096801758,0.8873962759971619,1.097479701042175,XArbitraryZVertical,-0.5061388734854773,0.3716175438416852,-0.1998071854993064,0.7521974145966969,0.3567991554737091,0.9099364280700684,-0.211447685956955,0,0,0,-1,-1,3052.37708675,unknown,2,2022-06-02T10:51:48.099+02:00,2022-06-02T10:17:13.754+02:00,512,1.445976,0,0,397.4887,0,0,2022-06-02T10:51:53.215+02:00,675852713.2145439,0,5.089844,101.3214,1,0.79
2022-06-02T10:51:53.823+02:00,1654159911.999942,53.22910106456729,10.39847931417128,36.73664,0,20,-1,-1,2.400000095367432,7.999579855010836,-9999,3058.100962375,1.312484741210938,1.853424072265625,0.7328338623046875,3058.090968375,0.3103290752835554,1.203271080602763,-1.165169254933144,-4.690288543701172,4.576510429382324,0.2968224585056305,0.7282529473304749,1.022444248199463,1.144588232040405,XArbitraryZVertical,-0.5211696916025104,0.3968523381775139,-0.2012683479853628,0.7282728846603311,0.3682436645030975,0.9188551306724548,-0.141780748963356,0,0,0,-1,-1,3052.37708675,unknown,2,2022-06-02T10:51:48.099+02:00,2022-06-02T10:17:13.754+02:00,512,1.445976,0,0,397.4887,0,0,2022-06-02T10:51:53.215+02:00,675852713.2145439,0,5.089844,101.3214,1,0.79
2022-06-02T10:51:53.833+02:00,1654159911.999942,53.22910106456729,10.39847931417128,36.73664,0,20,-1,-1,2.400000095367432,7.999579855010836,-9999,3058.110957375,1.115859985351562,1.472518920898438,0.704010009765625,3058.100962375,0.3993919941922299,1.326329003149934,-1.17353699544944,-2.480692863464355,3.676624059677124,0.2156722396612167,0.963005542755127,1.104730606079102,0.9432830810546875,XArbitraryZVertical,-0.5293435066888764,0.4159012300697409,-0.2038968631919403,0.7108077063570166,0.3753886520862579,0.9221248030662537,-0.09364324063062668,0,0,0,-1,-1,3052.37708675,unknown,2,2022-06-02T10:51:48.099+02:00,2022-06-02T10:17:13.754+02:00,512,1.445976,0,0,397.4887,0,0,2022-06-02T10:51:53.215+02:00,675852713.2145439,0,5.089844,101.3214,1,0.79
2022-06-02T10:51:53.843+02:00,1654159911.999942,53.22910106456729,10.39847931417128,36.73664,0,20,-1,-1,2.400000095367432,7.999579855010836,-9999,3058.120951375,0.8587493896484375,1.18463134765625,0.6817169189453125,3058.110957375,0.4444622064354998,1.401169198192461,-1.175860974199961,-1.111944198608398,3.027225494384766,0.04387065023183823,0.8480838537216187,0.7239968180656433,0.7653600573539734,XArbitraryZVertical,-0.5318065068565212,0.4297746309513368,-0.2085626095263058,0.699268994095863,0.3792262375354767,0.9230214357376099,-0.06495121121406555,0,0,0,-1,-1,3052.37708675,unknown,2,2022-06-02T10:51:48.099+02:00,2022-06-02T10:17:13.754+02:00,512,1.445976,0,0,397.4887,0,0,2022-06-02T10:51:53.215+02:00,675852713.2145439,0,5.089844,101.3214,1,0.79
2022-06-02T10:51:53.855+02:00,1654159911.999942,53.22910106456729,10.39847931417128,36.73664,0,20,-1,-1,2.400000095367432,7.999579855010836,-9999,3058.130945375,0.6079864501953125,0.9223480224609375,0.75897216796875,3058.120951375,0.4620588061500936,1.44626238292955,-1.177165812531286,-0.3525913655757904,2.763260126113892,-0.1082182824611664,0.6134604811668396,0.3992463946342468,0.7327756285667419,XArbitraryZVertical,-0.5312091819822808,0.4404502086948972,-0.2148367052646777,0.6911335209888889,0.3805733323097229,0.9235227108001709,-0.0476408377289772,0,0,0,-1,-1,3052.37708675,unknown,2,2022-06-02T10:51:48.099+02:00,2022-06-02T10:17:13.754+02:00,512,1.445976,0,0,397.4887,0,0,2022-06-02T10:51:53.215+02:00,675852713.2145439,0,5.089844,101.3214,1,0.79
2022-06-02T10:51:53.863+02:00,1654159911.999942,53.22910106456729,10.39847931417128,36.73664,0,20,-1,-1,2.400000095367432,7.999579855010836,-9999,3058.140939375,0.52520751953125,0.677642822265625,0.9119415283203125,3058.130945375,0.4696697154239132,1.4797699372636,-1.179164597358122,-0.3385336101055145,2.478461027145386,-0.2252945750951767,0.3341623544692993,0.1260664463043213,0.7390574216842651,XArbitraryZVertical,-0.5297613172619688,0.4494493022271738,-0.221742888120011,0.6842355867623903,0.3801167905330658,0.9242874383926392,-0.0346965417265892,0,0,0,-1,-1,3052.37708675,unknown,2,2022-06-02T10:51:48.099+02:00,2022-06-02T10:17:13.754+02:00,512,1.445976,0,0,397.4887,0,0,2022-06-02T10:51:53.215+02:00,675852713.2145439,0,5.089844,101.3214,1,0.79
2022-06-02T10:51:53.873+02:00,1654159911.999942,53.22910106456729,10.39847931417128,36.73664,0,20,-1,-1,2.400000095367432,7.999579855010836,-9999,3058.150934375,0.524383544921875,0.5915069580078125,1.152420043945312,3058.140939375,0.4826528595884969,1.514037543601939,-1.182422029682455,-0.7181012034416199,1.951532363891602,-0.3611735701560974,0.1802295446395874,-0.1290324926376343,0.8462347984313965,XArbitraryZVertical,-0.5296728269013801,0.4568431239523837,-0.227450562692621,0.6775007354560287,0.3780743479728699,0.9255259037017822,-0.02148211374878883,0,0,0,-1,-1,3052.37708675,unknown,2,2022-06-02T10:51:48.099+02:00,2022-06-02T10:17:13.754+02:00,512,1.445976,0,0,397.4887,0,0,2022-06-02T10:51:53.215+02:00,675852713.2145439,0,5.089844,101.3214,1,0.79
2022-06-02T10:51:53.883+02:00,1654159911.999942,53.22910106456729,10.39847931417128,36.73664,0,20,-1,-1,2.400000095367432,7.999579855010836,-9999,3058.160928375,0.529022216796875,0.63665771484375,1.310302734375,3058.150934375,0.5100208969718278,1.555534241778469,-1.187010101265259,-1.388580799102783,1.265073299407959,-0.486244410276413,0.1447136700153351,-0.319786012172699,1.041435241699219,XArbitraryZVertical,-0.5323184591523826,0.4623633287411991,-0.2307517937627331,0.6705302500066198,0.3743903040885925,0.9272536039352417,-0.005714420694857836,0,0,0,-1,-1,3052.37708675,unknown,2,2022-06-02T10:51:48.099+02:00,2022-06-02T10:17:13.754+02:00,512,1.445976,0,0,397.4887,0,0,2022-06-02T10:51:53.215+02:00,675852713.2145439,0,5.089844,101.3214,1,0.79
2022-06-02T10:51:53.893+02:00,1654159911.999942,53.22910106456729,10.39847931417128,36.73664,0,20,-1,-1,2.400000095367432,7.999579855010836,-9999,3058.170922375,0.41937255859375,0.7111663818359375,1.375320434570312,3058.160928375,0.556590882183289,1.606645411216189,-1.192268891432149,-2.071089744567871,0.245872288942337,-0.5895918607711792,0.1665582954883575,-0.3213759660720825,1.231505632400513,XArbitraryZVertical,-0.5384287996708292,0.4655288067508642,-0.2306687600537596,0.6634525568261407,0.3693151473999023,0.92920982837677,0.01324528455734253,0,0,0,-1,-1,3052.37708675,unknown,2,2022-06-02T10:51:48.099+02:00,2022-06-02T10:17:13.754+02:00,512,1.445976,0,0,397.4887,0,0,2022-06-02T10:51:53.215+02:00,675852713.2145439,0,5.089844,101.3214,1,0.79
2022-06-02T10:51:53.903+02:00,1654159911.999942,53.22910106456729,10.39847931417128,36.73664,0,20,-1,-1,2.400000095367432,7.999579855010836,-9999,3058.180917375,0.2534637451171875,0.83203125,1.310714721679688,3058.170922375,0.6218699603607803,1.663888635557525,-1.197353575653604,-2.580990552902222,-0.9561505317687988,-0.7525791525840759,0.1248549222946167,-0.2543344497680664,1.323096632957458,XArbitraryZVertical,-0.548153518217399,0.4652787416871959,-0.2264186422823733,0.6570981349345363,0.3632432222366333,0.9310768842697144,0.03391317278146744,0,0,0,-1,-1,3052.37708675,unknown,2,2022-06-02T10:51:48.099+02:00,2022-06-02T10:17:13.754+02:00,512,1.445976,0,0,397.4887,0,0,2022-06-02T10:51:53.215+02:00,675852713.2145439,0,5.089844,101.3214,1,0.79
2022-06-02T10:51:53.913+02:00,1654159911.999942,53.22910106456729,10.39847931417128,36.73664,0,20,-1,-1,2.400000095367432,7.999579855010836,-9999,3058.190911375,0.188262939453125,1.064743041992188,1.200332641601562,3058.180917375,0.6955953275853167,1.716428279520464,-1.203259315486902,-2.481035709381104,-2.339014291763306,-1.091196179389954,-0.01930218935012817,-0.1790496110916138,1.284099102020264,XArbitraryZVertical,-0.5604942972313116,0.4603453539777381,-0.2189221475763123,0.6526878044137767,0.3555143773555756,0.9332152009010315,0.0521434061229229,0,0,0,-1,-1,3052.37708675,unknown,2,2022-06-02T10:51:48.099+02:00,2022-06-02T10:17:13.754+02:00,512,1.445976,0,0,397.4887,0,0,2022-06-02T10:51:53.215+02:00,675852713.2145439,0,5.089844,101.3214,1,0.79
2022-06-02T10:51:53.923+02:00,1654159911.999942,53.22910106456729,10.39847931417128,36.73664,0,20,-1,-1,2.400000095367432,7.999579855010836,-9999,3058.200905375,0.2220458984375,1.313949584960938,1.15692138671875,3058.190911375,0.7591416863618436,1.743838999148063,-1.212682943222719,-1.526857376098633,-4.10759449005127,-1.507523655891418,-0.1448492109775543,0.01023286581039429,1.216184377670288,XArbitraryZVertical,-0.5736253403504582,0.4484743953180705,-0.2093321242874198,0.6526904546114758,0.345273494720459,0.9365597367286682,0.06035063043236732,0,0,0,-1,-1,3052.37708675,unknown,2,2022-06-02T10:51:48.099+02:00,2022-06-02T10:17:13.754+02:00,512,1.445976,0,0,397.4887,0,0,2022-06-02T10:51:53.215+02:00,675852713.2145439,0,5.089844,101.3214,1,0.79
2022-06-02T10:51:53.933+02:00,1654159911.999942,53.22910106456729,10.39847931417128,36.73664,0,20,-1,-1,2.400000095367432,7.999579855010836,-9999,3058.210899375,0.145721435546875,1.616989135742188,1.185409545898438,3058.200905375,0.78696116685442,1.719727888588841,-1.228108180365754,0.1816966980695724,-5.940575122833252,-1.870826721191406,-0.1292515993118286,0.2302184700965881,1.094549894332886,XArbitraryZVertical,-0.5847049282729205,0.4278431278881045,-0.1987585183114576,0.6599737992475845,0.3323003351688385,0.9418547749519348,0.0498591922223568,0,0,0,-1,-1,3052.37708675,unknown,2,2022-06-02T10:51:48.099+02:00,2022-06-02T10:17:13.754+02:00,512,1.445976,0,0,397.4887,0,0,2022-06-02T10:51:53.215+02:00,675852713.2145439,0,5.089844,101.3214,1,0.79
2022-06-02T10:51:53.943+02:00,1654159911.999942,53.22910106456729,10.39847931417128,36.73664,0,20,-1,-1,2.400000095367432,7.999579855010836,-9999,3058.220894375,0.107574462890625,1.771011352539062,1.234573364257812,3058.210899375,0.7629739396830497,1.629919434034906,-1.249417732120831,1.811294317245483,-7.4576735496521,-2.214445829391479,-0.1187284588813782,0.5309048295021057,1.16514265537262,XArbitraryZVertical,-0.59207116533348,0.3984771526518493,-0.1878753498312148,0.674811436775799,0.3153227269649506,0.9488008618354797,0.01866461150348186,0,0,0,-1,-1,3052.37708675,unknown,2,2022-06-02T10:51:48.099+02:00,2022-06-02T10:17:13.754+02:00,512,1.445976,0,0,397.4887,0,0,2022-06-02T10:51:53.215+02:00,675852713.2145439,0,5.089844,101.3214,1,0.79
2022-06-02T10:51:53.952+02:00,1654159911.999942,53.22910106456729,10.39847931417128,36.73664,0,20,-1,-1,2.400000095367432,7.999579855010836,-9999,3058.230888375,0.08349609375,1.678817749023438,1.475341796875,3058.220894375,0.6847889748734951,1.474514292968394,-1.271446169876403,2.787541389465332,-8.727031707763672,-2.258700609207153,-0.1797180771827698,0.7595289945602417,1.21206533908844,XArbitraryZVertical,-0.5956671328223422,0.3619472935564201,-0.1759920203759971,0.6951270370646669,0.2935333847999573,0.9555283188819885,-0.02834964729845524,0,0,0,-1,-1,3052.37708675,unknown,2,2022-06-02T10:51:48.099+02:00,2022-06-02T10:17:13.754+02:00,512,1.445976,0,0,397.4887,0,0,2022-06-02T10:51:53.215+02:00,675852713.2145439,0,5.089844,101.3214,1,0.79
2022-06-02T10:51:53.963+02:00,1654159911.999942,53.22910106456729,10.39847931417128,36.73664,0,20,-1,-1,2.400000095367432,7.999579855010836,-9999,3058.240882375,-0.0478515625,1.383026123046875,1.573257446289062,3058.240882375,0.4568729460366384,1.061843999135141,-1.292581396570234,2.710945844650269,-10.69702339172363,-1.64969277381897,-0.2018051296472549,0.5688633322715759,1.696901082992554,XArbitraryZVertical,-0.5973719228940412,0.2761089089086011,-0.1411071989887741,0.7395939427407656,0.2398300021886826,0.9615471959114075,-0.1338213086128235,0,0,0,-1,-1,3052.37708675,unknown,2,2022-06-02T10:51:48.099+02:00,2022-06-02T10:17:13.754+02:00,512,1.445976,0,0,397.4887,0,0,2022-06-02T10:51:53.215+02:00,675852713.2145439,0,5.089844,101.3214,1,0.79
2022-06-02T10:51:53.973+02:00,1654159911.999942,53.22910106456729,10.39847931417128,36.73664,0,20,-1,-1,2.400000095367432,7.999579855010836,-9999,3058.250876375,-0.4398956298828125,0.63055419921875,5.14410400390625,3058.240882375,0.4568729460366384,1.061843999135141,-1.292581396570234,2.710945844650269,-10.69702339172363,-1.64969277381897,-0.2018051296472549,0.5688633322715759,1.696901082992554,XArbitraryZVertical,-0.5973719228940412,0.2761089089086011,-0.1411071989887741,0.7395939427407656,0.2398300021886826,0.9615471959114075,-0.1338213086128235,0,0,0,-1,-1,3052.37708675,unknown,2,2022-06-02T10:51:48.099+02:00,2022-06-02T10:17:13.754+02:00,512,1.445976,0,0,397.4887,0,0,2022-06-02T10:51:53.215+02:00,675852713.2145439,0,5.089844,101.3214,1,0.79
2022-06-02T10:51:53.983+02:00,1654159911.999942,53.22910106456729,10.39847931417128,36.73664,0,20,-1,-1,2.400000095367432,7.999579855010836,-9999,3058.260871375,-11.72515869140625,-2.960052490234375,-13.96171569824219,3058.250876375,0.375365527518517,0.8757107718790907,-1.296348510701385,0.3054756224155426,-8.683443069458008,-1.531376242637634,-0.3980045914649963,0.3227642774581909,1.83076810836792,XArbitraryZVertical,-0.6002420310141131,0.2300509744091376,-0.1167763494895974,0.7570662514522634,0.2081395089626312,0.9625750184059143,-0.1735721081495285,0,0,0,-1,-1,3052.37708675,unknown,2,2022-06-02T10:51:48.099+02:00,2022-06-02T10:17:13.754+02:00,512,1.445976,0,0,397.4887,0,0,2022-06-02T10:51:53.215+02:00,675852713.2145439,0,5.089844,101.3214,1,0.79
2022-06-02T10:51:53.993+02:00,1654159911.999942,53.22910106456729,10.39847931417128,36.73664,0,20,-1,-1,2.400000095367432,7.999579855010836,-9999,3058.270865375,1.836761474609375,2.20599365234375,-10.04637145996094,3058.260871375,0.4293509675130805,0.9753153383261349,-1.336313255683895,-8.562792778015137,3.135474681854248,-3.134726524353027,-5.224591255187988,-2.330697536468506,-2.459919452667236,XArbitraryZVertical,-0.6131114800901695,0.2427626670934677,-0.1358981085292023,0.7393864162886841,0.192349448800087,0.9726345539093018,-0.130321204662323,0,0,0,-1,-1,3052.37708675,unknown,2,2022-06-02T10:51:48.099+02:00,2022-06-02T10:17:13.754+02:00,512,1.445976,0,0,397.4887,0,0,2022-06-02T10:51:53.215+02:00,675852713.2145439,0,5.089844,101.3214,1,0.79
2022-06-02T10:51:54.003+02:00,1654159911.999942,53.22910106456729,10.39847931417128,36.73664,0,20,-1,-1,2.400000095367432,7.999579855010836,-9999,3058.280859375,-1.080245971679688,3.421188354492188,-7.140365600585938,3058.270865375,0.6367913474445204,1.176262426365724,-1.368624466147248,-3.061944723129272,-3.074368715286255,2.750242233276367,-5.776298522949219,-2.015048503875732,-14.41576862335205,XArbitraryZVertical,-0.6340692239066743,0.2436495949483194,-0.1312813227546627,0.7220501073485388,0.185371533036232,0.9796327948570251,-0.07718218863010406,0,0,0,-1,-1,3052.37708675,unknown,2,2022-06-02T10:51:48.099+02:00,2022-06-02T10:17:13.754+02:00,512,1.445976,0,0,397.4887,0,0,2022-06-02T10:51:53.215+02:00,675852713.2145439,0,5.089844,101.3214,1,0.79
2022-06-02T10:51:54.013+02:00,1654159911.999942,53.22910106456729,10.39847931417128,36.73664,0,20,-1,-1,2.400000095367432,7.999579855010836,-9999,3058.290854375,-0.26593017578125,2.862472534179688,-1.54736328125,3058.280859375,0.6918487524736892,1.226743586067252,-1.351225150897861,1.491323828697205,1.995650053024292,0.3037072718143463,0.832490086555481,2.486762523651123,-8.076570510864258,XArbitraryZVertical,-0.6333846935970099,0.2491774467454715,-0.1223073625787531,0.7223402130808758,0.2050465643405914,0.9759909510612488,-0.07346885651350021,0,0,0,-1,-1,3052.37708675,unknown,2,2022-06-02T10:51:48.099+02:00,2022-06-02T10:17:13.754+02:00,512,1.445976,0,0,397.4887,0,0,2022-06-02T10:51:53.215+02:00,675852713.2145439,0,5.089844,101.3214,1,0.79
2022-06-02T10:51:54.024+02:00,1654159911.999942,53.22910106456729,10.39847931417128,36.73664,0,20,-1,-1,2.400000095367432,7.999579855010836,-9999,3058.300848375,0.3031158447265625,2.14898681640625,1.297637939453125,3058.290854375,0.5921277834752433,1.157523701741348,-1.356351801826997,2.295381546020508,2.897051334381104,-1.38735044002533,-1.317767739295959,2.190858602523804,-4.407959461212158,XArbitraryZVertical,-0.6266237188048035,0.2541863076112589,-0.1380396589255401,0.7236553157958299,0.1948886960744858,0.9770947694778442,-0.08546407520771027,0,0,0,-1,-1,3052.37708675,unknown,2,2022-06-02T10:51:48.099+02:00,2022-06-02T10:17:13.754+02:00,512,1.445976,0,0,397.4887,0,0,2022-06-02T10:51:53.215+02:00,675852713.2145439,0,5.089844,101.3214,1,0.79
2022-06-02T10:51:54.033+02:00,1654159911.999942,53.22910106456729,10.39847931417128,36.73664,0,20,-1,-1,2.400000095367432,7.999579855010836,-9999,3058.310842375,-0.270904541015625,2.08416748046875,1.892303466796875,3058.300848375,0.4489131692732949,1.043523172889543,-1.353090380777809,3.243041276931763,1.923217415809631,-0.6959541440010071,0.1888489127159119,1.453108787536621,0.4457786083221436,XArbitraryZVertical,-0.6156791459051821,0.2580667164490392,-0.1537674871754512,0.7284889998718768,0.186654657125473,0.9763954877853394,-0.1086815148591995,0,0,0,-1,-1,3052.37708675,unknown,2,2022-06-02T10:51:48.099+02:00,2022-06-02T10:17:13.754+02:00,512,1.445976,0,0,397.4887,0,0,2022-06-02T10:51:53.215+02:00,675852713.2145439,0,5.089844,101.3214,1,0.79
2022-06-02T10:51:54.043+02:00,1654159911.999942,53.22910106456729,10.39847931417128,36.73664,0,20,-1,-1,2.400000095367432,7.999579855010836,-9999,3058.320836375,-0.3296661376953125,1.583938598632812,2.174835205078125,3058.310842375,0.2921536380571097,0.9042265146346005,-1.343551242395833,3.498538255691528,0.6510231494903564,-1.340685248374939,-0.1003635376691818,1.113599896430969,1.826385974884033,XArbitraryZVertical,-0.6036541463400763,0.2568124254217395,-0.1665167042442582,0.736153015934612,0.1770694851875305,0.9742907285690308,-0.1392980962991714,0,0,0,-1,-1,3052.37708675,unknown,2,2022-06-02T10:51:48.099+02:00,2022-06-02T10:17:13.754+02:00,512,1.445976,0,0,397.4887,0,0,2022-06-02T10:51:53.215+02:00,675852713.2145439,0,5.089844,101.3214,1,0.79
2022-06-02T10:51:54.053+02:00,1654159911.999942,53.22910106456729,10.39847931417128,36.73664,0,20,-1,-1,2.400000095367432,7.999579855010836,-9999,3058.330831375,0.1338958740234375,0.523529052734375,1.557830810546875,3058.320836375,0.1444517477924393,0.7671877206342984,-1.333212366329807,2.910175085067749,0.6933946013450623,-1.41167676448822,-0.5036037564277649,0.9904319047927856,2.313879013061523,XArbitraryZVertical,-0.5931169132697474,0.2519924853917344,-0.1782140947089988,0.743607367466473,0.1633633524179459,0.9719094634056091,-0.1694242358207703,0,0,0,-1,-1,3052.37708675,unknown,2,2022-06-02T10:51:48.099+02:00,2022-06-02T10:17:13.754+02:00,512,1.445976,0,0,397.4887,0,0,2022-06-02T10:51:53.215+02:00,675852713.2145439,0,5.089844,101.3214,1,0.79
2022-06-02T10:51:54.063+02:00,1654159911.999942,53.22910106456729,10.39847931417128,36.73664,0,20,-1,-1,2.400000095367432,7.999579855010836,-9999,3058.340825375,0.4548492431640625,-0.0627288818359375,0.9244842529296875,3058.330831375,0.03320417399820713,0.6659417023142543,-1.322196375738473,2.221987962722778,0.3695023059844971,-1.055689454078674,-0.2295682579278946,0.08063828945159912,2.11002516746521,XArbitraryZVertical,-0.5844643136023144,0.2483217765632863,-0.1882703653540286,0.7491942331374677,0.1520078629255295,0.9692578315734863,-0.193475529551506,0,0,0,-1,-1,3052.37708675,unknown,2,2022-06-02T10:51:48.099+02:00,2022-06-02T10:17:13.754+02:00,512,1.445976,0,0,397.4887,0,0,2022-06-02T10:51:53.215+02:00,675852713.2145439,0,5.089844,101.3214,1,0.79
2022-06-02T10:51:54.073+02:00,1654159911.999942,53.22910106456729,10.39847931417128,36.73664,0,20,-1,-1,2.400000095367432,7.999579855010836,-9999,3058.350819375,0.4486236572265625,0.225372314453125,0.4815216064453125,3058.340825375,-0.04011969346903477,0.5939389624296381,-1.315568548083761,0.9302071928977966,-0.7160841822624207,-1.035701632499695,0.2190490067005157,-0.8332980275154114,1.437256336212158,XArbitraryZVertical,-0.5798416071185167,0.2432471132491148,-0.1940423757298162,0.7529688351471332,0.1412873119115829,0.9676058292388916,-0.2092291116714478,0,0,0,-1,-1,3052.37708675,unknown,2,2022-06-02T10:51:48.099+02:00,2022-06-02T10:17:13.754+02:00,512,1.445976,0,0,397.4887,0,0,2022-06-02T10:51:53.215+02:00,675852713.2145439,0,5.089844,101.3214,1,0.79
2022-06-02T10:51:54.083+02:00,1654159911.999942,53.22910106456729,10.39847931417128,36.73664,0,20,-1,-1,2.400000095367432,7.999579855010836,-9999,3058.360813375,0.1271209716796875,0.9601898193359375,0.29705810546875,3058.350819375,-0.08445957581278898,0.5393737131142259,-1.319398108286099,-0.2692123651504517,-1.634593725204468,-1.163204669952393,0.3958433270454407,-0.9966570734977722,0.8825859427452087,XArbitraryZVertical,-0.5813116815790152,0.2352776212130665,-0.1952968623634828,0.7540426377752936,0.1277620196342468,0.9685655236244202,-0.2134423404932022,0,0,0,-1,-1,3052.37708675,unknown,2,2022-06-02T10:51:48.099+02:00,2022-06-02T10:17:13.754+02:00,512,1.445976,0,0,397.4887,0,0,2022-06-02T10:51:53.215+02:00,675852713.2145439,0,5.089844,101.3214,1,0.79
2022-06-02T10:51:54.093+02:00,1654159911.999942,53.22910106456729,10.39847931417128,36.73664,0,20,-1,-1,2.400000095367432,7.999579855010836,-9999,3058.370808375,-0.0731048583984375,1.291793823242188,0.1489410400390625,3058.360813375,-0.1212366549197946,0.4863840792397018,-1.328652071360023,-0.3204903900623322,-1.830355167388916,-1.222003102302551,0.1967244148254395,-0.3669291138648987,0.577241063117981,XArbitraryZVertical,-0.5858022549263198,0.225494062905969,-0.194482791593928,0.7537668299844777,0.1120829731225967,0.9708260297775269,-0.2119762897491455,0,0,0,-1,-1,3052.37708675,unknown,2,2022-06-02T10:51:48.099+02:00,2022-06-02T10:17:13.754+02:00,512,1.445976,0,0,397.4887,0,0,2022-06-02T10:51:53.215+02:00,675852713.2145439,0,5.089844,101.3214,1,0.79
2022-06-02T10:51:54.103+02:00,1654159911.999942,53.22910106456729,10.39847931417128,36.73664,0,20,-1,-1,2.400000095367432,7.999579855010836,-9999,3058.380802375,-0.1366119384765625,1.120468139648438,-0.0172576904296875,3058.370808375,-0.1678441400094005,0.4240913583953188,-1.33394930992243,0.3627262711524963,-1.591362357139587,-1.174614906311035,-0.08097279071807861,0.2258695363998413,0.445984423160553,XArbitraryZVertical,-0.5887672739331984,0.2154688727551521,-0.1941199023846109,0.7544823430614663,0.09655202925205231,0.9720826148986816,-0.2138525247573853,0,0,0,-1,-1,3052.37708675,unknown,2,2022-06-02T10:51:48.099+02:00,2022-06-02T10:17:13.754+02:00,512,1.445976,0,0,397.4887,0,0,2022-06-02T10:51:53.215+02:00,675852713.2145439,0,5.089844,101.3214,1,0.79
2022-06-02T10:51:54.113+02:00,1654159911.999942,53.22910106456729,10.39847931417128,36.73664,0,20,-1,-1,2.400000095367432,7.999579855010836,-9999,3058.390796375,-0.051971435546875,0.8130340576171875,-0.074462890625,3058.380802375,-0.224575296308741,0.3550448959887569,-1.332487094137038,0.8730916380882263,-1.241719961166382,-1.151053309440613,-0.2016145288944244,0.2813283801078796,0.2796098589897156,XArbitraryZVertical,-0.5889376108775174,0.2061168803262089,-0.1951579530396302,0.7566911781104333,0.08206193149089813,0.9717384576797485,-0.2213366478681564,0,0,0,-1,-1,3052.37708675,unknown,2,2022-06-02T10:51:48.099+02:00,2022-06-02T10:17:13.754+02:00,512,1.445976,0,0,397.4887,0,0,2022-06-02T10:51:53.215+02:00,675852713.2145439,0,5.089844,101.3214,1,0.79
2022-06-02T10:51:54.123+02:00,1654159911.999942,53.22910106456729,10.39847931417128,36.73664,0,20,-1,-1,2.400000095367432,7.999579855010836,-9999,3058.400791375,0.0399017333984375,0.67547607421875,-0.2215423583984375,3058.390796375,-0.2843880909367019,0.2859509605622394,-1.327381543040041,0.9223105311393738,-1.011955976486206,-1.22215473651886,-0.1778317987918854,-0.01916581392288208,0.1784962713718414,XArbitraryZVertical,-0.5876825982896691,0.1975191282696188,-0.1973849596860633,0.7593775980097403,0.06798379123210907,0.9705206155776978,-0.2312307208776474,0,0,0,-1,-1,3052.37708675,unknown,2,2022-06-02T10:51:48.099+02:00,2022-06-02T10:17:13.754+02:00,512,1.445976,0,0,397.4887,0,0,2022-06-02T10:51:53.215+02:00,675852713.2145439,0,5.089844,101.3214,1,0.79
2022-06-02T10:51:54.133+02:00,1654159911.999942,53.22910106456729,10.39847931417128,36.73664,0,20,-1,-1,2.400000095367432,7.999579855010836,-9999,3058.410785375,0.010589599609375,0.636627197265625,-0.3385467529296875,3058.400791375,-0.3471303014586622,0.2159574519048141,-1.323119648366397,0.6610906720161438,-0.8518446683883667,-1.523520231246948,-0.04140818119049072,-0.244554877281189,0.1052564978599548,XArbitraryZVertical,-0.5869089246753176,0.1892329541710684,-0.2006818035292226,0.7612197962188659,0.05253185704350471,0.9694846272468567,-0.2394576072692871,0,0,0,-1,-1,3052.37708675,unknown,2,2022-06-02T10:51:48.099+02:00,2022-06-02T10:17:13.754+02:00,512,1.445976,0,0,397.4887,0,0,2022-06-02T10:51:53.215+02:00,675852713.2145439,0,5.089844,101.3214,1,0.79
2022-06-02T10:51:54.144+02:00,1654159911.999942,53.22910106456729,10.39847931417128,36.73664,0,20,-1,-1,2.400000095367432,7.999579855010836,-9999,3058.420779375,-0.0528717041015625,0.6818084716796875,-0.267242431640625,3058.410785375,-0.4182648824836425,0.1391229894595772,-1.320223416867505,0.5423320531845093,-0.7770969271659851,-1.78100848197937,-0.006690848618745804,-0.3212944865226746,-0.05910943448543549,XArbitraryZVertical,-0.5869949712503579,0.1807082264776588,-0.2052929782975817,0.7619948264501929,0.03438557684421539,0.9687705039978027,-0.245562881231308,0,0,0,-1,-1,3052.37708675,unknown,2,2022-06-02T10:51:48.099+02:00,2022-06-02T10:17:13.754+02:00,512,1.445976,0,0,397.4887,0,0,2022-06-02T10:51:53.215+02:00,675852713.2145439,0,5.089844,101.3214,1,0.79
2022-06-02T10:51:54.166+02:00,1654159911.999942,53.22910106456729,10.39847931417128,36.73664,0,20,-1,-1,2.400000095367432,7.999579855010836,-9999,3058.430773375,-0.163726806640625,0.80853271484375,-0.2071075439453125,3058.420779375,-0.494485248363803,0.05723401221847831,-1.316713858772038,0.538394570350647,-0.8465825319290161,-1.902690529823303,-0.02968287467956543,-0.3249653577804565,-0.06471282243728638,XArbitraryZVertical,-0.5874313358902766,0.1716144406730354,-0.2104765732489438,0.7623467102078878,0.01437833905220032,0.9678943157196045,-0.2509458065032959,0,0,0,-1,-1,3052.37708675,unknown,2,2022-06-02T10:51:48.099+02:00,2022-06-02T10:17:13.754+02:00,512,1.445976,0,0,397.4887,0,0,2022-06-02T10:51:53.215+02:00,675852713.2145439,0,5.089844,101.3214,1,0.79
2022-06-02T10:51:54.174+02:00,1654159911.999942,53.22910106456729,10.39847931417128,36.73664,0,20,-1,-1,2.400000095367432,7.999579855010836,-9999,3058.440768375,-0.3083648681640625,0.8863525390625,-0.1932525634765625,3058.430773375,-0.571367542793767,-0.0256406909247797,-1.311226601164279,0.6073078513145447,-0.8315841555595398,-1.961354851722717,-0.1002769321203232,-0.222649872303009,0.02391433715820312,XArbitraryZVertical,-0.5877517846600739,0.162042029353096,-0.2158690993661044,0.7626865569564715,-0.006580342072993517,0.9665005207061768,-0.2565804421901703,0,0,0,-1,-1,3052.37708675,unknown,2,2022-06-02T10:51:48.099+02:00,2022-06-02T10:17:13.754+02:00,512,1.445976,0,0,397.4887,0,0,2022-06-02T10:51:53.215+02:00,675852713.2145439,0,5.089844,101.3214,1,0.79
2022-06-02T10:51:54.177+02:00,1654159911.999942,53.22910106456729,10.39847931417128,36.73664,0,20,-1,-1,2.400000095367432,7.999579855010836,-9999,3058.450762375,-0.4231414794921875,0.8792266845703125,-0.193634033203125,3058.440768375,-0.6459421168205217,-0.1048395337420798,-1.303547542984318,0.6439138650894165,-0.6015976071357727,-1.995044589042664,-0.2113326489925385,-0.1053398251533508,0.06348618865013123,XArbitraryZVertical,-0.5876650463950197,0.1527594253489519,-0.2218378576624384,0.7629562469242342,-0.02763519436120987,0.9645010828971863,-0.2626287043094635,0,0,0,-1,-1,3052.37708675,unknown,2,2022-06-02T10:51:48.099+02:00,2022-06-02T10:17:13.754+02:00,512,1.445976,0,0,397.4887,0,0,2022-06-02T10:51:53.215+02:00,675852713.2145439,0,5.089844,101.3214,1,0.79
2022-06-02T10:51:54.183+02:00,1654159911.999942,53.22910106456729,10.39847931417128,36.73664,0,20,-1,-1,2.400000095367432,7.999579855010836,-9999,3058.460756375,-0.4774932861328125,0.8922271728515625,-0.1793212890625,3058.450762375,-0.7168905558349393,-0.1777498411845285,-1.294156239290869,0.6416171789169312,-0.3139163255691528,-2.023648977279663,-0.3281263411045074,-0.07579386234283447,0.07421103119850159,XArbitraryZVertical,-0.5871574142030858,0.1443444435939117,-0.2286879563297951,0.7629630908029437,-0.04829269275069237,0.961978554725647,-0.2688217163085938,0,0,0,-1,-1,3052.37708675,unknown,2,2022-06-02T10:51:48.099+02:00,2022-06-02T10:17:13.754+02:00,512,1.445976,0,0,397.4887,0,0,2022-06-02T10:51:53.215+02:00,675852713.2145439,0,5.089844,101.3214,1,0.79
2022-06-02T10:51:54.193+02:00,1654159911.999942,53.22910106456729,10.39847931417128,36.73664,0,20,-1,-1,2.400000095367432,7.999579855010836,-9999,3058.470750375,-0.5162353515625,0.925567626953125,-0.2106781005859375,3058.460756375,-0.7839114203426019,-0.2440509431249217,-1.284371330613002,0.4446614682674408,-0.07540261745452881,-2.011752367019653,-0.3902280926704407,-0.08017075061798096,0.08598101139068604,XArbitraryZVertical,-0.5866441744236103,0.1370123025795856,-0.2362471690224584,0.7624063545971776,-0.06826794892549515,0.9592600464820862,-0.2741524875164032,0,0,0,-1,-1,3052.37708675,unknown,2,2022-06-02T10:51:48.099+02:00,2022-06-02T10:17:13.754+02:00,512,1.445976,0,0,397.4887,0,0,2022-06-02T10:51:53.215+02:00,675852713.2145439,0,5.089844,101.3214,1,0.79
2022-06-02T10:51:54.203+02:00,1654159911.999942,53.22910106456729,10.39847931417128,36.73664,0,20,-1,-1,2.400000095367432,7.999579855010836,-9999,3058.480745375,-0.5726165771484375,0.9445343017578125,-0.246551513671875,3058.470750375,-0.8487235096846818,-0.3059016174788796,-1.276254657873831,0.09698953479528427,0.1252479255199432,-1.995493054389954,-0.4115372896194458,-0.0454668402671814,0.09239113330841064,XArbitraryZVertical,-0.5869040874531579,0.1308873532350867,-0.2441465361383525,0.7607920341558666,-0.08742509037256241,0.9569352865219116,-0.2768241763114929,0,0,0,-1,-1,3052.37708675,unknown,2,2022-06-02T10:51:48.099+02:00,2022-06-02T10:17:13.754+02:00,512,1.445976,0,0,397.4887,0,0,2022-06-02T10:51:53.215+02:00,675852713.2145439,0,5.089844,101.3214,1,0.79
2022-06-02T10:51:54.213+02:00,1654159911.999942,53.22910106456729,10.39847931417128,36.73664,0,20,-1,-1,2.400000095367432,7.999579855010836,-9999,3058.490739375,-0.6022491455078125,0.9751434326171875,-0.251434326171875,3058.480745375,-0.9140176734160477,-0.3661851771016097,-1.270208284155476,-0.2403494566679001,0.2904736995697021,-2.0062255859375,-0.4406932294368744,-0.020943284034729,0.03723937273025513,XArbitraryZVertical,-0.5881562745462297,0.1258826473132139,-0.252355052263511,0.7579858789083979,-0.1060138791799545,0.955162525177002,-0.2764514982700348,0,0,0,-1,-1,3052.37708675,unknown,2,2022-06-02T10:51:48.099+02:00,2022-06-02T10:17:13.754+02:00,512,1.445976,0,0,397.4887,0,0,2022-06-02T10:51:53.215+02:00,675852713.2145439,0,5.089844,101.3214,1,0.79
2022-06-02T10:51:54.223+02:00,1654159911.999942,53.22910106456729,10.39847931417128,36.73664,0,20,-1,-1,2.400000095367432,7.999579855010836,-9999,3058.500733375,-0.607757568359375,0.9955596923828125,-0.313934326171875,3058.490739375,-0.9811912343806852,-0.427012114059328,-1.26650345272829,-0.6201838850975037,0.3666100203990936,-1.949692249298096,-0.4703487753868103,0.005276083946228027,0.03348734974861145,XArbitraryZVertical,-0.5905942398970961,0.1218239667303675,-0.2605756262578335,0.7539612530545584,-0.1240878254175186,0.9540590643882751,-0.2727147340774536,0,0,0,-1,-1,3052.37708675,unknown,2,2022-06-02T10:51:48.099+02:00,2022-06-02T10:17:13.754+02:00,512,1.445976,0,0,397.4887,0,0,2022-06-02T10:51:53.215+02:00,675852713.2145439,0,5.089844,101.3214,1,0.79
2022-06-02T10:51:54.233+02:00,1654159911.999942,53.22910106456729,10.39847931417128,36.73664,0,20,-1,-1,2.400000095367432,7.999579855010836,-9999,3058.510727375,-0.6364593505859375,0.9970855712890625,-0.3675537109375,3058.500733375,-1.048587682309158,-0.4874745631935983,-1.26485317175945,-0.8738985061645508,0.3952519297599792,-1.81167471408844,-0.4665886163711548,0.03218483924865723,-0.02025273442268372,XArbitraryZVertical,-0.5940263192074964,0.1186517099142375,-0.2683580453563802,0.7490249124246789,-0.1410773098468781,0.9535633325576782,-0.2661090195178986,0,0,0,-1,-1,3052.37708675,unknown,2,2022-06-02T10:51:48.099+02:00,2022-06-02T10:17:13.754+02:00,512,1.445976,0,0,397.4887,0,0,2022-06-02T10:51:53.215+02:00,675852713.2145439,0,5.089844,101.3214,1,0.79
2022-06-02T10:51:54.243+02:00,1654159911.999942,53.22910106456729,10.39847931417128,36.73664,0,20,-1,-1,2.400000095367432,7.999579855010836,-9999,3058.520722375,-0.6582794189453125,1.038253784179688,-0.43731689453125,3058.510727375,-1.118137933561482,-0.5496918305101002,-1.264367450182847,-1.124345064163208,0.453291267156601,-1.871277332305908,-0.4586187303066254,0.04577422142028809,-0.08293178677558899,XArbitraryZVertical,-0.598269338805192,0.116039685624662,-0.2758770714172501,0.7433036110370962,-0.1575921475887299,0.9534168839454651,-0.2572171688079834,0,0,0,-1,-1,3052.37708675,unknown,2,2022-06-02T10:51:48.099+02:00,2022-06-02T10:17:13.754+02:00,512,1.445976,0,0,397.4887,0,0,2022-06-02T10:51:53.215+02:00,675852713.2145439,0,5.089844,101.3214,1,0.79
2022-06-02T10:51:54.253+02:00,1654159911.999942,53.22910106456729,10.39847931417128,36.73664,0,20,-1,-1,2.400000095367432,7.999579855010836,-9999,3058.530716375,-0.6181182861328125,1.081558227539062,-0.4174346923828125,3058.520722375,-1.191968015841424,-0.6145384894206084,-1.264003477642754,-1.277425527572632,0.6558733582496643,-1.822973608970642,-0.4819530248641968,0.05633640289306641,-0.1596546620130539,XArbitraryZVertical,-0.602996033565707,0.1141129854022241,-0.2838145173938192,0.7367653734786828,-0.1741290688514709,0.953307032585144,-0.2467480152845383,0,0,0,-1,-1,3052.37708675,unknown,2,2022-06-02T10:51:48.099+02:00,2022-06-02T10:17:13.754+02:00,512,1.445976,0,0,397.4887,0,0,2022-06-02T10:51:53.215+02:00,675852713.2145439,0,5.089844,101.3214,1,0.79
2022-06-02T10:51:54.263+02:00,1654159911.999942,53.22910106456729,10.39847931417128,36.73664,0,20,-1,-1,2.400000095367432,7.999579855010836,-9999,3058.540710375,-0.6024169921875,1.103759765625,-0.41131591796875,3058.540710375,-1.336856508061189,-0.7377437257950797,-1.263667544717419,-1.45432186126709,0.8501465320587158,-1.588826417922974,-0.40060955286026,0.1402850747108459,-0.1830228865146637,XArbitraryZVertical,-0.6126624620556161,0.1130794910995359,-0.2993387292720606,0.7226714916771687,-0.2033485621213913,0.9532055258750916,-0.2237154692411423,0,0,0,-1,-1,3052.37708675,unknown,2,2022-06-02T10:51:48.099+02:00,2022-06-02T10:17:13.754+02:00,512,1.445976,0,0,397.4887,0,0,2022-06-02T10:51:53.215+02:00,675852713.2145439,0,5.089844,101.3214,1,0.79
2022-06-02T10:51:54.273+02:00,1654159911.999942,53.22910106456729,10.39847931417128,36.73664,0,20,-1,-1,2.400000095367432,7.999579855010836,-9999,3058.550705375,-0.599578857421875,1.089920043945312,-0.3968658447265625,3058.540710375,-1.336856508061189,-0.7377437257950797,-1.263667544717419,-1.45432186126709,0.8501465320587158,-1.588826417922974,-0.40060955286026,0.1402850747108459,-0.1830228865146637,XArbitraryZVertical,-0.6126624620556161,0.1130794910995359,-0.2993387292720606,0.7226714916771687,-0.2033485621213913,0.9532055258750916,-0.2237154692411423,0,0,0,-1,-1,3052.37708675,unknown,2,2022-06-02T10:51:48.099+02:00,2022-06-02T10:17:13.754+02:00,512,1.445976,0,0,397.4887,0,0,2022-06-02T10:51:53.215+02:00,675852713.2145439,0,5.089844,101.3214,1,0.79
2022-06-02T10:51:54.283+02:00,1654159911.999942,53.22910106456729,10.39847931417128,36.73664,0,20,-1,-1,2.400000095367432,7.999579855010836,-9999,3058.560699375,-0.5794677734375,1.098953247070312,-0.3708343505859375,3058.550705375,-1.406970818819497,-0.7959574961565908,-1.263142171389259,-1.404935359954834,0.8734385371208191,-1.523971557617188,-0.3876413106918335,0.1467916369438171,-0.1989566683769226,XArbitraryZVertical,-0.617398186309012,0.113541140975015,-0.3067982399821932,0.7154038869890128,-0.2163778096437454,0.9530465602874756,-0.2118557840585709,0,0,0,-1,-1,3052.37708675,unknown,2,2022-06-02T10:51:48.099+02:00,2022-06-02T10:17:13.754+02:00,512,1.445976,0,0,397.4887,0,0,2022-06-02T10:51:53.215+02:00,675852713.2145439,0,5.089844,101.3214,1,0.79
2022-06-02T10:51:54.293+02:00,1654159911.999942,53.22910106456729,10.39847931417128,36.73664,0,20,-1,-1,2.400000095367432,7.999579855010836,-9999,3058.570693375,-0.5978546142578125,1.145309448242188,-0.30548095703125,3058.560699375,-1.472062151010539,-0.8490447462340199,-1.261599492567777,-1.273982644081116,0.9331504106521606,-1.385184407234192,-0.3582826256752014,0.1366855502128601,-0.1819488406181335,XArbitraryZVertical,-0.6216219964086257,0.114292056516835,-0.3139879124805446,0.7084736640294408,-0.22841776907444,0.9525782465934753,-0.2010468393564224,0,0,0,-1,-1,3052.37708675,unknown,2,2022-06-02T10:51:48.099+02:00,2022-06-02T10:17:13.754+02:00,512,1.445976,0,0,397.4887,0,0,2022-06-02T10:51:53.215+02:00,675852713.2145439,0,5.089844,101.3214,1,0.79
2022-06-02T10:51:54.303+02:00,1654159911.999942,53.22910106456729,10.39847931417128,36.73664,0,20,-1,-1,2.400000095367432,7.999579855010836,-9999,3058.580687375,-0.6122283935546875,1.221572875976562,-0.2466888427734375,3058.570693375,-1.530103113921647,-0.8943093851094174,-1.258926469840779,-1.118937849998474,1.082329750061035,-1.30346405506134,-0.345862865447998,0.1624200344085693,-0.1519869863986969,XArbitraryZVertical,-0.6249869668963131,0.115507075571866,-0.3211695542816662,0.702068062119233,-0.2392659187316895,0.9517614841461182,-0.1920988112688065,0,0,0,-1,-1,3052.37708675,unknown,2,2022-06-02T10:51:48.099+02:00,2022-06-02T10:17:13.754+02:00,512,1.445976,0,0,397.4887,0,0,2022-06-02T10:51:53.215+02:00,675852713.2145439,0,5.089844,101.3214,1,0.79
2022-06-02T10:51:54.312+02:00,1654159911.999942,53.22910106456729,10.39847931417128,36.73664,0,20,-1,-1,2.400000095367432,7.999579855010836,-9999,3058.590682375,-0.584869384765625,1.261383056640625,-0.1351776123046875,3058.580687375,-1.582464414907426,-0.9322825606959885,-1.255441299933568,-1.022420525550842,1.282607316970825,-1.223095297813416,-0.3586176335811615,0.2364322543144226,-0.09665681421756744,XArbitraryZVertical,-0.6275238027827627,0.1174202764612035,-0.3286689658704945,0.6959907498957458,-0.2490483522415161,0.9506863355636597,-0.1848527044057846,0,0,0,-1,-1,3052.37708675,unknown,2,2022-06-02T10:51:48.099+02:00,2022-06-02T10:17:13.754+02:00,512,1.445976,0,0,397.4887,0,0,2022-06-02T10:51:53.215+02:00,675852713.2145439,0,5.089844,101.3214,1,0.79
2022-06-02T10:51:54.322+02:00,1654159911.999942,53.22910106456729,10.39847931417128,36.73664,0,20,-1,-1,2.400000095367432,7.999579855010836,-9999,3058.600676375,-0.54150390625,1.216629028320312,-0.11566162109375,3058.590682375,-1.631475121467105,-0.965012955500981,-1.251763474657076,-1.059821963310242,1.498879194259644,-1.154853940010071,-0.345496267080307,0.2967680096626282,-0.00876973569393158,XArbitraryZVertical,-0.6294909906780313,0.1201856214432948,-0.3365280611336784,0.6899602623459158,-0.2578361630439758,0.9495391845703125,-0.1785930246114731,0,0,0,-1,-1,3052.37708675,unknown,2,2022-06-02T10:51:48.099+02:00,2022-06-02T10:17:13.754+02:00,512,1.445976,0,0,397.4887,0,0,2022-06-02T10:51:53.215+02:00,675852713.2145439,0,5.089844,101.3214,1,0.79
2022-06-02T10:51:54.333+02:00,1654159911.999942,53.22910106456729,10.39847931417128,36.73664,0,20,-1,-1,2.400000095367432,7.999579855010836,-9999,3058.610670375,-0.4952239990234375,1.115707397460938,-0.1152801513671875,3058.600676375,-1.680363894760715,-0.9950006990310448,-1.248563503461531,-1.13973867893219,1.781508684158325,-1.100307583808899,-0.2964958548545837,0.3039107322692871,0.06086347997188568,XArbitraryZVertical,-0.631163799390884,0.124154567327998,-0.3448866145153254,0.6835723032056041,-0.2656226456165314,0.9485306739807129,-0.1724358052015305,0,0,0,-1,-1,3052.37708675,unknown,2,2022-06-02T10:51:48.099+02:00,2022-06-02T10:17:13.754+02:00,512,1.445976,0,0,397.4887,0,0,2022-06-02T10:51:53.215+02:00,675852713.2145439,0,5.089844,101.3214,1,0.79
