loggingTime(txt),locationTimestamp_since1970(s),locationLatitude(WGS84),locationLongitude(WGS84),locationAltitude(m),locationSpeed(m/s),locationSpeedAccuracy(m/s),locationCourse(°),locationCourseAccuracy(°),locationVerticalAccuracy(m),locationHorizontalAccuracy(m),locationFloor(Z),accelerometerTimestamp_sinceReboot(s),accelerometerAccelerationX(G),accelerometerAccelerationY(G),accelerometerAccelerationZ(G),motionTimestamp_sinceReboot(s),motionYaw(rad),motionRoll(rad),motionPitch(rad),motionRotationRateX(rad/s),motionRotationRateY(rad/s),motionRotationRateZ(rad/s),motionUserAccelerationX(G),motionUserAccelerationY(G),motionUserAccelerationZ(G),motionAttitudeReferenceFrame(txt),motionQuaternionX(R),motionQuaternionY(R),motionQuaternionZ(R),motionQuaternionW(R),motionGravityX(G),motionGravityY(G),motionGravityZ(G),motionMagneticFieldX(µT),motionMagneticFieldY(µT),motionMagneticFieldZ(µT),motionHeading(°),motionMagneticFieldCalibrationAccuracy(Z),activityTimestamp_sinceReboot(s),activity(txt),activityActivityConfidence(Z),activityActivityStartDate(txt),pedometerStartDate(txt),pedometerNumberofSteps(N),pedometerAverageActivePace(s/m),pedometerCurrentPace(s/m),pedometerCurrentCadence(steps/s),pedometerDistance(m),pedometerFloorAscended(N),pedometerFloorDescended(N),pedometerEndDate(txt),altimeterTimestamp_sinceReboot(s),altimeterReset(bool),altimeterRelativeAltitude(m),altimeterPressure(kPa),batteryState(N),batteryLevel(R)
2022-06-02T10:56:08.372+02:00,1654160168.000345,53.22910133269347,10.39854020390932,36.84525,0,20,-1,-1,2.400000095367432,7.999579855010837,-9999,3306.497544791667,-0.142669677734375,-0.281585693359375,-0.968994140625,3306.487550791667,-0.3330688263682699,-0.009659353399289965,0.5337860497544326,0.04901624470949173,0.1532768309116364,-0.4743803143501282,-0.211670458316803,0.3169933557510376,-0.1046988964080811,XArbitraryZVertical,0.2593117379968871,-0.04831205396097896,-0.1611510478755845,0.9510276477836976,-0.008315481245517731,-0.5087963342666626,-0.8608467578887939,0,0,0,-1,-1,3304.55154975,unknown,2,2022-06-02T10:56:06.410+02:00,2022-06-02T10:17:13.754+02:00,521,1.631355,0,0,405.4342,0,0,2022-06-02T10:55:58.733+02:00,675852958.7332413,0,4.773438,101.3258,1,0.77
2022-06-02T10:56:08.375+02:00,1654160168.000345,53.22910133269347,10.39854020390932,36.84525,0,20,-1,-1,2.400000095367432,7.999579855010837,-9999,3306.507538791667,-0.044219970703125,-0.2912139892578125,-0.9414520263671875,3306.497544791667,-0.3381562264305325,-0.004679231922801581,0.5347075545404245,0.1144617944955826,0.3025586605072021,-0.3883521258831024,-0.1928580403327942,0.2567360401153564,-0.1103863716125488,XArbitraryZVertical,0.2600326125382652,-0.0466787666284843,-0.1629043057509756,0.950613630744343,-0.004026079084724188,-0.5095894336700439,-0.8604082465171814,0,0,0,-1,-1,3304.55154975,unknown,2,2022-06-02T10:56:06.410+02:00,2022-06-02T10:17:13.754+02:00,521,1.631355,0,0,405.4342,0,0,2022-06-02T10:55:58.733+02:00,675852958.7332413,0,4.773438,101.3258,1,0.77
2022-06-02T10:56:08.382+02:00,1654160168.000345,53.22910133269347,10.39854020390932,36.84525,0,20,-1,-1,2.400000095367432,7.999579855010837,-9999,3306.517532791667,0.003936767578125,-0.2888946533203125,-0.9100494384765625,3306.507538791667,-0.3422060472792734,0.0005128937934215877,0.5358469387626043,0.1103400215506554,0.309363842010498,-0.3267748057842255,-0.08981170505285263,0.2178448438644409,-0.0987054705619812,XArbitraryZVertical,0.2609059702563105,-0.0448316517245826,-0.1641277182307022,0.9502527240808213,0.0004410047840792686,-0.5105694532394409,-0.8598363995552063,0,0,0,-1,-1,3304.55154975,unknown,2,2022-06-02T10:56:06.410+02:00,2022-06-02T10:17:13.754+02:00,521,1.631355,0,0,405.4342,0,0,2022-06-02T10:55:58.733+02:00,675852958.7332413,0,4.773438,101.3258,1,0.77
2022-06-02T10:56:08.386+02:00,1654160168.000345,53.22910133269347,10.39854020390932,36.84525,0,20,-1,-1,2.400000095367432,7.999579855010837,-9999,3306.527527791667,0.00042724609375,-0.2848052978515625,-0.9161376953125,3306.517532791667,-0.3463038808567161,0.005461769303589409,0.5370710821384567,0.1433148831129074,0.2596178650856018,-0.3795471787452698,-0.01960060000419617,0.2214910387992859,-0.06374508142471313,XArbitraryZVertical,0.2618050037391019,-0.04311761654557875,-0.165398960356661,0.9498642246973303,0.004692788235843182,-0.5116216540336609,-0.8591980338096619,0,0,0,-1,-1,3304.55154975,unknown,2,2022-06-02T10:56:06.410+02:00,2022-06-02T10:17:13.754+02:00,521,1.631355,0,0,405.4342,0,0,2022-06-02T10:55:58.733+02:00,675852958.7332413,0,4.773438,101.3258,1,0.77
2022-06-02T10:56:08.398+02:00,1654160168.000345,53.22910133269347,10.39854020390932,36.84525,0,20,-1,-1,2.400000095367432,7.999579855010837,-9999,3306.537521791667,-0.0446014404296875,-0.335235595703125,-0.903594970703125,3306.527527791667,-0.3507812713587172,0.01000861693033295,0.5385201394521157,0.1356529742479324,0.1918065845966339,-0.3846367597579956,-0.0005200132727622986,0.2269316911697388,-0.05359220504760742,XArbitraryZVertical,0.2627755895859743,-0.04166772540626321,-0.1668925612737578,0.9493995881750097,0.008591939695179462,-0.5128661394119263,-0.8584255576133728,0,0,0,-1,-1,3304.55154975,unknown,2,2022-06-02T10:56:06.410+02:00,2022-06-02T10:17:13.754+02:00,521,1.631355,0,0,405.4342,0,0,2022-06-02T10:55:58.733+02:00,675852958.7332413,0,4.773438,101.3258,1,0.77
2022-06-02T10:56:08.406+02:00,1654160168.000345,53.22910133269347,10.39854020390932,36.84525,0,20,-1,-1,2.400000095367432,7.999579855010837,-9999,3306.547515791667,-0.0670928955078125,-0.3884735107421875,-0.88079833984375,3306.537521791667,-0.3552698773238707,0.01410343590846763,0.5395211749694201,0.07200594991445541,0.1785890460014343,-0.3861667513847351,-0.03347724676132202,0.2120895385742188,-0.05340069532394409,XArbitraryZVertical,0.2635016115022016,-0.04040042085963441,-0.1684578189533723,0.9489765620931807,0.01209970843046904,-0.513725221157074,-0.8578693866729736,0,0,0,-1,-1,3304.55154975,unknown,2,2022-06-02T10:56:06.410+02:00,2022-06-02T10:17:13.754+02:00,521,1.631355,0,0,405.4342,0,0,2022-06-02T10:55:58.733+02:00,675852958.7332413,0,4.773438,101.3258,1,0.77
2022-06-02T10:56:08.416+02:00,1654160168.000345,53.22910133269347,10.39854020390932,36.84525,0,20,-1,-1,2.400000095367432,7.999579855010837,-9999,3306.557509791667,-0.054901123046875,-0.3805694580078125,-0.855621337890625,3306.547515791667,-0.3597683928338169,0.01829939356912109,0.5397554651603184,-0.01564933359622955,0.1982453167438507,-0.3824963867664337,-0.07673210650682449,0.1447551250457764,-0.03572660684585571,XArbitraryZVertical,0.2638784229552644,-0.03902326125567808,-0.1700322783954205,0.9486486295049883,0.01569697260856628,-0.5139262080192566,-0.8576907515525818,0,0,0,-1,-1,3304.55154975,unknown,2,2022-06-02T10:56:06.410+02:00,2022-06-02T10:17:13.754+02:00,521,1.631355,0,0,405.4342,0,0,2022-06-02T10:55:58.733+02:00,675852958.7332413,0,4.773438,101.3258,1,0.77
2022-06-02T10:56:08.427+02:00,1654160168.000345,53.22910133269347,10.39854020390932,36.84525,0,20,-1,-1,2.400000095367432,7.999579855010837,-9999,3306.567503791667,-0.035491943359375,-0.3327789306640625,-0.821868896484375,3306.557509791667,-0.3640931860838817,0.02251576448647326,0.539193276562282,-0.06852935254573822,0.1988114267587662,-0.3670148253440857,-0.08362017571926117,0.1235665678977966,-0.01068568229675293,XArbitraryZVertical,0.2638893265284425,-0.037544664200768,-0.1715432809198781,0.9484332457864972,0.01931966654956341,-0.5134438872337341,-0.8579056262969971,0,0,0,-1,-1,3304.55154975,unknown,2,2022-06-02T10:56:06.410+02:00,2022-06-02T10:17:13.754+02:00,521,1.631355,0,0,405.4342,0,0,2022-06-02T10:55:58.733+02:00,675852958.7332413,0,4.773438,101.3258,1,0.77
2022-06-02T10:56:08.436+02:00,1654160168.000345,53.22910133269347,10.39854020390932,36.84525,0,20,-1,-1,2.400000095367432,7.999579855010837,-9999,3306.577498791667,-0.02825927734375,-0.289031982421875,-0.8192596435546875,3306.567503791667,-0.3684064058536389,0.02652289991035825,0.5384440579163209,-0.05543513223528862,0.1570338904857635,-0.3821077644824982,-0.06860481202602386,0.1532732844352722,0.02011668682098389,XArbitraryZVertical,0.2638003021502046,-0.03614667255727881,-0.1730823489168016,0.948232656951737,0.0227674413472414,-0.5128008127212524,-0.8582056164741516,0,0,0,-1,-1,3304.55154975,unknown,2,2022-06-02T10:56:06.410+02:00,2022-06-02T10:17:13.754+02:00,521,1.631355,0,0,405.4342,0,0,2022-06-02T10:55:58.733+02:00,675852958.7332413,0,4.773438,101.3258,1,0.77
2022-06-02T10:56:08.447+02:00,1654160168.000345,53.22910133269347,10.39854020390932,36.84525,0,20,-1,-1,2.400000095367432,7.999579855010837,-9999,3306.587492791667,-0.04290771484375,-0.2716217041015625,-0.8289031982421875,3306.577498791667,-0.3730263865701411,0.03021299016085358,0.5382351407563697,0.03800453990697861,0.1088810116052628,-0.4098272621631622,-0.05457808822393417,0.2056146264076233,0.0428389310836792,XArbitraryZVertical,0.2639401824607328,-0.03498802155064868,-0.1747920777815954,0.9479234916293913,0.02593737095594406,-0.5126214623451233,-0.8582228422164917,0,0,0,-1,-1,3304.55154975,unknown,2,2022-06-02T10:56:06.410+02:00,2022-06-02T10:17:13.754+02:00,521,1.631355,0,0,405.4342,0,0,2022-06-02T10:55:58.733+02:00,675852958.7332413,0,4.773438,101.3258,1,0.77
2022-06-02T10:56:08.456+02:00,1654160168.000345,53.22910133269347,10.39854020390932,36.84525,0,20,-1,-1,2.400000095367432,7.999579855010837,-9999,3306.597486791667,-0.060028076171875,-0.2852783203125,-0.850311279296875,3306.587492791667,-0.3779198318003325,0.03372505276911151,0.5389163563070432,0.1237383484840393,0.09337315708398819,-0.4235795736312866,-0.06365327537059784,0.2368238568305969,0.03480970859527588,XArbitraryZVertical,0.2644865273987289,-0.03403297770382702,-0.1766247814076962,0.9474662278555355,0.02893955633044243,-0.5132062435150146,-0.8577772378921509,0,0,0,-1,-1,3304.55154975,unknown,2,2022-06-02T10:56:06.410+02:00,2022-06-02T10:17:13.754+02:00,521,1.631355,0,0,405.4342,0,0,2022-06-02T10:55:58.733+02:00,675852958.7332413,0,4.773438,101.3258,1,0.77
2022-06-02T10:56:08.466+02:00,1654160168.000345,53.22910133269347,10.39854020390932,36.84525,0,20,-1,-1,2.400000095367432,7.999579855010837,-9999,3306.607480791667,-0.074737548828125,-0.3123321533203125,-0.8723297119140625,3306.597486791667,-0.38286614244046,0.03719871021493641,0.5402230107198516,0.1515857428312302,0.09650243818759918,-0.4095666110515594,-0.0837586373090744,0.2375328540802002,0.01763004064559937,XArbitraryZVertical,0.2653294526824667,-0.03316508128770878,-0.1784633561134174,0.9469166513406553,0.03189403191208839,-0.5143272280693054,-0.8570007085800171,0,0,0,-1,-1,3304.55154975,unknown,2,2022-06-02T10:56:06.410+02:00,2022-06-02T10:17:13.754+02:00,521,1.631355,0,0,405.4342,0,0,2022-06-02T10:55:58.733+02:00,675852958.7332413,0,4.773438,101.3258,1,0.77
2022-06-02T10:56:08.476+02:00,1654160168.000345,53.22910133269347,10.39854020390932,36.84525,0,20,-1,-1,2.400000095367432,7.999579855010837,-9999,3306.617475791667,-0.0699920654296875,-0.36627197265625,-0.9014129638671875,3306.607480791667,-0.3875200376762049,0.04073093588074705,0.541227999418058,0.07141499221324921,0.1362538486719131,-0.3832774758338928,-0.1043426096439362,0.221228301525116,-0.005206406116485596,XArbitraryZVertical,0.2660447685209795,-0.03220662079665294,-0.1801620317936976,0.9464272720258086,0.03489988297224045,-0.5151888728141785,-0.8563657999038696,0,0,0,-1,-1,3304.55154975,unknown,2,2022-06-02T10:56:06.410+02:00,2022-06-02T10:17:13.754+02:00,521,1.631355,0,0,405.4342,0,0,2022-06-02T10:55:58.733+02:00,675852958.7332413,0,4.773438,101.3258,1,0.77
2022-06-02T10:56:08.486+02:00,1654160168.000345,53.22910133269347,10.39854020390932,36.84525,0,20,-1,-1,2.400000095367432,7.999579855010837,-9999,3306.627469791667,-0.03656005859375,-0.3874969482421875,-0.9370269775390625,3306.617475791667,-0.3919356124547108,0.04463231282721886,0.5411017485929652,-0.06619086861610413,0.1853006184101105,-0.3721874058246613,-0.1146289855241776,0.1765339374542236,-0.02722626924514771,XArbitraryZVertical,0.2662684627056966,-0.03093624384302563,-0.1817365495785646,0.9461055981005083,0.03824351727962494,-0.5150806307792664,-0.8562881350517273,0,0,0,-1,-1,3304.55154975,unknown,2,2022-06-02T10:56:06.410+02:00,2022-06-02T10:17:13.754+02:00,521,1.631355,0,0,405.4342,0,0,2022-06-02T10:55:58.733+02:00,675852958.7332413,0,4.773438,101.3258,1,0.77
2022-06-02T10:56:08.496+02:00,1654160168.000345,53.22910133269347,10.39854020390932,36.84525,0,20,-1,-1,2.400000095367432,7.999579855010837,-9999,3306.637463791667,-0.014892578125,-0.3602447509765625,-0.945953369140625,3306.627469791667,-0.3960195654612065,0.04862090913285372,0.5395508509855372,-0.2126154601573944,0.1870002448558807,-0.3396302461624146,-0.09681208431720734,0.1284357905387878,-0.0645984411239624,XArbitraryZVertical,0.2658389947546858,-0.02944186382225406,-0.1831953567944004,0.9459926595164804,0.04169736430048943,-0.5137506723403931,-0.8569256067276001,0,0,0,-1,-1,3304.55154975,unknown,2,2022-06-02T10:56:06.410+02:00,2022-06-02T10:17:13.754+02:00,521,1.631355,0,0,405.4342,0,0,2022-06-02T10:55:58.733+02:00,675852958.7332413,0,4.773438,101.3258,1,0.77
2022-06-02T10:56:08.506+02:00,1654160168.000345,53.22910133269347,10.39854020390932,36.84525,0,20,-1,-1,2.400000095367432,7.999579855010837,-9999,3306.647457791667,-0.0231475830078125,-0.314788818359375,-0.9344482421875,3306.637463791667,-0.3997288479034034,0.05230194947518871,0.5367407110350756,-0.3021135628223419,0.1726936846971512,-0.3293235003948212,-0.06694516539573669,0.1334691643714905,-0.08672630786895752,XArbitraryZVertical,0.264798734059343,-0.02791590984340262,-0.184568871202066,0.9460636796160962,0.04492675140500069,-0.5113377571105957,-0.8582046627998352,0,0,0,-1,-1,3304.55154975,unknown,2,2022-06-02T10:56:06.410+02:00,2022-06-02T10:17:13.754+02:00,521,1.631355,0,0,405.4342,0,0,2022-06-02T10:55:58.733+02:00,675852958.7332413,0,4.773438,101.3258,1,0.77
2022-06-02T10:56:08.517+02:00,1654160168.000345,53.22910133269347,10.39854020390932,36.84525,0,20,-1,-1,2.400000095367432,7.999579855010837,-9999,3306.657452791667,-0.0403289794921875,-0.2816925048828125,-0.9126434326171875,3306.647457791667,-0.4034608479668748,0.05589300023276415,0.5335402932083464,-0.2896957695484161,0.1666581630706787,-0.3495613932609558,-0.06526560336351395,0.17051100730896,-0.08282226324081421,XArbitraryZVertical,0.2635712875243031,-0.02639118064794304,-0.1859852173400899,0.9461728978355833,0.04809948801994324,-0.50858473777771,-0.8596673607826233,0,0,0,-1,-1,3304.55154975,unknown,2,2022-06-02T10:56:06.410+02:00,2022-06-02T10:17:13.754+02:00,521,1.631355,0,0,405.4342,0,0,2022-06-02T10:55:58.733+02:00,675852958.7332413,0,4.773438,101.3258,1,0.77
2022-06-02T10:56:08.526+02:00,1654160168.000345,53.22910133269347,10.39854020390932,36.84525,0,20,-1,-1,2.400000095367432,7.999579855010837,-9999,3306.667446791667,-0.03924560546875,-0.2629852294921875,-0.88922119140625,3306.657452791667,-0.4074891131374295,0.05966680979688582,0.5309114379040917,-0.1843734979629517,0.1794902682304382,-0.3729702532291412,-0.08334427326917648,0.2107720971107483,-0.06651097536087036,XArbitraryZVertical,0.2626323692936729,-0.02487073914601698,-0.1874999465645743,0.9461762139234766,0.05142290517687798,-0.506319522857666,-0.8608113527297974,0,0,0,-1,-1,3304.55154975,unknown,2,2022-06-02T10:56:06.410+02:00,2022-06-02T10:17:13.754+02:00,521,1.631355,0,0,405.4342,0,0,2022-06-02T10:55:58.733+02:00,675852958.7332413,0,4.773438,101.3258,1,0.77
2022-06-02T10:56:08.537+02:00,1654160168.000345,53.22910133269347,10.39854020390932,36.84525,0,20,-1,-1,2.400000095367432,7.999579855010837,-9999,3306.677440791667,-0.0152130126953125,-0.261077880859375,-0.873626708984375,3306.667446791667,-0.4118289114207235,0.06367844437492712,0.5295335251129877,-0.04695039987564087,0.1816713958978653,-0.3891494870185852,-0.09932313859462738,0.2329903841018677,-0.03778475522994995,XArbitraryZVertical,0.2623081402685558,-0.02340198562355949,-0.1890831634086248,0.945988494553372,0.05492008849978447,-0.5051308274269104,-0.8612935543060303,0,0,0,-1,-1,3304.55154975,unknown,2,2022-06-02T10:56:06.410+02:00,2022-06-02T10:17:13.754+02:00,521,1.631355,0,0,405.4342,0,0,2022-06-02T10:55:58.733+02:00,675852958.7332413,0,4.773438,101.3258,1,0.77
2022-06-02T10:56:08.546+02:00,1654160168.000345,53.22910133269347,10.39854020390932,36.84525,0,20,-1,-1,2.400000095367432,7.999579855010837,-9999,3306.687434791667,-0.0009918212890625,-0.2965087890625,-0.863372802734375,3306.677440791667,-0.4163540990717801,0.06771322698384809,0.5293584101063658,0.05496514961123466,0.1680846661329269,-0.3968296945095062,-0.0860191285610199,0.246221125125885,-0.021323561668396,XArbitraryZVertical,0.2625572745669775,-0.02206959490810521,-0.1907011327425374,0.9456265803730498,0.05840074643492699,-0.50497967004776,-0.861153244972229,0,0,0,-1,-1,3304.55154975,unknown,2,2022-06-02T10:56:06.410+02:00,2022-06-02T10:17:13.754+02:00,521,1.631355,0,0,405.4342,0,0,2022-06-02T10:55:58.733+02:00,675852958.7332413,0,4.773438,101.3258,1,0.77
2022-06-02T10:56:08.556+02:00,1654160168.000345,53.22910133269347,10.39854020390932,36.84525,0,20,-1,-1,2.400000095367432,7.999579855010837,-9999,3306.697428791667,0.004241943359375,-0.3912200927734375,-0.897430419921875,3306.687434791667,-0.4210369228625355,0.07171111823791032,0.5297901640856358,0.07699694484472275,0.1611167788505554,-0.4016492366790771,-0.06797671318054199,0.2309687733650208,-0.006171703338623047,XArbitraryZVertical,0.2630931659798376,-0.02084036971706844,-0.1923704794868391,0.945167344965965,0.06182744354009628,-0.505352258682251,-0.8606953024864197,0,0,0,-1,-1,3304.55154975,unknown,2,2022-06-02T10:56:06.410+02:00,2022-06-02T10:17:13.754+02:00,521,1.631355,0,0,405.4342,0,0,2022-06-02T10:55:58.733+02:00,675852958.7332413,0,4.773438,101.3258,1,0.77
2022-06-02T10:56:08.566+02:00,1654160168.000345,53.22910133269347,10.39854020390932,36.84525,0,20,-1,-1,2.400000095367432,7.999579855010837,-9999,3306.707423791667,0.0218658447265625,-0.4526824951171875,-0.9139862060546875,3306.697428791667,-0.4257323966648186,0.07576665849890193,0.5301074231631421,0.03602464497089386,0.1767413467168808,-0.4012770056724548,-0.06423723697662354,0.1668961644172668,-0.01524120569229126,XArbitraryZVertical,0.2635867667751046,-0.01957614649954206,-0.194040731625984,0.9447152644788331,0.06530536711215973,-0.5056260228157043,-0.8602775931358337,0,0,0,-1,-1,3304.55154975,unknown,2,2022-06-02T10:56:06.410+02:00,2022-06-02T10:17:13.754+02:00,521,1.631355,0,0,405.4342,0,0,2022-06-02T10:55:58.733+02:00,675852958.7332413,0,4.773438,101.3258,1,0.77
2022-06-02T10:56:08.576+02:00,1654160168.000345,53.22910133269347,10.39854020390932,36.84525,0,20,-1,-1,2.400000095367432,7.999579855010837,-9999,3306.717417791667,0.044708251953125,-0.45074462890625,-0.9141693115234375,3306.707423791667,-0.4301817738517776,0.07979794230174349,0.5295262381309148,-0.09664418548345566,0.1722784340381622,-0.3737497627735138,-0.05829820036888123,0.07241576910018921,-0.05135148763656616,XArbitraryZVertical,0.2636642358755792,-0.0181963383233077,-0.1956374863293286,0.944391919447238,0.06879626959562302,-0.5051245093345642,-0.8603001236915588,0,0,0,-1,-1,3304.55154975,unknown,2,2022-06-02T10:56:06.410+02:00,2022-06-02T10:17:13.754+02:00,521,1.631355,0,0,405.4342,0,0,2022-06-02T10:55:58.733+02:00,675852958.7332413,0,4.773438,101.3258,1,0.77
2022-06-02T10:56:08.586+02:00,1654160168.000345,53.22910133269347,10.39854020390932,36.84525,0,20,-1,-1,2.400000095367432,7.999579855010837,-9999,3306.727411791667,0.04718017578125,-0.4258880615234375,-0.91900634765625,3306.717417791667,-0.4342747689309752,0.08347252178805009,0.527593325147685,-0.227710023522377,0.1540739089250565,-0.3710520565509796,-0.03737030923366547,0.04564595222473145,-0.05097442865371704,XArbitraryZVertical,0.2630810668107014,-0.01679038789351421,-0.1971774341908874,0.9442602956962401,0.07203830778598785,-0.5034554004669189,-0.861012876033783,0,0,0,-1,-1,3304.55154975,unknown,2,2022-06-02T10:56:06.410+02:00,2022-06-02T10:17:13.754+02:00,521,1.631355,0,0,405.4342,0,0,2022-06-02T10:55:58.733+02:00,675852958.7332413,0,4.773438,101.3258,1,0.77
2022-06-02T10:56:08.596+02:00,1654160168.000345,53.22910133269347,10.39854020390932,36.84525,0,20,-1,-1,2.400000095367432,7.999579855010837,-9999,3306.737405791667,0.0434722900390625,-0.415069580078125,-0.9187469482421875,3306.727411791667,-0.4385500339547081,0.08712433817341514,0.5245896641603763,-0.3002079427242279,0.1477672904729843,-0.4226087033748627,-0.02717182040214539,0.0623965859413147,-0.05564582347869873,XArbitraryZVertical,0.2619974398085789,-0.01529758748323528,-0.1988613392696884,0.9442338290673847,0.07531332224607468,-0.5008578896522522,-0.8622466325759888,0,0,0,-1,-1,3304.55154975,unknown,2,2022-06-02T10:56:06.410+02:00,2022-06-02T10:17:13.754+02:00,521,1.631355,0,0,405.4342,0,0,2022-06-02T10:55:58.733+02:00,675852958.7332413,0,4.773438,101.3258,1,0.77
2022-06-02T10:56:08.606+02:00,1654160168.000345,53.22910133269347,10.39854020390932,36.84525,0,20,-1,-1,2.400000095367432,7.999579855010837,-9999,3306.747400791667,0.044189453125,-0.371978759765625,-0.9284820556640625,3306.737405791667,-0.4434560664453381,0.09103802502378815,0.5211144778243231,-0.3099576532840729,0.141754075884819,-0.4806812703609467,-0.03399946540594101,0.07920685410499573,-0.05510401725769043,XArbitraryZVertical,0.2607210307926743,-0.01370474743531611,-0.200837135526375,0.9441933939203799,0.0788450688123703,-0.4978469908237457,-0.8636734485626221,0,0,0,-1,-1,3304.55154975,unknown,2,2022-06-02T10:56:06.410+02:00,2022-06-02T10:17:13.754+02:00,521,1.631355,0,0,405.4342,0,0,2022-06-02T10:55:58.733+02:00,675852958.7332413,0,4.773438,101.3258,1,0.77
2022-06-02T10:56:08.616+02:00,1654160168.000345,53.22910133269347,10.39854020390932,36.84525,0,20,-1,-1,2.400000095367432,7.999579855010837,-9999,3306.757394791667,0.047943115234375,-0.2635345458984375,-0.91357421875,3306.747400791667,-0.448814303000128,0.09493002679769608,0.5180858077671672,-0.1932709813117981,0.1010010465979576,-0.4955944418907166,-0.03912024945020676,0.09206560254096985,-0.05865061283111572,XArbitraryZVertical,0.2596575503462217,-0.01222353469061597,-0.203012523401488,0.9440414767633337,0.08234842121601105,-0.4952180683612823,-0.8648570775985718,0,0,0,-1,-1,3304.55154975,unknown,2,2022-06-02T10:56:06.410+02:00,2022-06-02T10:17:13.754+02:00,521,1.631355,0,0,405.4342,0,0,2022-06-02T10:55:58.733+02:00,675852958.7332413,0,4.773438,101.3258,1,0.77
2022-06-02T10:56:08.626+02:00,1654160168.000345,53.22910133269347,10.39854020390932,36.84525,0,20,-1,-1,2.400000095367432,7.999579855010837,-9999,3306.767388791667,0.0631866455078125,-0.2006683349609375,-0.9344329833984375,3306.757394791667,-0.4544154482548251,0.0986038957654977,0.5164973654245422,-0.0252278596162796,0.08328583091497421,-0.505016565322876,-0.0393378958106041,0.1725178956985474,-0.05680394172668457,XArbitraryZVertical,0.2592547409830847,-0.01103507098052332,-0.2052609008240436,0.9436805351142047,0.08560255914926529,-0.49383744597435,-0.8653303980827332,0,0,0,-1,-1,3304.55154975,unknown,2,2022-06-02T10:56:06.410+02:00,2022-06-02T10:17:13.754+02:00,521,1.631355,0,0,405.4342,0,0,2022-06-02T10:55:58.733+02:00,675852958.7332413,0,4.773438,101.3258,1,0.77
2022-06-02T10:56:08.636+02:00,1654160168.000345,53.22910133269347,10.39854020390932,36.84525,0,20,-1,-1,2.400000095367432,7.999579855010837,-9999,3306.777382791667,0.10797119140625,-0.258544921875,-0.947967529296875,3306.767388791667,-0.4602790097749229,0.1023689700384859,0.5166447993353709,0.151190310716629,0.09120580554008484,-0.5019171833992004,-0.03765928000211716,0.2754750549793243,-0.05554163455963135,XArbitraryZVertical,0.259681496555614,-0.01003687288689263,-0.2075304663311815,0.9430778313318497,0.08885253965854645,-0.4939656257629395,-0.8649295568466187,0,0,0,-1,-1,3304.55154975,unknown,2,2022-06-02T10:56:06.410+02:00,2022-06-02T10:17:13.754+02:00,521,1.631355,0,0,405.4342,0,0,2022-06-02T10:55:58.733+02:00,675852958.7332413,0,4.773438,101.3258,1,0.77
2022-06-02T10:56:08.646+02:00,1654160168.000345,53.22910133269347,10.39854020390932,36.84525,0,20,-1,-1,2.400000095367432,7.999579855010837,-9999,3306.787377791667,0.1545257568359375,-0.40423583984375,-0.954559326171875,3306.777382791667,-0.466215818831802,0.1062363727949342,0.5181296785964165,0.230962797999382,0.08945725113153458,-0.4938920736312866,-0.008271947503089905,0.2830064296722412,-0.07899141311645508,XArbitraryZVertical,0.2607517926441453,-0.009160591238940407,-0.2097456151572227,0.9423010600674326,0.09211902320384979,-0.4952561557292938,-0.8638491630554199,0,0,0,-1,-1,3304.55154975,unknown,2,2022-06-02T10:56:06.410+02:00,2022-06-02T10:17:13.754+02:00,521,1.631355,0,0,405.4342,0,0,2022-06-02T10:55:58.733+02:00,675852958.7332413,0,4.773438,101.3258,1,0.77
2022-06-02T10:56:08.657+02:00,1654160168.000345,53.22910133269347,10.39854020390932,36.84525,0,20,-1,-1,2.400000095367432,7.999579855010837,-9999,3306.797371791667,0.1872406005859375,-0.5293426513671875,-0.947296142578125,3306.787377791667,-0.4720249296836336,0.1098363595034215,0.5194893457864541,0.1286699920892715,0.05185979977250099,-0.4811829328536987,0.03687996417284012,0.1708906590938568,-0.08816218376159668,XArbitraryZVertical,0.2617417943698586,-0.008385590016170981,-0.2119362618465323,0.9415433586771064,0.09515435993671417,-0.4964369237422943,-0.8628418445587158,0,0,0,-1,-1,3304.55154975,unknown,2,2022-06-02T10:56:06.410+02:00,2022-06-02T10:17:13.754+02:00,521,1.631355,0,0,405.4342,0,0,2022-06-02T10:55:58.733+02:00,675852958.7332413,0,4.773438,101.3258,1,0.77
2022-06-02T10:56:08.666+02:00,1654160168.000345,53.22910133269347,10.39854020390932,36.84525,0,20,-1,-1,2.400000095367432,7.999579855010837,-9999,3306.807365791667,0.193023681640625,-0.5228118896484375,-0.9186553955078125,3306.797371791667,-0.4773377142205125,0.1126882006505154,0.5192179852905697,-0.09593012928962708,-0.01283430587500334,-0.4394676387310028,0.07514548301696777,0.01599198579788208,-0.09220945835113525,XArbitraryZVertical,0.2618973368858901,-0.00770621646854907,-0.2140786015441731,0.9410211504779326,0.09762980788946152,-0.4962013363838196,-0.8627008199691772,0,0,0,-1,-1,3304.55154975,unknown,2,2022-06-02T10:56:06.410+02:00,2022-06-02T10:17:13.754+02:00,521,1.631355,0,0,405.4342,0,0,2022-06-02T10:55:58.733+02:00,675852958.7332413,0,4.773438,101.3258,1,0.77
2022-06-02T10:56:08.676+02:00,1654160168.000345,53.22910133269347,10.39854020390932,36.84525,0,20,-1,-1,2.400000095367432,7.999579855010837,-9999,3306.817359791667,0.166168212890625,-0.4377593994140625,-0.92877197265625,3306.807365791667,-0.4817447056009284,0.1142653456754465,0.5165600800784913,-0.335187166929245,-0.1062577366828918,-0.3825556337833405,0.09457004070281982,-0.04745933413505554,-0.06687217950820923,XArbitraryZVertical,0.2608092381438324,-0.007216790350767291,-0.2160973422198674,0.9408656696951184,0.09914030879735947,-0.4938919842243195,-0.8638529181480408,0,0,0,-1,-1,3304.55154975,unknown,2,2022-06-02T10:56:06.410+02:00,2022-06-02T10:17:13.754+02:00,521,1.631355,0,0,405.4342,0,0,2022-06-02T10:55:58.733+02:00,675852958.7332413,0,4.773438,101.3258,1,0.77
2022-06-02T10:56:08.687+02:00,1654160168.000345,53.22910133269347,10.39854020390932,36.84525,0,20,-1,-1,2.400000095367432,7.999579855010837,-9999,3306.827354791667,0.116363525390625,-0.3833465576171875,-0.9339599609375,3306.817359791667,-0.4854806104991468,0.1148020904684982,0.5121005137604117,-0.4622933566570282,-0.1459857672452927,-0.3731900155544281,0.08364694565534592,0.006168454885482788,-0.05551445484161377,XArbitraryZVertical,0.258771788591669,-0.006902499750236212,-0.2180406357142876,0.9409822689880359,0.09985527396202087,-0.4900093674659729,-0.865979015827179,0,0,0,-1,-1,3304.55154975,unknown,2,2022-06-02T10:56:06.410+02:00,2022-06-02T10:17:13.754+02:00,521,1.631355,0,0,405.4342,0,0,2022-06-02T10:55:58.733+02:00,675852958.7332413,0,4.773438,101.3258,1,0.77
2022-06-02T10:56:08.696+02:00,1654160168.000345,53.22910133269347,10.39854020390932,36.84525,0,20,-1,-1,2.400000095367432,7.999579855010837,-9999,3306.837348791667,0.0879974365234375,-0.380462646484375,-0.9313201904296875,3306.827354791667,-0.4892393523059503,0.1152652441615168,0.5070265349984876,-0.461850494146347,-0.123847708106041,-0.3984309434890747,0.04006875306367874,0.08348044753074646,-0.06475985050201416,XArbitraryZVertical,0.2564401285367621,-0.006541662326612157,-0.2200405809155869,0.941157606161233,0.1005409955978394,-0.4855800271034241,-0.8683913350105286,0,0,0,-1,-1,3304.55154975,unknown,2,2022-06-02T10:56:06.410+02:00,2022-06-02T10:17:13.754+02:00,521,1.631355,0,0,405.4342,0,0,2022-06-02T10:55:58.733+02:00,675852958.7332413,0,4.773438,101.3258,1,0.77
2022-06-02T10:56:08.706+02:00,1654160168.000345,53.22910133269347,10.39854020390932,36.84525,0,20,-1,-1,2.400000095367432,7.999579855010837,-9999,3306.847342791667,0.088531494140625,-0.3983154296875,-0.9289398193359375,3306.837348791667,-0.4932788823496955,0.11621383999189,0.5020445035905891,-0.4512790441513062,-0.07655016332864761,-0.4192414581775665,-0.002522848546504974,0.1038841903209686,-0.06179219484329224,XArbitraryZVertical,0.254205192319474,-0.005990461259352382,-0.222106773501008,0.9412823311052139,0.1016439571976662,-0.4812187552452087,-0.8706876635551453,0,0,0,-1,-1,3304.55154975,unknown,2,2022-06-02T10:56:06.410+02:00,2022-06-02T10:17:13.754+02:00,521,1.631355,0,0,405.4342,0,0,2022-06-02T10:55:58.733+02:00,675852958.7332413,0,4.773438,101.3258,1,0.77
2022-06-02T10:56:08.716+02:00,1654160168.000345,53.22910133269347,10.39854020390932,36.84525,0,20,-1,-1,2.400000095367432,7.999579855010837,-9999,3306.857336791667,0.1168670654296875,-0.3913421630859375,-0.93304443359375,3306.847342791667,-0.4974235447927254,0.1175850940002752,0.496983520895398,-0.4689653515815735,-0.04839975759387016,-0.4238921403884888,-0.01761191338300705,0.08883672952651978,-0.05851781368255615,XArbitraryZVertical,0.2519824219337279,-0.005234050747223586,-0.2241759503694265,0.9413939506900827,0.1031221896409988,-0.4767761528491974,-0.8729549050331116,0,0,0,-1,-1,3304.55154975,unknown,2,2022-06-02T10:56:06.410+02:00,2022-06-02T10:17:13.754+02:00,521,1.631355,0,0,405.4342,0,0,2022-06-02T10:55:58.733+02:00,675852958.7332413,0,4.773438,101.3258,1,0.77
2022-06-02T10:56:08.726+02:00,1654160168.000345,53.22910133269347,10.39854020390932,36.84525,0,20,-1,-1,2.400000095367432,7.999579855010837,-9999,3306.867331791667,0.1400909423828125,-0.2966766357421875,-0.9331817626953125,3306.857336791667,-0.5017863979815309,0.1190576827580913,0.4922478689202462,-0.3707917332649231,-0.08319229632616043,-0.4545731544494629,-0.004119150340557098,0.0677618682384491,-0.05630123615264893,XArbitraryZVertical,0.2499254855145902,-0.004488559668003632,-0.2263193578984653,0.9414333421069566,0.1046745926141739,-0.4726080596446991,-0.8750342130661011,0,0,0,-1,-1,3304.55154975,unknown,2,2022-06-02T10:56:06.410+02:00,2022-06-02T10:17:13.754+02:00,521,1.631355,0,0,405.4342,0,0,2022-06-02T10:55:58.733+02:00,675852958.7332413,0,4.773438,101.3258,1,0.77
2022-06-02T10:56:08.736+02:00,1654160168.000345,53.22910133269347,10.39854020390932,36.84525,0,20,-1,-1,2.400000095367432,7.999579855010837,-9999,3306.877325791667,0.1369171142578125,-0.2665863037109375,-0.9814453125,3306.867331791667,-0.5068041491164685,0.1202544319599726,0.4888135588261977,-0.1996277272701263,-0.1502107381820679,-0.5111246109008789,0.02648474276065826,0.120396614074707,-0.0487479567527771,XArbitraryZVertical,0.2484468927441573,-0.004111501153233753,-0.2287322657171573,0.9412431164531905,0.1059157997369766,-0.4695787131786346,-0.8765144944190979,0,0,0,-1,-1,3304.55154975,unknown,2,2022-06-02T10:56:06.410+02:00,2022-06-02T10:17:13.754+02:00,521,1.631355,0,0,405.4342,0,0,2022-06-02T10:55:58.733+02:00,675852958.7332413,0,4.773438,101.3258,1,0.77
2022-06-02T10:56:08.746+02:00,1654160168.000345,53.22910133269347,10.39854020390932,36.84525,0,20,-1,-1,2.400000095367432,7.999579855010837,-9999,3306.887319791667,0.1519012451171875,-0.36669921875,-1.045669555664062,3306.877325791667,-0.5127468761381887,0.1214279499212626,0.4869567825755949,-0.05085911974310875,-0.1639155596494675,-0.5777585506439209,0.03369732946157455,0.20551797747612,-0.07922834157943726,XArbitraryZVertical,0.2477029869156724,-0.004056639943993223,-0.2314918496083184,0.9407646430708043,0.1070497557520866,-0.4679385721683502,-0.877253532409668,0,0,0,-1,-1,3304.55154975,unknown,2,2022-06-02T10:56:06.410+02:00,2022-06-02T10:17:13.754+02:00,521,1.631355,0,0,405.4342,0,0,2022-06-02T10:55:58.733+02:00,675852958.7332413,0,4.773438,101.3258,1,0.77
2022-06-02T10:56:08.756+02:00,1654160168.000345,53.22910133269347,10.39854020390932,36.84525,0,20,-1,-1,2.400000095367432,7.999579855010837,-9999,3306.897313791667,0.1888427734375,-0.4896087646484375,-1.09368896484375,3306.887319791667,-0.5193175119782911,0.1229384555317195,0.4860729669182978,-0.001195427030324936,-0.1521750241518021,-0.5850539803504944,0.03087209910154343,0.1589908301830292,-0.1351027488708496,XArbitraryZVertical,0.2474533446336018,-0.00404422093971399,-0.2344469006878354,0.9400984424280588,0.1084254086017609,-0.4671573042869568,-0.8775009512901306,0,0,0,-1,-1,3304.55154975,unknown,2,2022-06-02T10:56:06.410+02:00,2022-06-02T10:17:13.754+02:00,521,1.631355,0,0,405.4342,0,0,2022-06-02T10:55:58.733+02:00,675852958.7332413,0,4.773438,101.3258,1,0.77
2022-06-02T10:56:08.766+02:00,1654160168.000345,53.22910133269347,10.39854020390932,36.84525,0,20,-1,-1,2.400000095367432,7.999579855010837,-9999,3306.907307791667,0.240814208984375,-0.54986572265625,-1.107879638671875,3306.897313791667,-0.5257553918516265,0.1245150319918223,0.4848513754992986,-0.1283540725708008,-0.1372038722038269,-0.5797569155693054,0.0570516511797905,0.03857141733169556,-0.1906173825263977,XArbitraryZVertical,0.247057129369188,-0.003937677018184323,-0.2373503743366254,0.9394743088049424,0.1098795086145401,-0.4660768806934357,-0.8778945207595825,0,0,0,-1,-1,3304.55154975,unknown,2,2022-06-02T10:56:06.410+02:00,2022-06-02T10:17:13.754+02:00,521,1.631355,0,0,405.4342,0,0,2022-06-02T10:55:58.733+02:00,675852958.7332413,0,4.773438,101.3258,1,0.77
2022-06-02T10:56:08.776+02:00,1654160168.000345,53.22910133269347,10.39854020390932,36.84525,0,20,-1,-1,2.400000095367432,7.999579855010837,-9999,3306.917302791667,0.249542236328125,-0.54266357421875,-1.069580078125,3306.907307791667,-0.5319065178951948,0.1258977873637234,0.4815053343929122,-0.4039393067359924,-0.1559226959943771,-0.5863447785377502,0.1057525128126144,-0.06943309307098389,-0.2309148907661438,XArbitraryZVertical,0.2456522900184671,-0.003598076848523305,-0.2402713933653056,0.939101454921198,0.1112885177135468,-0.4631138741970062,-0.8792840242385864,0,0,0,-1,-1,3304.55154975,unknown,2,2022-06-02T10:56:06.410+02:00,2022-06-02T10:17:13.754+02:00,521,1.631355,0,0,405.4342,0,0,2022-06-02T10:55:58.733+02:00,675852958.7332413,0,4.773438,101.3258,1,0.77
2022-06-02T10:56:08.786+02:00,1654160168.000345,53.22910133269347,10.39854020390932,36.84525,0,20,-1,-1,2.400000095367432,7.999579855010837,-9999,3306.927296791667,0.2288818359375,-0.5090484619140625,-0.9908447265625,3306.917302791667,-0.5378251829828296,0.1268712583881364,0.4756739131564226,-0.6126655340194702,-0.191407784819603,-0.6058438420295715,0.1384008079767227,-0.09485775232315063,-0.2107816338539124,XArbitraryZVertical,0.2430451494371072,-0.003074979153080701,-0.2432862156842716,0.9390054693965973,0.1124842241406441,-0.4579376578330994,-0.8818392157554626,0,0,0,-1,-1,3304.55154975,unknown,2,2022-06-02T10:56:06.410+02:00,2022-06-02T10:17:13.754+02:00,521,1.631355,0,0,405.4342,0,0,2022-06-02T10:55:58.733+02:00,675852958.7332413,0,4.773438,101.3258,1,0.77
2022-06-02T10:56:08.796+02:00,1654160168.000345,53.22910133269347,10.39854020390932,36.84525,0,20,-1,-1,2.400000095367432,7.999579855010837,-9999,3306.937290791667,0.209136962890625,-0.468597412109375,-0.9134368896484375,3306.927296791667,-0.5302269117577147,0.09501141058303454,0.3849282198155008,-0.6640709638595581,-0.1869645565748215,-0.6234624981880188,0.1529487073421478,-0.1526598632335663,-0.1100238561630249,XArbitraryZVertical,0.1966000650419752,-0.005079345987312113,-0.2481246358331493,0.9485550988784683,0.08792655915021896,-0.3754926025867462,-0.9226452112197876,0,0,0,-1,-1,3304.55154975,unknown,2,2022-06-02T10:56:06.410+02:00,2022-06-02T10:17:13.754+02:00,521,1.631355,0,0,405.4342,0,0,2022-06-02T10:55:58.733+02:00,675852958.7332413,0,4.773438,101.3258,1,0.77
2022-06-02T10:56:08.808+02:00,1654160168.000345,53.22910133269347,10.39854020390932,36.84525,0,20,-1,-1,2.400000095367432,7.999579855010837,-9999,3306.947284791667,0.200164794921875,-0.4267730712890625,-0.869781494140625,3306.937290791667,-0.5374294126494243,0.09880168686216946,0.3687425109936107,-0.5181128978729248,-0.1729983389377594,-0.5983625650405884,0.1256256401538849,-0.1293338537216187,-0.02007097005844116,XArbitraryZVertical,0.1894217580260912,-0.001811221233014737,-0.2519464297728932,0.9490200526046625,0.092010498046875,-0.3604427576065063,-0.9282322525978088,0,0,0,-1,-1,3304.55154975,unknown,2,2022-06-02T10:56:06.410+02:00,2022-06-02T10:17:13.754+02:00,521,1.631355,0,0,405.4342,0,0,2022-06-02T10:55:58.733+02:00,675852958.7332413,0,4.773438,101.3258,1,0.77
2022-06-02T10:56:08.824+02:00,1654160168.000345,53.22910133269347,10.39854020390932,36.84525,0,20,-1,-1,2.400000095367432,7.999579855010837,-9999,3306.957279791667,0.1915435791015625,-0.4310150146484375,-0.8423004150390625,3306.947284791667,-0.5439919652061033,0.1022114794352159,0.359669118046928,-0.3181097805500031,-0.1386134773492813,-0.5140660405158997,0.1101226508617401,-0.09278339147567749,0.04367709159851074,XArbitraryZVertical,0.1855685888546026,0.0004213294168220356,-0.2551757202274351,0.9489202102479046,0.09550481289625168,-0.35196453332901,-0.9311282634735107,0,0,0,-1,-1,3304.55154975,unknown,2,2022-06-02T10:56:06.410+02:00,2022-06-02T10:17:13.754+02:00,521,1.631355,0,0,405.4342,0,0,2022-06-02T10:55:58.733+02:00,675852958.7332413,0,4.773438,101.3258,1,0.77
2022-06-02T10:56:08.827+02:00,1654160168.000345,53.22910133269347,10.39854020390932,36.84525,0,20,-1,-1,2.400000095367432,7.999579855010837,-9999,3306.967273791667,0.196136474609375,-0.4691925048828125,-0.8318023681640625,3306.957279791667,-0.5494795150774101,0.1050334162346442,0.3544491800639503,-0.1642145365476608,-0.09434361010789871,-0.4189356863498688,0.0951886922121048,-0.07528945803642273,0.07718545198440552,XArbitraryZVertical,0.1834704491579209,0.001969341205998431,-0.2577716489500345,0.9486244798839477,0.09832329303026199,-0.3470738530158997,-0.932669460773468,0,0,0,-1,-1,3304.55154975,unknown,2,2022-06-02T10:56:06.410+02:00,2022-06-02T10:17:13.754+02:00,521,1.631355,0,0,405.4342,0,0,2022-06-02T10:55:58.733+02:00,675852958.7332413,0,4.773438,101.3258,1,0.77
2022-06-02T10:56:08.837+02:00,1654160168.000345,53.22910133269347,10.39854020390932,36.84525,0,20,-1,-1,2.400000095367432,7.999579855010837,-9999,3306.977267791667,0.2008209228515625,-0.5403594970703125,-0.8675994873046875,3306.967273791667,-0.5540914525623313,0.1074029161096401,0.3512476711299156,-0.1284821033477783,-0.07583997398614883,-0.3680192530155182,0.09131927788257599,-0.1009682714939117,0.1009685397148132,XArbitraryZVertical,0.1822728469498181,0.003114356155428032,-0.2598989922789749,0.9482718087510303,0.1006515696644783,-0.3440695703029633,-0.9335338473320007,0,0,0,-1,-1,3304.55154975,unknown,2,2022-06-02T10:56:06.410+02:00,2022-06-02T10:17:13.754+02:00,521,1.631355,0,0,405.4342,0,0,2022-06-02T10:55:58.733+02:00,675852958.7332413,0,4.773438,101.3258,1,0.77
2022-06-02T10:56:08.847+02:00,1654160168.000345,53.22910133269347,10.39854020390932,36.84525,0,20,-1,-1,2.400000095367432,7.999579855010837,-9999,3306.987261791667,0.2090911865234375,-0.4945220947265625,-0.9399566650390625,3306.977267791667,-0.5583818968312565,0.109330915541696,0.3487296508696484,-0.1269838809967041,-0.09975635260343552,-0.376899391412735,0.09566625207662582,-0.1633922457695007,0.09352856874465942,XArbitraryZVertical,0.1813448487874009,0.003989576687500255,-0.261882258869244,0.9479006456322572,0.102545440196991,-0.3417041897773743,-0.9341962337493896,0,0,0,-1,-1,3304.55154975,unknown,2,2022-06-02T10:56:06.410+02:00,2022-06-02T10:17:13.754+02:00,521,1.631355,0,0,405.4342,0,0,2022-06-02T10:55:58.733+02:00,675852958.7332413,0,4.773438,101.3258,1,0.77
2022-06-02T10:56:08.857+02:00,1654160168.000345,53.22910133269347,10.39854020390932,36.84525,0,20,-1,-1,2.400000095367432,7.999579855010837,-9999,3306.997256791667,0.1980133056640625,-0.3928680419921875,-1.007522583007812,3306.987261791667,-0.562599375752263,0.1106790809706977,0.3466380608185619,-0.1522551476955414,-0.1402134895324707,-0.36015984416008,0.1029036194086075,-0.1993247270584106,0.02955305576324463,XArbitraryZVertical,0.1805454204041727,0.004540873588859855,-0.2638630944331136,0.9475014619590452,0.1038835123181343,-0.3397377729415894,-0.9347654581069946,0,0,0,-1,-1,3304.55154975,unknown,2,2022-06-02T10:56:06.410+02:00,2022-06-02T10:17:13.754+02:00,521,1.631355,0,0,405.4342,0,0,2022-06-02T10:55:58.733+02:00,675852958.7332413,0,4.773438,101.3258,1,0.77
2022-06-02T10:56:08.867+02:00,1654160168.000345,53.22910133269347,10.39854020390932,36.84525,0,20,-1,-1,2.400000095367432,7.999579855010837,-9999,3307.007250791667,0.2127227783203125,-0.3693695068359375,-1.072219848632812,3306.997256791667,-0.5665299865377657,0.1117462736133836,0.3447013781568508,-0.1191622093319893,-0.1107459515333176,-0.3550784587860107,0.1008105874061584,-0.09717348217964172,-0.03777730464935303,XArbitraryZVertical,0.1797839124612284,0.004966456110609366,-0.2657259772994077,0.9471233121797773,0.1049542054533958,-0.3379156291484833,-0.9353061318397522,0,0,0,-1,-1,3304.55154975,unknown,2,2022-06-02T10:56:06.410+02:00,2022-06-02T10:17:13.754+02:00,521,1.631355,0,0,405.4342,0,0,2022-06-02T10:55:58.733+02:00,675852958.7332413,0,4.773438,101.3258,1,0.77
2022-06-02T10:56:08.877+02:00,1654160168.000345,53.22910133269347,10.39854020390932,36.84525,0,20,-1,-1,2.400000095367432,7.999579855010837,-9999,3307.017244791667,0.2358856201171875,-0.406494140625,-1.050704956054688,3307.007250791667,-0.5707164089779999,0.1133066905872454,0.3436394603442453,-0.01217690389603376,-0.05537803843617439,-0.3912428617477417,0.090781070291996,-0.03872489929199219,-0.1120338439941406,XArbitraryZVertical,0.1795030080285038,0.005480604250300745,-0.2676215270434652,0.9466399846101109,0.1064540594816208,-0.3369159996509552,-0.9354972839355469,0,0,0,-1,-1,3304.55154975,unknown,2,2022-06-02T10:56:06.410+02:00,2022-06-02T10:17:13.754+02:00,521,1.631355,0,0,405.4342,0,0,2022-06-02T10:55:58.733+02:00,675852958.7332413,0,4.773438,101.3258,1,0.77
2022-06-02T10:56:08.887+02:00,1654160168.000345,53.22910133269347,10.39854020390932,36.84525,0,20,-1,-1,2.400000095367432,7.999579855010837,-9999,3307.027238791667,0.2782135009765625,-0.4872283935546875,-1.016250610351562,3307.017244791667,-0.5755546072927091,0.1155107300829921,0.343254867415999,0.02896124497056007,0.002076266799122095,-0.4577415287494659,0.1188101246953011,-0.03919380903244019,-0.1320700645446777,XArbitraryZVertical,0.1796322455585505,0.006144352528851642,-0.2697325642261383,0.9460120161825676,0.1085305958986282,-0.3365538716316223,-0.93538898229599,0,0,0,-1,-1,3304.55154975,unknown,2,2022-06-02T10:56:06.410+02:00,2022-06-02T10:17:13.754+02:00,521,1.631355,0,0,405.4342,0,0,2022-06-02T10:55:58.733+02:00,675852958.7332413,0,4.773438,101.3258,1,0.77
2022-06-02T10:56:08.897+02:00,1654160168.000345,53.22910133269347,10.39854020390932,36.84525,0,20,-1,-1,2.400000095367432,7.999579855010837,-9999,3307.037233791667,0.31280517578125,-0.518707275390625,-0.94482421875,3307.027238791667,-0.580841741542533,0.1182780848371264,0.3427879843602314,-0.01719080284237862,0.0278058648109436,-0.4695976376533508,0.1425401270389557,-0.1138827800750732,-0.09874027967453003,XArbitraryZVertical,0.1798050372603167,0.007045452207916541,-0.2720080347367292,0.9453211720971322,0.1111372634768486,-0.3361141681671143,-0.9352410435676575,0,0,0,-1,-1,3304.55154975,unknown,2,2022-06-02T10:56:06.410+02:00,2022-06-02T10:17:13.754+02:00,521,1.631355,0,0,405.4342,0,0,2022-06-02T10:55:58.733+02:00,675852958.7332413,0,4.773438,101.3258,1,0.77
2022-06-02T10:56:08.906+02:00,1654160168.000345,53.22910133269347,10.39854020390932,36.84525,0,20,-1,-1,2.400000095367432,7.999579855010837,-9999,3307.047227791667,0.303192138671875,-0.527984619140625,-0.8695068359375,3307.037233791667,-0.5858031647804256,0.1209267928922264,0.3414438043336622,-0.1535427868366241,0.003509314265102148,-0.4378160238265991,0.1865787655115128,-0.1725220382213593,-0.05363786220550537,XArbitraryZVertical,0.1795542237920697,0.008047913430035279,-0.2741851636597267,0.9447317002846791,0.1136684492230415,-0.3348478972911835,-0.9353910088539124,0,0,0,-1,-1,3304.55154975,unknown,2,2022-06-02T10:56:06.410+02:00,2022-06-02T10:17:13.754+02:00,521,1.631355,0,0,405.4342,0,0,2022-06-02T10:55:58.733+02:00,675852958.7332413,0,4.773438,101.3258,1,0.77
2022-06-02T10:56:08.916+02:00,1654160168.000345,53.22910133269347,10.39854020390932,36.84525,0,20,-1,-1,2.400000095367432,7.999579855010837,-9999,3307.057221791667,0.2757415771484375,-0.44366455078125,-0.851104736328125,3307.047227791667,-0.5903990219615542,0.1231643493828715,0.3390878020226715,-0.2333966046571732,-0.03334830328822136,-0.4151157736778259,0.195574164390564,-0.1974786221981049,0.03621071577072144,XArbitraryZVertical,0.1787762163842824,0.009040393636101741,-0.2762805690283328,0.9442596773701543,0.1158577501773834,-0.3326269686222076,-0.9359146952629089,0,0,0,-1,-1,3304.55154975,unknown,2,2022-06-02T10:56:06.410+02:00,2022-06-02T10:17:13.754+02:00,521,1.631355,0,0,405.4342,0,0,2022-06-02T10:55:58.733+02:00,675852958.7332413,0,4.773438,101.3258,1,0.77
2022-06-02T10:56:08.926+02:00,1654160168.000345,53.22910133269347,10.39854020390932,36.84525,0,20,-1,-1,2.400000095367432,7.999579855010837,-9999,3307.067215791667,0.2358551025390625,-0.3266143798828125,-0.8726043701171875,3307.067215791667,-0.5978228869798566,0.1260487160320818,0.3352243206013478,-0.02384844049811363,-0.08188574016094208,-0.2911096513271332,0.1391561031341553,-0.05422821640968323,0.07443302869796753,XArbitraryZVertical,0.1774015777829037,0.01031621008171316,-0.2797354100529471,0.9434883133152578,0.1187174543738365,-0.3289810121059418,-0.936844527721405,0,0,0,-1,-1,3304.55154975,unknown,2,2022-06-02T10:56:06.410+02:00,2022-06-02T10:17:13.754+02:00,521,1.631355,0,0,405.4342,0,0,2022-06-02T10:55:58.733+02:00,675852958.7332413,0,4.773438,101.3258,1,0.77
2022-06-02T10:56:08.937+02:00,1654160168.000345,53.22910133269347,10.39854020390932,36.84525,0,20,-1,-1,2.400000095367432,7.999579855010837,-9999,3307.077210791667,0.1942901611328125,-0.25927734375,-0.8928070068359375,3307.067215791667,-0.5978228869798566,0.1260487160320818,0.3352243206013478,-0.02384844049811363,-0.08188574016094208,-0.2911096513271332,0.1391561031341553,-0.05422821640968323,0.07443302869796753,XArbitraryZVertical,0.1774015777829037,0.01031621008171316,-0.2797354100529471,0.9434883133152578,0.1187174543738365,-0.3289810121059418,-0.936844527721405,0,0,0,-1,-1,3304.55154975,unknown,2,2022-06-02T10:56:06.410+02:00,2022-06-02T10:17:13.754+02:00,521,1.631355,0,0,405.4342,0,0,2022-06-02T10:55:58.733+02:00,675852958.7332413,0,4.773438,101.3258,1,0.77
2022-06-02T10:56:08.946+02:00,1654160168.000345,53.22910133269347,10.39854020390932,36.84525,0,20,-1,-1,2.400000095367432,7.999579855010837,-9999,3307.087204791667,0.186065673828125,-0.25958251953125,-0.9214935302734375,3307.077210791667,-0.6013267861762683,0.1273074769832845,0.3362122389312749,0.2340142577886581,-0.06285080313682556,-0.2940362095832825,0.09254706650972366,0.04593244194984436,0.05423039197921753,XArbitraryZVertical,0.1780591208034465,0.01044994146557658,-0.2812222284732152,0.9429207813353198,0.1198552995920181,-0.3299137651920319,-0.9363715052604675,0,0,0,-1,-1,3304.55154975,unknown,2,2022-06-02T10:56:06.410+02:00,2022-06-02T10:17:13.754+02:00,521,1.631355,0,0,405.4342,0,0,2022-06-02T10:55:58.733+02:00,675852958.7332413,0,4.773438,101.3258,1,0.77
2022-06-02T10:56:08.956+02:00,1654160168.000345,53.22910133269347,10.39854020390932,36.84525,0,20,-1,-1,2.400000095367432,7.999579855010837,-9999,3307.0971985,0.198394775390625,-0.3112030029296875,-0.9701995849609375,3307.087204791667,-0.605091311368439,0.1288202379701752,0.339352886604916,0.406751960515976,-0.03626925870776176,-0.2827747762203217,0.06569067388772964,0.08202245831489563,0.02828133106231689,XArbitraryZVertical,0.1797620181720629,0.01035109004963146,-0.2826881773300062,0.9421601353547118,0.1211379617452621,-0.3328769505023956,-0.9351569414138794,0,0,0,-1,-1,3304.55154975,unknown,2,2022-06-02T10:56:06.410+02:00,2022-06-02T10:17:13.754+02:00,521,1.631355,0,0,405.4342,0,0,2022-06-02T10:55:58.733+02:00,675852958.7332413,0,4.773438,101.3258,1,0.77
2022-06-02T10:56:08.966+02:00,1654160168.000345,53.22910133269347,10.39854020390932,36.84525,0,20,-1,-1,2.400000095367432,7.999579855010837,-9999,3307.1071925,0.2108306884765625,-0.36114501953125,-0.9899139404296875,3307.0971985,-0.6087690135449005,0.1304462343039253,0.3434662736388945,0.4386638104915619,-0.02449808642268181,-0.2527060806751251,0.06802678108215332,0.05344301462173462,-0.0101933479309082,XArbitraryZVertical,0.1819346210854773,0.01015818458808143,-0.2840434220265238,0.9413372144120177,0.122479222714901,-0.3367529213428497,-0.933593213558197,0,0,0,-1,-1,3304.55154975,unknown,2,2022-06-02T10:56:06.410+02:00,2022-06-02T10:17:13.754+02:00,521,1.631355,0,0,405.4342,0,0,2022-06-02T10:55:58.733+02:00,675852958.7332413,0,4.773438,101.3258,1,0.77
2022-06-02T10:56:08.976+02:00,1654160168.000345,53.22910133269347,10.39854020390932,36.84525,0,20,-1,-1,2.400000095367432,7.999579855010837,-9999,3307.1171865,0.218994140625,-0.4215545654296875,-0.989227294921875,3307.1071925,-0.6120704624343039,0.1319376502316558,0.3470546195241977,0.3120227754116058,-0.02491407096385956,-0.2337204217910767,0.08264818787574768,0.002071082592010498,-0.0535273551940918,XArbitraryZVertical,0.183839635036226,0.01000873750788382,-0.2852573868181548,0.9406014284943189,0.1237116903066635,-0.3401295244693756,-0.9322056174278259,0,0,0,-1,-1,3304.55154975,unknown,2,2022-06-02T10:56:06.410+02:00,2022-06-02T10:17:13.754+02:00,521,1.631355,0,0,405.4342,0,0,2022-06-02T10:55:58.733+02:00,675852968.9676026,0,4,101.3329,1,0.77
2022-06-02T10:56:08.987+02:00,1654160168.000345,53.22910133269347,10.39854020390932,36.84525,0,20,-1,-1,2.400000095367432,7.999579855010837,-9999,3307.1271815,0.2189788818359375,-0.4788818359375,-0.9682464599609375,3307.1271815,-0.618430042603459,0.1349936745541473,0.3491177245293227,-0.05875033140182495,0.001055011292919517,-0.28754723072052,0.09370385110378265,-0.1143519878387451,-0.05382895469665527,XArbitraryZVertical,0.1852726831564231,0.01054001514004544,-0.287846062963108,0.9395251539386724,0.1264652460813522,-0.3420688807964325,-0.9311258792877197,0,0,0,-1,-1,3307.1095725,unknown,2,2022-06-02T10:56:08.968+02:00,2022-06-02T10:17:13.754+02:00,521,1.631355,0,0,405.4342,0,0,2022-06-02T10:55:58.733+02:00,675852968.9676026,0,4,101.3329,1,0.77
2022-06-02T10:56:08.997+02:00,1654160168.000345,53.22910133269347,10.39854020390932,36.84525,0,20,-1,-1,2.400000095367432,7.999579855010837,-9999,3307.1371755,0.215362548828125,-0.4662322998046875,-0.9113006591796875,3307.1271815,-0.618430042603459,0.1349936745541473,0.3491177245293227,-0.05875033140182495,0.001055011292919517,-0.28754723072052,0.09370385110378265,-0.1143519878387451,-0.05382895469665527,XArbitraryZVertical,0.1852726831564231,0.01054001514004544,-0.287846062963108,0.9395251539386724,0.1264652460813522,-0.3420688807964325,-0.9311258792877197,0,0,0,-1,-1,3307.1095725,unknown,2,2022-06-02T10:56:08.968+02:00,2022-06-02T10:17:13.754+02:00,521,1.631355,0,0,405.4342,0,0,2022-06-02T10:55:58.733+02:00,675852968.9676026,0,4,101.3329,1,0.77
2022-06-02T10:56:09.007+02:00,1654160168.000345,53.22910133269347,10.39854020390932,36.84525,0,20,-1,-1,2.400000095367432,7.999579855010837,-9999,3307.1471695,0.2141876220703125,-0.39874267578125,-0.8672637939453125,3307.1371755,-0.6214170412811015,0.1367207272635639,0.3474624207420347,-0.2066048681735992,0.0203773770481348,-0.2695821523666382,0.08922657370567322,-0.1412374973297119,-0.009726881980895996,XArbitraryZVertical,0.1847666186350977,0.01133219013719295,-0.2891855568914237,0.939204243941351,0.128150150179863,-0.3405129611492157,-0.931465744972229,0,0,0,-1,-1,3307.1095725,unknown,2,2022-06-02T10:56:08.968+02:00,2022-06-02T10:17:13.754+02:00,521,1.631355,0,0,405.4342,0,0,2022-06-02T10:55:58.733+02:00,675852968.9676026,0,4,101.3329,1,0.77
2022-06-02T10:56:09.017+02:00,1654160168.000345,53.22910133269347,10.39854020390932,36.84525,0,20,-1,-1,2.400000095367432,7.999579855010837,-9999,3307.1571635,0.2030487060546875,-0.344573974609375,-0.845977783203125,3307.1471695,-0.6241952801260309,0.138533408449597,0.3450206120807295,-0.2278387844562531,0.03415470942854881,-0.279644101858139,0.085150346159935,-0.09723922610282898,0.04615789651870728,XArbitraryZVertical,0.1839080669341154,0.01230862464612298,-0.2904660094038303,0.9389651977237446,0.1299528181552887,-0.3382160663604736,-0.9320526123046875,0,0,0,-1,-1,3307.1095725,unknown,2,2022-06-02T10:56:08.968+02:00,2022-06-02T10:17:13.754+02:00,521,1.631355,0,0,405.4342,0,0,2022-06-02T10:55:58.733+02:00,675852968.9676026,0,4,101.3329,1,0.77
2022-06-02T10:56:09.026+02:00,1654160168.000345,53.22910133269347,10.39854020390932,36.84525,0,20,-1,-1,2.400000095367432,7.999579855010837,-9999,3307.1671585,0.1856536865234375,-0.3395538330078125,-0.85516357421875,3307.1571635,-0.6273661791008893,0.1405407034962703,0.3429925787542437,-0.1191553846001625,0.0417453832924366,-0.3348110616207123,0.0783621072769165,-0.0280424952507019,0.07971447706222534,XArbitraryZVertical,0.1832760764152294,0.01327805679234196,-0.2918897216978373,0.9386340147885655,0.1319192796945572,-0.3363068699836731,-0.9324671626091003,0,0,0,-1,-1,3307.1095725,unknown,2,2022-06-02T10:56:08.968+02:00,2022-06-02T10:17:13.754+02:00,521,1.631355,0,0,405.4342,0,0,2022-06-02T10:55:58.733+02:00,675852968.9676026,0,4,101.3329,1,0.77
2022-06-02T10:56:09.037+02:00,1654160168.000345,53.22910133269347,10.39854020390932,36.84525,0,20,-1,-1,2.400000095367432,7.999579855010837,-9999,3307.1771525,0.1756134033203125,-0.3590545654296875,-0.8696441650390625,3307.1671585,-0.631193544319223,0.1428746080192248,0.3422284657361399,0.02073487266898155,0.06081628054380417,-0.3670896589756012,0.06072300672531128,-0.003142684698104858,0.0833965539932251,XArbitraryZVertical,0.1832882222791343,0.01414295071089042,-0.2935170318323326,0.9381114300894315,0.1341317594051361,-0.3355871737003326,-0.9324108362197876,0,0,0,-1,-1,3307.1095725,unknown,2,2022-06-02T10:56:08.968+02:00,2022-06-02T10:17:13.754+02:00,521,1.631355,0,0,405.4342,0,0,2022-06-02T10:55:58.733+02:00,675852968.9676026,0,4,101.3329,1,0.77
2022-06-02T10:56:09.047+02:00,1654160168.000345,53.22910133269347,10.39854020390932,36.84525,0,20,-1,-1,2.400000095367432,7.999579855010837,-9999,3307.1871465,0.186065673828125,-0.371978759765625,-0.8688507080078125,3307.1771525,-0.6354420347182732,0.1455669447955546,0.3425725332088457,0.1177184134721756,0.09370046108961105,-0.3902215957641602,0.04265066981315613,-0.01205018162727356,0.06744533777236938,XArbitraryZVertical,0.1838754232110264,0.0149607332668582,-0.2952412497569959,0.9374425869653639,0.1366248726844788,-0.3359112441539764,-0.9319320321083069,0,0,0,-1,-1,3307.1095725,unknown,2,2022-06-02T10:56:08.968+02:00,2022-06-02T10:17:13.754+02:00,521,1.631355,0,0,405.4342,0,0,2022-06-02T10:55:58.733+02:00,675852968.9676026,0,4,101.3329,1,0.77
2022-06-02T10:56:09.057+02:00,1654160168.000345,53.22910133269347,10.39854020390932,36.84525,0,20,-1,-1,2.400000095367432,7.999579855010837,-9999,3307.1971405,0.2205963134765625,-0.347564697265625,-0.85906982421875,3307.1871465,-0.6400910174174023,0.1487233080660315,0.3436264562014543,0.1757747828960419,0.1286248862743378,-0.417955756187439,0.03809915482997894,-0.03348809480667114,0.06052476167678833,XArbitraryZVertical,0.1848682638737547,0.01584237301209529,-0.2970640884780713,0.9366565770057883,0.1395131647586823,-0.3369037508964539,-0.9311454892158508,0,0,0,-1,-1,3307.1095725,unknown,2,2022-06-02T10:56:08.968+02:00,2022-06-02T10:17:13.754+02:00,521,1.631355,0,0,405.4342,0,0,2022-06-02T10:55:58.733+02:00,675852968.9676026,0,4,101.3329,1,0.77
2022-06-02T10:56:09.067+02:00,1654160168.000345,53.22910133269347,10.39854020390932,36.84525,0,20,-1,-1,2.400000095367432,7.999579855010837,-9999,3307.2071355,0.251953125,-0.3140411376953125,-0.8527374267578125,3307.1971405,-0.6450712055189419,0.152173278332092,0.345127262397927,0.2226867377758026,0.1315383166074753,-0.4368566870689392,0.05953103303909302,-0.02729940414428711,0.06350439786911011,XArbitraryZVertical,0.1861193558166346,0.01675347727061471,-0.2989821651329201,0.9357823594297608,0.1426479518413544,-0.3383164405822754,-0.9301578402519226,0,0,0,-1,-1,3307.1095725,unknown,2,2022-06-02T10:56:08.968+02:00,2022-06-02T10:17:13.754+02:00,521,1.631355,0,0,405.4342,0,0,2022-06-02T10:55:58.733+02:00,675852968.9676026,0,4,101.3329,1,0.77
2022-06-02T10:56:09.077+02:00,1654160168.000345,53.22910133269347,10.39854020390932,36.84525,0,20,-1,-1,2.400000095367432,7.999579855010837,-9999,3307.2171295,0.260009765625,-0.338775634765625,-0.8654327392578125,3307.2171295,-0.6557159422709427,0.1587107540481071,0.3483325845986502,0.1826889216899872,0.07875540107488632,-0.4715740382671356,0.1103575378656387,0.02356675267219543,0.06666439771652222,XArbitraryZVertical,0.1886812600532966,0.0182886378330561,-0.3031410058024879,0.9339005871934413,0.1485535949468613,-0.3413310050964355,-0.9281297922134399,0,0,0,-1,-1,3307.1095725,unknown,2,2022-06-02T10:56:08.968+02:00,2022-06-02T10:17:13.754+02:00,521,1.631355,0,0,405.4342,0,0,2022-06-02T10:55:58.733+02:00,675852968.9676026,0,4,101.3329,1,0.77
2022-06-02T10:56:09.087+02:00,1654160168.000345,53.22910133269347,10.39854020390932,36.84525,0,20,-1,-1,2.400000095367432,7.999579855010837,-9999,3307.2271235,0.2591552734375,-0.40167236328125,-0.862579345703125,3307.2171295,-0.6557159422709427,0.1587107540481071,0.3483325845986502,0.1826889216899872,0.07875540107488632,-0.4715740382671356,0.1103575378656387,0.02356675267219543,0.06666439771652222,XArbitraryZVertical,0.1886812600532966,0.0182886378330561,-0.3031410058024879,0.9339005871934413,0.1485535949468613,-0.3413310050964355,-0.9281297922134399,0,0,0,-1,-1,3307.1095725,unknown,2,2022-06-02T10:56:08.968+02:00,2022-06-02T10:17:13.754+02:00,521,1.631355,0,0,405.4342,0,0,2022-06-02T10:55:58.733+02:00,675852968.9676026,0,4,101.3329,1,0.77
2022-06-02T10:56:09.096+02:00,1654160168.000345,53.22910133269347,10.39854020390932,36.84525,0,20,-1,-1,2.400000095367432,7.999579855010837,-9999,3307.2371175,0.2570648193359375,-0.428131103515625,-0.847564697265625,3307.2271235,-0.6610245376488679,0.1615793060569359,0.3490655173055037,0.08441801369190216,0.05633983761072159,-0.459699273109436,0.1085142642259598,-0.03012678027153015,0.06150120496749878,XArbitraryZVertical,0.1895058621564421,0.01900446664522244,-0.3052996449773484,0.9330158448288264,0.1511750817298889,-0.3420198261737823,-0.9274527430534363,0,0,0,-1,-1,3307.1095725,unknown,2,2022-06-02T10:56:08.968+02:00,2022-06-02T10:17:13.754+02:00,521,1.631355,0,0,405.4342,0,0,2022-06-02T10:55:58.733+02:00,675852968.9676026,0,4,101.3329,1,0.77
2022-06-02T10:56:09.106+02:00,1654160169.000347,53.22909793995312,10.39853286097799,36.83962,0,20,-1,-1,2.400000095367432,7.999579855010835,-9999,3307.2471125,0.2434844970703125,-0.4410552978515625,-0.815277099609375,3307.2371175,-0.6659595128188097,0.1640663008594573,0.3486114056919924,-0.05716125667095184,0.02620583772659302,-0.4467906057834625,0.1052215099334717,-0.07802364230155945,0.07117843627929688,XArbitraryZVertical,0.1897249841077938,0.01977194202823947,-0.3073951395705244,0.9322669576387527,0.1535065323114395,-0.3415930569171906,-0.9272270202636719,0,0,0,-1,-1,3307.1095725,unknown,2,2022-06-02T10:56:08.968+02:00,2022-06-02T10:17:13.754+02:00,521,1.631355,0,0,405.4342,0,0,2022-06-02T10:55:58.733+02:00,675852968.9676026,0,4,101.3329,1,0.77
2022-06-02T10:56:09.116+02:00,1654160169.000347,53.22909793995312,10.39853286097799,36.83962,0,20,-1,-1,2.400000095367432,7.999579855010835,-9999,3307.2571065,0.2201995849609375,-0.451019287109375,-0.79046630859375,3307.2471125,-0.6705944130004918,0.1661476460598584,0.346540667738751,-0.2424142062664032,-0.001640973263420165,-0.4673382043838501,0.09678186476230621,-0.09542766213417053,0.093586266040802,XArbitraryZVertical,0.1891375604943408,0.02065006943430541,-0.3094957497812513,0.9316721025862302,0.1555527299642563,-0.3396461606025696,-0.9276010990142822,0,0,0,-1,-1,3307.1095725,unknown,2,2022-06-02T10:56:08.968+02:00,2022-06-02T10:17:13.754+02:00,521,1.631355,0,0,405.4342,0,0,2022-06-02T10:55:58.733+02:00,675852968.9676026,0,4,101.3329,1,0.77
2022-06-02T10:56:09.126+02:00,1654160169.000347,53.22909793995312,10.39853286097799,36.83962,0,20,-1,-1,2.400000095367432,7.999579855010835,-9999,3307.2671005,0.193328857421875,-0.4605255126953125,-0.7596588134765625,3307.2571065,-0.6753223162512597,0.1679936346834737,0.3424730844025935,-0.4469906389713287,-0.02479342930018902,-0.5188432335853577,0.07410341501235962,-0.1117379665374756,0.1267259120941162,XArbitraryZVertical,0.187599266086628,0.02175118328152982,-0.3117962493228074,0.9311908937991918,0.1574945002794266,-0.3358175754547119,-0.9286668300628662,0,0,0,-1,-1,3307.1095725,unknown,2,2022-06-02T10:56:08.968+02:00,2022-06-02T10:17:13.754+02:00,521,1.631355,0,0,405.4342,0,0,2022-06-02T10:55:58.733+02:00,675852968.9676026,0,4,101.3329,1,0.77
2022-06-02T10:56:09.136+02:00,1654160169.000347,53.22909793995312,10.39853286097799,36.83962,0,20,-1,-1,2.400000095367432,7.999579855010835,-9999,3307.2770945,0.1676788330078125,-0.5106658935546875,-0.7015228271484375,3307.2671005,-0.6801117447913481,0.1696195329729256,0.336247299316719,-0.6711704730987549,-0.04755999520421028,-0.5639358758926392,0.04723471403121948,-0.1245514154434204,0.1547259092330933,XArbitraryZVertical,0.1850388024946933,0.02311992971693835,-0.3142923566175755,0.9308310092451776,0.1593540608882904,-0.3299468755722046,-0.9304522275924683,0,0,0,-1,-1,3307.1095725,unknown,2,2022-06-02T10:56:08.968+02:00,2022-06-02T10:17:13.754+02:00,521,1.631355,0,0,405.4342,0,0,2022-06-02T10:55:58.733+02:00,675852968.9676026,0,4,101.3329,1,0.77
2022-06-02T10:56:09.146+02:00,1654160169.000347,53.22909793995312,10.39853286097799,36.83962,0,20,-1,-1,2.400000095367432,7.999579855010835,-9999,3307.2870895,0.1136932373046875,-0.586273193359375,-0.60357666015625,3307.2770945,-0.6850823516420547,0.1710263224321398,0.3273162050608677,-0.9860166907310486,-0.07011476904153824,-0.6567132472991943,0.01906362175941467,-0.1553647816181183,0.1958959102630615,XArbitraryZVertical,0.1812062796091398,0.02484738774516056,-0.3170755842787509,0.9305965595952108,0.1611579656600952,-0.3215028941631317,-0.933093786239624,0,0,0,-1,-1,3307.1095725,unknown,2,2022-06-02T10:56:08.968+02:00,2022-06-02T10:17:13.754+02:00,521,1.631355,0,0,405.4342,0,0,2022-06-02T10:55:58.733+02:00,675852968.9676026,0,4,101.3329,1,0.77
2022-06-02T10:56:09.156+02:00,1654160169.000347,53.22909793995312,10.39853286097799,36.83962,0,20,-1,-1,2.400000095367432,7.999579855010835,-9999,3307.2970835,0.0470123291015625,-0.6833038330078125,-0.5315704345703125,3307.2870895,-0.690380906324452,0.1721395494989916,0.3141296186086308,-1.52589213848114,-0.1002020984888077,-0.7551402449607849,-0.01202975213527679,-0.2417466938495636,0.2824074029922485,XArbitraryZVertical,0.1753778567680276,0.02716413559400325,-0.3203203567534813,0.9305372289516102,0.162908673286438,-0.3089888095855713,-0.9370094537734985,0,0,0,-1,-1,3307.1095725,unknown,2,2022-06-02T10:56:08.968+02:00,2022-06-02T10:17:13.754+02:00,521,1.631355,0,0,405.4342,0,0,2022-06-02T10:55:58.733+02:00,675852968.9676026,0,4,101.3329,1,0.77
2022-06-02T10:56:09.166+02:00,1654160169.000347,53.22909793995312,10.39853286097799,36.83962,0,20,-1,-1,2.400000095367432,7.999579855010835,-9999,3307.3070775,0.0237274169921875,-0.7236328125,-0.4807281494140625,3307.2970835,-0.6954763297602389,0.1729555138069063,0.2943434911704469,-2.270458698272705,-0.1037895753979683,-0.8600786924362183,-0.0865224301815033,-0.3384741246700287,0.381206750869751,XArbitraryZVertical,0.166463136253253,0.03053815149167045,-0.3239214486775051,0.9308233942257474,0.1646932065486908,-0.290111631155014,-0.9427148699760437,0,0,0,-1,-1,3307.1095725,unknown,2,2022-06-02T10:56:08.968+02:00,2022-06-02T10:17:13.754+02:00,521,1.631355,0,0,405.4342,0,0,2022-06-02T10:55:58.733+02:00,675852968.9676026,0,4,101.3329,1,0.77
2022-06-02T10:56:09.176+02:00,1654160169.000347,53.22909793995312,10.39853286097799,36.83962,0,20,-1,-1,2.400000095367432,7.999579855010835,-9999,3307.3170715,-0.0017547607421875,-0.7108001708984375,-0.45281982421875,3307.3070775,-0.699897663615339,0.1733708408978721,0.2666707656979806,-3.103649854660034,-0.1200268715620041,-0.9373745918273926,-0.1346374154090881,-0.4518717229366302,0.4447449445724487,XArbitraryZVertical,0.1538336449717536,0.0352000830152539,-0.3277186989574667,0.9315023256500554,0.1664062440395355,-0.2635213434696198,-0.9501923322677612,0,0,0,-1,-1,3307.1095725,unknown,2,2022-06-02T10:56:08.968+02:00,2022-06-02T10:17:13.754+02:00,521,1.631355,0,0,405.4342,0,0,2022-06-02T10:55:58.733+02:00,675852968.9676026,0,4,101.3329,1,0.77
2022-06-02T10:56:09.186+02:00,1654160169.000347,53.22909793995312,10.39853286097799,36.83962,0,20,-1,-1,2.400000095367432,7.999579855010835,-9999,3307.3270655,-0.023193359375,-0.689605712890625,-0.44598388671875,3307.3170715,-0.7039165047451298,0.1733526279153891,0.2305155140522809,-3.963673114776611,-0.1274794042110443,-1.081971764564514,-0.1565096527338028,-0.4919032454490662,0.4970279335975647,XArbitraryZVertical,0.137192848193697,0.04122518282269687,-0.3318185867853851,0.9324028151086561,0.1679232269525528,-0.2284794300794601,-0.9589571952819824,0,0,0,-1,-1,3307.1095725,unknown,2,2022-06-02T10:56:08.968+02:00,2022-06-02T10:17:13.754+02:00,521,1.631355,0,0,405.4342,0,0,2022-06-02T10:55:58.733+02:00,675852968.9676026,0,4,101.3329,1,0.77
2022-06-02T10:56:09.196+02:00,1654160169.000347,53.22909793995312,10.39853286097799,36.83962,0,20,-1,-1,2.400000095367432,7.999579855010835,-9999,3307.3370605,-0.0459136962890625,-0.6708221435546875,-0.47552490234375,3307.3270655,-0.7080647603894115,0.173221049037796,0.1853396832238791,-4.868921756744385,-0.113464243710041,-1.283544063568115,-0.1824505031108856,-0.51165771484375,0.5224097371101379,XArbitraryZVertical,0.1163331527282143,0.04882863771818242,-0.3363932025219935,0.9332320512480411,0.1694042682647705,-0.1842804104089737,-0.9681647419929504,0,0,0,-1,-1,3307.1095725,unknown,2,2022-06-02T10:56:08.968+02:00,2022-06-02T10:17:13.754+02:00,521,1.631355,0,0,405.4342,0,0,2022-06-02T10:55:58.733+02:00,675852968.9676026,0,4,101.3329,1,0.77
2022-06-02T10:56:09.207+02:00,1654160169.000347,53.22909793995312,10.39853286097799,36.83962,0,20,-1,-1,2.400000095367432,7.999579855010835,-9999,3307.3470545,-0.0733795166015625,-0.548980712890625,-0.4885711669921875,3307.3370605,-0.7125125454015849,0.1730172574921853,0.131187839160691,-5.733216285705566,-0.1072456985712051,-1.437583208084106,-0.2053134888410568,-0.559343159198761,0.518155038356781,XArbitraryZVertical,0.09127044709076756,0.05802627284147653,-0.3414088873536838,0.9336715380752023,0.1706760376691818,-0.130811870098114,-0.9766052961349487,0,0,0,-1,-1,3307.1095725,unknown,2,2022-06-02T10:56:08.968+02:00,2022-06-02T10:17:13.754+02:00,521,1.631355,0,0,405.4342,0,0,2022-06-02T10:55:58.733+02:00,675852968.9676026,0,4,101.3329,1,0.77
2022-06-02T10:56:09.217+02:00,1654160169.000347,53.22909793995312,10.39853286097799,36.83962,0,20,-1,-1,2.400000095367432,7.999579855010835,-9999,3307.3570485,-0.122314453125,-0.3798828125,-0.5323638916015625,3307.3470545,-0.7164321021968675,0.1727144286295216,0.06862767077715347,-6.527781963348389,-0.05498835071921349,-1.494239568710327,-0.2281693816184998,-0.5524741411209106,0.4985347986221313,XArbitraryZVertical,0.06223146530654111,0.06874416399464683,-0.3463208015144727,0.9335219803428655,0.1714524775743484,-0.06857381016016006,-0.9828029870986938,0,0,0,-1,-1,3307.1095725,unknown,2,2022-06-02T10:56:08.968+02:00,2022-06-02T10:17:13.754+02:00,521,1.631355,0,0,405.4342,0,0,2022-06-02T10:55:58.733+02:00,675852968.9676026,0,4,101.3329,1,0.77
2022-06-02T10:56:09.226+02:00,1654160169.000347,53.22909793995312,10.39853286097799,36.83962,0,20,-1,-1,2.400000095367432,7.999579855010835,-9999,3307.3670425,-0.162811279296875,-0.204437255859375,-0.621978759765625,3307.3570485,-0.7198205905633738,0.1728174112947469,-0.0007083255846994474,-7.070355892181396,0.03441176936030388,-1.576670408248901,-0.2685465216636658,-0.4679019451141357,0.482204794883728,XArbitraryZVertical,0.03006421966970937,0.08089602914146979,-0.3509048904592951,0.9324256471552073,0.1719584316015244,0.0007083255331963301,-0.985103964805603,0,0,0,-1,-1,3307.1095725,unknown,2,2022-06-02T10:56:08.968+02:00,2022-06-02T10:17:13.754+02:00,521,1.631355,0,0,405.4342,0,0,2022-06-02T10:55:58.733+02:00,675852968.9676026,0,4,101.3329,1,0.77
2022-06-02T10:56:09.236+02:00,1654160169.000347,53.22909793995312,10.39853286097799,36.83962,0,20,-1,-1,2.400000095367432,7.999579855010835,-9999,3307.3770375,-0.21307373046875,-0.0532989501953125,-0.70513916015625,3307.3670425,-0.7235208665015104,0.1737032892472164,-0.07434074372780905,-7.388968467712402,0.1672502458095551,-1.711324095726013,-0.3165645599365234,-0.3637468218803406,0.4072646498680115,XArbitraryZVertical,-0.00394670455395201,0.09417485713226773,-0.3553585997127578,0.9299653973134336,0.1723537296056747,0.07427228987216949,-0.9822310209274292,0,0,0,-1,-1,3307.1095725,unknown,2,2022-06-02T10:56:08.968+02:00,2022-06-02T10:17:13.754+02:00,521,1.631355,0,0,405.4342,0,0,2022-06-02T10:55:58.733+02:00,675852968.9676026,0,4,101.3329,1,0.77
2022-06-02T10:56:09.246+02:00,1654160169.000347,53.22909793995312,10.39853286097799,36.83962,0,20,-1,-1,2.400000095367432,7.999579855010835,-9999,3307.3870315,-0.2628326416015625,0.049102783203125,-0.7434844970703125,3307.3770375,-0.7281201144958876,0.1759099304412184,-0.1508486379440616,-7.589869499206543,0.3663506209850311,-1.862464904785156,-0.3577548861503601,-0.2753992974758148,0.3057233095169067,XArbitraryZVertical,-0.03895299297119243,0.1085782493579564,-0.3598715865488882,0.9258432791929955,0.1730167269706726,0.1502771824598312,-0.9733868837356567,0,0,0,-1,-1,3307.1095725,unknown,2,2022-06-02T10:56:08.968+02:00,2022-06-02T10:17:13.754+02:00,521,1.631355,0,0,405.4342,0,0,2022-06-02T10:55:58.733+02:00,675852968.9676026,0,4,101.3329,1,0.77
2022-06-02T10:56:09.256+02:00,1654160169.000347,53.22909793995312,10.39853286097799,36.83962,0,20,-1,-1,2.400000095367432,7.999579855010835,-9999,3307.3970255,-0.3045654296875,0.0666656494140625,-0.7345733642578125,3307.3870315,-0.7336663578703019,0.1797796829902827,-0.2290046572899979,-7.666928768157959,0.6135130524635315,-1.986408233642578,-0.4139516353607178,-0.2180971801280975,0.2287960648536682,XArbitraryZVertical,-0.0742344895661943,0.1240600168293197,-0.3644478735754395,0.9199326428812654,0.174144521355629,0.2270082831382751,-0.9581966996192932,0,0,0,-1,-1,3307.1095725,unknown,2,2022-06-02T10:56:08.968+02:00,2022-06-02T10:17:13.754+02:00,521,1.631355,0,0,405.4342,0,0,2022-06-02T10:55:58.733+02:00,675852968.9676026,0,4,101.3329,1,0.77
2022-06-02T10:56:09.266+02:00,1654160169.000347,53.22909793995312,10.39853286097799,36.83962,0,20,-1,-1,2.400000095367432,7.999579855010835,-9999,3307.4070195,-0.3243560791015625,0.1480865478515625,-0.748016357421875,3307.3970255,-0.7400782154262219,0.1854471218622804,-0.307231231858928,-7.567739486694336,0.8612812757492065,-2.073412656784058,-0.4627240896224976,-0.2425147294998169,0.1921871900558472,XArbitraryZVertical,-0.1089511464931102,0.1404064925774102,-0.3690664891500041,0.9122529845862496,0.1757520437240601,0.3024206757545471,-0.9368313550949097,0,0,0,-1,-1,3307.1095725,unknown,2,2022-06-02T10:56:08.968+02:00,2022-06-02T10:17:13.754+02:00,521,1.631355,0,0,405.4342,0,0,2022-06-02T10:55:58.733+02:00,675852968.9676026,0,4,101.3329,1,0.77
2022-06-02T10:56:09.277+02:00,1654160169.000347,53.22909793995312,10.39853286097799,36.83962,0,20,-1,-1,2.400000095367432,7.999579855010835,-9999,3307.4170145,-0.3530426025390625,0.28826904296875,-0.79974365234375,3307.4070195,-0.7466082003214221,0.1931476197083636,-0.3844363270443043,-7.460831165313721,1.121201753616333,-2.03650426864624,-0.4941616654396057,-0.2801117897033691,0.1779301166534424,XArbitraryZVertical,-0.1425331145480162,0.1574745544672783,-0.3734611144834278,0.9030021601949617,0.1779385805130005,0.3750366568565369,-0.9097721576690674,0,0,0,-1,-1,3307.1095725,unknown,2,2022-06-02T10:56:08.968+02:00,2022-06-02T10:17:13.754+02:00,521,1.631355,0,0,405.4342,0,0,2022-06-02T10:55:58.733+02:00,675852968.9676026,0,4,101.3329,1,0.77
2022-06-02T10:56:09.287+02:00,1654160169.000347,53.22909793995312,10.39853286097799,36.83962,0,20,-1,-1,2.400000095367432,7.999579855010835,-9999,3307.4270085,-0.3897857666015625,0.4324188232421875,-0.8517608642578125,3307.4170145,-0.7519312099446431,0.2035730120391673,-0.4611424291706032,-7.486662864685059,1.405404210090637,-1.947268486022949,-0.5172795057296753,-0.2303109169006348,0.1069257855415344,XArbitraryZVertical,-0.1751499617114424,0.175489085744358,-0.3772035326405878,0.8923247379749458,0.1810521334409714,0.44497150182724,-0.8770521283149719,0,0,0,-1,-1,3307.1095725,unknown,2,2022-06-02T10:56:08.968+02:00,2022-06-02T10:17:13.754+02:00,521,1.631355,0,0,405.4342,0,0,2022-06-02T10:55:58.733+02:00,675852968.9676026,0,4,101.3329,1,0.77
2022-06-02T10:56:09.296+02:00,1654160169.000347,53.22909793995312,10.39853286097799,36.83962,0,20,-1,-1,2.400000095367432,7.999579855010835,-9999,3307.4370025,-0.40380859375,0.5928802490234375,-0.8748779296875,3307.4270085,-0.7550699256045943,0.2177035421161702,-0.5387441354653825,-7.653347492218018,1.748187661170959,-1.842965245246887,-0.5577237606048584,-0.150006115436554,0.005588829517364502,XArbitraryZVertical,-0.2073177333376809,0.194866091797494,-0.3801087319501467,0.8800931029739242,0.1853940486907959,0.5130584239959717,-0.838093101978302,0,0,0,-1,-1,3307.1095725,unknown,2,2022-06-02T10:56:08.968+02:00,2022-06-02T10:17:13.754+02:00,521,1.631355,0,0,405.4342,0,0,2022-06-02T10:55:58.733+02:00,675852968.9676026,0,4,101.3329,1,0.77
2022-06-02T10:56:09.310+02:00,1654160169.000347,53.22909793995312,10.39853286097799,36.83962,0,20,-1,-1,2.400000095367432,7.999579855010835,-9999,3307.4469965,-0.369659423828125,0.8037109375,-0.916839599609375,3307.4370025,-0.7550853064346512,0.2372049832589491,-0.6176039487762955,-7.781984329223633,2.178734064102173,-1.710604786872864,-0.5941041111946106,-0.07734394073486328,-0.07042968273162842,XArbitraryZVertical,-0.2389733044334662,0.2160369468824824,-0.3821612985735033,0.8661249437738844,0.191577285528183,0.5790833830833435,-0.7924395799636841,0,0,0,-1,-1,3307.1095725,unknown,2,2022-06-02T10:56:08.968+02:00,2022-06-02T10:17:13.754+02:00,521,1.631355,0,0,405.4342,0,0,2022-06-02T10:55:58.733+02:00,675852968.9676026,0,4,101.3329,1,0.77
2022-06-02T10:56:09.327+02:00,1654160169.000347,53.22909793995312,10.39853286097799,36.83962,0,20,-1,-1,2.400000095367432,7.999579855010835,-9999,3307.4569915,-0.2891387939453125,0.9637298583984375,-0.9143829345703125,3307.4469965,-0.7511890123386699,0.263671888698609,-0.6963411833883701,-7.644721508026123,2.654018878936768,-1.608141303062439,-0.5922093987464905,0.0613284707069397,-0.1546452641487122,XArbitraryZVertical,-0.2693132792375646,0.2390201172838884,-0.3835463091765366,0.8504303943442599,0.1999517232179642,0.6414149403572083,-0.7406795024871826,0,0,0,-1,-1,3307.1095725,unknown,2,2022-06-02T10:56:08.968+02:00,2022-06-02T10:17:13.754+02:00,521,1.631355,0,0,405.4342,0,0,2022-06-02T10:55:58.733+02:00,675852968.9676026,0,4,101.3329,1,0.77
2022-06-02T10:56:09.330+02:00,1654160169.000347,53.22909793995312,10.39853286097799,36.83962,0,20,-1,-1,2.400000095367432,7.999579855010835,-9999,3307.4669855,-0.184722900390625,1.044692993164062,-0.9973602294921875,3307.4569915,-0.7447526079632932,0.2963874120776283,-0.7716809713882907,-7.151038646697998,3.042331218719482,-1.634781718254089,-0.5457311868667603,0.1902474164962769,-0.2346932291984558,XArbitraryZVertical,-0.2969328098869087,0.262843813032664,-0.3851461511181307,0.8333105326938997,0.20933598279953,0.6973410248756409,-0.6854880452156067,0,0,0,-1,-1,3307.1095725,unknown,2,2022-06-02T10:56:08.968+02:00,2022-06-02T10:17:13.754+02:00,521,1.631355,0,0,405.4342,0,0,2022-06-02T10:55:58.733+02:00,675852968.9676026,0,4,101.3329,1,0.77
2022-06-02T10:56:09.336+02:00,1654160169.000347,53.22909793995312,10.39853286097799,36.83962,0,20,-1,-1,2.400000095367432,7.999579855010835,-9999,3307.4769795,-0.09405517578125,1.07135009765625,-1.052520751953125,3307.4669855,-0.7374514038078442,0.3335741736728619,-0.8408358191843546,-6.330888271331787,3.357702016830444,-1.681644678115845,-0.4530184864997864,0.2783892750740051,-0.3060897588729858,XArbitraryZVertical,-0.3208010769549602,0.286435514543132,-0.3876779871723657,0.815320284362731,0.2183383405208588,0.7452007532119751,-0.6300827264785767,0,0,0,-1,-1,3307.1095725,unknown,2,2022-06-02T10:56:08.968+02:00,2022-06-02T10:17:13.754+02:00,521,1.631355,0,0,405.4342,0,0,2022-06-02T10:55:58.733+02:00,675852968.9676026,0,4,101.3329,1,0.77
2022-06-02T10:56:09.346+02:00,1654160169.000347,53.22909793995312,10.39853286097799,36.83962,0,20,-1,-1,2.400000095367432,7.999579855010835,-9999,3307.4869735,-0.0409088134765625,1.158706665039062,-1.017578125,3307.4769795,-0.7306388010478244,0.3731538515506453,-0.9014570313100645,-5.480555534362793,3.536404371261597,-1.647764205932617,-0.3657967448234558,0.2596829533576965,-0.4722496271133423,XArbitraryZVertical,-0.3401633745476815,0.3088762017232978,-0.3914622128266139,0.7972714006976191,0.2261941134929657,0.7842317819595337,-0.5777687430381775,0,0,0,-1,-1,3307.1095725,unknown,2,2022-06-02T10:56:08.968+02:00,2022-06-02T10:17:13.754+02:00,521,1.631355,0,0,405.4342,0,0,2022-06-02T10:55:58.733+02:00,675852968.9676026,0,4,101.3329,1,0.77
2022-06-02T10:56:09.356+02:00,1654160169.000347,53.22909793995312,10.39853286097799,36.83962,0,20,-1,-1,2.400000095367432,7.999579855010835,-9999,3307.4969685,-0.0490570068359375,1.159210205078125,-1.022659301757812,3307.4869735,-0.7214138402930512,0.4165863690003285,-0.9552698268378682,-4.970908641815186,3.722211837768555,-1.44689929485321,-0.2901230752468109,0.3084235191345215,-0.5013046264648438,XArbitraryZVertical,-0.355986408373906,0.3305599884352129,-0.3956022048361268,0.7794244829397481,0.2336350828409195,0.8164695501327515,-0.5280075669288635,0,0,0,-1,-1,3307.1095725,unknown,2,2022-06-02T10:56:08.968+02:00,2022-06-02T10:17:13.754+02:00,521,1.631355,0,0,405.4342,0,0,2022-06-02T10:55:58.733+02:00,675852968.9676026,0,4,101.3329,1,0.77
2022-06-02T10:56:09.366+02:00,1654160169.000347,53.22909793995312,10.39853286097799,36.83962,0,20,-1,-1,2.400000095367432,7.999579855010835,-9999,3307.5069625,-0.0216064453125,1.23651123046875,-0.9464569091796875,3307.4969685,-0.7080313471476591,0.4660841369236657,-1.00342321146048,-4.471272945404053,4.003628730773926,-1.298745155334473,-0.2849531769752502,0.315055251121521,-0.5469437837600708,XArbitraryZVertical,-0.3687172833318559,0.3521365451855602,-0.3999052760363896,0.7616582144233011,0.2415114045143127,0.843315601348877,-0.480094850063324,0,0,0,-1,-1,3307.1095725,unknown,2,2022-06-02T10:56:08.968+02:00,2022-06-02T10:17:13.754+02:00,521,1.631355,0,0,405.4342,0,0,2022-06-02T10:55:58.733+02:00,675852968.9676026,0,4,101.3329,1,0.77
2022-06-02T10:56:09.376+02:00,1654160169.000347,53.22909793995312,10.39853286097799,36.83962,0,20,-1,-1,2.400000095367432,7.999579855010835,-9999,3307.5169565,0.056884765625,1.284286499023438,-0.831146240234375,3307.5069625,-0.6910730106485586,0.5217856332008443,-1.046216663663655,-3.994519472122192,4.269397735595703,-1.187665462493896,-0.2917977571487427,0.3242846727371216,-0.5563229322433472,XArbitraryZVertical,-0.3784584929710279,0.3737224327567525,-0.4047238225904232,0.7438408845201209,0.249637708067894,0.8655345439910889,-0.4342014193534851,0,0,0,-1,-1,3307.1095725,unknown,2,2022-06-02T10:56:08.968+02:00,2022-06-02T10:17:13.754+02:00,521,1.631355,0,0,405.4342,0,0,2022-06-02T10:55:58.733+02:00,675852968.9676026,0,4,101.3329,1,0.77
2022-06-02T10:56:09.386+02:00,1654160169.000347,53.22909793995312,10.39853286097799,36.83962,0,20,-1,-1,2.400000095367432,7.999579855010835,-9999,3307.5269505,0.1744842529296875,1.267425537109375,-0.6811370849609375,3307.5169565,-0.6715087424380053,0.5823805278929006,-1.08406837542744,-3.557621002197266,4.474540710449219,-1.140088438987732,-0.2457408905029297,0.3880892992019653,-0.5060807466506958,XArbitraryZVertical,-0.3855365436375675,0.3950256978322814,-0.4102072857105198,0.7259794357368461,0.2572612762451172,0.8838680386543274,-0.3906325399875641,0,0,0,-1,-1,3307.1095725,unknown,2,2022-06-02T10:56:08.968+02:00,2022-06-02T10:17:13.754+02:00,521,1.631355,0,0,405.4342,0,0,2022-06-02T10:55:58.733+02:00,675852968.9676026,0,4,101.3329,1,0.77
2022-06-02T10:56:09.396+02:00,1654160169.000347,53.22909793995312,10.39853286097799,36.83962,0,20,-1,-1,2.400000095367432,7.999579855010835,-9999,3307.5369455,0.280120849609375,1.259918212890625,-0.5264434814453125,3307.5269505,-0.6493322344308501,0.6474828737266473,-1.117823985173561,-3.267194986343384,4.626729965209961,-1.065560460090637,-0.1488942503929138,0.3783918023109436,-0.4061853289604187,XArbitraryZVertical,-0.3904193751896587,0.4159817719043962,-0.4162754212262199,0.7079877702590377,0.2639760375022888,0.8991502523422241,-0.3490637540817261,0,0,0,-1,-1,3307.1095725,unknown,2,2022-06-02T10:56:08.968+02:00,2022-06-02T10:17:13.754+02:00,521,1.631355,0,0,405.4342,0,0,2022-06-02T10:55:58.733+02:00,675852968.9676026,0,4,101.3329,1,0.77
2022-06-02T10:56:09.406+02:00,1654160169.000347,53.22909793995312,10.39853286097799,36.83962,0,20,-1,-1,2.400000095367432,7.999579855010835,-9999,3307.5469395,0.342437744140625,1.246307373046875,-0.384674072265625,3307.5369455,-0.6202960495148512,0.7201359895663986,-1.14868845957609,-3.225492000579834,4.699041843414307,-0.8828814625740051,-0.03737786412239075,0.3517342209815979,-0.299028605222702,XArbitraryZVertical,-0.393906858033619,0.4368688510737354,-0.4220854925260516,0.6898019013252019,0.2701811790466309,0.9122273921966553,-0.3079659938812256,0,0,0,-1,-1,3307.1095725,unknown,2,2022-06-02T10:56:08.968+02:00,2022-06-02T10:17:13.754+02:00,521,1.631355,0,0,405.4342,0,0,2022-06-02T10:55:58.733+02:00,675852968.9676026,0,4,101.3329,1,0.77
2022-06-02T10:56:09.416+02:00,1654160169.000347,53.22909793995312,10.39853286097799,36.83962,0,20,-1,-1,2.400000095367432,7.999579855010835,-9999,3307.5569335,0.388916015625,1.281204223632812,-0.2980804443359375,3307.5469395,-0.5800435390666808,0.8044434513897629,-1.177305620221287,-3.252264022827148,4.832854747772217,-0.7324216961860657,0.04061967134475708,0.3273391127586365,-0.1841247081756592,XArbitraryZVertical,-0.3964856077286643,0.4580914384906402,-0.4271389824591165,0.6711957119499,0.2762291133403778,0.923576295375824,-0.2659027874469757,0,0,0,-1,-1,3307.1095725,unknown,2,2022-06-02T10:56:08.968+02:00,2022-06-02T10:17:13.754+02:00,521,1.631355,0,0,405.4342,0,0,2022-06-02T10:55:58.733+02:00,675852968.9676026,0,4,101.3329,1,0.77
2022-06-02T10:56:09.427+02:00,1654160169.000347,53.22909793995312,10.39853286097799,36.83962,0,20,-1,-1,2.400000095367432,7.999579855010835,-9999,3307.5669275,0.421783447265625,1.3992919921875,-0.23248291015625,3307.5569335,-0.5297870186619879,0.8995569683496237,-1.202751893982317,-3.024038791656494,4.90131139755249,-0.593330979347229,0.0833771824836731,0.3199273347854614,-0.1093094348907471,XArbitraryZVertical,-0.397880890179191,0.4793781774284074,-0.4318057071349396,0.6522508026121809,0.2817351222038269,0.933032751083374,-0.223774716258049,0,0,0,-1,-1,3307.1095725,unknown,2,2022-06-02T10:56:08.968+02:00,2022-06-02T10:17:13.754+02:00,521,1.631355,0,0,405.4342,0,0,2022-06-02T10:55:58.733+02:00,675852968.9676026,0,4,101.3329,1,0.77
2022-06-02T10:56:09.438+02:00,1654160169.000347,53.22909793995312,10.39853286097799,36.83962,0,20,-1,-1,2.400000095367432,7.999579855010835,-9999,3307.5769215,0.4093170166015625,1.540802001953125,-0.0932159423828125,3307.5669275,-0.4774084174482401,0.9971366952994015,-1.222190026498495,-2.33571720123291,4.862317562103271,-0.3774884343147278,0.1214641034603119,0.3913422226905823,-0.08973287045955658,XArbitraryZVertical,-0.3970321727634996,0.499673791237145,-0.4366555749067277,0.6340531552969814,0.2869068682193756,0.9398496747016907,-0.1853831112384796,0,0,0,-1,-1,3307.1095725,unknown,2,2022-06-02T10:56:08.968+02:00,2022-06-02T10:17:13.754+02:00,521,1.631355,0,0,405.4342,0,0,2022-06-02T10:55:58.733+02:00,675852968.9676026,0,4,101.3329,1,0.77
2022-06-02T10:56:09.446+02:00,1654160169.000347,53.22909793995312,10.39853286097799,36.83962,0,20,-1,-1,2.400000095367432,7.999579855010835,-9999,3307.5869165,0.3907012939453125,1.519454956054688,0.1114654541015625,3307.5769215,-0.4346948168761142,1.085680184773302,-1.234143073443358,-1.518488645553589,4.876869678497314,-0.2163639962673187,0.1296584904193878,0.5347720384597778,-0.01324580609798431,XArbitraryZVertical,-0.3929589671635642,0.5182326225013656,-0.4424691396915927,0.6174456314376856,0.2922165095806122,0.9438654780387878,-0.1540364027023315,0,0,0,-1,-1,3307.1095725,unknown,2,2022-06-02T10:56:08.968+02:00,2022-06-02T10:17:13.754+02:00,521,1.631355,0,0,405.4342,0,0,2022-06-02T10:55:58.733+02:00,675852968.9676026,0,4,101.3329,1,0.77
2022-06-02T10:56:09.456+02:00,1654160169.000347,53.22909793995312,10.39853286097799,36.83962,0,20,-1,-1,2.400000095367432,7.999579855010835,-9999,3307.5969105,0.42449951171875,1.428146362304688,0.4120941162109375,3307.5869165,-0.4089449776258873,1.158442307811209,-1.240290419804024,-0.7558320164680481,4.862057685852051,-0.1369525194168091,0.09893536567687988,0.6058946847915649,0.1277229189872742,XArbitraryZVertical,-0.3857806244391795,0.5349247820554693,-0.4497692907512675,0.6022759798406832,0.2973201274871826,0.945878267288208,-0.1300575733184814,0,0,0,-1,-1,3307.1095725,unknown,2,2022-06-02T10:56:08.968+02:00,2022-06-02T10:17:13.754+02:00,521,1.631355,0,0,405.4342,0,0,2022-06-02T10:55:58.733+02:00,675852968.9676026,0,4,101.3329,1,0.77
2022-06-02T10:56:09.466+02:00,1654160169.000347,53.22909793995312,10.39853286097799,36.83962,0,20,-1,-1,2.400000095367432,7.999579855010835,-9999,3307.6069045,0.4585723876953125,1.314300537109375,0.6308135986328125,3307.5969105,-0.3961652792365297,1.218195195979838,-1.242916936522768,-0.5251811146736145,4.742729187011719,-0.01133141666650772,0.09816724061965942,0.5243723392486572,0.3677120804786682,XArbitraryZVertical,-0.3766418376381537,0.5500318073625382,-0.4578146167059997,0.5882275125010515,0.302223414182663,0.9467273950576782,-0.1112118735909462,0,0,0,-1,-1,3307.1095725,unknown,2,2022-06-02T10:56:08.968+02:00,2022-06-02T10:17:13.754+02:00,521,1.631355,0,0,405.4342,0,0,2022-06-02T10:55:58.733+02:00,675852968.9676026,0,4,101.3329,1,0.77
2022-06-02T10:56:09.476+02:00,1654160169.000347,53.22909793995312,10.39853286097799,36.83962,0,20,-1,-1,2.400000095367432,7.999579855010835,-9999,3307.6168985,0.448944091796875,1.180770874023438,0.73748779296875,3307.6069045,-0.3816401743675295,1.277906296312999,-1.243662287181148,-0.6882387399673462,4.526548862457275,0.1740474998950958,0.1388566792011261,0.4312676191329956,0.635712742805481,XArbitraryZVertical,-0.3671818287306663,0.5646150800736406,-0.4648347736638276,0.5747311992909117,0.3076460361480713,0.9469671249389648,-0.09277462959289551,0,0,0,-1,-1,3307.1095725,unknown,2,2022-06-02T10:56:08.968+02:00,2022-06-02T10:17:13.754+02:00,521,1.631355,0,0,405.4342,0,0,2022-06-02T10:55:58.733+02:00,675852968.9676026,0,4,101.3329,1,0.77
2022-06-02T10:56:09.486+02:00,1654160169.000347,53.22909793995312,10.39853286097799,36.83962,0,20,-1,-1,2.400000095367432,7.999579855010835,-9999,3307.6268935,0.4328765869140625,1.081039428710938,0.8671112060546875,3307.6168985,-0.3588696192320956,1.342521992957367,-1.242871640776085,-0.9661190509796143,4.186049461364746,0.3485659658908844,0.1446810364723206,0.2974734902381897,0.7591036558151245,XArbitraryZVertical,-0.3583151952207149,0.5789365258828039,-0.4699254483216009,0.5617941818056192,0.3137234747409821,0.9467127919197083,-0.07288543879985809,0,0,0,-1,-1,3307.1095725,unknown,2,2022-06-02T10:56:08.968+02:00,2022-06-02T10:17:13.754+02:00,521,1.631355,0,0,405.4342,0,0,2022-06-02T10:55:58.733+02:00,675852968.9676026,0,4,101.3329,1,0.77
2022-06-02T10:56:09.496+02:00,1654160169.000347,53.22909793995312,10.39853286097799,36.83962,0,20,-1,-1,2.400000095367432,7.999579855010835,-9999,3307.6368875,0.4067535400390625,0.9626312255859375,0.930938720703125,3307.6268935,-0.3251886000658549,1.414477062007078,-1.240454968451467,-1.369832992553711,3.900847434997559,0.5346130728721619,0.1200340092182159,0.1814792156219482,0.8514168858528137,XArbitraryZVertical,-0.3504037575308111,0.5932689157311932,-0.4727939901604607,0.5492859444762596,0.3204109668731689,0.9459316730499268,-0.05049839988350868,0,0,0,-1,-1,3307.1095725,unknown,2,2022-06-02T10:56:08.968+02:00,2022-06-02T10:17:13.754+02:00,521,1.631355,0,0,405.4342,0,0,2022-06-02T10:55:58.733+02:00,675852968.9676026,0,4,101.3329,1,0.77
2022-06-02T10:56:09.506+02:00,1654160169.000347,53.22909793995312,10.39853286097799,36.83962,0,20,-1,-1,2.400000095367432,7.999579855010835,-9999,3307.6468815,0.373870849609375,0.9739990234375,1.051544189453125,3307.6368875,-0.2788943052511558,1.49476603485936,-1.235718423852754,-1.663760185241699,3.494917154312134,0.7300946116447449,0.09569135308265686,0.08125007152557373,0.9351493716239929,XArbitraryZVertical,-0.3437573608060471,0.6077350698073016,-0.4730356250203538,0.5373325194097629,0.3278926908969879,0.9443846940994263,-0.02497792430222034,0,0,0,-1,-1,3307.1095725,unknown,2,2022-06-02T10:56:08.968+02:00,2022-06-02T10:17:13.754+02:00,521,1.631355,0,0,405.4342,0,0,2022-06-02T10:55:58.733+02:00,675852968.9676026,0,4,101.3329,1,0.77
2022-06-02T10:56:09.516+02:00,1654160169.000347,53.22909793995312,10.39853286097799,36.83962,0,20,-1,-1,2.400000095367432,7.999579855010835,-9999,3307.6568755,0.369781494140625,1.113540649414062,1.235214233398438,3307.6468815,-0.2315033890341493,1.572268818954388,-1.228453640712045,-1.523369431495667,3.086364030838013,0.8028234243392944,0.05152824521064758,-0.006836116313934326,0.9699646234512329,XArbitraryZVertical,-0.3377111185137961,0.6214485932241608,-0.4717856317286991,0.5264703616427643,0.3356940150260925,0.9419708251953125,0.0004943071980960667,0,0,0,-1,-1,3307.1095725,unknown,2,2022-06-02T10:56:08.968+02:00,2022-06-02T10:17:13.754+02:00,521,1.631355,0,0,405.4342,0,0,2022-06-02T10:55:58.733+02:00,675852968.9676026,0,4,101.3329,1,0.77
2022-06-02T10:56:09.526+02:00,1654160169.000347,53.22909793995312,10.39853286097799,36.83962,0,20,-1,-1,2.400000095367432,7.999579855010835,-9999,3307.6668705,0.36297607421875,1.176071166992188,1.516006469726562,3307.6568755,-0.1970619331656404,1.632286378329201,-1.219569307992783,-0.8712030649185181,2.450202465057373,0.8678991198539734,0.02709886431694031,0.1100903749465942,1.120398163795471,XArbitraryZVertical,-0.3316624788883438,0.6329069140776288,-0.4704299417744357,0.517807349542349,0.3433997929096222,0.9389512538909912,0.02114232443273067,0,0,0,-1,-1,3307.1095725,unknown,2,2022-06-02T10:56:08.968+02:00,2022-06-02T10:17:13.754+02:00,521,1.631355,0,0,405.4342,0,0,2022-06-02T10:55:58.733+02:00,675852968.9676026,0,4,101.3329,1,0.77
2022-06-02T10:56:09.542+02:00,1654160169.000347,53.22909793995312,10.39853286097799,36.83962,0,20,-1,-1,2.400000095367432,7.999579855010835,-9999,3307.6768645,0.41900634765625,1.181976318359375,1.858840942382812,3307.6668705,-0.1882630226018314,1.661571235879864,-1.210275928708387,0.1333133429288864,1.757288575172424,0.9052773714065552,0.01185038685798645,0.2188885807991028,1.326008558273315,XArbitraryZVertical,-0.3248078876973404,0.6406939893843022,-0.4703570413730913,0.5126161158498086,0.3513087630271912,0.9357133507728577,0.03197790309786797,0,0,0,-1,-1,3307.1095725,unknown,2,2022-06-02T10:56:08.968+02:00,2022-06-02T10:17:13.754+02:00,521,1.631355,0,0,405.4342,0,0,2022-06-02T10:55:58.733+02:00,675852968.9676026,0,4,101.3329,1,0.77
2022-06-02T10:56:09.554+02:00,1654160169.000347,53.22909793995312,10.39853286097799,36.83962,0,20,-1,-1,2.400000095367432,7.999579855010835,-9999,3307.6868585,0.4895172119140625,1.093505859375,2.04254150390625,3307.6768645,-0.2045462937493801,1.660333154344538,-1.201317239995265,0.9182441830635071,0.9676915407180786,0.9577233195304871,0.02090156078338623,0.2520394921302795,1.660778164863586,XArbitraryZVertical,-0.3172066195701006,0.6446127316653926,-0.4717830868231139,0.5111507778337677,0.3596831560134888,0.932515561580658,0.0322912260890007,0,0,0,-1,-1,3307.1095725,unknown,2,2022-06-02T10:56:08.968+02:00,2022-06-02T10:17:13.754+02:00,521,1.631355,0,0,405.4342,0,0,2022-06-02T10:55:58.733+02:00,675852968.9676026,0,4,101.3329,1,0.77
2022-06-02T10:56:09.573+02:00,1654160169.000347,53.22909793995312,10.39853286097799,36.83962,0,20,-1,-1,2.400000095367432,7.999579855010835,-9999,3307.6968525,0.48541259765625,1.001541137695312,2.032943725585938,3307.6868585,-0.2311974826276744,1.64215381366632,-1.191815507524812,1.30226194858551,0.1449880748987198,1.033106684684753,0.09083738923072815,0.2216687202453613,1.950565934181213,XArbitraryZVertical,-0.3100428094459952,0.6458037206760753,-0.4730841958986129,0.5128374384004147,0.3690319359302521,0.9290421605110168,0.02637797780334949,0,0,0,-1,-1,3307.1095725,unknown,2,2022-06-02T10:56:08.968+02:00,2022-06-02T10:17:13.754+02:00,521,1.631355,0,0,405.4342,0,0,2022-06-02T10:55:58.733+02:00,675852968.9676026,0,4,101.3329,1,0.77
2022-06-02T10:56:09.579+02:00,1654160169.000347,53.22909793995312,10.39853286097799,36.83962,0,20,-1,-1,2.400000095367432,7.999579855010835,-9999,3307.7068475,0.3777008056640625,1.007553100585938,1.835372924804688,3307.6968525,-0.2554382481007417,1.618355740844792,-1.181615246943654,1.196142792701721,-0.7539620399475098,1.066083788871765,0.1215018332004547,0.112636923789978,2.050930976867676,XArbitraryZVertical,-0.3047170535682091,0.6451099661929824,-0.4728508004666148,0.5171003101780677,0.3790017366409302,0.9252200722694397,0.01803870312869549,0,0,0,-1,-1,3307.1095725,unknown,2,2022-06-02T10:56:08.968+02:00,2022-06-02T10:17:13.754+02:00,521,1.631355,0,0,405.4342,0,0,2022-06-02T10:55:58.733+02:00,675852968.9676026,0,4,101.3329,1,0.77
2022-06-02T10:56:09.581+02:00,1654160169.000347,53.22909793995312,10.39853286097799,36.83962,0,20,-1,-1,2.400000095367432,7.999579855010835,-9999,3307.7168415,0.2265472412109375,1.087921142578125,1.671951293945312,3307.7068475,-0.2774726891086257,1.586777618298675,-1.170979543438501,0.8023933172225952,-1.65248966217041,1.107736110687256,0.05313712358474731,0.06989550590515137,1.936086058616638,XArbitraryZVertical,-0.3017450212268983,0.64191912715931,-0.4709239567751211,0.5245192358018465,0.3891999423503876,0.9211323261260986,0.006220447365194559,0,0,0,-1,-1,3307.1095725,unknown,2,2022-06-02T10:56:08.968+02:00,2022-06-02T10:17:13.754+02:00,521,1.631355,0,0,405.4342,0,0,2022-06-02T10:55:58.733+02:00,675852968.9676026,0,4,101.3329,1,0.77
2022-06-02T10:56:09.586+02:00,1654160169.000347,53.22909793995312,10.39853286097799,36.83962,0,20,-1,-1,2.400000095367432,7.999579855010835,-9999,3307.7268355,0.1070556640625,1.17919921875,1.592803955078125,3307.7168415,-0.2868771508055191,1.558146153185394,-1.159173759948618,0.2684710323810577,-2.484333276748657,1.252817749977112,-0.09720847010612488,0.1265416145324707,1.747126579284668,XArbitraryZVertical,-0.3016715858777435,0.6375450367075409,-0.4659628026223241,0.5342370916631022,0.4000649452209473,0.916472852230072,-0.005061160773038864,0,0,0,-1,-1,3307.1095725,unknown,2,2022-06-02T10:56:08.968+02:00,2022-06-02T10:17:13.754+02:00,521,1.631355,0,0,405.4342,0,0,2022-06-02T10:55:58.733+02:00,675852968.9676026,0,4,101.3329,1,0.77
2022-06-02T10:56:09.596+02:00,1654160169.000347,53.22909793995312,10.39853286097799,36.83962,0,20,-1,-1,2.400000095367432,7.999579855010835,-9999,3307.7368295,0.0826873779296875,1.198211669921875,1.59161376953125,3307.7368295,-0.2703165474261137,1.509194335052281,-1.13304600903662,-0.3572052121162415,-4.058603763580322,1.279492139816284,-0.3436307609081268,0.287956714630127,1.594501852989197,XArbitraryZVertical,-0.3095653582834955,0.6253966136186716,-0.447118149759813,0.5595833619498213,0.4230985045433044,0.9057075977325439,-0.02609672956168652,0,0,0,-1,-1,3307.1095725,unknown,2,2022-06-02T10:56:08.968+02:00,2022-06-02T10:17:13.754+02:00,521,1.631355,0,0,405.4342,0,0,2022-06-02T10:55:58.733+02:00,675852968.9676026,0,4,101.3329,1,0.77
2022-06-02T10:56:09.606+02:00,1654160169.000347,53.22909793995312,10.39853286097799,36.83962,0,20,-1,-1,2.400000095367432,7.999579855010835,-9999,3307.7468245,0.1591644287109375,1.248397827148438,1.771087646484375,3307.7368295,-0.2703165474261137,1.509194335052281,-1.13304600903662,-0.3572052121162415,-4.058603763580322,1.279492139816284,-0.3436307609081268,0.287956714630127,1.594501852989197,XArbitraryZVertical,-0.3095653582834955,0.6253966136186716,-0.447118149759813,0.5595833619498213,0.4230985045433044,0.9057075977325439,-0.02609672956168652,0,0,0,-1,-1,3307.1095725,unknown,2,2022-06-02T10:56:08.968+02:00,2022-06-02T10:17:13.754+02:00,521,1.631355,0,0,405.4342,0,0,2022-06-02T10:55:58.733+02:00,675852968.9676026,0,4,101.3329,1,0.77
2022-06-02T10:56:09.616+02:00,1654160169.000347,53.22909793995312,10.39853286097799,36.83962,0,20,-1,-1,2.400000095367432,7.999579855010835,-9999,3307.7568185,0.2032623291015625,1.241363525390625,1.7760009765625,3307.7468245,-0.2561511134559525,1.477708072808819,-1.120703519935981,-0.4107864201068878,-4.94555139541626,1.287790060043335,-0.3202807903289795,0.3170003890991211,1.723026037216187,XArbitraryZVertical,-0.3168155807399149,0.6159611577267234,-0.4349720927450488,0.575342447152426,0.4331653416156769,0.9004067182540894,-0.04043947905302048,0,0,0,-1,-1,3307.1095725,unknown,2,2022-06-02T10:56:08.968+02:00,2022-06-02T10:17:13.754+02:00,521,1.631355,0,0,405.4342,0,0,2022-06-02T10:55:58.733+02:00,675852968.9676026,0,4,101.3329,1,0.77
2022-06-02T10:56:09.626+02:00,1654160169.000347,53.22909793995312,10.39853286097799,36.83962,0,20,-1,-1,2.400000095367432,7.999579855010835,-9999,3307.7668125,0.1255645751953125,1.251510620117188,1.640899658203125,3307.7568185,-0.2425105789187766,1.435471616579081,-1.108518039323239,-0.2527370452880859,-6.12328052520752,1.232625722885132,-0.245621919631958,0.3638876676559448,1.858157992362976,XArbitraryZVertical,-0.3259168176755534,0.603070158488303,-0.4210810216393138,0.5939489979642996,0.4419110715389252,0.8950387239456177,-0.06016922369599342,0,0,0,-1,-1,3307.1095725,unknown,2,2022-06-02T10:56:08.968+02:00,2022-06-02T10:17:13.754+02:00,521,1.631355,0,0,405.4342,0,0,2022-06-02T10:55:58.733+02:00,675852968.9676026,0,4,101.3329,1,0.77
2022-06-02T10:56:09.636+02:00,1654160169.000347,53.22909793995312,10.39853286097799,36.83962,0,20,-1,-1,2.400000095367432,7.999579855010835,-9999,3307.7768065,-0.0329132080078125,1.173049926757812,1.322235107421875,3307.7668125,-0.2312784058270535,1.37858706820626,-1.09684713443723,-0.2088555991649628,-7.336576461791992,1.264596939086914,-0.2714544832706451,0.3468145728111267,1.816540598869324,XArbitraryZVertical,-0.3370105856350528,0.5855176828901296,-0.4053370700280635,0.6158690244793421,0.4479986429214478,0.8897728323936462,-0.0871858149766922,0,0,0,-1,-1,3307.1095725,unknown,2,2022-06-02T10:56:08.968+02:00,2022-06-02T10:17:13.754+02:00,521,1.631355,0,0,405.4342,0,0,2022-06-02T10:55:58.733+02:00,675852968.9676026,0,4,101.3329,1,0.77
2022-06-02T10:56:09.646+02:00,1654160169.000347,53.22909793995312,10.39853286097799,36.83962,0,20,-1,-1,2.400000095367432,7.999579855010835,-9999,3307.7868015,-0.2091064453125,0.9161376953125,0.8144989013671875,3307.7768065,-0.2158961649145744,1.314422471758499,-1.084623085164197,-0.4616876542568207,-8.317706108093262,1.374796509742737,-0.3946011960506439,0.3590823411941528,1.620358467102051,XArbitraryZVertical,-0.3498561884748045,0.564233830444599,-0.3865246668846473,0.6401870158992943,0.4519742429256439,0.8841273784637451,-0.1184816658496857,0,0,0,-1,-1,3307.1095725,unknown,2,2022-06-02T10:56:08.968+02:00,2022-06-02T10:17:13.754+02:00,521,1.631355,0,0,405.4342,0,0,2022-06-02T10:55:58.733+02:00,675852968.9676026,0,4,101.3329,1,0.77
2022-06-02T10:56:09.656+02:00,1654160169.000347,53.22909793995312,10.39853286097799,36.83962,0,20,-1,-1,2.400000095367432,7.999579855010835,-9999,3307.7967955,-0.22662353515625,0.65020751953125,0.48394775390625,3307.7868015,-0.192321157447284,1.249133910769613,-1.074464222310976,-0.8849303126335144,-8.974468231201172,1.170924663543701,-0.5844699144363403,0.1709729433059692,1.250341296195984,XArbitraryZVertical,-0.3649962078485533,0.5399104637097898,-0.3647819758122551,0.6649876294761615,0.4517794847488403,0.8793351650238037,-0.1505489200353622,0,0,0,-1,-1,3307.1095725,unknown,2,2022-06-02T10:56:08.968+02:00,2022-06-02T10:17:13.754+02:00,521,1.631355,0,0,405.4342,0,0,2022-06-02T10:55:58.733+02:00,675852968.9676026,0,4,101.3329,1,0.77
2022-06-02T10:56:09.666+02:00,1654160169.000347,53.22909793995312,10.39853286097799,36.83962,0,20,-1,-1,2.400000095367432,7.999579855010835,-9999,3307.8067895,-0.123138427734375,0.6746368408203125,1.138214111328125,3307.7967955,-0.1629613318687894,1.182068027892216,-1.067730719977736,-1.006407141685486,-9.82164478302002,1.05538272857666,-0.6882091760635376,-0.09818530082702637,0.7202327251434326,XArbitraryZVertical,-0.3820999914489262,0.5124804871583257,-0.3407882043288186,0.6893668046388118,0.4461437463760376,0.876108705997467,-0.1827266961336136,0,0,0,-1,-1,3307.1095725,unknown,2,2022-06-02T10:56:08.968+02:00,2022-06-02T10:17:13.754+02:00,521,1.631355,0,0,405.4342,0,0,2022-06-02T10:55:58.733+02:00,675852968.9676026,0,4,101.3329,1,0.77
2022-06-02T10:56:09.676+02:00,1654160169.000347,53.22909793995312,10.39853286097799,36.83962,0,20,-1,-1,2.400000095367432,7.999579855010835,-9999,3307.8167835,-0.165802001953125,1.021286010742188,1.377960205078125,3307.8067895,-0.1306453815391972,1.107955327468231,-1.062864178861063,-1.190403699874878,-10.81671047210693,1.040014266967773,-0.6092561483383179,-0.2800785303115845,0.9884468913078308,XArbitraryZVertical,-0.4004523064592673,0.480684390383949,-0.3138863790438587,0.7141818695701337,0.435199111700058,0.8737521171569824,-0.2171609401702881,0,0,0,-1,-1,3307.1095725,unknown,2,2022-06-02T10:56:08.968+02:00,2022-06-02T10:17:13.754+02:00,521,1.631355,0,0,405.4342,0,0,2022-06-02T10:55:58.733+02:00,675852968.9676026,0,4,101.3329,1,0.77
2022-06-02T10:56:09.686+02:00,1654160169.000347,53.22909793995312,10.39853286097799,36.83962,0,20,-1,-1,2.400000095367432,7.999579855010835,-9999,3307.8267785,-0.5093231201171875,0.7775115966796875,1.326065063476562,3307.8167835,-0.08887952918299888,1.034067076467161,-1.061897527867713,-1.52350902557373,-11.62099742889404,0.8051674365997314,-0.5347493886947632,-0.009451091289520264,1.584835529327393,XArbitraryZVertical,-0.4207953158588802,0.4453850035927764,-0.2833460318182244,0.7377522865422574,0.4187062382698059,0.8732815384864807,-0.2491270005702972,0,0,0,-1,-1,3307.1095725,unknown,2,2022-06-02T10:56:08.968+02:00,2022-06-02T10:17:13.754+02:00,521,1.631355,0,0,405.4342,0,0,2022-06-02T10:55:58.733+02:00,675852968.9676026,0,4,101.3329,1,0.77
2022-06-02T10:56:09.696+02:00,1654160169.000347,53.22909793995312,10.39853286097799,36.83962,0,20,-1,-1,2.400000095367432,7.999579855010835,-9999,3307.8367725,-1.640838623046875,-0.814361572265625,5.600387573242188,3307.8267785,-0.0423638046489172,0.9616989147437617,-1.066971952513719,-0.5971241593360901,-12.2256441116333,-0.2080670595169067,-0.6897198557853699,0.1340839266777039,1.647777318954468,XArbitraryZVertical,-0.4423345916938109,0.4077190163602523,-0.2513316447908415,0.7582464457733855,0.3959576189517975,0.8757426738739014,-0.2762106359004974,0,0,0,-1,-1,3307.1095725,unknown,2,2022-06-02T10:56:08.968+02:00,2022-06-02T10:17:13.754+02:00,521,1.631355,0,0,405.4342,0,0,2022-06-02T10:55:58.733+02:00,675852968.9676026,0,4,101.3329,1,0.77
2022-06-02T10:56:09.706+02:00,1654160169.000347,53.22909793995312,10.39853286097799,36.83962,0,20,-1,-1,2.400000095367432,7.999579855010835,-9999,3307.8467665,-13.59725952148438,-1.729812622070312,-20.81072998046875,3307.8367725,-0.06935487134338357,0.8610893246394636,-1.065401528577089,2.261906623840332,11.30473899841309,-2.118027687072754,-1.041419267654419,-0.692763090133667,3.31912636756897,XArbitraryZVertical,-0.4487708481793797,0.3753197982348663,-0.2389775844015772,0.7750028385451182,0.3672554790973663,0.8749833703041077,-0.3154795467853546,0,0,0,-1,-1,3307.1095725,unknown,2,2022-06-02T10:56:08.968+02:00,2022-06-02T10:17:13.754+02:00,521,1.631355,0,0,405.4342,0,0,2022-06-02T10:55:58.733+02:00,675852968.9676026,0,4,101.3329,1,0.77
2022-06-02T10:56:09.716+02:00,1654160169.000347,53.22909793995312,10.39853286097799,36.83962,0,20,-1,-1,2.400000095367432,7.999579855010835,-9999,3307.8567605,-5.6483154296875,-2.058135986328125,-13.41600036621094,3307.8467665,-0.1457242500185068,0.8310651326267801,-1.078600606186902,0.8781290054321289,5.760817527770996,-5.146397113800049,-9.532377243041992,-2.077464580535889,-8.840279579162598,XArbitraryZVertical,-0.4433721903781886,0.3796664774481124,-0.2639024165933213,0.767873563694205,0.3490577042102814,0.8812973499298096,-0.3185489475727081,0,0,0,-1,-1,3307.1095725,unknown,2,2022-06-02T10:56:08.968+02:00,2022-06-02T10:17:13.754+02:00,521,1.631355,0,0,405.4342,0,0,2022-06-02T10:55:58.733+02:00,675852968.9676026,0,4,101.3329,1,0.77
2022-06-02T10:56:09.726+02:00,1654160169.000347,53.22909793995312,10.39853286097799,36.83962,0,20,-1,-1,2.400000095367432,7.999579855010835,-9999,3307.8667555,-0.3401336669921875,-1.980636596679688,-3.584136962890625,3307.8567605,-0.2273104795203583,0.8019695217085215,-1.082311572262826,2.382946014404297,4.51710844039917,0.4329903721809387,-11.22979164123535,-3.031147003173828,-19.02757453918457,XArbitraryZVertical,-0.4332638235373431,0.3861814660733566,-0.2892650420171088,0.7612306028366992,0.3372901380062103,0.883044958114624,-0.3262926638126373,0,0,0,-1,-1,3307.1095725,unknown,2,2022-06-02T10:56:08.968+02:00,2022-06-02T10:17:13.754+02:00,521,1.631355,0,0,405.4342,0,0,2022-06-02T10:55:58.733+02:00,675852968.9676026,0,4,101.3329,1,0.77
2022-06-02T10:56:09.736+02:00,1654160169.000347,53.22909793995312,10.39853286097799,36.83962,0,20,-1,-1,2.400000095367432,7.999579855010835,-9999,3307.8767495,0.66510009765625,0.12811279296875,3.934860229492188,3307.8667555,-0.2054734523004023,0.8576219870156223,-1.070766494180228,-1.553301930427551,2.440513372421265,1.608764052391052,-2.465295553207397,-2.707600593566895,-7.963820934295654,XArbitraryZVertical,-0.4248587427970167,0.4033080349377766,-0.2912249751253918,0.7563237487668868,0.3626039326190948,0.877568244934082,-0.3136753439903259,0,0,0,-1,-1,3307.1095725,unknown,2,2022-06-02T10:56:08.968+02:00,2022-06-02T10:17:13.754+02:00,521,1.631355,0,0,405.4342,0,0,2022-06-02T10:55:58.733+02:00,675852968.9676026,0,4,101.3329,1,0.77
2022-06-02T10:56:09.746+02:00,1654160169.000347,53.22909793995312,10.39853286097799,36.83962,0,20,-1,-1,2.400000095367432,7.999579855010835,-9999,3307.8867435,0.4705047607421875,1.15509033203125,3.16387939453125,3307.8767495,-0.1185421719210607,0.9566860315380267,-1.091699259507747,-7.745517730712891,3.048446655273438,-0.5678974986076355,-0.001873135566711426,-2.063955783843994,1.194020509719849,XArbitraryZVertical,-0.4367610282664466,0.4200294733831425,-0.2834931083462552,0.7432675452209704,0.3767510652542114,0.8874115347862244,-0.2656300961971283,0,0,0,-1,-1,3307.1095725,unknown,2,2022-06-02T10:56:08.968+02:00,2022-06-02T10:17:13.754+02:00,521,1.631355,0,0,405.4342,0,0,2022-06-02T10:55:58.733+02:00,675852968.9676026,0,4,101.3329,1,0.77
2022-06-02T10:56:09.756+02:00,1654160169.000347,53.22909793995312,10.39853286097799,36.83962,0,20,-1,-1,2.400000095367432,7.999579855010835,-9999,3307.8967375,0.434112548828125,1.68865966796875,0.3056488037109375,3307.8867435,0.02486894837161178,1.128796216817807,-1.147941762073784,-8.182981491088867,5.454939365386963,-2.445346117019653,0.08253252506256104,-0.1637371778488159,4.597972393035889,XArbitraryZVertical,-0.4643117478396355,0.4434502540513928,-0.2815945098363102,0.7130714787522623,0.370928168296814,0.9119212627410889,-0.1755329519510269,0,0,0,-1,-1,3307.1095725,unknown,2,2022-06-02T10:56:08.968+02:00,2022-06-02T10:17:13.754+02:00,521,1.631355,0,0,405.4342,0,0,2022-06-02T10:55:58.733+02:00,675852968.9676026,0,4,101.3329,1,0.77
2022-06-02T10:56:09.766+02:00,1654160169.000347,53.22909793995312,10.39853286097799,36.83962,0,20,-1,-1,2.400000095367432,7.999579855010835,-9999,3307.9067315,-0.6367645263671875,0.2712249755859375,-1.150985717773438,3307.8967375,0.1829917111845678,1.320924511738234,-1.192873528702397,-5.956695556640625,3.807191610336304,-2.00797176361084,0.1269199550151825,0.7701213359832764,1.753734707832336,XArbitraryZVertical,-0.48809725492489,0.4649076304387836,-0.2834539136754321,0.6821113280540942,0.3575313687324524,0.9294331073760986,-0.0912439301609993,0,0,0,-1,-1,3307.1095725,unknown,2,2022-06-02T10:56:08.968+02:00,2022-06-02T10:17:13.754+02:00,521,1.631355,0,0,405.4342,0,0,2022-06-02T10:55:58.733+02:00,675852968.9676026,0,4,101.3329,1,0.77
2022-06-02T10:56:09.776+02:00,1654160169.000347,53.22909793995312,10.39853286097799,36.83962,0,20,-1,-1,2.400000095367432,7.999579855010835,-9999,3307.9167265,-1.88775634765625,0.411651611328125,-0.234344482421875,3307.9067315,0.2783466985144194,1.441518868325254,-1.218371940991281,-1.998560428619385,2.871701717376709,-1.707167267799377,-0.3908013701438904,-0.01518362760543823,-0.7678790092468262,XArbitraryZVertical,-0.5008230439036546,0.4763683051161666,-0.288499441386399,0.6625839851765115,0.3422936797142029,0.9385386109352112,-0.04449903219938278,0,0,0,-1,-1,3307.1095725,unknown,2,2022-06-02T10:56:08.968+02:00,2022-06-02T10:17:13.754+02:00,521,1.631355,0,0,405.4342,0,0,2022-06-02T10:55:58.733+02:00,675852968.9676026,0,4,101.3329,1,0.77
2022-06-02T10:56:09.786+02:00,1654160169.000347,53.22909793995312,10.39853286097799,36.83962,0,20,-1,-1,2.400000095367432,7.999579855010835,-9999,3307.9267205,-2.188507080078125,0.9749298095703125,0.4355621337890625,3307.9167265,0.2995982774674618,1.492231540335987,-1.23499931886627,0.2400122582912445,3.477657079696655,-1.669329166412354,-1.658445715904236,-0.7370558977127075,-0.7693496942520142,XArbitraryZVertical,-0.5030098245960265,0.4837871854264805,-0.299265133297703,0.6506699004610347,0.3285049200057983,0.9441480040550232,-0.02586215175688267,0,0,0,-1,-1,3307.1095725,unknown,2,2022-06-02T10:56:08.968+02:00,2022-06-02T10:17:13.754+02:00,521,1.631355,0,0,405.4342,0,0,2022-06-02T10:55:58.733+02:00,675852968.9676026,0,4,101.3329,1,0.77
2022-06-02T10:56:09.796+02:00,1654160169.000347,53.22909793995312,10.39853286097799,36.83962,0,20,-1,-1,2.400000095367432,7.999579855010835,-9999,3307.9367145,-1.351287841796875,0.980499267578125,0.286468505859375,3307.9267205,0.2560121613167123,1.490663373158849,-1.253362499982028,2.108893394470215,4.480026721954346,-2.208842754364014,-2.553696870803833,-0.2701537609100342,0.235724151134491,XArbitraryZVertical,-0.4975686370605578,0.4898294638558556,-0.3185078381158586,0.641128107079412,0.3111278414726257,0.9500395059585571,-0.02498509548604488,0,0,0,-1,-1,3307.1095725,unknown,2,2022-06-02T10:56:08.968+02:00,2022-06-02T10:17:13.754+02:00,521,1.631355,0,0,405.4342,0,0,2022-06-02T10:55:58.733+02:00,675852968.9676026,0,4,101.3329,1,0.77
2022-06-02T10:56:09.806+02:00,1654160169.000347,53.22909793995312,10.39853286097799,36.83962,0,20,-1,-1,2.400000095367432,7.999579855010835,-9999,3307.9467085,-0.6110687255859375,0.4539642333984375,-0.0507659912109375,3307.9367145,0.158866324784055,1.444435773440035,-1.274147816539335,3.148634672164917,4.772634983062744,-2.565977573394775,-2.146583795547485,0.1437912583351135,0.4830060005187988,XArbitraryZVertical,-0.4870948820540691,0.4942864065382833,-0.3441233069340388,0.6324544066635194,0.2899858355522156,0.9563215374946594,-0.03683904930949211,0,0,0,-1,-1,3307.1095725,unknown,2,2022-06-02T10:56:08.968+02:00,2022-06-02T10:17:13.754+02:00,521,1.631355,0,0,405.4342,0,0,2022-06-02T10:55:58.733+02:00,675852968.9676026,0,4,101.3329,1,0.77
2022-06-02T10:56:09.816+02:00,1654160169.000347,53.22909793995312,10.39853286097799,36.83962,0,20,-1,-1,2.400000095367432,7.999579855010835,-9999,3307.9567035,-0.4163055419921875,0.122528076171875,-0.08837890625,3307.9467085,0.03184895581595616,1.368396314577719,-1.296573315645913,3.028557062149048,4.416660308837891,-3.016781806945801,-1.189480781555176,-0.2390031814575195,0.1523518562316895,XArbitraryZVertical,-0.4758805003270869,0.4963059637767486,-0.371761863339327,0.623707670169044,0.2652712166309357,0.96263587474823,-0.05443627759814262,0,0,0,-1,-1,3307.1095725,unknown,2,2022-06-02T10:56:08.968+02:00,2022-06-02T10:17:13.754+02:00,521,1.631355,0,0,405.4342,0,0,2022-06-02T10:55:58.733+02:00,675852968.9676026,0,4,101.3329,1,0.77
2022-06-02T10:56:09.826+02:00,1654160169.000347,53.22909793995312,10.39853286097799,36.83962,0,20,-1,-1,2.400000095367432,7.999579855010835,-9999,3307.9666975,-0.674713134765625,-0.0125732421875,-0.01300048828125,3307.9567035,-0.09016736237803391,1.292121305745775,-1.320916285768283,1.810004711151123,3.962893962860107,-3.192509889602661,-0.6963809728622437,-0.7175841331481934,-0.04356318712234497,XArbitraryZVertical,-0.4679140817157788,0.4970354196697362,-0.3973849932522552,0.6132677789654181,0.2377475500106812,0.9689421057701111,-0.0680244043469429,0,0,0,-1,-1,3307.1095725,unknown,2,2022-06-02T10:56:08.968+02:00,2022-06-02T10:17:13.754+02:00,521,1.631355,0,0,405.4342,0,0,2022-06-02T10:55:58.733+02:00,675852968.9676026,0,4,101.3329,1,0.77
2022-06-02T10:56:09.836+02:00,1654160169.000347,53.22909793995312,10.39853286097799,36.83962,0,20,-1,-1,2.400000095367432,7.999579855010835,-9999,3307.9766915,-1.0574951171875,0.1723480224609375,0.0615386962890625,3307.9666975,-0.1721156310941062,1.250950600412267,-1.349327601004178,0.1819304823875427,3.835777044296265,-3.390334367752075,-0.7129010558128357,-0.94113689661026,0.02934754639863968,XArbitraryZVertical,-0.4652098469030805,0.4990457826227174,-0.4187737551812885,0.5993008620823854,0.2085217833518982,0.975575864315033,-0.06906621158123016,0,0,0,-1,-1,3307.1095725,unknown,2,2022-06-02T10:56:08.968+02:00,2022-06-02T10:17:13.754+02:00,521,1.631355,0,0,405.4342,0,0,2022-06-02T10:55:58.733+02:00,675852968.9676026,0,4,101.3329,1,0.77
2022-06-02T10:56:09.846+02:00,1654160169.000347,53.22909793995312,10.39853286097799,36.83962,0,20,-1,-1,2.400000095367432,7.999579855010835,-9999,3307.9866855,-1.253173828125,0.5116119384765625,0.192535400390625,3307.9766915,-0.2075110833421897,1.255201620632688,-1.383634931309454,-0.9061874747276306,4.003275394439697,-3.560484409332275,-1.059783935546875,-0.9529803395271301,0.07055462151765823,XArbitraryZVertical,-0.4667606206000039,0.5032476740615532,-0.4371448198793065,0.5811888601635142,0.1768799126148224,0.9825363755226135,-0.05775260180234909,0,0,0,-1,-1,3307.1095725,unknown,2,2022-06-02T10:56:08.968+02:00,2022-06-02T10:17:13.754+02:00,521,1.631355,0,0,405.4342,0,0,2022-06-02T10:55:58.733+02:00,675852968.9676026,0,4,101.3329,1,0.77
2022-06-02T10:56:09.856+02:00,1654160169.000347,53.22909793995312,10.39853286097799,36.83962,0,20,-1,-1,2.400000095367432,7.999579855010835,-9999,3307.9966805,-1.22784423828125,0.7454986572265625,0.2742767333984375,3307.9866855,-0.202375772287734,1.301426176278786,-1.421681663187711,-1.394632816314697,4.25521993637085,-3.68311595916748,-1.326508760452271,-0.6293602585792542,0.1722874641418457,XArbitraryZVertical,-0.4701136549376451,0.5091415625106844,-0.454123255741232,0.5599464511354957,0.1432049423456192,0.9889029860496521,-0.03953604027628899,0,0,0,-1,-1,3307.1095725,unknown,2,2022-06-02T10:56:08.968+02:00,2022-06-02T10:17:13.754+02:00,521,1.631355,0,0,405.4342,0,0,2022-06-02T10:55:58.733+02:00,675852968.9676026,0,4,101.3329,1,0.77
2022-06-02T10:56:09.866+02:00,1654160169.000347,53.22909793995312,10.39853286097799,36.83962,0,20,-1,-1,2.400000095367432,7.999579855010835,-9999,3308.0066745,-1.102645874023438,1.01361083984375,0.3457794189453125,3307.9966805,-0.1587244646009781,1.388125890356468,-1.461532197061239,-1.504998445510864,4.429785251617432,-3.807569980621338,-1.371666789054871,-0.3690671920776367,0.2581511735916138,XArbitraryZVertical,-0.4736521500255046,0.5155086516220965,-0.470973282132828,0.5367388368750547,0.1072320118546486,0.9940366148948669,-0.0198089424520731,0,0,0,-1,-1,3307.1095725,unknown,2,2022-06-02T10:56:08.968+02:00,2022-06-02T10:17:13.754+02:00,521,1.631355,0,0,405.4342,0,0,2022-06-02T10:55:58.733+02:00,675852968.9676026,0,4,101.3329,1,0.77
2022-06-02T10:56:09.876+02:00,1654160169.000347,53.22909793995312,10.39853286097799,36.83962,0,20,-1,-1,2.400000095367432,7.999579855010835,-9999,3308.0166685,-1.085556030273438,1.142318725585938,0.3779754638671875,3308.0066745,-0.02302976934515605,1.567739768079002,-1.50120036612073,-1.67342209815979,4.454418182373047,-3.829159021377563,-1.231266736984253,-0.1089684367179871,0.3149860501289368,XArbitraryZVertical,-0.4770613029362326,0.5218297022071161,-0.4874957638570869,0.512302755347559,0.06953886151313782,0.9975791573524475,-0.0002125502651324496,0,0,0,-1,-1,3307.1095725,unknown,2,2022-06-02T10:56:08.968+02:00,2022-06-02T10:17:13.754+02:00,521,1.631355,0,0,405.4342,0,0,2022-06-02T10:55:58.733+02:00,675852968.9676026,0,4,101.3329,1,0.77
2022-06-02T10:56:09.886+02:00,1654160169.000347,53.22909793995312,10.39853286097799,36.83962,0,20,-1,-1,2.400000095367432,7.999579855010835,-9999,3308.0266625,-1.192001342773438,1.15496826171875,0.439117431640625,3308.0266625,1.698634862569478,-2.906892921035527,-1.530750545505775,-1.992993474006653,4.427306652069092,-3.860026836395264,-1.120160937309265,0.1585775017738342,0.3630414009094238,XArbitraryZVertical,-0.484140666236907,0.5339249103004883,-0.5178414514429738,0.4608385588591548,-0.009309838525950909,0.9991982579231262,0.03893598914146423,0,0,0,-1,-1,3307.1095725,unknown,2,2022-06-02T10:56:08.968+02:00,2022-06-02T10:17:13.754+02:00,521,1.631355,0,0,405.4342,0,0,2022-06-02T10:55:58.733+02:00,675852968.9676026,0,4,101.3329,1,0.77
2022-06-02T10:56:09.896+02:00,1654160169.000347,53.22909793995312,10.39853286097799,36.83962,0,20,-1,-1,2.400000095367432,7.999579855010835,-9999,3308.0366575,-1.2857666015625,1.16912841796875,0.5028076171875,3308.0266625,1.698634862569478,-2.906892921035527,-1.530750545505775,-1.992993474006653,4.427306652069092,-3.860026836395264,-1.120160937309265,0.1585775017738342,0.3630414009094238,XArbitraryZVertical,-0.484140666236907,0.5339249103004883,-0.5178414514429738,0.4608385588591548,-0.009309838525950909,0.9991982579231262,0.03893598914146423,0,0,0,-1,-1,3307.1095725,unknown,2,2022-06-02T10:56:08.968+02:00,2022-06-02T10:17:13.754+02:00,521,1.631355,0,0,405.4342,0,0,2022-06-02T10:55:58.733+02:00,675852968.9676026,0,4,101.3329,1,0.77
2022-06-02T10:56:09.906+02:00,1654160169.000347,53.22909793995312,10.39853286097799,36.83962,0,20,-1,-1,2.400000095367432,7.999579855010835,-9999,3308.0466515,-1.31646728515625,1.214645385742188,0.42254638671875,3308.0366575,2.113721753716213,-2.447408822749428,-1.49430281392451,-2.285828828811646,4.586650848388672,-3.569940567016602,-1.19494640827179,0.1594640016555786,0.4247570037841797,XArbitraryZVertical,-0.4871177261436211,0.5404468722120892,-0.5314665748425366,0.433793391943124,-0.04888901486992836,0.9970757961273193,0.05873300135135651,0,0,0,-1,-1,3307.1095725,unknown,2,2022-06-02T10:56:08.968+02:00,2022-06-02T10:17:13.754+02:00,521,1.631355,0,0,405.4342,0,0,2022-06-02T10:55:58.733+02:00,675852968.9676026,0,4,101.3329,1,0.77
