loggingTime(txt),locationTimestamp_since1970(s),locationLatitude(WGS84),locationLongitude(WGS84),locationAltitude(m),locationSpeed(m/s),locationSpeedAccuracy(m/s),locationCourse(°),locationCourseAccuracy(°),locationVerticalAccuracy(m),locationHorizontalAccuracy(m),locationFloor(Z),accelerometerTimestamp_sinceReboot(s),accelerometerAccelerationX(G),accelerometerAccelerationY(G),accelerometerAccelerationZ(G),motionTimestamp_sinceReboot(s),motionYaw(rad),motionRoll(rad),motionPitch(rad),motionRotationRateX(rad/s),motionRotationRateY(rad/s),motionRotationRateZ(rad/s),motionUserAccelerationX(G),motionUserAccelerationY(G),motionUserAccelerationZ(G),motionAttitudeReferenceFrame(txt),motionQuaternionX(R),motionQuaternionY(R),motionQuaternionZ(R),motionQuaternionW(R),motionGravityX(G),motionGravityY(G),motionGravityZ(G),motionMagneticFieldX(µT),motionMagneticFieldY(µT),motionMagneticFieldZ(µT),motionHeading(°),motionMagneticFieldCalibrationAccuracy(Z),activityTimestamp_sinceReboot(s),activity(txt),activityActivityConfidence(Z),activityActivityStartDate(txt),pedometerStartDate(txt),pedometerNumberofSteps(N),pedometerAverageActivePace(s/m),pedometerCurrentPace(s/m),pedometerCurrentCadence(steps/s),pedometerDistance(m),pedometerFloorAscended(N),pedometerFloorDescended(N),pedometerEndDate(txt),altimeterTimestamp_sinceReboot(s),altimeterReset(bool),altimeterRelativeAltitude(m),altimeterPressure(kPa),batteryState(N),batteryLevel(R)
2022-06-02T11:03:15.479+02:00,1654160593.964612,53.22888156262182,10.39816453433297,36.08895,0,1.918238,-1,-1,1114.33447265625,23.99873956503252,-9999,3687.10361525,0.1161956787109375,-0.3745574951171875,-0.9273529052734375,3687.09362025,0.253610455509071,0.09638201307056352,0.427527108252122,-0.1262503415346146,0.1279427856206894,0.08468532562255859,-0.1332408785820007,-0.01251751184463501,-0.04776656627655029,XArbitraryZVertical,0.2042382231651997,0.07349514517182204,0.1335809631683438,0.9669753426039558,0.08757130801677704,-0.4146217703819275,-0.9057704210281372,0,0,0,-1,-1,3684.961830375,unknown,2,2022-06-02T11:03:13.296+02:00,2022-06-02T10:17:13.754+02:00,693,1.485188,0.8367646,1.650349,555.2257,0,0,2022-06-02T11:03:13.295+02:00,675853390.7360505,0,6.730469,101.3011,1,0.76
2022-06-02T11:03:15.503+02:00,1654160593.964612,53.22888156262182,10.39816453433297,36.08895,0,1.918238,-1,-1,1114.33447265625,23.99873956503252,-9999,3687.11360925,0.1335906982421875,-0.3908538818359375,-0.934814453125,3687.10361525,0.2545824249722791,0.09680207763579857,0.4270557810520519,0.007861184887588024,0.05150726437568665,0.0626712366938591,-0.06868354976177216,0.03246369957923889,-0.03300637006759644,XArbitraryZVertical,0.2039458352842003,0.07377066589307121,0.1340890478907669,0.9669457776709303,0.08797065913677216,-0.414192795753479,-0.9059279561042786,0,0,0,-1,-1,3684.961830375,unknown,2,2022-06-02T11:03:13.296+02:00,2022-06-02T10:17:13.754+02:00,693,1.485188,0.8367646,1.650349,555.2257,0,0,2022-06-02T11:03:13.295+02:00,675853390.7360505,0,6.730469,101.3011,1,0.76
2022-06-02T11:03:15.505+02:00,1654160593.964612,53.22888156262182,10.39816453433297,36.08895,0,1.918238,-1,-1,1114.33447265625,23.99873956503252,-9999,3687.12360425,0.1105194091796875,-0.4152984619140625,-0.9316253662109375,3687.11360925,0.2548742236342798,0.09712113662983407,0.4275977756393229,0.07238345593214035,0.05292566493153572,-0.001462740823626518,0.02795775234699249,0.04012855887413025,-0.02167659997940063,XArbitraryZVertical,0.2041763981116952,0.07398553332200836,0.1342681217402052,0.9668557886950726,0.08823791891336441,-0.4146860539913177,-0.9056763052940369,0,0,0,-1,-1,3684.961830375,unknown,2,2022-06-02T11:03:13.296+02:00,2022-06-02T10:17:13.754+02:00,693,1.485188,0.8367646,1.650349,555.2257,0,0,2022-06-02T11:03:13.295+02:00,675853390.7360505,0,6.730469,101.3011,1,0.76
2022-06-02T11:03:15.507+02:00,1654160593.964612,53.22888156262182,10.39816453433297,36.08895,0,1.918238,-1,-1,1114.33447265625,23.99873956503252,-9999,3687.13359925,0.0752716064453125,-0.4256591796875,-0.9189453125,3687.12360425,0.2549022694377595,0.09733056171929495,0.4283410867373726,0.05326385423541069,0.05115899071097374,-0.00597260519862175,0.04519309103488922,0.02450844645500183,-0.02946364879608154,XArbitraryZVertical,0.2045215790801616,0.07413192769535516,0.1343105514770444,0.9667657950022689,0.08839761465787888,-0.4153623282909393,-0.9053507447242737,0,0,0,-1,-1,3684.961830375,unknown,2,2022-06-02T11:03:13.296+02:00,2022-06-02T10:17:13.754+02:00,693,1.485188,0.8367646,1.650349,555.2257,0,0,2022-06-02T11:03:13.295+02:00,675853390.7360505,0,6.730469,101.3011,1,0.76
2022-06-02T11:03:15.509+02:00,1654160593.964612,53.22888156262182,10.39816453433297,36.08895,0,1.918238,-1,-1,1114.33447265625,23.99873956503252,-9999,3687.14359325,0.067657470703125,-0.4153900146484375,-0.9210205078125,3687.13359925,0.2548304979242503,0.09816808764594299,0.4284899341567271,-0.01269545499235392,0.06946182996034622,0.01581018790602684,0.02136962860822678,0.0001992583274841309,-0.02641046047210693,XArbitraryZVertical,0.2045401405785507,0.07453789205169607,0.1343630282069014,0.9667233400290398,0.08914977312088013,-0.4154977202415466,-0.9052148461341858,0,0,0,-1,-1,3684.961830375,unknown,2,2022-06-02T11:03:13.296+02:00,2022-06-02T10:17:13.754+02:00,693,1.485188,0.8367646,1.650349,555.2257,0,0,2022-06-02T11:03:13.295+02:00,675853390.7360505,0,6.730469,101.3011,1,0.76
2022-06-02T11:03:15.512+02:00,1654160593.964612,53.22888156262182,10.39816453433297,36.08895,0,1.918238,-1,-1,1114.33447265625,23.99873956503252,-9999,3687.15358825,0.085723876953125,-0.3989410400390625,-0.92236328125,3687.14359325,0.2551262760891163,0.09901773318729885,0.4280395953614859,-0.06341373175382614,0.1019199788570404,0.03654416278004646,-0.01466575264930725,-0.01057112216949463,-0.01362037658691406,XArbitraryZVertical,0.2042536799713932,0.0749532014398671,0.1345881483507959,0.9667204936250156,0.08993734419345856,-0.4150880575180054,-0.9053248763084412,0,0,0,-1,-1,3684.961830375,unknown,2,2022-06-02T11:03:13.296+02:00,2022-06-02T10:17:13.754+02:00,693,1.485188,0.8367646,1.650349,555.2257,0,0,2022-06-02T11:03:13.295+02:00,675853390.7360505,0,6.730469,101.3011,1,0.76
2022-06-02T11:03:15.516+02:00,1654160593.964612,53.22888156262182,10.39816453433297,36.08895,0,1.918238,-1,-1,1114.33447265625,23.99873956503252,-9999,3687.16358325,0.1037750244140625,-0.3973541259765625,-0.92181396484375,3687.15358825,0.255518908128821,0.1001143190362965,0.4272660862938644,-0.08452939987182617,0.1144080683588982,0.03463281318545341,-0.02330465614795685,-0.001005798578262329,-0.0154755711555481,XArbitraryZVertical,0.2037901154702646,0.07547929840161548,0.134881579594564,0.9667364847395047,0.09096211940050125,-0.4143842160701752,-0.9055449366569519,0,0,0,-1,-1,3684.961830375,unknown,2,2022-06-02T11:03:13.296+02:00,2022-06-02T10:17:13.754+02:00,693,1.485188,0.8367646,1.650349,555.2257,0,0,2022-06-02T11:03:13.295+02:00,675853390.7360505,0,6.730469,101.3011,1,0.76
2022-06-02T11:03:15.518+02:00,1654160593.964612,53.22888156262182,10.39816453433297,36.08895,0,1.918238,-1,-1,1114.33447265625,23.99873956503252,-9999,3687.17357725,0.10711669921875,-0.404144287109375,-0.926910400390625,3687.16358325,0.2558098644670376,0.1012114958193958,0.4265315277414603,-0.08717518299818039,0.1116379797458649,0.011074623093009,-0.006262466311454773,0.01477456092834473,-0.0166161060333252,XArbitraryZVertical,0.2033489680436677,0.07599743641037911,0.1351258872634141,0.9667546888956499,0.09198633581399918,-0.4137155711650848,-0.9057471752166748,0,0,0,-1,-1,3684.961830375,unknown,2,2022-06-02T11:03:13.296+02:00,2022-06-02T10:17:13.754+02:00,693,1.485188,0.8367646,1.650349,555.2257,0,0,2022-06-02T11:03:13.295+02:00,675853390.7360505,0,6.730469,101.3011,1,0.76
2022-06-02T11:03:15.520+02:00,1654160593.964612,53.22888156262182,10.39816453433297,36.08895,0,1.918238,-1,-1,1114.33447265625,23.99873956503252,-9999,3687.18357225,0.1048583984375,-0.4071807861328125,-0.9207611083984375,3687.17357725,0.2561054338720408,0.1019720940296144,0.4256620523955501,-0.0914924293756485,0.1197771281003952,0.002660098485648632,0.01106321811676025,0.01556968688964844,-0.01577949523925781,XArbitraryZVertical,0.2028647928303776,0.07634558204339729,0.1353363188565185,0.9667995643055204,0.09271179884672165,-0.4129238426685333,-0.9060344696044922,0,0,0,-1,-1,3684.961830375,unknown,2,2022-06-02T11:03:13.296+02:00,2022-06-02T10:17:13.754+02:00,693,1.485188,0.8367646,1.650349,555.2257,0,0,2022-06-02T11:03:13.295+02:00,675853390.7360505,0,6.730469,101.3011,1,0.76
2022-06-02T11:03:15.529+02:00,1654160593.964612,53.22888156262182,10.39816453433297,36.08895,0,1.918238,-1,-1,1114.33447265625,23.99873956503252,-9999,3687.19356625,0.09735107421875,-0.402252197265625,-0.9159088134765625,3687.18357225,0.2562767466148618,0.1029538407603675,0.4245461906036029,-0.1168851107358932,0.1222336962819099,-0.005696701351553202,0.01346813887357712,0.007763028144836426,-0.02050960063934326,XArbitraryZVertical,0.2022508146229204,0.07677394092429296,0.1355058988124494,0.966870413727062,0.09364854544401169,-0.4119073152542114,-0.906400740146637,0,0,0,-1,-1,3684.961830375,unknown,2,2022-06-02T11:03:13.296+02:00,2022-06-02T10:17:13.754+02:00,693,1.485188,0.8367646,1.650349,555.2257,0,0,2022-06-02T11:03:13.295+02:00,675853390.7360505,0,6.730469,101.3011,1,0.76
2022-06-02T11:03:15.538+02:00,1654160593.964612,53.22888156262182,10.39816453433297,36.08895,0,1.918238,-1,-1,1114.33447265625,23.99873956503252,-9999,3687.20356125,0.093719482421875,-0.3916168212890625,-0.91156005859375,3687.19356625,0.2563053808333577,0.104236522378189,0.4231322126933295,-0.1437119245529175,0.1287129074335098,-0.006419217213988304,0.009986788034439087,0.003437668085098267,-0.01390284299850464,XArbitraryZVertical,0.2014772031149399,0.07731638841729924,0.135632699378148,0.9669708780348214,0.09487159550189972,-0.4106184244155884,-0.9068582057952881,0,0,0,-1,-1,3684.961830375,unknown,2,2022-06-02T11:03:13.296+02:00,2022-06-02T10:17:13.754+02:00,693,1.485188,0.8367646,1.650349,555.2257,0,0,2022-06-02T11:03:13.295+02:00,675853390.7360505,0,6.730469,101.3011,1,0.76
2022-06-02T11:03:15.548+02:00,1654160593.964612,53.22888156262182,10.39816453433297,36.08895,0,1.918238,-1,-1,1114.33447265625,23.99873956503252,-9999,3687.21355625,0.0942535400390625,-0.3871307373046875,-0.9168701171875,3687.20356125,0.2563371294720445,0.1056598597869437,0.421502634895707,-0.1586150079965591,0.1363521218299866,-0.006424742750823498,0.001118354499340057,0.006879806518554688,-0.008522331714630127,XArbitraryZVertical,0.200589154361786,0.07791496378307959,0.1357714493449748,0.9670881200477519,0.09623271226882935,-0.4091320335865021,-0.9073864817619324,0,0,0,-1,-1,3684.961830375,unknown,2,2022-06-02T11:03:13.296+02:00,2022-06-02T10:17:13.754+02:00,693,1.485188,0.8367646,1.650349,555.2257,0,0,2022-06-02T11:03:13.295+02:00,675853390.7360505,0,6.730469,101.3011,1,0.76
2022-06-02T11:03:15.558+02:00,1654160593.964612,53.22888156262182,10.39816453433297,36.08895,0,1.918238,-1,-1,1114.33447265625,23.99873956503252,-9999,3687.22355025,0.104095458984375,-0.3777313232421875,-0.91766357421875,3687.21355625,0.2564472104027942,0.1070637113140922,0.4199365480799375,-0.1476081758737564,0.1444707661867142,-0.00273546576499939,-0.003855317831039429,0.01608568429946899,-0.00367361307144165,XArbitraryZVertical,0.1997299636531799,0.0785157073004432,0.1359456913861408,0.9671928129820556,0.09757480025291443,-0.4077025055885315,-0.9078864455223083,0,0,0,-1,-1,3684.961830375,unknown,2,2022-06-02T11:03:13.296+02:00,2022-06-02T10:17:13.754+02:00,693,1.485188,0.8367646,1.650349,555.2257,0,0,2022-06-02T11:03:13.295+02:00,675853390.7360505,0,6.730469,101.3011,1,0.76
2022-06-02T11:03:15.568+02:00,1654160593.964612,53.22888156262182,10.39816453433297,36.08895,0,1.918238,-1,-1,1114.33447265625,23.99873956503252,-9999,3687.23354525,0.1104278564453125,-0.379241943359375,-0.912109375,3687.22355025,0.2567394523127242,0.1083026189737373,0.4186794276790332,-0.1202284097671509,0.1476621627807617,0.01705408468842506,-0.004501298069953918,0.01942354440689087,-0.008596420288085938,XArbitraryZVertical,0.1990243989136657,0.07907242708161703,0.1361944266308555,0.9672579147181448,0.09875483065843582,-0.4065543115139008,-0.9082736968994141,0,0,0,-1,-1,3684.961830375,unknown,2,2022-06-02T11:03:13.296+02:00,2022-06-02T10:17:13.754+02:00,693,1.485188,0.8367646,1.650349,555.2257,0,0,2022-06-02T11:03:13.295+02:00,675853390.7360505,0,6.730469,101.3011,1,0.76
2022-06-02T11:03:15.578+02:00,1654160593.964612,53.22888156262182,10.39816453433297,36.08895,0,1.918238,-1,-1,1114.33447265625,23.99873956503252,-9999,3687.24354025,0.114288330078125,-0.385009765625,-0.9078826904296875,3687.23354525,0.2571671008950251,0.1093593201128864,0.4176449237165308,-0.09787888824939728,0.1410332918167114,0.01770868897438049,0.004335053265094757,0.02787762880325317,-0.009077131748199463,XArbitraryZVertical,0.1984335848744335,0.07956704441292796,0.1364926999372119,0.967296662379069,0.09976039826869965,-0.4056089222431183,-0.9085863828659058,0,0,0,-1,-1,3684.961830375,unknown,2,2022-06-02T11:03:13.296+02:00,2022-06-02T10:17:13.754+02:00,693,1.485188,0.8367646,1.650349,555.2257,0,0,2022-06-02T11:03:13.295+02:00,675853390.7360505,0,6.730469,101.3011,1,0.76
2022-06-02T11:03:15.588+02:00,1654160593.964612,53.22888156262182,10.39816453433297,36.08895,0,1.918238,-1,-1,1114.33447265625,23.99873956503252,-9999,3687.25353425,0.113800048828125,-0.3944091796875,-0.9029541015625,3687.24354025,0.2575519008690256,0.1104584326926599,0.4167205076620314,-0.0788024365901947,0.1276662796735764,0.02721251174807549,0.009627573192119598,0.02552187442779541,-0.00326085090637207,XArbitraryZVertical,0.1978946884700692,0.08008403588973494,0.1367753434552913,0.9673244831154315,0.1008002683520317,-0.404763787984848,-0.9088484644889832,0,0,0,-1,-1,3684.961830375,unknown,2,2022-06-02T11:03:13.296+02:00,2022-06-02T10:17:13.754+02:00,693,1.485188,0.8367646,1.650349,555.2257,0,0,2022-06-02T11:03:13.295+02:00,675853390.7360505,0,6.730469,101.3011,1,0.76
2022-06-02T11:03:15.598+02:00,1654160593.964612,53.22888156262182,10.39816453433297,36.08895,0,1.918238,-1,-1,1114.33447265625,23.99873956503252,-9999,3687.26352925,0.1074981689453125,-0.40155029296875,-0.9102630615234375,3687.25353425,0.2579122974836889,0.1115354596915845,0.4156685014823191,-0.08859780430793762,0.1123235449194908,0.02386278659105301,0.01246191561222076,0.01879182457923889,0.001279354095458984,XArbitraryZVertical,0.1972961061027788,0.08058051071078605,0.1370416953807068,0.9673678431885381,0.1018264070153236,-0.4038015902042389,-0.9091620445251465,0,0,0,-1,-1,3684.961830375,unknown,2,2022-06-02T11:03:13.296+02:00,2022-06-02T10:17:13.754+02:00,693,1.485188,0.8367646,1.650349,555.2257,0,0,2022-06-02T11:03:13.295+02:00,675853390.7360505,0,6.730469,101.3011,1,0.76
2022-06-02T11:03:15.608+02:00,1654160593.964612,53.22888156262182,10.39816453433297,36.08895,0,1.918238,-1,-1,1114.33447265625,23.99873956503252,-9999,3687.27352325,0.1046295166015625,-0.3943634033203125,-0.90966796875,3687.26352925,0.2582433800953536,0.1125860512924652,0.4145437926197285,-0.09323340654373169,0.1020368859171867,0.02762630209326744,0.01096757501363754,0.008363217115402222,0.006551206111907959,XArbitraryZVertical,0.196664986345679,0.08105702328268886,0.1372896408018865,0.967421383624357,0.1028324663639069,-0.4027723968029022,-0.909505307674408,0,0,0,-1,-1,3684.961830375,unknown,2,2022-06-02T11:03:13.296+02:00,2022-06-02T10:17:13.754+02:00,693,1.485188,0.8367646,1.650349,555.2257,0,0,2022-06-02T11:03:13.295+02:00,675853390.7360505,0,6.730469,101.3011,1,0.76
2022-06-02T11:03:15.618+02:00,1654160593.964612,53.22888156262182,10.39816453433297,36.08895,0,1.918238,-1,-1,1114.33447265625,23.99873956503252,-9999,3687.28351825,0.1065521240234375,-0.3843536376953125,-0.9154052734375,3687.27352325,0.2587479710537073,0.113403244744191,0.4135927073132103,-0.09927212446928024,0.09369853138923645,0.04262123256921768,0.003879182040691376,0.0003513991832733154,-0.0004619359970092773,XArbitraryZVertical,0.196126848950019,0.08144745328978371,0.1376004889187043,0.9674536614848005,0.1036189720034599,-0.4019016921520233,-0.9098011255264282,0,0,0,-1,-1,3684.961830375,unknown,2,2022-06-02T11:03:13.296+02:00,2022-06-02T10:17:13.754+02:00,693,1.485188,0.8367646,1.650349,555.2257,0,0,2022-06-02T11:03:13.295+02:00,675853390.7360505,0,6.730469,101.3011,1,0.76
2022-06-02T11:03:15.628+02:00,1654160593.964612,53.22888156262182,10.39816453433297,36.08895,0,1.918238,-1,-1,1114.33447265625,23.99873956503252,-9999,3687.29351325,0.1049346923828125,-0.3787078857421875,-0.9189910888671875,3687.28351825,0.259444000885738,0.1138105659588926,0.4126447847781081,-0.08812695741653442,0.08544212579727173,0.04542986676096916,0.0005967393517494202,0.006670147180557251,0.0004690289497375488,XArbitraryZVertical,0.195610439401387,0.08165829787237899,0.1379634984628832,0.9674887252646706,0.1040327623486519,-0.4010335206985474,-0.9101369380950928,0,0,0,-1,-1,3684.961830375,unknown,2,2022-06-02T11:03:13.296+02:00,2022-06-02T10:17:13.754+02:00,693,1.485188,0.8367646,1.650349,555.2257,0,0,2022-06-02T11:03:13.295+02:00,675853390.7360505,0,6.730469,101.3011,1,0.76
2022-06-02T11:03:15.638+02:00,1654160593.964612,53.22888156262182,10.39816453433297,36.08895,0,1.918238,-1,-1,1114.33447265625,23.99873956503252,-9999,3687.30350725,0.1035308837890625,-0.3787078857421875,-0.923065185546875,3687.29351325,0.260163772109487,0.11402100105282,0.4116082737851302,-0.07490783184766769,0.07830458879470825,0.04105029627680779,0.002280592918395996,0.01573014259338379,-0.004877746105194092,XArbitraryZVertical,0.1950635129091013,0.08177077525545877,0.1383173237806529,0.9675391312103244,0.1042715236544609,-0.4000837802886963,-0.9105275273323059,0,0,0,-1,-1,3684.961830375,unknown,2,2022-06-02T11:03:13.296+02:00,2022-06-02T10:17:13.754+02:00,693,1.485188,0.8367646,1.650349,555.2257,0,0,2022-06-02T11:03:13.295+02:00,675853390.7360505,0,6.730469,101.3011,1,0.76
2022-06-02T11:03:15.648+02:00,1654160593.964612,53.22888156262182,10.39816453433297,36.08895,0,1.918238,-1,-1,1114.33447265625,23.99873956503252,-9999,3687.31350225,0.1034698486328125,-0.3812255859375,-0.9236602783203125,3687.30350725,0.2608532608134893,0.1142029799169807,0.410521053210017,-0.06427419185638428,0.07687933743000031,0.04379488527774811,0.0004479587078094482,0.02037924528121948,-0.008050918579101562,XArbitraryZVertical,0.1944950760991713,0.08186322201138867,0.1386529014262493,0.9675977501484876,0.1044867262244225,-0.399087131023407,-0.9109401702880859,0,0,0,-1,-1,3684.961830375,unknown,2,2022-06-02T11:03:13.296+02:00,2022-06-02T10:17:13.754+02:00,693,1.485188,0.8367646,1.650349,555.2257,0,0,2022-06-02T11:03:13.295+02:00,675853390.7360505,0,6.730469,101.3011,1,0.76
2022-06-02T11:03:15.658+02:00,1654160593.964612,53.22888156262182,10.39816453433297,36.08895,0,1.918238,-1,-1,1114.33447265625,23.99873956503252,-9999,3687.32349725,0.1023101806640625,-0.386260986328125,-0.9201507568359375,3687.31350225,0.261448603586616,0.1146630985666982,0.4092416509482159,-0.06144938245415688,0.06993620842695236,0.04854623228311539,-0.001433312892913818,0.01920580863952637,-0.01166671514511108,XArbitraryZVertical,0.1938178195078713,0.08206960549317724,0.138967029388806,0.9676710276728013,0.1049641892313957,-0.3979137241840363,-0.9113984704017639,0,0,0,-1,-1,3684.961830375,unknown,2,2022-06-02T11:03:13.296+02:00,2022-06-02T10:17:13.754+02:00,693,1.485188,0.8367646,1.650349,555.2257,0,0,2022-06-02T11:03:13.295+02:00,675853390.7360505,0,6.730469,101.3011,1,0.76
2022-06-02T11:03:15.668+02:00,1654160593.964612,53.22888156262182,10.39816453433297,36.08895,0,1.918238,-1,-1,1114.33447265625,23.99873956503252,-9999,3687.33349125,0.0950164794921875,-0.395965576171875,-0.9150543212890625,3687.32349725,0.261959907435212,0.1152750505234208,0.4081762836362934,-0.0526222325861454,0.06215465068817139,0.04701018705964088,-0.002100765705108643,0.0157105028629303,-0.01190561056137085,XArbitraryZVertical,0.1932371166281562,0.08235336701124164,0.1392579863077865,0.9677213575703335,0.1055705994367599,-0.3969360888004303,-0.9117546677589417,0,0,0,-1,-1,3684.961830375,unknown,2,2022-06-02T11:03:13.296+02:00,2022-06-02T10:17:13.754+02:00,693,1.485188,0.8367646,1.650349,555.2257,0,0,2022-06-02T11:03:13.295+02:00,675853390.7360505,0,6.730469,101.3011,1,0.76
2022-06-02T11:03:15.678+02:00,1654160593.964612,53.22888156262182,10.39816453433297,36.08895,0,1.918238,-1,-1,1114.33447265625,23.99873956503252,-9999,3687.34348625,0.0828704833984375,-0.406036376953125,-0.9071502685546875,3687.33349125,0.262385101981273,0.1159509011574656,0.4074239238334889,-0.05013084784150124,0.0576869323849678,0.04107586294412613,-0.003911130130290985,0.009984433650970459,-0.008171260356903076,XArbitraryZVertical,0.1928072879692694,0.08267772166151266,0.1395177974394827,0.9677419654848868,0.1062213033437729,-0.3962454497814178,-0.9119794964790344,0,0,0,-1,-1,3684.961830375,unknown,2,2022-06-02T11:03:13.296+02:00,2022-06-02T10:17:13.754+02:00,693,1.485188,0.8367646,1.650349,555.2257,0,0,2022-06-02T11:03:13.295+02:00,675853390.7360505,0,6.730469,101.3011,1,0.76
2022-06-02T11:03:15.688+02:00,1654160593.964612,53.22888156262182,10.39816453433297,36.08895,0,1.918238,-1,-1,1114.33447265625,23.99873956503252,-9999,3687.35348125,0.076690673828125,-0.414093017578125,-0.89788818359375,3687.34348625,0.2627115856596337,0.1166271366734508,0.4069869767109653,-0.0588780976831913,0.05611120536923409,0.03065857663750648,-0.01184165477752686,-0.000121384859085083,-0.002974987030029297,XArbitraryZVertical,0.1925344652792649,0.08301097550541173,0.1397343723176739,0.967736458933351,0.1068581268191338,-0.3958442211151123,-0.9120793342590332,0,0,0,-1,-1,3684.961830375,unknown,2,2022-06-02T11:03:13.296+02:00,2022-06-02T10:17:13.754+02:00,693,1.485188,0.8367646,1.650349,555.2257,0,0,2022-06-02T11:03:13.295+02:00,675853390.7360505,0,6.730469,101.3011,1,0.76
2022-06-02T11:03:15.698+02:00,1654160593.964612,53.22888156262182,10.39816453433297,36.08895,0,1.918238,-1,-1,1114.33447265625,23.99873956503252,-9999,3687.36347525,0.076812744140625,-0.418792724609375,-0.8839263916015625,3687.35348125,0.2630945913152005,0.1170677315780141,0.4064715535025307,-0.09024587273597717,0.05686541274189949,0.0247759222984314,-0.02441331744194031,-0.01066556572914124,0.005084395408630371,XArbitraryZVertical,0.1922375417680864,0.08323099241153441,0.1399542762076382,0.9677448317131429,0.1072837933897972,-0.3953708410263062,-0.9122346639633179,0,0,0,-1,-1,3684.961830375,unknown,2,2022-06-02T11:03:13.296+02:00,2022-06-02T10:17:13.754+02:00,693,1.485188,0.8367646,1.650349,555.2257,0,0,2022-06-02T11:03:13.295+02:00,675853390.7360505,0,6.730469,101.3011,1,0.76
2022-06-02T11:03:15.708+02:00,1654160593.964612,53.22888156262182,10.39816453433297,36.08895,0,1.918238,-1,-1,1114.33447265625,23.99873956503252,-9999,3687.37347025,0.0862579345703125,-0.421661376953125,-0.8911590576171875,3687.36347525,0.2634808713060479,0.1174495393958314,0.405327876388258,-0.147288054227829,0.06156842038035393,0.01109752617776394,-0.03099432587623596,-0.01977294683456421,0.01475393772125244,XArbitraryZVertical,0.1916395280832532,0.08338611922842834,0.1401604056891481,0.9678202359164906,0.107684999704361,-0.3943201005458832,-0.9126421213150024,0,0,0,-1,-1,3684.961830375,unknown,2,2022-06-02T11:03:13.296+02:00,2022-06-02T10:17:13.754+02:00,693,1.485188,0.8367646,1.650349,555.2257,0,0,2022-06-02T11:03:13.295+02:00,675853390.7360505,0,6.730469,101.3011,1,0.76
2022-06-02T11:03:15.718+02:00,1654160593.964612,53.22888156262182,10.39816453433297,36.08895,0,1.918238,-1,-1,1114.33447265625,23.99873956503252,-9999,3687.38346425,0.1038818359375,-0.4028472900390625,-0.8975372314453125,3687.37347025,0.2637724998128357,0.1179296476298526,0.4033101456115262,-0.1971320509910583,0.06141848489642143,0.001992444507777691,-0.0314038097858429,-0.0263276994228363,0.02945214509963989,XArbitraryZVertical,0.1906140763663479,0.08352847444495635,0.1403163774564456,0.9679878591517848,0.1082165464758873,-0.3924650549888611,-0.9133785367012024,0,0,0,-1,-1,3684.961830375,unknown,2,2022-06-02T11:03:13.296+02:00,2022-06-02T10:17:13.754+02:00,693,1.485188,0.8367646,1.650349,555.2257,0,0,2022-06-02T11:03:13.295+02:00,675853390.7360505,0,6.730469,101.3011,1,0.76
2022-06-02T11:03:15.728+02:00,1654160593.964612,53.22888156262182,10.39816453433297,36.08895,0,1.918238,-1,-1,1114.33447265625,23.99873956503252,-9999,3687.39345925,0.1086883544921875,-0.363067626953125,-0.898193359375,3687.38346425,0.2641365379982012,0.1182076481138386,0.4008176443674676,-0.2151953727006912,0.04167294502258301,0.01044511701911688,-0.02232755720615387,-0.03149005770683289,0.02315795421600342,XArbitraryZVertical,0.1893689903288138,0.08355175308156154,0.140480259376863,0.9682064837066714,0.1085854917764664,-0.3901713192462921,-0.9143169522285461,0,0,0,-1,-1,3684.961830375,unknown,2,2022-06-02T11:03:13.296+02:00,2022-06-02T10:17:13.754+02:00,693,1.485188,0.8367646,1.650349,555.2257,0,0,2022-06-02T11:03:13.295+02:00,675853390.7360505,0,6.730469,101.3011,1,0.76
2022-06-02T11:03:15.738+02:00,1654160593.964612,53.22888156262182,10.39816453433297,36.08895,0,1.918238,-1,-1,1114.33447265625,23.99873956503252,-9999,3687.40345425,0.1036529541015625,-0.3287200927734375,-0.9061431884765625,3687.39345925,0.2646590265108154,0.1181470731704509,0.3984826441326528,-0.1741659045219421,0.01951863989233971,0.0253865160048008,-0.004755370318889618,-0.01482695341110229,0.0176885724067688,XArbitraryZVertical,0.1882173395476704,0.08343475462166795,0.1406910273300913,0.9684104435856794,0.1086371913552284,-0.3880203068256378,-0.9152257442474365,0,0,0,-1,-1,3684.961830375,unknown,2,2022-06-02T11:03:13.296+02:00,2022-06-02T10:17:13.754+02:00,693,1.485188,0.8367646,1.650349,555.2257,0,0,2022-06-02T11:03:13.295+02:00,675853390.7360505,0,6.730469,101.3011,1,0.76
2022-06-02T11:03:15.748+02:00,1654160593.964612,53.22888156262182,10.39816453433297,36.08895,0,1.918238,-1,-1,1114.33447265625,23.99873956503252,-9999,3687.41344825,0.095367431640625,-0.3142547607421875,-0.8999786376953125,3687.40345425,0.2651977854541175,0.117891598883197,0.3969052957178538,-0.09523817151784897,0.001550092827528715,0.02549590542912483,0.0002131164073944092,0.02349844574928284,0.01766675710678101,XArbitraryZVertical,0.1874466305001686,0.08326881352352279,0.1409032658043569,0.9685433506886042,0.1084752231836319,-0.3865660727024078,-0.915860116481781,0,0,0,-1,-1,3684.961830375,unknown,2,2022-06-02T11:03:13.296+02:00,2022-06-02T10:17:13.754+02:00,693,1.485188,0.8367646,1.650349,555.2257,0,0,2022-06-02T11:03:13.295+02:00,675853390.7360505,0,6.730469,101.3011,1,0.76
2022-06-02T11:03:15.758+02:00,1654160593.964612,53.22888156262182,10.39816453433297,36.08895,0,1.918238,-1,-1,1114.33447265625,23.99873956503252,-9999,3687.42344325,0.08953857421875,-0.337371826171875,-0.8961029052734375,3687.41344825,0.2655568100173579,0.1175422357032523,0.3963390312570915,-0.01490125246345997,-0.01309835817664862,0.01356680877506733,-0.004527963697910309,0.05732369422912598,0.009972095489501953,XArbitraryZVertical,0.1871812144375914,0.08309983375587419,0.1410355897645438,0.9685899775537855,0.1081809028983116,-0.3860437572002411,-0.9161152243614197,0,0,0,-1,-1,3684.961830375,unknown,2,2022-06-02T11:03:13.296+02:00,2022-06-02T10:17:13.754+02:00,693,1.485188,0.8367646,1.650349,555.2257,0,0,2022-06-02T11:03:13.295+02:00,675853390.7360505,0,6.730469,101.3011,1,0.76
2022-06-02T11:03:15.768+02:00,1654160593.964612,53.22888156262182,10.39816453433297,36.08895,0,1.918238,-1,-1,1114.33447265625,23.99873956503252,-9999,3687.43343825,0.0872802734375,-0.3718109130859375,-0.8987579345703125,3687.42344325,0.2656193607548291,0.117174870179768,0.3966656877095214,0.0507732629776001,-0.02264226227998734,-0.008090350776910782,-0.01246216893196106,0.07209032773971558,0.01605099439620972,XArbitraryZVertical,0.1873632100405699,0.08294706720422111,0.1410365308682119,0.9685678021195629,0.1078296005725861,-0.3863450884819031,-0.9160296320915222,0,0,0,-1,-1,3684.961830375,unknown,2,2022-06-02T11:03:13.296+02:00,2022-06-02T10:17:13.754+02:00,693,1.485188,0.8367646,1.650349,555.2257,0,0,2022-06-02T11:03:13.295+02:00,675853390.7360505,0,6.730469,101.3011,1,0.76
2022-06-02T11:03:15.778+02:00,1654160593.964612,53.22888156262182,10.39816453433297,36.08895,0,1.918238,-1,-1,1114.33447265625,23.99873956503252,-9999,3687.44343225,0.08721923828125,-0.3941497802734375,-0.9000091552734375,3687.43343825,0.2654901864002954,0.1167272167043433,0.3976012472690832,0.08245635777711868,-0.02427930757403374,-0.01551843993365765,-0.01783882081508636,0.04983600974082947,0.0196155309677124,XArbitraryZVertical,0.1878546235435264,0.0827734408859898,0.1409463686365855,0.9685005026897622,0.1073773875832558,-0.3872078359127045,-0.9157183766365051,0,0,0,-1,-1,3684.961830375,unknown,2,2022-06-02T11:03:13.296+02:00,2022-06-02T10:17:13.754+02:00,693,1.485188,0.8367646,1.650349,555.2257,0,0,2022-06-02T11:03:13.295+02:00,675853390.7360505,0,6.730469,101.3011,1,0.76
2022-06-02T11:03:15.788+02:00,1654160593.964612,53.22888156262182,10.39816453433297,36.08895,0,1.918238,-1,-1,1114.33447265625,23.99873956503252,-9999,3687.45342725,0.08294677734375,-0.4052581787109375,-0.8999481201171875,3687.44343225,0.2653502767680639,0.1161509131302775,0.3987355150996232,0.06422509253025055,-0.03567057847976685,-0.01801768317818642,-0.0195184126496315,0.01644247770309448,0.01658540964126587,XArbitraryZVertical,0.1884519838792645,0.08254818728398297,0.140841655621193,0.968418876072073,0.1067986637353897,-0.3882533609867096,-0.9153432846069336,0,0,0,-1,-1,3684.961830375,unknown,2,2022-06-02T11:03:13.296+02:00,2022-06-02T10:17:13.754+02:00,693,1.485188,0.8367646,1.650349,555.2257,0,0,2022-06-02T11:03:13.295+02:00,675853390.7360505,0,6.730469,101.3011,1,0.76
2022-06-02T11:03:15.798+02:00,1654160593.964612,53.22888156262182,10.39816453433297,36.08895,0,1.918238,-1,-1,1114.33447265625,23.99873956503252,-9999,3687.46342125,0.0770721435546875,-0.4062347412109375,-0.906585693359375,3687.45342725,0.2652121328475289,0.1155582557733056,0.3996693563229335,0.0202922560274601,-0.03378079831600189,-0.02401485666632652,-0.01899507641792297,-0.005036026239395142,0.01503676176071167,XArbitraryZVertical,0.1889529691964894,0.08230329829757775,0.1407328833172642,0.9683579428203931,0.106214314699173,-0.3891137838363647,-0.9150458574295044,0,0,0,-1,-1,3684.961830375,unknown,2,2022-06-02T11:03:13.296+02:00,2022-06-02T10:17:13.754+02:00,693,1.485188,0.8367646,1.650349,555.2257,0,0,2022-06-02T11:03:13.295+02:00,675853390.7360505,0,6.730469,101.3011,1,0.76
2022-06-02T11:03:15.808+02:00,1654160593.964612,53.22888156262182,10.39816453433297,36.08895,0,1.918238,-1,-1,1114.33447265625,23.99873956503252,-9999,3687.47341625,0.0641326904296875,-0.39471435546875,-0.9143218994140625,3687.46342125,0.265025208872774,0.115087436447035,0.4000848251817646,-0.02327865734696388,-0.03939288109540939,-0.03005437180399895,-0.02281814813613892,-0.01576170325279236,0.01498699188232422,XArbitraryZVertical,0.1891955508584464,0.08208217246090575,0.1406040517845552,0.9683480831253231,0.1057649031281471,-0.3894964754581451,-0.9149351119995117,0,0,0,-1,-1,3684.961830375,unknown,2,2022-06-02T11:03:13.296+02:00,2022-06-02T10:17:13.754+02:00,693,1.485188,0.8367646,1.650349,555.2257,0,0,2022-06-02T11:03:13.295+02:00,675853390.7360505,0,6.730469,101.3011,1,0.76
2022-06-02T11:03:15.818+02:00,1654160593.964612,53.22888156262182,10.39816453433297,36.08895,0,1.918238,-1,-1,1114.33447265625,23.99873956503252,-9999,3687.48341,0.050811767578125,-0.3678436279296875,-0.9140472412109375,3687.47341625,0.2647534055153538,0.1148032046522655,0.3999411867471842,-0.04074127227067947,-0.0378812700510025,-0.03063574060797691,-0.02843911945819855,-0.01687055826187134,0.00843501091003418,XArbitraryZVertical,0.18915690867385,0.08191038091765854,0.1404434444714757,0.9683934399818136,0.1055112555623055,-0.3893641829490662,-0.9150207042694092,0,0,0,-1,-1,3684.961830375,unknown,2,2022-06-02T11:03:13.296+02:00,2022-06-02T10:17:13.754+02:00,693,1.485188,0.8367646,1.650349,555.2257,0,0,2022-06-02T11:03:13.295+02:00,675853390.7360505,0,6.730469,101.3011,1,0.76
2022-06-02T11:03:15.828+02:00,1654160593.964612,53.22888156262182,10.39816453433297,36.08895,0,1.918238,-1,-1,1114.33447265625,23.99873956503252,-9999,3687.493404,0.0341644287109375,-0.3507080078125,-0.916259765625,3687.48341,0.2644940289249392,0.114611777820337,0.3992324998729416,-0.05463338643312454,-0.02917432971298695,-0.02665511332452297,-0.04123494029045105,-0.006003051996231079,0.000992894172668457,XArbitraryZVertical,0.188836719681931,0.08175142231834404,0.1402892771847691,0.9684917689149659,0.105367623269558,-0.3887113034725189,-0.915314793586731,0,0,0,-1,-1,3684.961830375,unknown,2,2022-06-02T11:03:13.296+02:00,2022-06-02T10:17:13.754+02:00,693,1.485188,0.8367646,1.650349,555.2257,0,0,2022-06-02T11:03:13.295+02:00,675853390.7360505,0,6.730469,101.3011,1,0.76
2022-06-02T11:03:15.838+02:00,1654160593.964612,53.22888156262182,10.39816453433297,36.08895,0,1.918238,-1,-1,1114.33447265625,23.99873956503252,-9999,3687.503399,0.0304718017578125,-0.350189208984375,-0.9120025634765625,3687.493404,0.2642247543816359,0.1145073021831876,0.3980728908412361,-0.04517409950494766,-0.01142143178731203,-0.03722945973277092,-0.0545116662979126,0.01979899406433105,0.001725733280181885,XArbitraryZVertical,0.1882917377301876,0.08160717923360276,0.140131882273413,0.9686327832549562,0.105323426425457,-0.3876426219940186,-0.9157729744911194,0,0,0,-1,-1,3684.961830375,unknown,2,2022-06-02T11:03:13.296+02:00,2022-06-02T10:17:13.754+02:00,693,1.485188,0.8367646,1.650349,555.2257,0,0,2022-06-02T11:03:13.295+02:00,675853390.7360505,0,6.730469,101.3011,1,0.76
2022-06-02T11:03:15.848+02:00,1654160593.964612,53.22888156262182,10.39816453433297,36.08895,0,1.918238,-1,-1,1114.33447265625,23.99873956503252,-9999,3687.513394,0.0249786376953125,-0.3599700927734375,-0.9035491943359375,3687.503399,0.2638266258877236,0.1145069062151767,0.396946801613466,-0.03626289963722229,-0.002585596404969692,-0.05026776716113091,-0.07120845466852188,0.03589633107185364,-5.364418029785156e-05,XArbitraryZVertical,0.1877608970214981,0.08150332515029729,0.1399223061355702,0.9687748860415329,0.1053728759288788,-0.3866043388843536,-0.9162061214447021,0,0,0,-1,-1,3684.961830375,unknown,2,2022-06-02T11:03:13.296+02:00,2022-06-02T10:17:13.754+02:00,693,1.485188,0.8367646,1.650349,555.2257,0,0,2022-06-02T11:03:13.295+02:00,675853390.7360505,0,6.730469,101.3011,1,0.76
2022-06-02T11:03:15.858+02:00,1654160593.964612,53.22888156262182,10.39816453433297,36.08895,0,1.918238,-1,-1,1114.33447265625,23.99873956503252,-9999,3687.523388,0.0206756591796875,-0.370147705078125,-0.9015350341796875,3687.513394,0.2633146148219861,0.1146255888946567,0.3960717541582955,-0.04419352859258652,0.01732685975730419,-0.06615458428859711,-0.07504846900701523,0.0356079638004303,0.004526793956756592,XArbitraryZVertical,0.1873482715417952,0.08146141524126177,0.1396723638414402,0.9688943836354181,0.1055202633142471,-0.3857972025871277,-0.9165292978286743,0,0,0,-1,-1,3684.961830375,unknown,2,2022-06-02T11:03:13.296+02:00,2022-06-02T10:17:13.754+02:00,693,1.485188,0.8367646,1.650349,555.2257,0,0,2022-06-02T11:03:13.295+02:00,675853395.8537338,0,6.851562,101.3005,1,0.76
2022-06-02T11:03:15.868+02:00,1654160593.964612,53.22888156262182,10.39816453433297,36.08895,0,1.918238,-1,-1,1114.33447265625,23.99873956503252,-9999,3687.533383,0.0174560546875,-0.3752593994140625,-0.897674560546875,3687.523388,0.2627235005353818,0.1149531055111761,0.3953820276893936,-0.06907620280981064,0.04123172536492348,-0.07333959639072418,-0.0808723047375679,0.02519065141677856,0.01320964097976685,XArbitraryZVertical,0.1870143516465906,0.08152436725756204,0.1394063010389967,0.9689918094657346,0.1058509275317192,-0.3851607739925385,-0.9167588353157043,0,0,0,-1,-1,3684.961830375,unknown,2,2022-06-02T11:03:13.296+02:00,2022-06-02T10:17:13.754+02:00,693,1.485188,0.8367646,1.650349,555.2257,0,0,2022-06-02T11:03:15.854+02:00,675853395.8537338,0,6.851562,101.3005,1,0.76
2022-06-02T11:03:15.878+02:00,1654160593.964612,53.22888156262182,10.39816453433297,36.08895,0,1.918238,-1,-1,1114.33447265625,23.99873956503252,-9999,3687.543378,0.019805908203125,-0.3761138916015625,-0.9070587158203125,3687.533383,0.2620915548901193,0.1154752547073348,0.394612602411381,-0.1102651879191399,0.0551118515431881,-0.08232163637876511,-0.08568806201219559,0.01430287957191467,0.01546251773834229,XArbitraryZVertical,0.1866298285341672,0.0816733622788295,0.1391372058012663,0.9690921041608271,0.1063637137413025,-0.3844505846500397,-0.9169975519180298,0,0,0,-1,-1,3684.961830375,unknown,2,2022-06-02T11:03:13.296+02:00,2022-06-02T10:17:13.754+02:00,693,1.485188,0.8367646,1.650349,555.2257,0,0,2022-06-02T11:03:15.854+02:00,675853395.8537338,0,6.851562,101.3005,1,0.76
2022-06-02T11:03:15.888+02:00,1654160593.964612,53.22888156262182,10.39816453433297,36.08895,0,1.918238,-1,-1,1114.33447265625,23.99873956503252,-9999,3687.553372,0.02093505859375,-0.378326416015625,-0.915740966796875,3687.543378,0.2614312895726454,0.1161511499466581,0.3934952240390757,-0.1583008319139481,0.07895553857088089,-0.09095840156078339,-0.08957716822624207,0.008159458637237549,0.01967698335647583,XArbitraryZVertical,0.1860667294009365,0.08187425149016744,0.1388630332917961,0.9692228104414099,0.1070332005620003,-0.3834188580513,-0.9173515439033508,0,0,0,-1,-1,3684.961830375,unknown,2,2022-06-02T11:03:13.296+02:00,2022-06-02T10:17:13.754+02:00,693,1.485188,0.8367646,1.650349,555.2257,0,0,2022-06-02T11:03:15.854+02:00,675853395.8537338,0,6.851562,101.3005,1,0.76
2022-06-02T11:03:15.898+02:00,1654160593.964612,53.22888156262182,10.39816453433297,36.08895,0,1.918238,-1,-1,1114.33447265625,23.99873956503252,-9999,3687.563367,0.0118408203125,-0.3839263916015625,-0.909423828125,3687.553372,0.2606570803917134,0.1170171664067428,0.3919219326771959,-0.1986090987920761,0.09794760495424271,-0.125520646572113,-0.08809199929237366,0.005851447582244873,0.01079779863357544,XArbitraryZVertical,0.1852735908395487,0.0821307241371752,0.1385435883813329,0.96939869491235,0.1078979000449181,-0.3819653391838074,-0.9178564548492432,0,0,0,-1,-1,3684.961830375,unknown,2,2022-06-02T11:03:13.296+02:00,2022-06-02T10:17:13.754+02:00,693,1.485188,0.8367646,1.650349,555.2257,0,0,2022-06-02T11:03:15.854+02:00,675853395.8537338,0,6.851562,101.3005,1,0.76
2022-06-02T11:03:15.908+02:00,1654160593.964612,53.22888156262182,10.39816453433297,36.08895,0,1.918238,-1,-1,1114.33447265625,23.99873956503252,-9999,3687.573361,-0.00836181640625,-0.39166259765625,-0.8994903564453125,3687.563367,0.2595995956734642,0.1180017579991621,0.3897462834685275,-0.2477061897516251,0.1227102056145668,-0.1692018061876297,-0.08796408027410507,0.001627326011657715,0.002831935882568359,XArbitraryZVertical,0.1841910927251844,0.08238446759074471,0.1380871094148127,0.9696486048940107,0.1088991388678551,-0.3799537420272827,-0.9185729026794434,0,0,0,-1,-1,3684.961830375,unknown,2,2022-06-02T11:03:13.296+02:00,2022-06-02T10:17:13.754+02:00,693,1.485188,0.8367646,1.650349,555.2257,0,0,2022-06-02T11:03:15.854+02:00,675853395.8537338,0,6.851562,101.3005,1,0.76
2022-06-02T11:03:15.918+02:00,1654160593.964612,53.22888156262182,10.39816453433297,36.08895,0,1.918238,-1,-1,1114.33447265625,23.99873956503252,-9999,3687.583356,-0.0728607177734375,-0.4081268310546875,-0.8886566162109375,3687.573361,0.2581297112816412,0.1192097913173771,0.3866556184213348,-0.3120399415493011,0.15677709877491,-0.229118138551712,-0.0983070433139801,-0.006833344697952271,0.01017844676971436,XArbitraryZVertical,0.182665263332368,0.08265759991461458,0.1374344224226244,0.9700066679788725,0.1101478561758995,-0.3770930469036102,-0.9196022748947144,0,0,0,-1,-1,3684.961830375,unknown,2,2022-06-02T11:03:13.296+02:00,2022-06-02T10:17:13.754+02:00,693,1.485188,0.8367646,1.650349,555.2257,0,0,2022-06-02T11:03:15.854+02:00,675853395.8537338,0,6.851562,101.3005,1,0.76
2022-06-02T11:03:15.928+02:00,1654160593.964612,53.22888156262182,10.39816453433297,36.08895,0,1.918238,-1,-1,1114.33447265625,23.99873956503252,-9999,3687.593351,-0.100830078125,-0.4770965576171875,-0.9041900634765625,3687.583356,0.2555316732357504,0.1208221097973538,0.3823749167218667,-0.4501499831676483,0.1329103857278824,-0.5189374685287476,-0.1201857775449753,-0.01853764057159424,0.02152717113494873,XArbitraryZVertical,0.1805795208281834,0.08295963246450561,0.1362477675019798,0.9705386065769424,0.1118239387869835,-0.3731249272823334,-0.9210174679756165,0,0,0,-1,-1,3684.961830375,unknown,2,2022-06-02T11:03:13.296+02:00,2022-06-02T10:17:13.754+02:00,693,1.485188,0.8367646,1.650349,555.2257,0,0,2022-06-02T11:03:15.854+02:00,675853395.8537338,0,6.851562,101.3005,1,0.76
2022-06-02T11:03:15.938+02:00,1654160593.964612,53.22888156262182,10.39816453433297,36.08895,0,1.918238,-1,-1,1114.33447265625,23.99873956503252,-9999,3687.603345,-0.0220794677734375,-0.444122314453125,-0.8907012939453125,3687.593351,0.2503276189840694,0.1247582754444704,0.3764834306601679,-0.5345852375030518,0.3271946609020233,-0.5055268406867981,-0.1885806024074554,-0.04047435522079468,0.03407877683639526,XArbitraryZVertical,0.1776622490341343,0.08407403248288343,0.1339677878217252,0.9712981984031963,0.1157198771834373,-0.3676524758338928,-0.9227353930473328,0,0,0,-1,-1,3684.961830375,unknown,2,2022-06-02T11:03:13.296+02:00,2022-06-02T10:17:13.754+02:00,693,1.485188,0.8367646,1.650349,555.2257,0,0,2022-06-02T11:03:15.854+02:00,675853395.8537338,0,6.851562,101.3005,1,0.76
2022-06-02T11:03:15.955+02:00,1654160593.964612,53.22888156262182,10.39816453433297,36.08895,0,1.918238,-1,-1,1114.33447265625,23.99873956503252,-9999,3687.61334,-0.092926025390625,-0.4295501708984375,-0.8942108154296875,3687.603345,0.2466083558403644,0.1288384457298206,0.3702191348969317,-0.6446157097816467,0.3165719509124756,-0.4455363154411316,-0.2206074595451355,-0.1152768433094025,0.02033138275146484,XArbitraryZVertical,0.1744956647133989,0.0853847453273946,0.1323985106512016,0.9719728655364772,0.1197773814201355,-0.361819714307785,-0.9245214462280273,0,0,0,-1,-1,3684.961830375,unknown,2,2022-06-02T11:03:13.296+02:00,2022-06-02T10:17:13.754+02:00,693,1.485188,0.8367646,1.650349,555.2257,0,0,2022-06-02T11:03:15.854+02:00,675853395.8537338,0,6.851562,101.3005,1,0.76
2022-06-02T11:03:15.976+02:00,1654160593.964612,53.22888156262182,10.39816453433297,36.08895,0,1.918238,-1,-1,1114.33447265625,23.99873956503252,-9999,3687.623335,-0.1233062744140625,-0.40863037109375,-0.913726806640625,3687.61334,0.241864233449664,0.1332400864560558,0.3625709222581888,-0.7625998258590698,0.341154009103775,-0.6771154999732971,-0.1462890952825546,-0.0894431471824646,0.03599965572357178,XArbitraryZVertical,0.1706810056416277,0.08670363408563664,0.1303120876437996,0.9728151062297982,0.1242096126079559,-0.3546791970729828,-0.9267009496688843,0,0,0,-1,-1,3684.961830375,unknown,2,2022-06-02T11:03:13.296+02:00,2022-06-02T10:17:13.754+02:00,693,1.485188,0.8367646,1.650349,555.2257,0,0,2022-06-02T11:03:15.854+02:00,675853395.8537338,0,6.851562,101.3005,1,0.76
2022-06-02T11:03:15.979+02:00,1654160593.964612,53.22888156262182,10.39816453433297,36.08895,0,1.918238,-1,-1,1114.33447265625,23.99873956503252,-9999,3687.633329,-0.1593780517578125,-0.4022064208984375,-0.9286956787109375,3687.623335,0.2352511552489472,0.1392499411681806,0.3538456193817453,-0.7852539420127869,0.4016616642475128,-0.7673155665397644,-0.2231273055076599,-0.0830424427986145,0.0347563624382019,XArbitraryZVertical,0.1663248734394429,0.08861405844424937,0.1274023082754933,0.9737823786147169,0.1302012652158737,-0.346507728099823,-0.9289671778678894,0,0,0,-1,-1,3684.961830375,unknown,2,2022-06-02T11:03:13.296+02:00,2022-06-02T10:17:13.754+02:00,693,1.485188,0.8367646,1.650349,555.2257,0,0,2022-06-02T11:03:15.854+02:00,675853395.8537338,0,6.851562,101.3005,1,0.76
2022-06-02T11:03:15.982+02:00,1654160593.964612,53.22888156262182,10.39816453433297,36.08895,0,1.918238,-1,-1,1114.33447265625,23.99873956503252,-9999,3687.643324,-0.171356201171875,-0.3977508544921875,-0.92633056640625,3687.633329,0.2280640682425785,0.1460904407397694,0.3449761729442064,-0.7861247658729553,0.4740623831748962,-0.8302316665649414,-0.2603010535240173,-0.07045614719390869,0.01733207702636719,XArbitraryZVertical,0.1618837981264209,0.09090767901426623,0.1242422127875132,0.9747272900275222,0.136994794011116,-0.3381742537021637,-0.9310588836669922,0,0,0,-1,-1,3684.961830375,unknown,2,2022-06-02T11:03:13.296+02:00,2022-06-02T10:17:13.754+02:00,693,1.485188,0.8367646,1.650349,555.2257,0,0,2022-06-02T11:03:15.854+02:00,675853395.8537338,0,6.851562,101.3005,1,0.76
2022-06-02T11:03:15.988+02:00,1654160593.964612,53.22888156262182,10.39816453433297,36.08895,0,1.918238,-1,-1,1114.33447265625,23.99873956503252,-9999,3687.653318,-0.153076171875,-0.4094696044921875,-0.930206298828125,3687.643324,0.2201054370542353,0.153836816566495,0.3356997964017237,-0.8266785740852356,0.5375831723213196,-0.933487594127655,-0.3040554821491241,-0.07277646660804749,0.004333972930908203,XArbitraryZVertical,0.157240127787839,0.09359869081321712,0.1207268623877713,0.9756740726445897,0.1446774154901505,-0.3294299840927124,-0.9330296516418457,0,0,0,-1,-1,3684.961830375,unknown,2,2022-06-02T11:03:13.296+02:00,2022-06-02T10:17:13.754+02:00,693,1.485188,0.8367646,1.650349,555.2257,0,0,2022-06-02T11:03:15.854+02:00,675853395.8537338,0,6.851562,101.3005,1,0.76
2022-06-02T11:03:15.998+02:00,1654160593.964612,53.22888156262182,10.39816453433297,36.08895,0,1.918238,-1,-1,1114.33447265625,23.99873956503252,-9999,3687.663313,-0.124664306640625,-0.4223175048828125,-0.926422119140625,3687.653318,0.2113140654075606,0.1623905757997438,0.3257266500283094,-0.8872886300086975,0.5993940830230713,-1.018017411231995,-0.3245327472686768,-0.07775354385375977,0.008623301982879639,XArbitraryZVertical,0.1522685863453571,0.09663001902957734,0.1167997188455986,0.9766446282585345,0.1531765162944794,-0.3199973106384277,-0.9349538087844849,0,0,0,-1,-1,3684.961830375,unknown,2,2022-06-02T11:03:13.296+02:00,2022-06-02T10:17:13.754+02:00,693,1.485188,0.8367646,1.650349,555.2257,0,0,2022-06-02T11:03:15.854+02:00,675853395.8537338,0,6.851562,101.3005,1,0.76
2022-06-02T11:03:16.008+02:00,1654160593.964612,53.22888156262182,10.39816453433297,36.08895,0,1.918238,-1,-1,1114.33447265625,23.99873956503252,-9999,3687.673308,-0.107330322265625,-0.4255523681640625,-0.9291229248046875,3687.663313,0.2019494321687168,0.1715473677566356,0.3147763648876339,-0.985349714756012,0.6378710269927979,-1.101257801055908,-0.3153958022594452,-0.09986579418182373,0.00670236349105835,XArbitraryZVertical,0.1468386254315348,0.09992045017237754,0.1125505139102102,0.97764343390273,0.162319615483284,-0.3096038401126862,-0.9369086623191833,0,0,0,-1,-1,3684.961830375,unknown,2,2022-06-02T11:03:13.296+02:00,2022-06-02T10:17:13.754+02:00,693,1.485188,0.8367646,1.650349,555.2257,0,0,2022-06-02T11:03:15.854+02:00,675853395.8537338,0,6.851562,101.3005,1,0.76
2022-06-02T11:03:16.018+02:00,1654160593.964612,53.22888156262182,10.39816453433297,36.08895,0,1.918238,-1,-1,1114.33447265625,23.99873956503252,-9999,3687.683302,-0.1081695556640625,-0.44183349609375,-0.928924560546875,3687.673308,0.1920749328426702,0.1810693802811212,0.3023587832486452,-1.137579798698425,0.6617997884750366,-1.187881946563721,-0.2965767979621887,-0.1245446801185608,0.01260793209075928,XArbitraryZVertical,0.1407256056068027,0.1033502539832171,0.1079615019919155,0.9787029008433104,0.1719124913215637,-0.2977728247642517,-0.9390300512313843,0,0,0,-1,-1,3684.961830375,unknown,2,2022-06-02T11:03:13.296+02:00,2022-06-02T10:17:13.754+02:00,693,1.485188,0.8367646,1.650349,555.2257,0,0,2022-06-02T11:03:15.854+02:00,675853395.8537338,0,6.851562,101.3005,1,0.76
2022-06-02T11:03:16.028+02:00,1654160593.964612,53.22888156262182,10.39816453433297,36.08895,0,1.918238,-1,-1,1114.33447265625,23.99873956503252,-9999,3687.693297,-0.113800048828125,-0.4658355712890625,-0.9365081787109375,3687.683302,0.1815052181504554,0.190874538938653,0.2879013790305329,-1.334436058998108,0.6907246708869934,-1.34561562538147,-0.2892395257949829,-0.1416117548942566,0.01230514049530029,XArbitraryZVertical,0.1336667321733933,0.1068605550623151,0.1028963962718629,0.979860395683646,0.1819092035293579,-0.2839406132698059,-0.9414280652999878,0,0,0,-1,-1,3684.961830375,unknown,2,2022-06-02T11:03:13.296+02:00,2022-06-02T10:17:13.754+02:00,693,1.485188,0.8367646,1.650349,555.2257,0,0,2022-06-02T11:03:15.854+02:00,675853395.8537338,0,6.851562,101.3005,1,0.76
2022-06-02T11:03:16.038+02:00,1654160593.964612,53.22888156262182,10.39816453433297,36.08895,0,1.918238,-1,-1,1114.33447265625,23.99873956503252,-9999,3687.703292,-0.1121368408203125,-0.4615631103515625,-0.930816650390625,3687.693297,0.1701271806766683,0.201261668067664,0.2710741576952815,-1.545973896980286,0.747230589389801,-1.444108963012695,-0.3007754683494568,-0.1740669906139374,0.01511150598526001,XArbitraryZVertical,0.1254958105158434,0.1106019106893953,0.09728145774368124,0.9810984658406708,0.1926058977842331,-0.267766535282135,-0.944036066532135,0,0,0,-1,-1,3684.961830375,unknown,2,2022-06-02T11:03:13.296+02:00,2022-06-02T10:17:13.754+02:00,693,1.485188,0.8367646,1.650349,555.2257,0,0,2022-06-02T11:03:15.854+02:00,675853395.8537338,0,6.851562,101.3005,1,0.76
2022-06-02T11:03:16.048+02:00,1654160593.964612,53.22888156262182,10.39816453433297,36.08895,0,1.918238,-1,-1,1114.33447265625,23.99873956503252,-9999,3687.713286,-0.109130859375,-0.4439239501953125,-0.9429931640625,3687.703292,0.1585827112604236,0.2119587563755339,0.25170624618101,-1.788625955581665,0.7971781492233276,-1.537460207939148,-0.3175461292266846,-0.2167787849903107,0.01030665636062622,XArbitraryZVertical,0.1161122747367967,0.1145012836138577,0.0913769946787536,0.9823734639221564,0.2037460654973984,-0.249056801199913,-0.9468147754669189,0,0,0,-1,-1,3684.961830375,unknown,2,2022-06-02T11:03:13.296+02:00,2022-06-02T10:17:13.754+02:00,693,1.485188,0.8367646,1.650349,555.2257,0,0,2022-06-02T11:03:15.854+02:00,675853395.8537338,0,6.851562,101.3005,1,0.76
2022-06-02T11:03:16.058+02:00,1654160593.964612,53.22888156262182,10.39816453433297,36.08895,0,1.918238,-1,-1,1114.33447265625,23.99873956503252,-9999,3687.723281,-0.0902252197265625,-0.40032958984375,-0.95098876953125,3687.713286,0.146797561692044,0.2231184609545505,0.229740295685557,-2.00636625289917,0.8695144057273865,-1.648531436920166,-0.3275949358940125,-0.2338384687900543,0.0187724232673645,XArbitraryZVertical,0.1054883080981657,0.1186495068269764,0.08512254880457792,0.9836405444200499,0.2154580652713776,-0.2277246564626694,-0.9495890140533447,0,0,0,-1,-1,3684.961830375,unknown,2,2022-06-02T11:03:13.296+02:00,2022-06-02T10:17:13.754+02:00,693,1.485188,0.8367646,1.650349,555.2257,0,0,2022-06-02T11:03:15.854+02:00,675853395.8537338,0,6.851562,101.3005,1,0.76
2022-06-02T11:03:16.068+02:00,1654160593.964612,53.22888156262182,10.39816453433297,36.08895,0,1.918238,-1,-1,1114.33447265625,23.99873956503252,-9999,3687.733275,-0.0788116455078125,-0.343719482421875,-0.964599609375,3687.723281,0.1347073815093371,0.2347550576370015,0.2054426010731255,-2.183915615081787,0.9377235770225525,-1.756217360496521,-0.3368441462516785,-0.2399234920740128,0.009125769138336182,XArbitraryZVertical,0.0937641252038206,0.1230805521447159,0.07846849116559278,0.98483605832913,0.2277132719755173,-0.2040004730224609,-0.9521189332008362,0,0,0,-1,-1,3684.961830375,unknown,2,2022-06-02T11:03:13.296+02:00,2022-06-02T10:17:13.754+02:00,693,1.485188,0.8367646,1.650349,555.2257,0,0,2022-06-02T11:03:15.854+02:00,675853395.8537338,0,6.851562,101.3005,1,0.76
2022-06-02T11:03:16.078+02:00,1654160593.964612,53.22888156262182,10.39816453433297,36.08895,0,1.918238,-1,-1,1114.33447265625,23.99873956503252,-9999,3687.74327,-0.062103271484375,-0.2798614501953125,-1.01263427734375,3687.733275,0.1222197463824208,0.2469117967301001,0.1792832815357295,-2.305684089660645,1.0200355052948,-1.874147653579712,-0.3307183384895325,-0.2220052182674408,0.003140926361083984,XArbitraryZVertical,0.08118410987736616,0.1278448058845911,0.07136702912067003,0.985886159471389,0.24049311876297,-0.1783243864774704,-0.954129695892334,0,0,0,-1,-1,3684.961830375,unknown,2,2022-06-02T11:03:13.296+02:00,2022-06-02T10:17:13.754+02:00,693,1.485188,0.8367646,1.650349,555.2257,0,0,2022-06-02T11:03:15.854+02:00,675853395.8537338,0,6.851562,101.3005,1,0.76
2022-06-02T11:03:16.088+02:00,1654160593.964612,53.22888156262182,10.39816453433297,36.08895,0,1.918238,-1,-1,1114.33447265625,23.99873956503252,-9999,3687.753265,-0.0390777587890625,-0.2064208984375,-1.031005859375,3687.74327,0.1091916253181443,0.2596937965286052,0.1518932645357198,-2.350178241729736,1.105584383010864,-1.986400365829468,-0.332639753818512,-0.1924096345901489,-0.009258508682250977,XArbitraryZVertical,0.06807750655416908,0.1330221916669882,0.06376300521600647,0.9867141596557675,0.2538281083106995,-0.1513098627328873,-0.955341100692749,0,0,0,-1,-1,3684.961830375,unknown,2,2022-06-02T11:03:13.296+02:00,2022-06-02T10:17:13.754+02:00,693,1.485188,0.8367646,1.650349,555.2257,0,0,2022-06-02T11:03:15.854+02:00,675853395.8537338,0,6.851562,101.3005,1,0.76
2022-06-02T11:03:16.098+02:00,1654160593.964612,53.22888156262182,10.39816453433297,36.08895,0,1.918238,-1,-1,1114.33447265625,23.99873956503252,-9999,3687.763259,-0.0191802978515625,-0.146453857421875,-1.048187255859375,3687.753265,0.09557245392461129,0.2730268362319468,0.1238559901660616,-2.351282835006714,1.187320232391357,-2.093094348907471,-0.3296851217746735,-0.1563219130039215,-0.05705171823501587,XArbitraryZVertical,0.05475436831281821,0.138602662192154,0.05564568590391465,0.9872663230310406,0.2675817906856537,-0.1235395669937134,-0.9555824995040894,0,0,0,-1,-1,3684.961830375,unknown,2,2022-06-02T11:03:13.296+02:00,2022-06-02T10:17:13.754+02:00,693,1.485188,0.8367646,1.650349,555.2257,0,0,2022-06-02T11:03:15.854+02:00,675853395.8537338,0,6.851562,101.3005,1,0.76
2022-06-02T11:03:16.108+02:00,1654160593.964612,53.22888156262182,10.39816453433297,36.08895,0,1.918238,-1,-1,1114.33447265625,23.99873956503252,-9999,3687.773254,-0.007568359375,-0.100067138671875,-1.058685302734375,3687.763259,0.08139220275464104,0.286900066868095,0.09536997768932709,-2.349841594696045,1.276734471321106,-2.192577362060547,-0.3207722008228302,-0.1111954525113106,-0.07623863220214844,XArbitraryZVertical,0.04132861996332587,0.1445972405672608,0.04702996792014317,0.9875077422885804,0.2816944122314453,-0.09522546827793121,-0.9547671675682068,0,0,0,-1,-1,3684.961830375,unknown,2,2022-06-02T11:03:13.296+02:00,2022-06-02T10:17:13.754+02:00,693,1.485188,0.8367646,1.650349,555.2257,0,0,2022-06-02T11:03:15.854+02:00,675853395.8537338,0,6.851562,101.3005,1,0.76
2022-06-02T11:03:16.118+02:00,1654160593.964612,53.22888156262182,10.39816453433297,36.08895,0,1.918238,-1,-1,1114.33447265625,23.99873956503252,-9999,3687.783249,0.0081024169921875,-0.06536865234375,-1.079299926757812,3687.773254,0.06680325477668418,0.3014134193265673,0.06627991410401324,-2.380732297897339,1.393442988395691,-2.278629302978516,-0.3153986930847168,-0.08022250235080719,-0.09536612033843994,XArbitraryZVertical,0.02772892471065027,0.1510647215379771,0.03797060518017,0.9874050165138868,0.2962183654308319,-0.06623139977455139,-0.9528211355209351,0,0,0,-1,-1,3684.961830375,unknown,2,2022-06-02T11:03:13.296+02:00,2022-06-02T10:17:13.754+02:00,693,1.485188,0.8367646,1.650349,555.2257,0,0,2022-06-02T11:03:15.854+02:00,675853395.8537338,0,6.851562,101.3005,1,0.76
2022-06-02T11:03:16.128+02:00,1654160593.964612,53.22888156262182,10.39816453433297,36.08895,0,1.918238,-1,-1,1114.33447265625,23.99873956503252,-9999,3687.793243,0.0297393798828125,-0.024749755859375,-1.107681274414062,3687.783249,0.05205174871381534,0.3168226025256193,0.03644857350426408,-2.408961772918701,1.539952635765076,-2.341984272003174,-0.3189103305339813,-0.06362667679786682,-0.109086275100708,XArbitraryZVertical,0.01388458717116769,0.158138288347209,0.02856658377688676,0.9869059146323361,0.3113419413566589,-0.03644050285220146,-0.949599027633667,0,0,0,-1,-1,3684.961830375,unknown,2,2022-06-02T11:03:13.296+02:00,2022-06-02T10:17:13.754+02:00,693,1.485188,0.8367646,1.650349,555.2257,0,0,2022-06-02T11:03:15.854+02:00,675853395.8537338,0,6.851562,101.3005,1,0.76
2022-06-02T11:03:16.138+02:00,1654160593.964612,53.22888156262182,10.39816453433297,36.08895,0,1.918238,-1,-1,1114.33447265625,23.99873956503252,-9999,3687.803238,0.0620880126953125,0.0289154052734375,-1.125320434570312,3687.793243,0.0373603523030079,0.3333003734262832,0.006060794772187445,-2.412368774414062,1.695797920227051,-2.379814386367798,-0.3190551698207855,-0.05930793657898903,-0.134349524974823,XArbitraryZVertical,-0.0001105832345602535,0.1659060110096278,0.0189228193196493,0.9859599187922989,0.3271575272083282,-0.006060757674276829,-0.9449503421783447,0,0,0,-1,-1,3684.961830375,unknown,2,2022-06-02T11:03:13.296+02:00,2022-06-02T10:17:13.754+02:00,693,1.485188,0.8367646,1.650349,555.2257,0,0,2022-06-02T11:03:15.854+02:00,675853395.8537338,0,6.851562,101.3005,1,0.76
2022-06-02T11:03:16.148+02:00,1654160593.964612,53.22888156262182,10.39816453433297,36.08895,0,1.918238,-1,-1,1114.33447265625,23.99873956503252,-9999,3687.813233,0.109466552734375,0.0733184814453125,-1.125595092773438,3687.803238,0.02293239628532061,0.3507966545053687,-0.02455146726408625,-2.383270978927612,1.828797578811646,-2.394495964050293,-0.3138031363487244,-0.04929880052804947,-0.1688650250434875,XArbitraryZVertical,-0.01408695091064571,0.1743371543128353,0.009147249914070659,0.9845427890700392,0.3435424864292145,0.02454899996519089,-0.938816249370575,0,0,0,-1,-1,3684.961830375,unknown,2,2022-06-02T11:03:13.296+02:00,2022-06-02T10:17:13.754+02:00,693,1.485188,0.8367646,1.650349,555.2257,0,0,2022-06-02T11:03:15.854+02:00,675853395.8537338,0,6.851562,101.3005,1,0.76
2022-06-02T11:03:16.158+02:00,1654160593.964612,53.22888156262182,10.39816453433297,36.08895,0,1.918238,-1,-1,1114.33447265625,23.99873956503252,-9999,3687.823227,0.1634063720703125,0.1124420166015625,-1.103790283203125,3687.813233,0.008647830719336828,0.3691278488320808,-0.05486309050929847,-2.277867555618286,1.949088573455811,-2.414966344833374,-0.2981713116168976,-0.02592021599411964,-0.1940813064575195,XArbitraryZVertical,-0.0277552390519514,0.1833305411011842,-0.000784633453615216,0.982659118728202,0.3602592945098877,0.05483557283878326,-0.931239128112793,0,0,0,-1,-1,3684.961830375,unknown,2,2022-06-02T11:03:13.296+02:00,2022-06-02T10:17:13.754+02:00,693,1.485188,0.8367646,1.650349,555.2257,0,0,2022-06-02T11:03:15.854+02:00,675853395.8537338,0,6.851562,101.3005,1,0.76
2022-06-02T11:03:16.169+02:00,1654160593.964612,53.22888156262182,10.39816453433297,36.08895,0,1.918238,-1,-1,1114.33447265625,23.99873956503252,-9999,3687.833222,0.205535888671875,0.1572265625,-1.1114501953125,3687.823227,-0.005758974124472481,0.3881321616268937,-0.08428835267818047,-2.125157117843628,2.055246353149414,-2.43255090713501,-0.2676500678062439,-0.01087015867233276,-0.2032635807991028,XArbitraryZVertical,-0.0407858285904005,0.1927972428994807,-0.01094799723841945,0.9803294271455855,0.3771165609359741,0.08418858051300049,-0.9223314523696899,0,0,0,-1,-1,3684.961830375,unknown,2,2022-06-02T11:03:13.296+02:00,2022-06-02T10:17:13.754+02:00,693,1.485188,0.8367646,1.650349,555.2257,0,0,2022-06-02T11:03:15.854+02:00,675853395.8537338,0,6.851562,101.3005,1,0.76
2022-06-02T11:03:16.178+02:00,1654160593.964612,53.22888156262182,10.39816453433297,36.08895,0,1.918238,-1,-1,1114.33447265625,23.99873956503252,-9999,3687.843216,0.2313690185546875,0.196685791015625,-1.109588623046875,3687.833222,-0.02032561921760741,0.407776644222939,-0.1125110633098775,-1.958802223205566,2.157403469085693,-2.426441669464111,-0.2306555211544037,0.0001681223511695862,-0.1915897130966187,XArbitraryZVertical,-0.05300393705079801,0.2027074616653827,-0.02132033896996791,0.977571299234078,0.3940618634223938,0.1122738420963287,-0.9122005105018616,0,0,0,-1,-1,3684.961830375,unknown,2,2022-06-02T11:03:13.296+02:00,2022-06-02T10:17:13.754+02:00,693,1.485188,0.8367646,1.650349,555.2257,0,0,2022-06-02T11:03:15.854+02:00,675853395.8537338,0,6.851562,101.3005,1,0.76
2022-06-02T11:03:16.188+02:00,1654160593.964612,53.22888156262182,10.39816453433297,36.08895,0,1.918238,-1,-1,1114.33447265625,23.99873956503252,-9999,3687.853211,0.2412872314453125,0.226898193359375,-1.1097412109375,3687.843216,-0.03496910217292157,0.4279758353338228,-0.1396314388428155,-1.828384399414062,2.25747537612915,-2.43535852432251,-0.2054548561573029,0.01804836094379425,-0.2104973196983337,XArbitraryZVertical,-0.06445376339309145,0.213000658836679,-0.03185492962991952,0.9744032110172802,0.4109907150268555,0.1391781568527222,-0.9009528756141663,0,0,0,-1,-1,3684.961830375,unknown,2,2022-06-02T11:03:13.296+02:00,2022-06-02T10:17:13.754+02:00,693,1.485188,0.8367646,1.650349,555.2257,0,0,2022-06-02T11:03:15.854+02:00,675853395.8537338,0,6.851562,101.3005,1,0.76
2022-06-02T11:03:16.199+02:00,1654160593.964612,53.22888156262182,10.39816453433297,36.08895,0,1.918238,-1,-1,1114.33447265625,23.99873956503252,-9999,3687.863206,0.25830078125,0.257110595703125,-1.067916870117188,3687.853211,-0.04976161643000201,0.4490158993821698,-0.1659838456114156,-1.713177084922791,2.401794195175171,-2.450038194656372,-0.1967443227767944,0.03146301209926605,-0.2210953235626221,XArbitraryZVertical,-0.07527178415522456,0.2238023524565104,-0.04261972059232885,0.9707883829953097,0.4281133115291595,0.1652227342128754,-0.8884933590888977,0,0,0,-1,-1,3684.961830375,unknown,2,2022-06-02T11:03:13.296+02:00,2022-06-02T10:17:13.754+02:00,693,1.485188,0.8367646,1.650349,555.2257,0,0,2022-06-02T11:03:15.854+02:00,675853395.8537338,0,6.851562,101.3005,1,0.76
2022-06-02T11:03:16.208+02:00,1654160593.964612,53.22888156262182,10.39816453433297,36.08895,0,1.918238,-1,-1,1114.33447265625,23.99873956503252,-9999,3687.8732,0.283843994140625,0.27777099609375,-1.011978149414062,3687.863206,-0.06444240533466056,0.4711050501305059,-0.1920337747920769,-1.681635856628418,2.543539762496948,-2.453276395797729,-0.204241007566452,0.03604245185852051,-0.2350534200668335,XArbitraryZVertical,-0.08568979244244632,0.2351879549391604,-0.05354414376769374,0.9666834194047631,0.4455282092094421,0.1908556818962097,-0.8746877908706665,0,0,0,-1,-1,3684.961830375,unknown,2,2022-06-02T11:03:13.296+02:00,2022-06-02T10:17:13.754+02:00,693,1.485188,0.8367646,1.650349,555.2257,0,0,2022-06-02T11:03:15.854+02:00,675853395.8537338,0,6.851562,101.3005,1,0.76
2022-06-02T11:03:16.218+02:00,1654160593.964612,53.22888156262182,10.39816453433297,36.08895,0,1.918238,-1,-1,1114.33447265625,23.99873956503252,-9999,3687.883195,0.327423095703125,0.3256072998046875,-0.97100830078125,3687.8732,-0.07863292938712316,0.4944407847561061,-0.2182264177649552,-1.669514298439026,2.70671534538269,-2.432666063308716,-0.204984039068222,0.04061210155487061,-0.2085592150688171,XArbitraryZVertical,-0.09594292599602335,0.2472167469501367,-0.06451216312917762,0.9620379524945653,0.463284820318222,0.2164984494447708,-0.8593576550483704,0,0,0,-1,-1,3684.961830375,unknown,2,2022-06-02T11:03:13.296+02:00,2022-06-02T10:17:13.754+02:00,693,1.485188,0.8367646,1.650349,555.2257,0,0,2022-06-02T11:03:15.854+02:00,675853395.8537338,0,6.851562,101.3005,1,0.76
2022-06-02T11:03:16.228+02:00,1654160593.964612,53.22888156262182,10.39816453433297,36.08895,0,1.918238,-1,-1,1114.33447265625,23.99873956503252,-9999,3687.89319,0.375732421875,0.37066650390625,-0.926849365234375,3687.883195,-0.09194778944629589,0.5190984926189738,-0.2444289886598976,-1.653767228126526,2.835646867752075,-2.377846956253052,-0.1975074410438538,0.03576859831809998,-0.1695200204849243,XArbitraryZVertical,-0.1059958524096501,0.2598765560434192,-0.07534172220051409,0.9568451343444735,0.4813514053821564,0.2420023232698441,-0.8424581289291382,0,0,0,-1,-1,3684.961830375,unknown,2,2022-06-02T11:03:13.296+02:00,2022-06-02T10:17:13.754+02:00,693,1.485188,0.8367646,1.650349,555.2257,0,0,2022-06-02T11:03:15.854+02:00,675853395.8537338,0,6.851562,101.3005,1,0.76
2022-06-02T11:03:16.238+02:00,1654160593.964612,53.22888156262182,10.39816453433297,36.08895,0,1.918238,-1,-1,1114.33447265625,23.99873956503252,-9999,3687.903184,0.4168548583984375,0.4162139892578125,-0.8995361328125,3687.89319,-0.1044401383215029,0.5446609305924998,-0.2704041280105569,-1.593677878379822,2.910987615585327,-2.344021320343018,-0.1718778014183044,0.05848634243011475,-0.1467844247817993,XArbitraryZVertical,-0.1157346107615739,0.2729350835575514,-0.0860200516850184,0.9511637023474706,0.4993008971214294,0.267120897769928,-0.8242238759994507,0,0,0,-1,-1,3684.961830375,unknown,2,2022-06-02T11:03:13.296+02:00,2022-06-02T10:17:13.754+02:00,693,1.485188,0.8367646,1.650349,555.2257,0,0,2022-06-02T11:03:15.854+02:00,675853395.8537338,0,6.851562,101.3005,1,0.76
2022-06-02T11:03:16.248+02:00,1654160593.964612,53.22888156262182,10.39816453433297,36.08895,0,1.918238,-1,-1,1114.33447265625,23.99873956503252,-9999,3687.913179,0.433502197265625,0.4599761962890625,-0.864288330078125,3687.903184,-0.1166711431386173,0.5704997706694751,-0.295756815481328,-1.459785461425781,2.938439846038818,-2.337944984436035,-0.1408722400665283,0.07920253276824951,-0.1217603087425232,XArbitraryZVertical,-0.1249186225847652,0.2860958058105202,-0.09672653127905427,0.9450863880828372,0.5166046023368835,0.2914638817310333,-0.8050890564918518,0,0,0,-1,-1,3684.961830375,unknown,2,2022-06-02T11:03:13.296+02:00,2022-06-02T10:17:13.754+02:00,693,1.485188,0.8367646,1.650349,555.2257,0,0,2022-06-02T11:03:15.854+02:00,675853395.8537338,0,6.851562,101.3005,1,0.76
2022-06-02T11:03:16.258+02:00,1654160593.964612,53.22888156262182,10.39816453433297,36.08895,0,1.918238,-1,-1,1114.33447265625,23.99873956503252,-9999,3687.923173,0.434478759765625,0.51055908203125,-0.8061981201171875,3687.913179,-0.1291642312714054,0.5962848471980805,-0.3200499312910947,-1.285311102867126,2.978404998779297,-2.320763111114502,-0.1162006855010986,0.1015999913215637,-0.1141255497932434,XArbitraryZVertical,-0.1332804483482381,0.2992173453895732,-0.1076105152164693,0.9386826592975775,0.5330554842948914,0.3146139681339264,-0.7854105830192566,0,0,0,-1,-1,3684.961830375,unknown,2,2022-06-02T11:03:13.296+02:00,2022-06-02T10:17:13.754+02:00,693,1.485188,0.8367646,1.650349,555.2257,0,0,2022-06-02T11:03:15.854+02:00,675853395.8537338,0,6.851562,101.3005,1,0.76
2022-06-02T11:03:16.268+02:00,1654160593.964612,53.22888156262182,10.39816453433297,36.08895,0,1.918238,-1,-1,1114.33447265625,23.99873956503252,-9999,3687.933168,0.447906494140625,0.5482940673828125,-0.759918212890625,3687.923173,-0.1417937093490035,0.6222388253711438,-0.3432040897065316,-1.142350316047668,3.052063941955566,-2.275352954864502,-0.115362286567688,0.1234700679779053,-0.09910106658935547,XArbitraryZVertical,-0.140788132087262,0.3123861224387391,-0.1185890334332158,0.9319496790886733,0.5488644242286682,0.3365060389041901,-0.7651872038841248,0,0,0,-1,-1,3684.961830375,unknown,2,2022-06-02T11:03:13.296+02:00,2022-06-02T10:17:13.754+02:00,693,1.485188,0.8367646,1.650349,555.2257,0,0,2022-06-02T11:03:15.854+02:00,675853395.8537338,0,6.851562,101.3005,1,0.76
2022-06-02T11:03:16.278+02:00,1654160593.964612,53.22888156262182,10.39816453433297,36.08895,0,1.918238,-1,-1,1114.33447265625,23.99873956503252,-9999,3687.943163,0.4752655029296875,0.57623291015625,-0.6949920654296875,3687.933168,-0.1541190952317759,0.6488386606047795,-0.3649559574048875,-0.9914363622665405,3.122467994689941,-2.168009281158447,-0.1299857497215271,0.1536508798599243,-0.06188881397247314,XArbitraryZVertical,-0.1473588353985461,0.3257771122959576,-0.129428566431154,0.9248798109656007,0.5644644498825073,0.3569081425666809,-0.7443093061447144,0,0,0,-1,-1,3684.961830375,unknown,2,2022-06-02T11:03:13.296+02:00,2022-06-02T10:17:13.754+02:00,693,1.485188,0.8367646,1.650349,555.2257,0,0,2022-06-02T11:03:15.854+02:00,675853395.8537338,0,6.851562,101.3005,1,0.76
2022-06-02T11:03:16.288+02:00,1654160593.964612,53.22888156262182,10.39816453433297,36.08895,0,1.918238,-1,-1,1114.33447265625,23.99873956503252,-9999,3687.953157,0.520172119140625,0.5804443359375,-0.62091064453125,3687.943163,-0.1658463871229874,0.6758878559881949,-0.3853852331846548,-0.8976836204528809,3.150459289550781,-2.075278520584106,-0.1317989826202393,0.17237788438797,-0.03698766231536865,XArbitraryZVertical,-0.1530966001960378,0.339258259943194,-0.139971109323643,0.9175364836332436,0.5797054767608643,0.3759161531925201,-0.7229305505752563,0,0,0,-1,-1,3684.961830375,unknown,2,2022-06-02T11:03:13.296+02:00,2022-06-02T10:17:13.754+02:00,693,1.485188,0.8367646,1.650349,555.2257,0,0,2022-06-02T11:03:15.854+02:00,675853395.8537338,0,6.851562,101.3005,1,0.76
2022-06-02T11:03:16.299+02:00,1654160593.964612,53.22888156262182,10.39816453433297,36.08895,0,1.918238,-1,-1,1114.33447265625,23.99873956503252,-9999,3687.963152,0.56231689453125,0.589508056640625,-0.58447265625,3687.953157,-0.1768545240999053,0.7031366726770066,-0.4050500734458853,-0.8472571969032288,3.149595975875854,-1.997933149337769,-0.1190258860588074,0.182168036699295,0.006100475788116455,XArbitraryZVertical,-0.1583118785523621,0.3526911955952609,-0.1502130604131552,0.9099353042651415,0.5942913293838501,0.3940647840499878,-0.701092541217804,0,0,0,-1,-1,3684.961830375,unknown,2,2022-06-02T11:03:13.296+02:00,2022-06-02T10:17:13.754+02:00,693,1.485188,0.8367646,1.650349,555.2257,0,0,2022-06-02T11:03:15.854+02:00,675853395.8537338,0,6.851562,101.3005,1,0.76
2022-06-02T11:03:16.308+02:00,1654160593.964612,53.22888156262182,10.39816453433297,36.08895,0,1.918238,-1,-1,1114.33447265625,23.99873956503252,-9999,3687.973147,0.6006317138671875,0.6069793701171875,-0.54443359375,3687.963152,-0.1869787461907622,0.7304707983205362,-0.4241588071891557,-0.8247786164283752,3.133304119110107,-1.909421443939209,-0.08792269229888916,0.1688899993896484,0.05794405937194824,XArbitraryZVertical,-0.1631545347345447,0.3659962279520521,-0.1600954214278633,0.9021068169818602,0.6080948114395142,0.4115542769432068,-0.6788547039031982,0,0,0,-1,-1,3684.961830375,unknown,2,2022-06-02T11:03:13.296+02:00,2022-06-02T10:17:13.754+02:00,693,1.485188,0.8367646,1.650349,555.2257,0,0,2022-06-02T11:03:15.854+02:00,675853395.8537338,0,6.851562,101.3005,1,0.76
2022-06-02T11:03:16.319+02:00,1654160593.964612,53.22888156262182,10.39816453433297,36.08895,0,1.918238,-1,-1,1114.33447265625,23.99873956503252,-9999,3687.983141,0.6275482177734375,0.616790771484375,-0.532562255859375,3687.973147,-0.1957586272073753,0.7580437495294003,-0.4428179761610608,-0.8470359444618225,3.117013692855835,-1.791128993034363,-0.05887424945831299,0.1610206067562103,0.07166773080825806,XArbitraryZVertical,-0.1677659027925394,0.3791891448951011,-0.1694385547628527,0.8940696909858866,0.6211910247802734,0.4284873306751251,-0.6561403870582581,0,0,0,-1,-1,3684.961830375,unknown,2,2022-06-02T11:03:13.296+02:00,2022-06-02T10:17:13.754+02:00,693,1.485188,0.8367646,1.650349,555.2257,0,0,2022-06-02T11:03:15.854+02:00,675853395.8537338,0,6.851562,101.3005,1,0.76
2022-06-02T11:03:16.328+02:00,1654160593.964612,53.22888156262182,10.39816453433297,36.08895,0,1.918238,-1,-1,1114.33447265625,23.99873956503252,-9999,3687.993136,0.6516265869140625,0.61920166015625,-0.5047454833984375,3687.983141,-0.2028242021894628,0.7858626617445726,-0.4612173656683474,-0.9083849787712097,3.060271978378296,-1.692416906356812,-0.03288453817367554,0.1619406938552856,0.08849436044692993,XArbitraryZVertical,-0.1723283121596997,0.3922231029490706,-0.1781166446405689,0.8858546554561171,0.633516252040863,0.4450385868549347,-0.6329279541969299,0,0,0,-1,-1,3684.961830375,unknown,2,2022-06-02T11:03:13.296+02:00,2022-06-02T10:17:13.754+02:00,693,1.485188,0.8367646,1.650349,555.2257,0,0,2022-06-02T11:03:15.854+02:00,675853395.8537338,0,6.851562,101.3005,1,0.76
2022-06-02T11:03:16.338+02:00,1654160593.964612,53.22888156262182,10.39816453433297,36.08895,0,1.918238,-1,-1,1114.33447265625,23.99873956503252,-9999,3688.003131,0.667327880859375,0.62152099609375,-0.434234619140625,3687.993136,-0.2080185832067299,0.8137459182079768,-0.4795809568046178,-0.9920910596847534,2.995006799697876,-1.588846802711487,-0.01731789112091064,0.155383288860321,0.07674133777618408,XArbitraryZVertical,-0.1770208184225752,0.4049837348111467,-0.1860979526775491,0.8775074049435184,0.6448660492897034,0.4614074528217316,-0.6093035936355591,0,0,0,-1,-1,3684.961830375,unknown,2,2022-06-02T11:03:13.296+02:00,2022-06-02T10:17:13.754+02:00,693,1.485188,0.8367646,1.650349,555.2257,0,0,2022-06-02T11:03:15.854+02:00,675853395.8537338,0,6.851562,101.3005,1,0.76
2022-06-02T11:03:16.348+02:00,1654160593.964612,53.22888156262182,10.39816453433297,36.08895,0,1.918238,-1,-1,1114.33447265625,23.99873956503252,-9999,3688.013125,0.6786346435546875,0.644805908203125,-0.39459228515625,3688.003131,-0.2108980909439678,0.8422162642867821,-0.4979472912108993,-1.126239776611328,2.972465991973877,-1.460684657096863,-0.003888726234436035,0.1415784657001495,0.08021247386932373,XArbitraryZVertical,-0.1819349265147123,0.417637042048382,-0.1932623167155234,0.8689813161416494,0.6555152535438538,0.4776231050491333,-0.5849579572677612,0,0,0,-1,-1,3684.961830375,unknown,2,2022-06-02T11:03:13.296+02:00,2022-06-02T10:17:13.754+02:00,693,1.485188,0.8367646,1.650349,555.2257,0,0,2022-06-02T11:03:15.854+02:00,675853395.8537338,0,6.851562,101.3005,1,0.76
2022-06-02T11:03:16.358+02:00,1654160593.964612,53.22888156262182,10.39816453433297,36.08895,0,1.918238,-1,-1,1114.33447265625,23.99873956503252,-9999,3688.02312,0.703643798828125,0.6589508056640625,-0.347991943359375,3688.013125,-0.2108883176541027,0.8718616791721632,-0.5163984788301502,-1.297070980072021,2.958988189697266,-1.327245354652405,0.001622319221496582,0.1277694702148438,0.1252701282501221,XArbitraryZVertical,-0.1872056868031389,0.4303506124993047,-0.1994627204247558,0.8602133050567489,0.6657055616378784,0.4937514662742615,-0.5595047473907471,0,0,0,-1,-1,3684.961830375,unknown,2,2022-06-02T11:03:13.296+02:00,2022-06-02T10:17:13.754+02:00,693,1.485188,0.8367646,1.650349,555.2257,0,0,2022-06-02T11:03:15.854+02:00,675853395.8537338,0,6.851562,101.3005,1,0.76
2022-06-02T11:03:16.368+02:00,1654160593.964612,53.22888156262182,10.39816453433297,36.08895,0,1.918238,-1,-1,1114.33447265625,23.99873956503252,-9999,3688.033114,0.7382965087890625,0.669403076171875,-0.2899322509765625,3688.02312,-0.2077593298516532,0.9027982760165008,-0.5348761783646401,-1.455031991004944,2.912807464599609,-1.197621703147888,0.003219783306121826,0.1350712180137634,0.1383105516433716,XArbitraryZVertical,-0.1928851193563891,0.4431071158127832,-0.2046459149922679,0.8512175393248966,0.6754148006439209,0.5097345113754272,-0.5329028367996216,0,0,0,-1,-1,3684.961830375,unknown,2,2022-06-02T11:03:13.296+02:00,2022-06-02T10:17:13.754+02:00,693,1.485188,0.8367646,1.650349,555.2257,0,0,2022-06-02T11:03:15.854+02:00,675853395.8537338,0,6.851562,101.3005,1,0.76
2022-06-02T11:03:16.378+02:00,1654160593.964612,53.22888156262182,10.39816453433297,36.08895,0,1.918238,-1,-1,1114.33447265625,23.99873956503252,-9999,3688.043109,0.77001953125,0.6865997314453125,-0.246307373046875,3688.033114,-0.2015177783592915,0.9347493479917801,-0.5533080677781287,-1.633976697921753,2.8267502784729,-1.088618516921997,0.01922500133514404,0.1334461569786072,0.1573948264122009,XArbitraryZVertical,-0.1990124807208555,0.4557418518320666,-0.2088228583039848,0.8420726660346287,0.684418797492981,0.5255045890808105,-0.5053867697715759,0,0,0,-1,-1,3684.961830375,unknown,2,2022-06-02T11:03:13.296+02:00,2022-06-02T10:17:13.754+02:00,693,1.485188,0.8367646,1.650349,555.2257,0,0,2022-06-02T11:03:15.854+02:00,675853395.8537338,0,6.851562,101.3005,1,0.76
2022-06-02T11:03:16.388+02:00,1654160593.964612,53.22888156262182,10.39816453433297,36.08895,0,1.918238,-1,-1,1114.33447265625,23.99873956503252,-9999,3688.053104,0.7837066650390625,0.6962127685546875,-0.1861114501953125,3688.043109,-0.1919859047283052,0.9675157532176711,-0.5717603700468644,-1.823293447494507,2.71073055267334,-0.9787428975105286,0.04579222202301025,0.1282896995544434,0.1871780157089233,XArbitraryZVertical,-0.2057245495345485,0.4681049783540142,-0.211961883464391,0.8328428574216538,0.6925042271614075,0.5411132574081421,-0.4771102666854858,0,0,0,-1,-1,3684.961830375,unknown,2,2022-06-02T11:03:13.296+02:00,2022-06-02T10:17:13.754+02:00,693,1.485188,0.8367646,1.650349,555.2257,0,0,2022-06-02T11:03:15.854+02:00,675853395.8537338,0,6.851562,101.3005,1,0.76
2022-06-02T11:03:16.399+02:00,1654160593.964612,53.22888156262182,10.39816453433297,36.08895,0,1.918238,-1,-1,1114.33447265625,23.99873956503252,-9999,3688.063098,0.7869873046875,0.7064971923828125,-0.1695709228515625,3688.053104,-0.1792078879987985,1.001051708013453,-0.5899683294454251,-1.95434308052063,2.596311569213867,-0.8764826059341431,0.07032042741775513,0.130264937877655,0.2019256353378296,XArbitraryZVertical,-0.2129509232769368,0.4801410062878579,-0.2140714303490925,0.8235835677849838,0.6996990442276001,0.5563347339630127,-0.448233038187027,0,0,0,-1,-1,3684.961830375,unknown,2,2022-06-02T11:03:13.296+02:00,2022-06-02T10:17:13.754+02:00,693,1.485188,0.8367646,1.650349,555.2257,0,0,2022-06-02T11:03:15.854+02:00,675853395.8537338,0,6.851562,101.3005,1,0.76
2022-06-02T11:03:16.408+02:00,1654160593.964612,53.22888156262182,10.39816453433297,36.08895,0,1.918238,-1,-1,1114.33447265625,23.99873956503252,-9999,3688.073093,0.7938079833984375,0.679534912109375,-0.050384521484375,3688.063098,-0.1639143740277988,1.035271546250522,-0.6072645733536202,-2.081539154052734,2.525170087814331,-0.743436336517334,0.07746362686157227,0.1255894303321838,0.2329467535018921,XArbitraryZVertical,-0.2202899656895488,0.4918772586882381,-0.2153371410287571,0.8143456426690544,0.7062429785728455,0.5706232190132141,-0.4190581738948822,0,0,0,-1,-1,3684.961830375,unknown,2,2022-06-02T11:03:13.296+02:00,2022-06-02T10:17:13.754+02:00,693,1.485188,0.8367646,1.650349,555.2257,0,0,2022-06-02T11:03:15.854+02:00,675853395.8537338,0,6.851562,101.3005,1,0.76
2022-06-02T11:03:16.418+02:00,1654160593.964612,53.22888156262182,10.39816453433297,36.08895,0,1.918238,-1,-1,1114.33447265625,23.99873956503252,-9999,3688.083088,0.813751220703125,0.6543121337890625,-0.1052703857421875,3688.073093,-0.1442206127739086,1.071435427557855,-0.6243448829106356,-2.355520248413086,2.433395147323608,-0.6438665986061096,0.07471555471420288,0.121931254863739,0.2189539670944214,XArbitraryZVertical,-0.2284128478414874,0.5035524778267244,-0.2153278076563347,0.8049200667095865,0.7122716903686523,0.5845658779144287,-0.3885249495506287,0,0,0,-1,-1,3684.961830375,unknown,2,2022-06-02T11:03:13.296+02:00,2022-06-02T10:17:13.754+02:00,693,1.485188,0.8367646,1.650349,555.2257,0,0,2022-06-02T11:03:15.854+02:00,675853395.8537338,0,6.851562,101.3005,1,0.76
2022-06-02T11:03:16.428+02:00,1654160593.964612,53.22888156262182,10.39816453433297,36.08895,0,1.918238,-1,-1,1114.33447265625,23.99873956503252,-9999,3688.093082,0.8403167724609375,0.7222747802734375,-0.0637054443359375,3688.083088,-0.1220716421997523,1.108444792710324,-0.6403391337259106,-2.28141450881958,2.345669031143188,-0.5360358953475952,0.07610875368118286,0.08206731081008911,0.3073030412197113,XArbitraryZVertical,-0.236646843361546,0.514931531543124,-0.2145584879862348,0.7954924683148801,0.7176991105079651,0.5974674224853516,-0.3576875925064087,0,0,0,-1,-1,3684.961830375,unknown,2,2022-06-02T11:03:13.296+02:00,2022-06-02T10:17:13.754+02:00,693,1.485188,0.8367646,1.650349,555.2257,0,0,2022-06-02T11:03:15.854+02:00,675853395.8537338,0,6.851562,101.3005,1,0.76
2022-06-02T11:03:16.438+02:00,1654160593.964612,53.22888156262182,10.39816453433297,36.08895,0,1.918238,-1,-1,1114.33447265625,23.99873956503252,-9999,3688.103077,0.8515167236328125,0.7257537841796875,-0.0284881591796875,3688.093082,-0.09898632680959341,1.14526134021693,-0.6543501041452189,-2.261790752410889,2.232842206954956,-0.4168804585933685,0.09106838703155518,0.04566836357116699,0.2222695350646973,XArbitraryZVertical,-0.2443884711885103,0.5258367467122922,-0.2132943048193637,0.7863049914239325,0.722682774066925,0.6086437106132507,-0.3275399804115295,0,0,0,-1,-1,3684.961830375,unknown,2,2022-06-02T11:03:13.296+02:00,2022-06-02T10:17:13.754+02:00,693,1.485188,0.8367646,1.650349,555.2257,0,0,2022-06-02T11:03:15.854+02:00,675853395.8537338,0,6.851562,101.3005,1,0.76
2022-06-02T11:03:16.455+02:00,1654160593.964612,53.22888156262182,10.39816453433297,36.08895,0,1.918238,-1,-1,1114.33447265625,23.99873956503252,-9999,3688.113071,0.855560302734375,0.6872406005859375,-0.034271240234375,3688.103077,-0.07474610387217939,1.181857699246382,-0.666621998131943,-2.218583822250366,2.111078262329102,-0.3216508626937866,0.1131002306938171,0.1039400100708008,0.2343184947967529,XArbitraryZVertical,-0.2518317096104042,0.5362543900658889,-0.2114723791301286,0.7773618247950915,0.7272164821624756,0.6183347105979919,-0.2980240285396576,0,0,0,-1,-1,3684.961830375,unknown,2,2022-06-02T11:03:13.296+02:00,2022-06-02T10:17:13.754+02:00,693,1.485188,0.8367646,1.650349,555.2257,0,0,2022-06-02T11:03:15.854+02:00,675853395.8537338,0,6.851562,101.3005,1,0.76
2022-06-02T11:03:16.472+02:00,1654160593.964612,53.22888156262182,10.39816453433297,36.08895,0,1.918238,-1,-1,1114.33447265625,23.99873956503252,-9999,3688.123066,0.850189208984375,0.652130126953125,-0.0008544921875,3688.113071,-0.05014580251037497,1.217667882947016,-0.6771890968769134,-2.139601230621338,1.997377038002014,-0.2481223195791245,0.1202682852745056,0.09914886951446533,0.2410337924957275,XArbitraryZVertical,-0.2588678923618805,0.546101116671683,-0.2093052417037804,0.7687342086765424,0.7312483787536621,0.6266048550605774,-0.2695219814777374,0,0,0,-1,-1,3684.961830375,unknown,2,2022-06-02T11:03:13.296+02:00,2022-06-02T10:17:13.754+02:00,693,1.485188,0.8367646,1.650349,555.2257,0,0,2022-06-02T11:03:15.854+02:00,675853395.8537338,0,6.851562,101.3005,1,0.76
2022-06-02T11:03:16.475+02:00,1654160593.964612,53.22888156262182,10.39816453433297,36.08895,0,1.918238,-1,-1,1114.33447265625,23.99873956503252,-9999,3688.133061,0.8551483154296875,0.6632843017578125,0.08074951171875,3688.123066,-0.02630450098710539,1.252346354196975,-0.6859844631784393,-1.907604813575745,1.934553146362305,-0.189969077706337,0.120669424533844,0.05380541086196899,0.2080001831054688,XArbitraryZVertical,-0.2652189096430873,0.5554486341827957,-0.2071107369303674,0.7604215334501363,0.7348908185958862,0.633435070514679,-0.2422714829444885,0,0,0,-1,-1,3684.961830375,unknown,2,2022-06-02T11:03:13.296+02:00,2022-06-02T10:17:13.754+02:00,693,1.485188,0.8367646,1.650349,555.2257,0,0,2022-06-02T11:03:15.854+02:00,675853395.8537338,0,6.851562,101.3005,1,0.76
2022-06-02T11:03:16.486+02:00,1654160593.964612,53.22888156262182,10.39816453433297,36.08895,0,1.918238,-1,-1,1114.33447265625,23.99873956503252,-9999,3688.143055,0.87347412109375,0.7110748291015625,0.1636505126953125,3688.133061,-0.00547233646538877,1.284380724618758,-0.6927363822232652,-1.567900538444519,1.812184929847717,-0.1404060572385788,0.1120353937149048,0.01348477602005005,0.2165416181087494,XArbitraryZVertical,-0.2703113880275722,0.5641220527517443,-0.2053944548104911,0.7526692463336879,0.7381536960601807,0.6386452317237854,-0.2173961251974106,0,0,0,-1,-1,3684.961830375,unknown,2,2022-06-02T11:03:13.296+02:00,2022-06-02T10:17:13.754+02:00,693,1.485188,0.8367646,1.650349,555.2257,0,0,2022-06-02T11:03:15.854+02:00,675853395.8537338,0,6.851562,101.3005,1,0.76
2022-06-02T11:03:16.488+02:00,1654160593.964612,53.22888156262182,10.39816453433297,36.08895,0,1.918238,-1,-1,1114.33447265625,23.99873956503252,-9999,3688.15305,0.894805908203125,0.712493896484375,0.2226715087890625,3688.143055,0.01165862424265962,1.312794755504017,-0.6976619152198834,-1.228138446807861,1.678219437599182,-0.09782170504331589,0.1141666769981384,0.02085655927658081,0.2762817740440369,XArbitraryZVertical,-0.2741106644641215,0.5719241102780109,-0.2042455131495392,0.7456875057448538,0.7409815788269043,0.6424276828765869,-0.1955323070287704,0,0,0,-1,-1,3684.961830375,unknown,2,2022-06-02T11:03:13.296+02:00,2022-06-02T10:17:13.754+02:00,693,1.485188,0.8367646,1.650349,555.2257,0,0,2022-06-02T11:03:15.854+02:00,675853395.8537338,0,6.851562,101.3005,1,0.76
2022-06-02T11:03:16.499+02:00,1654160593.964612,53.22888156262182,10.39816453433297,36.08895,0,1.918238,-1,-1,1114.33447265625,23.99873956503252,-9999,3688.163045,0.913726806640625,0.670257568359375,0.2755279541015625,3688.15305,0.02488585979672453,1.337539433702547,-0.7009274348663426,-0.8972575664520264,1.568453073501587,-0.04972608014941216,0.1299265623092651,0.06614792346954346,0.3403035402297974,XArbitraryZVertical,-0.2765991256613456,0.5789355572072787,-0.2036886715572668,0.739484481888343,0.7435474991798401,0.6449267268180847,-0.1766530871391296,0,0,0,-1,-1,3684.961830375,unknown,2,2022-06-02T11:03:13.296+02:00,2022-06-02T10:17:13.754+02:00,693,1.485188,0.8367646,1.650349,555.2257,0,0,2022-06-02T11:03:15.854+02:00,675853395.8537338,0,6.851562,101.3005,1,0.76
2022-06-02T11:03:16.508+02:00,1654160593.964612,53.22888156262182,10.39816453433297,36.08895,0,1.918238,-1,-1,1114.33447265625,23.99873956503252,-9999,3688.173039,0.922027587890625,0.62091064453125,0.3278961181640625,3688.163045,0.03464704039539789,1.358818666352093,-0.7030309231416824,-0.6719595789909363,1.421218872070312,-0.03198855742812157,0.1489956378936768,0.06596094369888306,0.3831778764724731,XArbitraryZVertical,-0.2780411001188321,0.5851836655209471,-0.2036639566966962,0.7340124552116727,0.7458102703094482,0.6465328931808472,-0.1605064421892166,0,0,0,-1,-1,3684.961830375,unknown,2,2022-06-02T11:03:13.296+02:00,2022-06-02T10:17:13.754+02:00,693,1.485188,0.8367646,1.650349,555.2257,0,0,2022-06-02T11:03:15.854+02:00,675853395.8537338,0,6.851562,101.3005,1,0.76
2022-06-02T11:03:16.518+02:00,1654160593.964612,53.22888156262182,10.39816453433297,36.08895,0,1.918238,-1,-1,1114.33447265625,23.99873956503252,-9999,3688.183034,0.9111480712890625,0.5486602783203125,0.3792266845703125,3688.173039,0.04272103126829224,1.377356001500643,-0.7044954041714317,-0.6111593246459961,1.242146015167236,-0.00105168204754591,0.1659995913505554,0.02260798215866089,0.4220000505447388,XArbitraryZVertical,-0.2790561556135851,0.5906704709322503,-0.2037303479950997,0.729198105230731,0.7477271556854248,0.6476494669914246,-0.1464721113443375,0,0,0,-1,-1,3684.961830375,unknown,2,2022-06-02T11:03:13.296+02:00,2022-06-02T10:17:13.754+02:00,693,1.485188,0.8367646,1.650349,555.2257,0,0,2022-06-02T11:03:15.854+02:00,675853395.8537338,0,6.851562,101.3005,1,0.76
2022-06-02T11:03:16.527+02:00,1654160593.964612,53.22888156262182,10.39816453433297,36.08895,0,1.918238,-1,-1,1114.33447265625,23.99873956503252,-9999,3688.193029,0.89678955078125,0.5073394775390625,0.4266510009765625,3688.183034,0.05051602133424057,1.393991854099012,-0.705442377415942,-0.5782892107963562,1.078058242797852,0.03183729201555252,0.1725713610649109,-0.02746021747589111,0.4618014693260193,XArbitraryZVertical,-0.2800134676693106,0.5955163754107076,-0.2035084116343894,0.7249392429593861,0.7494561672210693,0.6483706831932068,-0.1339054107666016,0,0,0,-1,-1,3684.961830375,unknown,2,2022-06-02T11:03:13.296+02:00,2022-06-02T10:17:13.754+02:00,693,1.485188,0.8367646,1.650349,555.2257,0,0,2022-06-02T11:03:15.854+02:00,675853395.8537338,0,6.851562,101.3005,1,0.76
2022-06-02T11:03:16.537+02:00,1654160593.964612,53.22888156262182,10.39816453433297,36.08895,0,1.918238,-1,-1,1114.33447265625,23.99873956503252,-9999,3688.203023,0.9040679931640625,0.518646240234375,0.4486236572265625,3688.193029,0.05743153642656076,1.408494049326046,-0.7060463843591387,-0.4724932610988617,0.9241035580635071,0.02500548213720322,0.1602153778076172,-0.1001702547073364,0.5021862387657166,XArbitraryZVertical,-0.2808200112381662,0.5997168508317426,-0.2032262596703994,0.7212341925622228,0.7509325742721558,0.6488304138183594,-0.1229596436023712,0,0,0,-1,-1,3684.961830375,unknown,2,2022-06-02T11:03:13.296+02:00,2022-06-02T10:17:13.754+02:00,693,1.485188,0.8367646,1.650349,555.2257,0,0,2022-06-02T11:03:15.854+02:00,675853395.8537338,0,6.851562,101.3005,1,0.76
2022-06-02T11:03:16.548+02:00,1654160593.964612,53.22888156262182,10.39816453433297,36.08895,0,1.918238,-1,-1,1114.33447265625,23.99873956503252,-9999,3688.213018,0.9210357666015625,0.5286102294921875,0.4597930908203125,3688.203023,0.06276670439779193,1.420476675917824,-0.7064962844768328,-0.3375522792339325,0.7828424572944641,0.01645367592573166,0.1447260975837708,-0.1418333649635315,0.5405601263046265,XArbitraryZVertical,-0.2813660479790436,0.6032234834693174,-0.2031294342697529,0.7181175629643305,0.7520632743835449,0.6491726636886597,-0.1139091551303864,0,0,0,-1,-1,3684.961830375,unknown,2,2022-06-02T11:03:13.296+02:00,2022-06-02T10:17:13.754+02:00,693,1.485188,0.8367646,1.650349,555.2257,0,0,2022-06-02T11:03:15.854+02:00,675853395.8537338,0,6.851562,101.3005,1,0.76
2022-06-02T11:03:16.558+02:00,1654160593.964612,53.22888156262182,10.39816453433297,36.08895,0,1.918238,-1,-1,1114.33447265625,23.99873956503252,-9999,3688.223012,0.9287109375,0.5355224609375,0.465576171875,3688.213018,0.06648259189816716,1.430042709061762,-0.7066448375621259,-0.2243554145097733,0.6434451937675476,0.0424186959862709,0.1510448455810547,-0.1306396126747131,0.5553198456764221,XArbitraryZVertical,-0.2815699328024057,0.6061107518215511,-0.2031899921852181,0.7155849308404233,0.7530230283737183,0.6492856740951538,-0.106696255505085,0,0,0,-1,-1,3684.961830375,unknown,2,2022-06-02T11:03:13.296+02:00,2022-06-02T10:17:13.754+02:00,693,1.485188,0.8367646,1.650349,555.2257,0,0,2022-06-02T11:03:15.854+02:00,675853395.8537338,0,6.851562,101.3005,1,0.76
2022-06-02T11:03:16.568+02:00,1654160593.964612,53.22888156262182,10.39816453433297,36.08895,0,1.918238,-1,-1,1114.33447265625,23.99873956503252,-9999,3688.233007,0.9145355224609375,0.541351318359375,0.47430419921875,3688.223012,0.06921900690547408,1.437525905302292,-0.7061875703558278,-0.1888056993484497,0.4945062100887299,0.1086734160780907,0.1669411063194275,-0.1203277111053467,0.560890793800354,XArbitraryZVertical,-0.281480832882052,0.6084567900537411,-0.2031227004443642,0.713645513521458,0.7540946006774902,0.6489378213882446,-0.1010977476835251,0,0,0,-1,-1,3684.961830375,unknown,2,2022-06-02T11:03:13.296+02:00,2022-06-02T10:17:13.754+02:00,693,1.485188,0.8367646,1.650349,555.2257,0,0,2022-06-02T11:03:15.854+02:00,675853395.8537338,0,6.851562,101.3005,1,0.76
2022-06-02T11:03:16.582+02:00,1654160593.964612,53.22888156262182,10.39816453433297,36.08895,0,1.918238,-1,-1,1114.33447265625,23.99873956503252,-9999,3688.243002,0.884857177734375,0.53289794921875,0.4937591552734375,3688.233007,0.07241104091010711,1.443839991399042,-0.7050932183076412,-0.2777648866176605,0.3530319035053253,0.1677151620388031,0.1732889413833618,-0.1125825047492981,0.5620003342628479,XArbitraryZVertical,-0.281431900461553,0.6103965771494519,-0.2025299277109293,0.7121752596494523,0.7554219365119934,0.6481048464775085,-0.09642420709133148,0,0,0,-1,-1,3684.961830375,unknown,2,2022-06-02T11:03:13.296+02:00,2022-06-02T10:17:13.754+02:00,693,1.485188,0.8367646,1.650349,555.2257,0,0,2022-06-02T11:03:15.854+02:00,675853395.8537338,0,6.851562,101.3005,1,0.76
2022-06-02T11:03:16.599+02:00,1654160593.964612,53.22888156262182,10.39816453433297,36.08895,0,1.918238,-1,-1,1114.33447265625,23.99873956503252,-9999,3688.252996,0.863311767578125,0.53192138671875,0.5054779052734375,3688.243002,0.07743831850804997,1.450041782185634,-0.703739279419298,-0.4604816138744354,0.2367224544286728,0.1934579461812973,0.157659649848938,-0.1057219505310059,0.5661471486091614,XArbitraryZVertical,-0.2818722550061041,0.6120674151968378,-0.2011878202731593,0.7109463774261742,0.7568756937980652,0.6470731496810913,-0.09184302389621735,0,0,0,-1,-1,3684.961830375,unknown,2,2022-06-02T11:03:13.296+02:00,2022-06-02T10:17:13.754+02:00,693,1.485188,0.8367646,1.650349,555.2257,0,0,2022-06-02T11:03:15.854+02:00,675853395.8537338,0,6.851562,101.3005,1,0.76
2022-06-02T11:03:16.603+02:00,1654160593.964612,53.22888156262182,10.39816453433297,36.08895,0,1.918238,-1,-1,1114.33447265625,23.99873956503252,-9999,3688.262991,0.846832275390625,0.54620361328125,0.5613861083984375,3688.252996,0.08510894615558841,1.456931175045151,-0.7023204164049976,-0.6606307029724121,0.1523069143295288,0.2246108055114746,0.1264551281929016,-0.113092839717865,0.5804898142814636,XArbitraryZVertical,-0.2830426849664794,0.6136134624612896,-0.1989867083669347,0.7097672520689804,0.7584019899368286,0.6459907293319702,-0.0867307111620903,0,0,0,-1,-1,3684.961830375,unknown,2,2022-06-02T11:03:13.296+02:00,2022-06-02T10:17:13.754+02:00,693,1.485188,0.8367646,1.650349,555.2257,0,0,2022-06-02T11:03:15.854+02:00,675853395.8537338,0,6.851562,101.3005,1,0.76
2022-06-02T11:03:16.608+02:00,1654160593.964612,53.22888156262182,10.39816453433297,36.08895,0,1.918238,-1,-1,1114.33447265625,23.99873956503252,-9999,3688.272986,0.8457794189453125,0.60113525390625,0.633331298828125,3688.262991,0.09513378108762603,1.464521878568273,-0.7008372709945762,-0.8214272856712341,0.06707404553890228,0.2369090169668198,0.1033212542533875,-0.1129365563392639,0.5865508913993835,XArbitraryZVertical,-0.2848618145189568,0.6150749835692899,-0.1960369583046578,0.7085944186682507,0.7599905133247375,0.6448578238487244,-0.08107302337884903,0,0,0,-1,-1,3684.961830375,unknown,2,2022-06-02T11:03:13.296+02:00,2022-06-02T10:17:13.754+02:00,693,1.485188,0.8367646,1.650349,555.2257,0,0,2022-06-02T11:03:15.854+02:00,675853395.8537338,0,6.851562,101.3005,1,0.76
2022-06-02T11:03:16.618+02:00,1654160593.964612,53.22888156262182,10.39816453433297,36.08895,0,1.918238,-1,-1,1114.33447265625,23.99873956503252,-9999,3688.28298,0.8556365966796875,0.65496826171875,0.692413330078125,3688.272986,0.1071646256582487,1.472470378534227,-0.6993809430866211,-0.9800392985343933,-0.03508029133081436,0.2423719614744186,0.08528763055801392,-0.09754055738449097,0.6365078687667847,XArbitraryZVertical,-0.287295016214429,0.6163608129448492,-0.1924476820527021,0.7074777502577588,0.7615445852279663,0.6437441110610962,-0.07512184232473373,0,0,0,-1,-1,3684.961830375,unknown,2,2022-06-02T11:03:13.296+02:00,2022-06-02T10:17:13.754+02:00,693,1.485188,0.8367646,1.650349,555.2257,0,0,2022-06-02T11:03:15.854+02:00,675853395.8537338,0,6.851562,101.3005,1,0.76
2022-06-02T11:03:16.628+02:00,1654160593.964612,53.22888156262182,10.39816453433297,36.08895,0,1.918238,-1,-1,1114.33447265625,23.99873956503252,-9999,3688.292975,0.84979248046875,0.6722412109375,0.7069549560546875,3688.28298,0.1212746465655302,1.480560301361794,-0.6978735977513544,-1.140136003494263,-0.1689231097698212,0.2642837166786194,0.08268648386001587,-0.04145467281341553,0.7023772001266479,XArbitraryZVertical,-0.2903643332513448,0.617386075966473,-0.1881414929967432,0.7064882747554005,0.7630928754806519,0.6425898671150208,-0.06904597580432892,0,0,0,-1,-1,3684.961830375,unknown,2,2022-06-02T11:03:13.296+02:00,2022-06-02T10:17:13.754+02:00,693,1.485188,0.8367646,1.650349,555.2257,0,0,2022-06-02T11:03:15.854+02:00,675853395.8537338,0,6.851562,101.3005,1,0.76
2022-06-02T11:03:16.638+02:00,1654160593.964612,53.22888156262182,10.39816453433297,36.08895,0,1.918238,-1,-1,1114.33447265625,23.99873956503252,-9999,3688.30297,0.8213958740234375,0.6789093017578125,0.704864501953125,3688.292975,0.1374348663379506,1.488525484326862,-0.6961778888786941,-1.29619300365448,-0.3162515759468079,0.2859916687011719,0.09093302488327026,0.01367843151092529,0.7554683685302734,XArbitraryZVertical,-0.2940431531915911,0.6180704344351953,-0.1830485218553542,0.7057058014048704,0.7647034525871277,0.6412896513938904,-0.0630551278591156,0,0,0,-1,-1,3684.961830375,unknown,2,2022-06-02T11:03:13.296+02:00,2022-06-02T10:17:13.754+02:00,693,1.485188,0.8367646,1.650349,555.2257,0,0,2022-06-02T11:03:15.854+02:00,675853395.8537338,0,6.851562,101.3005,1,0.76
2022-06-02T11:03:16.648+02:00,1654160593.964612,53.22888156262182,10.39816453433297,36.08895,0,1.918238,-1,-1,1114.33447265625,23.99873956503252,-9999,3688.312964,0.7850799560546875,0.68817138671875,0.6985321044921875,3688.30297,0.1558071909994005,1.496354430637181,-0.6943570014549816,-1.490647435188293,-0.475580096244812,0.2990410327911377,0.08345556259155273,0.03234958648681641,0.7641080617904663,XArbitraryZVertical,-0.2984058899315484,0.6183666679400421,-0.1771317687401109,0.7051246317924722,0.7663367986679077,0.6398914456367493,-0.05715317651629448,0,0,0,-1,-1,3684.961830375,unknown,2,2022-06-02T11:03:13.296+02:00,2022-06-02T10:17:13.754+02:00,693,1.485188,0.8367646,1.650349,555.2257,0,0,2022-06-02T11:03:15.854+02:00,675853395.8537338,0,6.851562,101.3005,1,0.76
2022-06-02T11:03:16.658+02:00,1654160593.964612,53.22888156262182,10.39816453433297,36.08895,0,1.918238,-1,-1,1114.33447265625,23.99873956503252,-9999,3688.322959,0.755706787109375,0.7115325927734375,0.7000274658203125,3688.312964,0.1767553066268116,1.504150543823112,-0.6924632611776352,-1.691544532775879,-0.644347608089447,0.307133287191391,0.05342888832092285,0.04047417640686035,0.7561221122741699,XArbitraryZVertical,-0.3035738548894162,0.6182346471311404,-0.1702969925625485,0.7047181771825181,0.7679669857025146,0.6384350061416626,-0.0512576699256897,0,0,0,-1,-1,3684.961830375,unknown,2,2022-06-02T11:03:13.296+02:00,2022-06-02T10:17:13.754+02:00,693,1.485188,0.8367646,1.650349,555.2257,0,0,2022-06-02T11:03:15.854+02:00,675853395.8537338,0,6.851562,101.3005,1,0.76
2022-06-02T11:03:16.668+02:00,1654160593.964612,53.22888156262182,10.39816453433297,36.08895,0,1.918238,-1,-1,1114.33447265625,23.99873956503252,-9999,3688.332953,0.7316741943359375,0.7500762939453125,0.7279815673828125,3688.322959,0.1998346739285785,1.511611114990327,-0.690470557863249,-1.824959278106689,-0.8075332045555115,0.3146265745162964,0.01548337936401367,0.05127125978469849,0.7441340684890747,XArbitraryZVertical,-0.3094250171990841,0.6176205659871471,-0.1626471811799753,0.7045188901762368,0.7695965170860291,0.636900007724762,-0.0456019900739193,0,0,0,-1,-1,3684.961830375,unknown,2,2022-06-02T11:03:13.296+02:00,2022-06-02T10:17:13.754+02:00,693,1.485188,0.8367646,1.650349,555.2257,0,0,2022-06-02T11:03:15.854+02:00,675853395.8537338,0,6.851562,101.3005,1,0.76
2022-06-02T11:03:16.678+02:00,1654160593.964612,53.22888156262182,10.39816453433297,36.08895,0,1.918238,-1,-1,1114.33447265625,23.99873956503252,-9999,3688.342948,0.7103271484375,0.7725830078125,0.7572784423828125,3688.332953,0.2243350578180272,1.518334155715628,-0.6883546886042448,-1.921249508857727,-0.9711450934410095,0.3177153170108795,-0.01552289724349976,0.07626515626907349,0.7405248880386353,XArbitraryZVertical,-0.3157578884078335,0.6164804796895947,-0.1543592286647252,0.704572229293325,0.7712297439575195,0.6352673768997192,-0.0404975488781929,0,0,0,-1,-1,3684.961830375,unknown,2,2022-06-02T11:03:13.296+02:00,2022-06-02T10:17:13.754+02:00,693,1.485188,0.8367646,1.650349,555.2257,0,0,2022-06-02T11:03:15.854+02:00,675853395.8537338,0,6.851562,101.3005,1,0.76
2022-06-02T11:03:16.688+02:00,1654160593.964612,53.22888156262182,10.39816453433297,36.08895,0,1.918238,-1,-1,1114.33447265625,23.99873956503252,-9999,3688.352943,0.697021484375,0.792755126953125,0.7700042724609375,3688.342948,0.2500369854507855,1.523918013465565,-0.6862349612979607,-2.024919271469116,-1.187481641769409,0.3008090257644653,-0.04111301898956299,0.1164472699165344,0.7642350196838379,XArbitraryZVertical,-0.3225614732077392,0.6146766102451946,-0.1454796354386749,0.7049556221111466,0.7727872133255005,0.6336289048194885,-0.03625352308154106,0,0,0,-1,-1,3684.961830375,unknown,2,2022-06-02T11:03:13.296+02:00,2022-06-02T10:17:13.754+02:00,693,1.485188,0.8367646,1.650349,555.2257,0,0,2022-06-02T11:03:15.854+02:00,675853395.8537338,0,6.851562,101.3005,1,0.76
2022-06-02T11:03:16.698+02:00,1654160593.964612,53.22888156262182,10.39816453433297,36.08895,0,1.918238,-1,-1,1114.33447265625,23.99873956503252,-9999,3688.362937,0.68060302734375,0.801849365234375,0.7347412109375,3688.352943,0.2773814508112529,1.528106836401793,-0.6841624518598056,-2.202677488327026,-1.449662089347839,0.3018543422222137,-0.0639154314994812,0.1405587196350098,0.7903504967689514,XArbitraryZVertical,-0.329985200783055,0.6120242735475862,-0.1358173257845129,0.7057546445287906,0.7742425203323364,0.6320241689682007,-0.03307211026549339,0,0,0,-1,-1,3684.961830375,unknown,2,2022-06-02T11:03:13.296+02:00,2022-06-02T10:17:13.754+02:00,693,1.485188,0.8367646,1.650349,555.2257,0,0,2022-06-02T11:03:15.854+02:00,675853395.8537338,0,6.851562,101.3005,1,0.76
2022-06-02T11:03:16.708+02:00,1654160593.964612,53.22888156262182,10.39816453433297,36.08895,0,1.918238,-1,-1,1114.33447265625,23.99873956503252,-9999,3688.372932,0.6338653564453125,0.8249359130859375,0.7245330810546875,3688.362937,0.3072083213573416,1.530861003155341,-0.6822080537308141,-2.386771202087402,-1.771927118301392,0.26862433552742,-0.07854205369949341,0.1622465848922729,0.800993025302887,XArbitraryZVertical,-0.3382813085930493,0.6083348840672116,-0.125077681526102,0.7070006030398871,0.7755633592605591,0.6305084228515625,-0.03098884969949722,0,0,0,-1,-1,3684.961830375,unknown,2,2022-06-02T11:03:13.296+02:00,2022-06-02T10:17:13.754+02:00,693,1.485188,0.8367646,1.650349,555.2257,0,0,2022-06-02T11:03:15.854+02:00,675853395.8537338,0,6.851562,101.3005,1,0.76
2022-06-02T11:03:16.718+02:00,1654160593.964612,53.22888156262182,10.39816453433297,36.08895,0,1.918238,-1,-1,1114.33447265625,23.99873956503252,-9999,3688.382927,0.598907470703125,0.8516082763671875,0.7683563232421875,3688.372932,0.3392274306336179,1.531839848190972,-0.6808307689938405,-2.595980405807495,-2.078691482543945,0.2024130821228027,-0.09585738182067871,0.1724104881286621,0.7650046348571777,XArbitraryZVertical,-0.3474868428793633,0.6034245247977394,-0.1134421850811762,0.7087048144464977,0.7764604091644287,0.6294388175010681,-0.03026347421109676,0,0,0,-1,-1,3684.961830375,unknown,2,2022-06-02T11:03:13.296+02:00,2022-06-02T10:17:13.754+02:00,693,1.485188,0.8367646,1.650349,555.2257,0,0,2022-06-02T11:03:15.854+02:00,675853395.8537338,0,6.851562,101.3005,1,0.76
2022-06-02T11:03:16.728+02:00,1654160593.964612,53.22888156262182,10.39816453433297,36.08895,0,1.918238,-1,-1,1114.33447265625,23.99873956503252,-9999,3688.392921,0.5735015869140625,0.82958984375,0.848175048828125,3688.382927,0.3746570571563789,1.531708844943588,-0.6800091075978827,-2.896095991134644,-2.419243335723877,0.1826740205287933,-0.1431076526641846,0.1961357593536377,0.7549183368682861,XArbitraryZVertical,-0.3578713449720294,0.5972733068211572,-0.100564842827587,0.7106893587702977,0.7769730091094971,0.628800094127655,-0.03038539551198483,0,0,0,-1,-1,3684.961830375,unknown,2,2022-06-02T11:03:13.296+02:00,2022-06-02T10:17:13.754+02:00,693,1.485188,0.8367646,1.650349,555.2257,0,0,2022-06-02T11:03:15.854+02:00,675853395.8537338,0,6.851562,101.3005,1,0.76
2022-06-02T11:03:16.738+02:00,1654160593.964612,53.22888156262182,10.39816453433297,36.08895,0,1.918238,-1,-1,1114.33447265625,23.99873956503252,-9999,3688.402916,0.5670623779296875,0.8116912841796875,0.898040771484375,3688.392921,0.4137013706116797,1.530208112418217,-0.6795303869500238,-3.17616081237793,-2.800122499465942,0.1447796225547791,-0.1783197522163391,0.22318035364151,0.7999198436737061,XArbitraryZVertical,-0.3693794588614938,0.5897262217011179,-0.08623033762434591,0.7129838995609272,0.7772271633148193,0.6284278035163879,-0.03156359866261482,0,0,0,-1,-1,3684.961830375,unknown,2,2022-06-02T11:03:13.296+02:00,2022-06-02T10:17:13.754+02:00,693,1.485188,0.8367646,1.650349,555.2257,0,0,2022-06-02T11:03:15.854+02:00,675853395.8537338,0,6.851562,101.3005,1,0.76
2022-06-02T11:03:16.748+02:00,1654160593.964612,53.22888156262182,10.39816453433297,36.08895,0,1.918238,-1,-1,1114.33447265625,23.99873956503252,-9999,3688.41291,0.564056396484375,0.9054718017578125,1.048583984375,3688.402916,0.4559513142876828,1.526550131634976,-0.6797850877319782,-3.361937999725342,-3.259007930755615,0.0794588029384613,-0.2034450173377991,0.2009638547897339,0.8825743198394775,XArbitraryZVertical,-0.3819614410700015,0.5804358420856761,-0.07053989336303736,0.7156980731364962,0.7769466042518616,0.6286259293556213,-0.03439938277006149,0,0,0,-1,-1,3684.961830375,unknown,2,2022-06-02T11:03:13.296+02:00,2022-06-02T10:17:13.754+02:00,693,1.485188,0.8367646,1.650349,555.2257,0,0,2022-06-02T11:03:15.854+02:00,675853395.8537338,0,6.851562,101.3005,1,0.76
2022-06-02T11:03:16.758+02:00,1654160593.964612,53.22888156262182,10.39816453433297,36.08895,0,1.918238,-1,-1,1114.33447265625,23.99873956503252,-9999,3688.422905,0.585662841796875,1.085906982421875,1.2550048828125,3688.41291,0.4999551581515702,1.51934235812802,-0.680877120861584,-3.482830047607422,-3.73730731010437,0.03040923923254013,-0.2089301347732544,0.1822164058685303,0.9380038976669312,XArbitraryZVertical,-0.3951640853651321,0.5690902938625946,-0.05373090523329785,0.7190928465618901,0.7759924530982971,0.6294748187065125,-0.03996316716074944,0,0,0,-1,-1,3684.961830375,unknown,2,2022-06-02T11:03:13.296+02:00,2022-06-02T10:17:13.754+02:00,693,1.485188,0.8367646,1.650349,555.2257,0,0,2022-06-02T11:03:15.854+02:00,675853395.8537338,0,6.851562,101.3005,1,0.76
2022-06-02T11:03:16.768+02:00,1654160593.964612,53.22888156262182,10.39816453433297,36.08895,0,1.918238,-1,-1,1114.33447265625,23.99873956503252,-9999,3688.4329,0.6256866455078125,1.227371215820312,1.407028198242188,3688.422905,0.544691924597413,1.507513450110795,-0.6828130931359467,-3.445265293121338,-4.288811683654785,-0.02976488508284092,-0.2101914882659912,0.2744938135147095,1.097645998001099,XArbitraryZVertical,-0.4085903071680372,0.5554483685204327,-0.03588614252594854,0.7233555331969701,0.7742478251457214,0.6309779286384583,-0.04906214028596878,0,0,0,-1,-1,3684.961830375,unknown,2,2022-06-02T11:03:13.296+02:00,2022-06-02T10:17:13.754+02:00,693,1.485188,0.8367646,1.650349,555.2257,0,0,2022-06-02T11:03:15.854+02:00,675853395.8537338,0,6.851562,101.3005,1,0.76
2022-06-02T11:03:16.778+02:00,1654160593.964612,53.22888156262182,10.39816453433297,36.08895,0,1.918238,-1,-1,1114.33447265625,23.99873956503252,-9999,3688.442894,0.6217193603515625,1.30108642578125,1.403274536132812,3688.4329,0.5884442526309214,1.48894766344247,-0.6859983486057714,-3.36193323135376,-4.99354887008667,-0.1150552779436111,-0.1855337023735046,0.4524610042572021,1.318267583847046,XArbitraryZVertical,-0.4217616572806084,0.5389672883843781,-0.01723587379573534,0.7289267306926155,0.7711964845657349,0.6334458589553833,-0.06326273083686829,0,0,0,-1,-1,3684.961830375,unknown,2,2022-06-02T11:03:13.296+02:00,2022-06-02T10:17:13.754+02:00,693,1.485188,0.8367646,1.650349,555.2257,0,0,2022-06-02T11:03:15.854+02:00,675853395.8537338,0,6.851562,101.3005,1,0.76
2022-06-02T11:03:16.788+02:00,1654160593.964612,53.22888156262182,10.39816453433297,36.08895,0,1.918238,-1,-1,1114.33447265625,23.99873956503252,-9999,3688.452889,0.5662994384765625,1.342514038085938,1.309234619140625,3688.442894,0.6310383083562828,1.462416674234132,-0.6903952811790075,-3.262609004974365,-5.737810611724854,-0.1338936239480972,-0.140783965587616,0.5905291438102722,1.490424633026123,XArbitraryZVertical,-0.4344389091321125,0.519196045424024,0.002551595568015689,0.7359970927258319,0.7664706110954285,0.6368420124053955,-0.08339659869670868,0,0,0,-1,-1,3684.961830375,unknown,2,2022-06-02T11:03:13.296+02:00,2022-06-02T10:17:13.754+02:00,693,1.485188,0.8367646,1.650349,555.2257,0,0,2022-06-02T11:03:15.854+02:00,675853395.8537338,0,6.851562,101.3005,1,0.76
2022-06-02T11:03:16.797+02:00,1654160593.964612,53.22888156262182,10.39816453433297,36.08895,0,1.918238,-1,-1,1114.33447265625,23.99873956503252,-9999,3688.462884,0.4673309326171875,1.390335083007812,1.221450805664062,3688.452889,0.6723425618081466,1.427321128779199,-0.695682103835601,-3.173015356063843,-6.582997798919678,-0.11204744130373,-0.1380100846290588,0.6601771712303162,1.513031005859375,XArbitraryZVertical,-0.4462685159635172,0.495949764456371,0.02379638149085633,0.7445212677032419,0.7597294449806213,0.6409091949462891,-0.1097564846277237,0,0,0,-1,-1,3684.961830375,unknown,2,2022-06-02T11:03:13.296+02:00,2022-06-02T10:17:13.754+02:00,693,1.485188,0.8367646,1.650349,555.2257,0,0,2022-06-02T11:03:15.854+02:00,675853395.8537338,0,6.851562,101.3005,1,0.76
2022-06-02T11:03:16.808+02:00,1654160593.964612,53.22888156262182,10.39816453433297,36.08895,0,1.918238,-1,-1,1114.33447265625,23.99873956503252,-9999,3688.472878,0.333404541015625,1.466781616210938,1.25732421875,3688.462884,0.7116105379134793,1.382404015847254,-0.7012423188669747,-2.906275987625122,-7.462493419647217,0.01060384232550859,-0.1842233538627625,0.6973466277122498,1.452324032783508,XArbitraryZVertical,-0.4566172279839341,0.4689945822572553,0.04682129157816493,0.7545545696507692,0.7505228519439697,0.645167350769043,-0.1430895775556564,0,0,0,-1,-1,3684.961830375,unknown,2,2022-06-02T11:03:13.296+02:00,2022-06-02T10:17:13.754+02:00,693,1.485188,0.8367646,1.650349,555.2257,0,0,2022-06-02T11:03:15.854+02:00,675853395.8537338,0,6.851562,101.3005,1,0.76
2022-06-02T11:03:16.818+02:00,1654160593.964612,53.22888156262182,10.39816453433297,36.08895,0,1.918238,-1,-1,1114.33447265625,23.99873956503252,-9999,3688.482873375,0.1479949951171875,1.4515380859375,1.180694580078125,3688.472878,0.7470541198025979,1.326678227726024,-0.7061399470353426,-2.605119705200195,-8.276616096496582,0.192401334643364,-0.2709822654724121,0.7414333820343018,1.405354022979736,XArbitraryZVertical,-0.4644961596628323,0.4385107050750002,0.07155197449445097,0.7660496259125071,0.7383131384849548,0.6489015817642212,-0.1839033514261246,0,0,0,-1,-1,3684.961830375,unknown,2,2022-06-02T11:03:13.296+02:00,2022-06-02T10:17:13.754+02:00,693,1.485188,0.8367646,1.650349,555.2257,0,0,2022-06-02T11:03:15.854+02:00,675853395.8537338,0,6.851562,101.3005,1,0.76
2022-06-02T11:03:16.828+02:00,1654160593.964612,53.22888156262182,10.39816453433297,36.08895,0,1.918238,-1,-1,1114.33447265625,23.99873956503252,-9999,3688.492868375,-0.157440185546875,1.363555908203125,0.9278717041015625,3688.482873375,0.7801643897001121,1.261229467047045,-0.7100331567718798,-2.453932762145996,-9.149991035461426,0.4208426475524902,-0.3888884782791138,0.814922571182251,1.488349556922913,XArbitraryZVertical,-0.4698961939697148,0.4045798746803653,0.09840858003369489,0.7783497577095803,0.7222929000854492,0.651858925819397,-0.2310253828763962,0,0,0,-1,-1,3684.961830375,unknown,2,2022-06-02T11:03:13.296+02:00,2022-06-02T10:17:13.754+02:00,693,1.485188,0.8367646,1.650349,555.2257,0,0,2022-06-02T11:03:15.854+02:00,675853395.8537338,0,6.851562,101.3005,1,0.76
2022-06-02T11:03:16.837+02:00,1654160593.964612,53.22888156262182,10.39816453433297,36.08895,0,1.918238,-1,-1,1114.33447265625,23.99873956503252,-9999,3688.502862375,-0.875579833984375,0.750030517578125,1.6566162109375,3688.492868375,0.8119191869646762,1.186374880335892,-0.7130754939395751,-2.257149934768677,-9.952948570251465,0.6409366726875305,-0.5531564950942993,0.797374963760376,1.464344382286072,XArbitraryZVertical,-0.4727518405305607,0.3669887854706773,0.1275914403762036,0.79091418935967,0.701151430606842,0.6541630029678345,-0.2836498618125916,0,0,0,-1,-1,3684.961830375,unknown,2,2022-06-02T11:03:13.296+02:00,2022-06-02T10:17:13.754+02:00,693,1.485188,0.8367646,1.650349,555.2257,0,0,2022-06-02T11:03:15.854+02:00,675853395.8537338,0,6.851562,101.3005,1,0.76
2022-06-02T11:03:16.848+02:00,1654160593.964612,53.22888156262182,10.39816453433297,36.08895,0,1.918238,-1,-1,1114.33447265625,23.99873956503252,-9999,3688.512857375,-5.335800170898438,3.035369873046875,-19.88705444335938,3688.502862375,0.8242371953534305,1.114485532091416,-0.7171939776538875,2.557868957519531,-1.257791996002197,-2.303300619125366,-0.8339825868606567,0.7062833309173584,1.259960770606995,XArbitraryZVertical,-0.4712835315645842,0.3344357276947967,0.1482650823398994,0.8025347013970048,0.676542341709137,0.6572725176811218,-0.3320891559123993,0,0,0,-1,-1,3684.961830375,unknown,2,2022-06-02T11:03:13.296+02:00,2022-06-02T10:17:13.754+02:00,693,1.485188,0.8367646,1.650349,555.2257,0,0,2022-06-02T11:03:15.854+02:00,675853395.8537338,0,6.851562,101.3005,1,0.76
2022-06-02T11:03:16.858+02:00,1654160593.964612,53.22888156262182,10.39816453433297,36.08895,0,1.918238,-1,-1,1114.33447265625,23.99873956503252,-9999,3688.522851375,-3.787887573242188,0.6899261474609375,-8.023193359375,3688.512857375,0.8022576862740495,1.087392951013909,-0.7148987579019992,-0.737663745880127,5.145896911621094,-0.2649568915367126,-1.544211983680725,0.09448957443237305,2.00761079788208,XArbitraryZVertical,-0.4648824231514769,0.3292218160545633,0.14640393346899,0.8087418090839398,0.6686321496963501,0.655540943145752,-0.3509946465492249,0,0,0,-1,-1,3684.961830375,unknown,2,2022-06-02T11:03:13.296+02:00,2022-06-02T10:17:13.754+02:00,693,1.485188,0.8367646,1.650349,555.2257,0,0,2022-06-02T11:03:15.854+02:00,675853395.8537338,0,6.851562,101.3005,1,0.76
2022-06-02T11:03:16.868+02:00,1654160593.964612,53.22888156262182,10.39816453433297,36.08895,0,1.918238,-1,-1,1114.33447265625,23.99873956503252,-9999,3688.532846375,-2.391754150390625,0.899139404296875,-0.278167724609375,3688.522851375,0.7795834970593685,1.107193853934451,-0.7055375207044166,1.799580216407776,2.44526219367981,0.4542469382286072,-6.016709804534912,2.386926651000977,-19.54663848876953,XArbitraryZVertical,-0.459328332590181,0.3446872258906722,0.1353141965779528,0.8074020426494176,0.6809096336364746,0.6484431028366089,-0.3404164016246796,0,0,0,-1,-1,3684.961830375,unknown,2,2022-06-02T11:03:13.296+02:00,2022-06-02T10:17:13.754+02:00,693,1.485188,0.8367646,1.650349,555.2257,0,0,2022-06-02T11:03:15.854+02:00,675853395.8537338,0,6.851562,101.3005,1,0.76
2022-06-02T11:03:16.878+02:00,1654160593.964612,53.22888156262182,10.39816453433297,36.08895,0,1.918238,-1,-1,1114.33447265625,23.99873956503252,-9999,3688.542841375,-0.580718994140625,-0.01458740234375,4.826324462890625,3688.532846375,0.7883716105508346,1.138056798738219,-0.6961252428401624,-2.056033134460449,2.973130702972412,1.484440445899963,-4.484487533569336,0.04867672920227051,-7.70140552520752,XArbitraryZVertical,-0.459822568770247,0.3573082281746805,0.1344546763977198,0.8017579554844358,0.6966000199317932,0.6412492990493774,-0.3217880725860596,0,0,0,-1,-1,3684.961830375,unknown,2,2022-06-02T11:03:13.296+02:00,2022-06-02T10:17:13.754+02:00,693,1.485188,0.8367646,1.650349,555.2257,0,0,2022-06-02T11:03:15.854+02:00,675853395.8537338,0,6.851562,101.3005,1,0.76
2022-06-02T11:03:16.888+02:00,1654160593.964612,53.22888156262182,10.39816453433297,36.08895,0,1.918238,-1,-1,1114.33447265625,23.99873956503252,-9999,3688.552835375,1.900894165039062,-0.9399566650390625,2.878387451171875,3688.542841375,0.8441494717779295,1.215214488621365,-0.6997255198359427,-5.968546867370605,5.523744106292725,0.4183428585529327,-3.108916521072388,0.2551315426826477,-0.01183733344078064,XArbitraryZVertical,-0.4764271292279544,0.3739678413717966,0.1374425777129135,0.783756729359376,0.7171623706817627,0.6440077424049377,-0.2663304805755615,0,0,0,-1,-1,3684.961830375,unknown,2,2022-06-02T11:03:13.296+02:00,2022-06-02T10:17:13.754+02:00,693,1.485188,0.8367646,1.650349,555.2257,0,0,2022-06-02T11:03:15.854+02:00,675853395.8537338,0,6.851562,101.3005,1,0.76
2022-06-02T11:03:16.898+02:00,1654160593.964612,53.22888156262182,10.39816453433297,36.08895,0,1.918238,-1,-1,1114.33447265625,23.99873956503252,-9999,3688.562830375,3.8529052734375,-0.2413330078125,0.3782196044921875,3688.552835375,0.9319355770040851,1.312121303490901,-0.722334214938929,-7.524972915649414,1.541495561599731,-0.4987299740314484,-1.306021928787231,-0.6757252812385559,5.018241882324219,XArbitraryZVertical,-0.5065396955690606,0.3840036095196374,0.1404750275750052,0.7590950839528617,0.7253028750419617,0.6611377596855164,-0.1919175237417221,0,0,0,-1,-1,3684.961830375,unknown,2,2022-06-02T11:03:13.296+02:00,2022-06-02T10:17:13.754+02:00,693,1.485188,0.8367646,1.650349,555.2257,0,0,2022-06-02T11:03:15.854+02:00,675853395.8537338,0,6.851562,101.3005,1,0.76
2022-06-02T11:03:16.908+02:00,1654160593.964612,53.22888156262182,10.39816453433297,36.08895,0,1.918238,-1,-1,1114.33447265625,23.99873956503252,-9999,3688.572825375,2.1295166015625,1.562973022460938,-1.256576538085938,3688.562830375,1.019218956264789,1.352831087655503,-0.7384506231983003,-5.710845947265625,-4.284613132476807,-0.07062463462352753,1.178879022598267,-1.613099694252014,3.038301944732666,XArbitraryZVertical,-0.5304776882839677,0.3723386584419488,0.1575741504124729,0.7450688781952308,0.7220150232315063,0.6731429100036621,-0.1599146872758865,0,0,0,-1,-1,3684.961830375,unknown,2,2022-06-02T11:03:13.296+02:00,2022-06-02T10:17:13.754+02:00,693,1.485188,0.8367646,1.650349,555.2257,0,0,2022-06-02T11:03:15.854+02:00,675853395.8537338,0,6.851562,101.3005,1,0.76
2022-06-02T11:03:16.918+02:00,1654160593.964612,53.22888156262182,10.39816453433297,36.08895,0,1.918238,-1,-1,1114.33447265625,23.99873956503252,-9999,3688.582819375,0.53021240234375,2.25048828125,-0.868072509765625,3688.572825375,1.069905694594253,1.341487773193069,-0.7523395520607643,-1.73379123210907,-4.238253593444824,-1.029207825660706,3.141924142837524,-0.9246818423271179,0.5441725254058838,XArbitraryZVertical,-0.5422908619236306,0.3506338607206996,0.1749941705151564,0.7432049265506575,0.7109811305999756,0.6833487153053284,-0.1659530401229858,0,0,0,-1,-1,3684.961830375,unknown,2,2022-06-02T11:03:13.296+02:00,2022-06-02T10:17:13.754+02:00,693,1.485188,0.8367646,1.650349,555.2257,0,0,2022-06-02T11:03:15.854+02:00,675853395.8537338,0,6.851562,101.3005,1,0.76
2022-06-02T11:03:16.928+02:00,1654160593.964612,53.22888156262182,10.39816453433297,36.08895,0,1.918238,-1,-1,1114.33447265625,23.99873956503252,-9999,3688.592814375,0.11083984375,2.055908203125,0.24688720703125,3688.582819375,1.053413420785433,1.29541978157169,-0.7582297454846643,3.604439973831177,-2.773256540298462,-0.7082730531692505,1.430817842483521,0.8753356337547302,-1.059155702590942,XArbitraryZVertical,-0.5369067528706487,0.3361854861364117,0.1793746663207368,0.7526852070332058,0.6986986398696899,0.6876372098922729,-0.1974209100008011,0,0,0,-1,-1,3684.961830375,unknown,2,2022-06-02T11:03:13.296+02:00,2022-06-02T10:17:13.754+02:00,693,1.485188,0.8367646,1.650349,555.2257,0,0,2022-06-02T11:03:15.854+02:00,675853395.8537338,0,6.851562,101.3005,1,0.76
2022-06-02T11:03:16.938+02:00,1654160593.964612,53.22888156262182,10.39816453433297,36.08895,0,1.918238,-1,-1,1114.33447265625,23.99873956503252,-9999,3688.602809375,0.1283721923828125,1.125228881835938,0.2538909912109375,3688.592814375,0.9824809831118205,1.221130963312264,-0.7457537206482537,6.679382801055908,-2.432591199874878,-0.2776684463024139,-0.159913182258606,1.571962594985962,-0.6164187788963318,XArbitraryZVertical,-0.5150482786805413,0.3299975289692539,0.1757691478097256,0.7713184089124262,0.6901255249977112,0.6785256862640381,-0.251653790473938,0,0,0,-1,-1,3684.961830375,unknown,2,2022-06-02T11:03:13.296+02:00,2022-06-02T10:17:13.754+02:00,693,1.485188,0.8367646,1.650349,555.2257,0,0,2022-06-02T11:03:15.854+02:00,675853395.8537338,0,6.851562,101.3005,1,0.76
2022-06-02T11:03:16.948+02:00,1654160593.964612,53.22888156262182,10.39816453433297,36.08895,0,1.918238,-1,-1,1114.33447265625,23.99873956503252,-9999,3688.612803375,0.401458740234375,0.1642913818359375,-0.14044189453125,3688.602809375,0.8922146276090593,1.136912089393746,-0.7210113428949294,7.38062858581543,-2.220345497131348,-0.3705182671546936,-0.5706979632377625,1.395763516426086,0.5626643896102905,XArbitraryZVertical,-0.4855154859038408,0.326168733538543,0.1689195557855878,0.7933189007732943,0.6815377473831177,0.6601446866989136,-0.3157773315906525,0,0,0,-1,-1,3684.961830375,unknown,2,2022-06-02T11:03:13.296+02:00,2022-06-02T10:17:13.754+02:00,693,1.485188,0.8367646,1.650349,555.2257,0,0,2022-06-02T11:03:15.854+02:00,675853395.8537338,0,6.851562,101.3005,1,0.76
