loggingTime(txt),locationTimestamp_since1970(s),locationLatitude(WGS84),locationLongitude(WGS84),locationAltitude(m),locationSpeed(m/s),locationSpeedAccuracy(m/s),locationCourse(°),locationCourseAccuracy(°),locationVerticalAccuracy(m),locationHorizontalAccuracy(m),locationFloor(Z),accelerometerTimestamp_sinceReboot(s),accelerometerAccelerationX(G),accelerometerAccelerationY(G),accelerometerAccelerationZ(G),motionTimestamp_sinceReboot(s),motionYaw(rad),motionRoll(rad),motionPitch(rad),motionRotationRateX(rad/s),motionRotationRateY(rad/s),motionRotationRateZ(rad/s),motionUserAccelerationX(G),motionUserAccelerationY(G),motionUserAccelerationZ(G),motionAttitudeReferenceFrame(txt),motionQuaternionX(R),motionQuaternionY(R),motionQuaternionZ(R),motionQuaternionW(R),motionGravityX(G),motionGravityY(G),motionGravityZ(G),motionMagneticFieldX(µT),motionMagneticFieldY(µT),motionMagneticFieldZ(µT),motionHeading(°),motionMagneticFieldCalibrationAccuracy(Z),activityTimestamp_sinceReboot(s),activity(txt),activityActivityConfidence(Z),activityActivityStartDate(txt),pedometerStartDate(txt),pedometerNumberofSteps(N),pedometerAverageActivePace(s/m),pedometerCurrentPace(s/m),pedometerCurrentCadence(steps/s),pedometerDistance(m),pedometerFloorAscended(N),pedometerFloorDescended(N),pedometerEndDate(txt),altimeterTimestamp_sinceReboot(s),altimeterReset(bool),altimeterRelativeAltitude(m),altimeterPressure(kPa),batteryState(N),batteryLevel(R)
2022-06-02T11:09:55.861+02:00,1654160995.000225,53.22909707411418,10.39854666461711,36.82573,0.1495163,0.7912842,24.8562485501393,26.75566638797535,2.400000095367432,7.999579855010836,-9999,4079.946646125,-0.23638916015625,-0.12677001953125,-0.8577423095703125,4079.946646125,1.143796946759703,-0.2363398586508317,0.1267916809517419,0.2555561065673828,-0.1808236390352249,-1.276858687400818,0.008969128131866455,0.0147121250629425,0.0978812575340271,XArbitraryZVertical,0.1165808806973385,-0.0648863023044509,0.530094706741809,0.8373757497792678,-0.2322662472724915,-0.12645223736763,-0.9643973112106323,0,0,0,-1,-1,4078.998648291667,unknown,2,2022-06-02T11:09:54.861+02:00,2022-06-02T10:17:13.754+02:00,757,1.604419,0,0,607.4087,0,0,2022-06-02T11:09:54.861+02:00,675853794.8608283,0,5.621094,101.3138,1,0.73
2022-06-02T11:09:55.875+02:00,1654160995.000225,53.22909707411418,10.39854666461711,36.82573,0.1495163,0.7912842,24.8562485501393,26.75566638797535,2.400000095367432,7.999579855010836,-9999,4079.956640125,-0.22772216796875,-0.1867523193359375,-0.823822021484375,4079.946646125,1.143796946759703,-0.2363398586508317,0.1267916809517419,0.2555561065673828,-0.1808236390352249,-1.276858687400818,0.008969128131866455,0.0147121250629425,0.0978812575340271,XArbitraryZVertical,0.1165808806973385,-0.0648863023044509,0.530094706741809,0.8373757497792678,-0.2322662472724915,-0.12645223736763,-0.9643973112106323,0,0,0,-1,-1,4078.998648291667,unknown,2,2022-06-02T11:09:54.861+02:00,2022-06-02T10:17:13.754+02:00,757,1.604419,0,0,607.4087,0,0,2022-06-02T11:09:54.861+02:00,675853794.8608283,0,5.621094,101.3138,1,0.73
2022-06-02T11:09:55.877+02:00,1654160995.000225,53.22909707411418,10.39854666461711,36.82573,0.1495163,0.7912842,24.8562485501393,26.75566638797535,2.400000095367432,7.999579855010836,-9999,4079.966634125,-0.256683349609375,-0.3157958984375,-0.7777557373046875,4079.956640125,1.131599316341155,-0.236693263635179,0.1313393233241537,0.04164967685937881,-0.2116377502679825,-1.302042007446289,0.001833200454711914,-0.02067981660366058,0.1224833726882935,XArbitraryZVertical,0.1181685506287756,-0.06452208410830709,0.5246531305907616,0.8406021471384921,-0.2324698120355606,-0.1309620440006256,-0.963746190071106,0,0,0,-1,-1,4078.998648291667,unknown,2,2022-06-02T11:09:54.861+02:00,2022-06-02T10:17:13.754+02:00,757,1.604419,0,0,607.4087,0,0,2022-06-02T11:09:54.861+02:00,675853794.8608283,0,5.621094,101.3138,1,0.73
2022-06-02T11:09:55.879+02:00,1654160995.000225,53.22909707411418,10.39854666461711,36.82573,0.1495163,0.7912842,24.8562485501393,26.75566638797535,2.400000095367432,7.999579855010836,-9999,4079.976628125,-0.2587738037109375,-0.131561279296875,-0.8409881591796875,4079.966634125,1.11737849081672,-0.2365762013188359,0.1323406059006684,-0.3368757963180542,-0.1911455243825912,-1.337016582489014,-0.04394951462745667,-0.1772647500038147,0.191535472869873,XArbitraryZVertical,0.1180949853988184,-0.06504500841299875,0.5186024074957499,0.8443188178886002,-0.2323261350393295,-0.1319546401500702,-0.9636454582214355,0,0,0,-1,-1,4078.998648291667,unknown,2,2022-06-02T11:09:54.861+02:00,2022-06-02T10:17:13.754+02:00,757,1.604419,0,0,607.4087,0,0,2022-06-02T11:09:54.861+02:00,675853794.8608283,0,5.621094,101.3138,1,0.73
2022-06-02T11:09:55.882+02:00,1654160995.000225,53.22909707411418,10.39854666461711,36.82573,0.1495163,0.7912842,24.8562485501393,26.75566638797535,2.400000095367432,7.999579855010836,-9999,4079.986622125,-0.3303375244140625,-0.0967864990234375,-0.8552398681640625,4079.976628125,1.1041892045788,-0.2363017830439896,0.1322422098997695,-0.3552131652832031,-0.1014098450541496,-1.202176094055176,0.001824855804443359,-0.09203511476516724,0.1377940773963928,XArbitraryZVertical,0.1175517925659168,-0.06573195627185566,0.5130459707262705,0.8477290352580421,-0.2320647239685059,-0.1318571120500565,-0.963721752166748,0,0,0,-1,-1,4078.998648291667,unknown,2,2022-06-02T11:09:54.861+02:00,2022-06-02T10:17:13.754+02:00,757,1.604419,0,0,607.4087,0,0,2022-06-02T11:09:54.861+02:00,675853794.8608283,0,5.621094,101.3138,1,0.73
2022-06-02T11:09:55.885+02:00,1654160995.000225,53.22909707411418,10.39854666461711,36.82573,0.1495163,0.7912842,24.8562485501393,26.75566638797535,2.400000095367432,7.999579855010836,-9999,4079.996616125,-0.384429931640625,-0.1132965087890625,-0.8579559326171875,4079.986622125,1.092701570939153,-0.2352844975414696,0.1317070103618867,-0.2652603685855865,0.04006152972579002,-0.9968814849853516,-0.06714767217636108,0.05361354351043701,0.1252959966659546,XArbitraryZVertical,0.1166882977134482,-0.06611292293245126,0.5082637247787977,0.8506943891415802,-0.2311006486415863,-0.1313265562057495,-0.9640258550643921,0,0,0,-1,-1,4078.998648291667,unknown,2,2022-06-02T11:09:54.861+02:00,2022-06-02T10:17:13.754+02:00,757,1.604419,0,0,607.4087,0,0,2022-06-02T11:09:54.861+02:00,675853794.8608283,0,5.621094,101.3138,1,0.73
2022-06-02T11:09:55.888+02:00,1654160995.000225,53.22909707411418,10.39854666461711,36.82573,0.1495163,0.7912842,24.8562485501393,26.75566638797535,2.400000095367432,7.999579855010836,-9999,4080.006610125,-0.17376708984375,-0.0718536376953125,-0.8480987548828125,4079.996616125,1.082481503451659,-0.2329006720551154,0.1318833341889735,-0.2830027043819427,0.2551033198833466,-1.093868017196655,-0.13894023001194,0.006928607821464539,0.09744030237197876,XArbitraryZVertical,0.1158227909259387,-0.06564565830915851,0.5040366380910414,0.8533596293375927,-0.2287965714931488,-0.1315013468265533,-0.9645514488220215,0,0,0,-1,-1,4078.998648291667,unknown,2,2022-06-02T11:09:54.861+02:00,2022-06-02T10:17:13.754+02:00,757,1.604419,0,0,607.4087,0,0,2022-06-02T11:09:54.861+02:00,675853794.8608283,0,5.621094,101.3138,1,0.73
2022-06-02T11:09:55.890+02:00,1654160995.000225,53.22909707411418,10.39854666461711,36.82573,0.1495163,0.7912842,24.8562485501393,26.75566638797535,2.400000095367432,7.999579855010836,-9999,4080.016604125,-0.2478790283203125,-0.0539398193359375,-0.8798675537109375,4080.006610125,1.071323671264353,-0.2301123441204377,0.1318200846827535,-0.2321978509426117,0.02081067301332951,-1.074673295021057,-0.05627104640007019,0.04251042008399963,0.1147299408912659,XArbitraryZVertical,0.1147317576039797,-0.0651133139662171,0.4994326548248305,0.8562497783456049,-0.2261080890893936,-0.1314386576414108,-0.9651937484741211,0,0,0,-1,-1,4078.998648291667,unknown,2,2022-06-02T11:09:54.861+02:00,2022-06-02T10:17:13.754+02:00,757,1.604419,0,0,607.4087,0,0,2022-06-02T11:09:54.861+02:00,675853794.8608283,0,5.621094,101.3138,1,0.73
2022-06-02T11:09:55.892+02:00,1654160995.000225,53.22909707411418,10.39854666461711,36.82573,0.1495163,0.7912842,24.8562485501393,26.75566638797535,2.400000095367432,7.999579855010836,-9999,4080.026598125,-0.2888946533203125,-0.0737762451171875,-0.9011077880859375,4080.016604125,1.059864030002614,-0.2283046954491055,0.1322127133614941,-0.2038373798131943,0.06288634985685349,-1.132772088050842,0.04080331325531006,0.07161666452884674,0.1032611727714539,XArbitraryZVertical,0.1140769522522423,-0.06489349108644588,0.4945957194977204,0.8591566819094995,-0.2243513017892838,-0.1318278610706329,-0.9655505418777466,0,0,0,-1,-1,4078.998648291667,unknown,2,2022-06-02T11:09:54.861+02:00,2022-06-02T10:17:13.754+02:00,757,1.604419,0,0,607.4087,0,0,2022-06-02T11:09:54.861+02:00,675853794.8608283,0,5.621094,101.3138,1,0.73
2022-06-02T11:09:55.903+02:00,1654160995.000225,53.22909707411418,10.39854666461711,36.82573,0.1495163,0.7912842,24.8562485501393,26.75566638797535,2.400000095367432,7.999579855010836,-9999,4080.036592125,-0.341339111328125,-0.1356964111328125,-0.933349609375,4080.026598125,1.048423439311778,-0.2258173977370187,0.1327818741359138,-0.2094310820102692,0.1327405422925949,-1.120505928993225,-0.06116417050361633,0.07317265868186951,0.07310324907302856,XArbitraryZVertical,0.1133380133692924,-0.06432987616039751,0.4897769945048265,0.862052451940084,-0.2219321578741074,-0.1323920339345932,-0.9660323262214661,0,0,0,-1,-1,4078.998648291667,unknown,2,2022-06-02T11:09:54.861+02:00,2022-06-02T10:17:13.754+02:00,757,1.604419,0,0,607.4087,0,0,2022-06-02T11:09:54.861+02:00,675853794.8608283,0,5.621094,101.3138,1,0.73
2022-06-02T11:09:55.910+02:00,1654160995.000225,53.22909707411418,10.39854666461711,36.82573,0.1495163,0.7912842,24.8562485501393,26.75566638797535,2.400000095367432,7.999579855010836,-9999,4080.046586125,-0.1934356689453125,-0.164031982421875,-0.92138671875,4080.036592125,1.03651415502012,-0.2220271119505905,0.1326223247579466,-0.3135675191879272,0.337499737739563,-1.121528744697571,-0.101382702589035,0.0394604355096817,0.06368893384933472,XArbitraryZVertical,0.1119658357971529,-0.06340399425594305,0.4848585518232245,0.8650756166506092,-0.2182736843824387,-0.1322338879108429,-0.9668871760368347,0,0,0,-1,-1,4078.998648291667,unknown,2,2022-06-02T11:09:54.861+02:00,2022-06-02T10:17:13.754+02:00,757,1.604419,0,0,607.4087,0,0,2022-06-02T11:09:54.861+02:00,675853794.8608283,0,5.621094,101.3138,1,0.73
2022-06-02T11:09:55.920+02:00,1654160995.000225,53.22909707411418,10.39854666461711,36.82573,0.1495163,0.7912842,24.8562485501393,26.75566638797535,2.400000095367432,7.999579855010836,-9999,4080.056580125,-0.2581329345703125,-0.101898193359375,-0.9467315673828125,4080.046586125,1.024519369891889,-0.2180473339169525,0.1318016781423112,-0.3844731152057648,0.174426406621933,-1.196621417999268,-0.04858364164829254,-0.05125784873962402,0.0294840931892395,XArbitraryZVertical,0.1102755666834039,-0.06254912604500228,0.4799347954182409,0.8680953380112912,-0.2144473791122437,-0.1314204037189484,-0.9678537845611572,0,0,0,-1,-1,4078.998648291667,unknown,2,2022-06-02T11:09:54.861+02:00,2022-06-02T10:17:13.754+02:00,757,1.604419,0,0,607.4087,0,0,2022-06-02T11:09:54.861+02:00,675853794.8608283,0,5.621094,101.3138,1,0.73
2022-06-02T11:09:55.930+02:00,1654160995.000225,53.22909707411418,10.39854666461711,36.82573,0.1495163,0.7912842,24.8562485501393,26.75566638797535,2.400000095367432,7.999579855010836,-9999,4080.066574125,-0.305816650390625,-0.0859527587890625,-0.937103271484375,4080.056580125,1.011664242867045,-0.2145782103288365,0.1308110864512903,-0.3500717878341675,0.1946665495634079,-1.229531526565552,-0.003040999174118042,0.005835041403770447,0.04032814502716064,XArbitraryZVertical,0.1086201540008706,-0.06198658915032227,0.4745970147939963,0.871273127834911,-0.2111161053180695,-0.1304383426904678,-0.9687186479568481,0,0,0,-1,-1,4078.998648291667,unknown,2,2022-06-02T11:09:54.861+02:00,2022-06-02T10:17:13.754+02:00,757,1.604419,0,0,607.4087,0,0,2022-06-02T11:09:54.861+02:00,675853794.8608283,0,5.621094,101.3138,1,0.73
2022-06-02T11:09:55.940+02:00,1654160995.000225,53.22909707411418,10.39854666461711,36.82573,0.1495163,0.7912842,24.8562485501393,26.75566638797535,2.400000095367432,7.999579855010836,-9999,4080.076568125,-0.2753143310546875,-0.076904296875,-0.9201507568359375,4080.066574125,0.9989582177404751,-0.2104909842166098,0.1300836683907723,-0.3232337832450867,0.3017171025276184,-1.215712308883667,-0.08985283970832825,0.03975126147270203,0.0203251838684082,XArbitraryZVertical,0.1069497363226637,-0.06106365681152234,0.4693172156579353,0.8743993289283474,-0.2071747481822968,-0.1297171115875244,-0.9696659445762634,0,0,0,-1,-1,4078.998648291667,unknown,2,2022-06-02T11:09:54.861+02:00,2022-06-02T10:17:13.754+02:00,757,1.604419,0,0,607.4087,0,0,2022-06-02T11:09:54.861+02:00,675853794.8608283,0,5.621094,101.3138,1,0.73
2022-06-02T11:09:55.950+02:00,1654160995.000225,53.22909707411418,10.39854666461711,36.82573,0.1495163,0.7912842,24.8562485501393,26.75566638797535,2.400000095367432,7.999579855010836,-9999,4080.086562125,-0.24896240234375,-0.0746612548828125,-0.9120941162109375,4080.076568125,0.9862206098055886,-0.2055284511431492,0.129570209447179,-0.3028037250041962,0.3578701913356781,-1.243381142616272,-0.09465381503105164,0.04325518012046814,0.04118180274963379,XArbitraryZVertical,0.1051840123137059,-0.05968851399909158,0.4640328209859896,0.877523217300872,-0.2023737877607346,-0.129207968711853,-0.9707472324371338,0,0,0,-1,-1,4078.998648291667,unknown,2,2022-06-02T11:09:54.861+02:00,2022-06-02T10:17:13.754+02:00,757,1.604419,0,0,607.4087,0,0,2022-06-02T11:09:54.861+02:00,675853794.8608283,0,5.621094,101.3138,1,0.73
2022-06-02T11:09:55.959+02:00,1654160995.000225,53.22909707411418,10.39854666461711,36.82573,0.1495163,0.7912842,24.8562485501393,26.75566638797535,2.400000095367432,7.999579855010836,-9999,4080.096556125,-0.2410125732421875,-0.0908050537109375,-0.9236907958984375,4080.086562125,0.9732114719214549,-0.2001450997696846,0.1291690537241552,-0.2939601540565491,0.3913730382919312,-1.271785140037537,-0.06160326302051544,0.05858919024467468,0.05736833810806274,XArbitraryZVertical,0.1033840858699352,-0.0580954026586222,0.4586192397247342,0.8806843943273819,-0.1971552968025208,-0.1288101673126221,-0.9718732833862305,0,0,0,-1,-1,4078.998648291667,unknown,2,2022-06-02T11:09:54.861+02:00,2022-06-02T10:17:13.754+02:00,757,1.604419,0,0,607.4087,0,0,2022-06-02T11:09:54.861+02:00,675853794.8608283,0,5.621094,101.3138,1,0.73
2022-06-02T11:09:55.970+02:00,1654160995.000225,53.22909707411418,10.39854666461711,36.82573,0.1495163,0.7912842,24.8562485501393,26.75566638797535,2.400000095367432,7.999579855010836,-9999,4080.106550125,-0.2298431396484375,-0.096038818359375,-0.946258544921875,4080.096556125,0.9602399236967432,-0.1945187845836006,0.1289190985103224,-0.2610512673854828,0.4107561707496643,-1.238911628723145,-0.05443392693996429,0.04549340903759003,0.05687630176544189,XArbitraryZVertical,0.1016209027691663,-0.05633668122728867,0.4532001263951339,0.8838037430413574,-0.1916903555393219,-0.1285622864961624,-0.9729987382888794,0,0,0,-1,-1,4078.998648291667,unknown,2,2022-06-02T11:09:54.861+02:00,2022-06-02T10:17:13.754+02:00,757,1.604419,0,0,607.4087,0,0,2022-06-02T11:09:54.861+02:00,675853794.8608283,0,5.621094,101.3138,1,0.73
2022-06-02T11:09:55.980+02:00,1654160995.000225,53.22909707411418,10.39854666461711,36.82573,0.1495163,0.7912842,24.8562485501393,26.75566638797535,2.400000095367432,7.999579855010836,-9999,4080.116545125,-0.21209716796875,-0.0815582275390625,-0.9631195068359375,4080.106550125,0.9476181383648392,-0.1886507987182548,0.1287813752729803,-0.2438094317913055,0.4424382150173187,-1.218042254447937,-0.05162899196147919,0.03263102471828461,0.0390351414680481,XArbitraryZVertical,0.09988895013629374,-0.05440680206998892,0.4479165316130698,0.8868103866210691,-0.1859808564186096,-0.1284257024526596,-0.9741241931915283,0,0,0,-1,-1,4078.998648291667,unknown,2,2022-06-02T11:09:54.861+02:00,2022-06-02T10:17:13.754+02:00,757,1.604419,0,0,607.4087,0,0,2022-06-02T11:09:54.861+02:00,675853794.8608283,0,5.621094,101.3138,1,0.73
2022-06-02T11:09:55.989+02:00,1654160995.000225,53.22909707411418,10.39854666461711,36.82573,0.1495163,0.7912842,24.8562485501393,26.75566638797535,2.400000095367432,7.999579855010836,-9999,4080.126539125,-0.2051849365234375,-0.070281982421875,-0.9777984619140625,4080.116545125,0.9351634307074829,-0.1827266671313499,0.1285193043941135,-0.265102744102478,0.4331115484237671,-1.201627731323242,-0.04065808653831482,0.03751331567764282,0.01952296495437622,XArbitraryZVertical,0.09812149041983485,-0.05245192843191721,0.4426927399714924,0.8897438002111616,-0.1802129000425339,-0.1281657963991165,-0.9752419590950012,0,0,0,-1,-1,4078.998648291667,unknown,2,2022-06-02T11:09:54.861+02:00,2022-06-02T10:17:13.754+02:00,757,1.604419,0,0,607.4087,0,0,2022-06-02T11:09:54.861+02:00,675853794.8608283,0,5.621094,101.3138,1,0.73
2022-06-02T11:09:56.000+02:00,1654160995.000225,53.22909707411418,10.39854666461711,36.82573,0.1495163,0.7912842,24.8562485501393,26.75566638797535,2.400000095367432,7.999579855010836,-9999,4080.136533125,-0.19647216796875,-0.0716400146484375,-0.99639892578125,4080.126539125,0.9228751206592863,-0.1768471732164651,0.1278808081532804,-0.2980447113513947,0.4387209415435791,-1.176812410354614,-0.03382273018360138,0.05308490991592407,0.005249917507171631,XArbitraryZVertical,0.09622828907539854,-0.05057292496244622,0.4375375749278205,0.8926047358885685,-0.1744902431964874,-0.1275325417518616,-0.9763649702072144,0,0,0,-1,-1,4078.998648291667,unknown,2,2022-06-02T11:09:54.861+02:00,2022-06-02T10:17:13.754+02:00,757,1.604419,0,0,607.4087,0,0,2022-06-02T11:09:54.861+02:00,675853794.8608283,0,5.621094,101.3138,1,0.73
2022-06-02T11:09:56.010+02:00,1654160995.000225,53.22909707411418,10.39854666461711,36.82573,0.1495163,0.7912842,24.8562485501393,26.75566638797535,2.400000095367432,7.999579855010836,-9999,4080.146527125,-0.186279296875,-0.078155517578125,-1.012054443359375,4080.136533125,0.9108047647206483,-0.1709508678281121,0.1267162410583373,-0.3450704216957092,0.4379783868789673,-1.144739031791687,-0.03275211155414581,0.05653791129589081,-0.009019136428833008,XArbitraryZVertical,0.09412828601305735,-0.0487707572545488,0.4324842811375963,0.8953874453333043,-0.1687554568052292,-0.1263774037361145,-0.9775225520133972,0,0,0,-1,-1,4078.998648291667,unknown,2,2022-06-02T11:09:54.861+02:00,2022-06-02T10:17:13.754+02:00,757,1.604419,0,0,607.4087,0,0,2022-06-02T11:09:54.861+02:00,675853794.8608283,0,5.621094,101.3138,1,0.73
2022-06-02T11:09:56.020+02:00,1654160995.000225,53.22909707411418,10.39854666461711,36.82573,0.1495163,0.7912842,24.8562485501393,26.75566638797535,2.400000095367432,7.999579855010836,-9999,4080.156521125,-0.1876220703125,-0.07257080078125,-1.009567260742188,4080.146527125,0.8989721753981418,-0.1652288055986446,0.1250059711658741,-0.3876668810844421,0.4154925346374512,-1.115719556808472,-0.02758605778217316,0.04908859729766846,-0.0271754264831543,XArbitraryZVertical,0.09185143796981289,-0.04713113793114541,0.4275328418191857,0.8980854316609956,-0.1631945818662643,-0.1246806606650352,-0.9786839485168457,0,0,0,-1,-1,4078.998648291667,unknown,2,2022-06-02T11:09:54.861+02:00,2022-06-02T10:17:13.754+02:00,757,1.604419,0,0,607.4087,0,0,2022-06-02T11:09:54.861+02:00,675853794.8608283,0,5.621094,101.3138,1,0.73
2022-06-02T11:09:56.029+02:00,1654160995.000225,53.22909707411418,10.39854666461711,36.82573,0.1495163,0.7912842,24.8562485501393,26.75566638797535,2.400000095367432,7.999579855010836,-9999,4080.166515125,-0.1935882568359375,-0.059326171875,-1.002609252929688,4080.156521125,0.8874051464258371,-0.1597876410215164,0.1228117213756293,-0.4177006185054779,0.3981640636920929,-1.08096718788147,-0.02818602323532104,0.04346267879009247,-0.03210723400115967,XArbitraryZVertical,0.08944448764122637,-0.04568487000550602,0.4226872060426525,0.9006930222116243,-0.157910168170929,-0.1225032284855843,-0.9798251390457153,0,0,0,-1,-1,4078.998648291667,unknown,2,2022-06-02T11:09:54.861+02:00,2022-06-02T10:17:13.754+02:00,757,1.604419,0,0,607.4087,0,0,2022-06-02T11:09:54.861+02:00,675853794.8608283,0,5.621094,101.3138,1,0.73
2022-06-02T11:09:56.040+02:00,1654160995.000225,53.22909707411418,10.39854666461711,36.82573,0.1495163,0.7912842,24.8562485501393,26.75566638797535,2.400000095367432,7.999579855010836,-9999,4080.176509125,-0.1892547607421875,-0.03717041015625,-0.9903411865234375,4080.166515125,0.8761731649727914,-0.1544757060816646,0.1202564990642571,-0.4343048930168152,0.4050768315792084,-1.041312217712402,-0.03606140613555908,0.05450662225484848,-0.02696305513381958,XArbitraryZVertical,0.08692815935323209,-0.04433260946378934,0.4179795948752714,0.903200477781709,-0.1527508646249771,-0.1199668571352959,-0.9809562563896179,0,0,0,-1,-1,4078.998648291667,unknown,2,2022-06-02T11:09:54.861+02:00,2022-06-02T10:17:13.754+02:00,757,1.604419,0,0,607.4087,0,0,2022-06-02T11:09:54.861+02:00,675853794.8608283,0,5.621094,101.3138,1,0.73
2022-06-02T11:09:56.050+02:00,1654160995.000225,53.22909707411418,10.39854666461711,36.82573,0.1495163,0.7912842,24.8562485501393,26.75566638797535,2.400000095367432,7.999579855010836,-9999,4080.186503125,-0.1663665771484375,0.0060882568359375,-0.9699859619140625,4080.176509125,0.8653596183787486,-0.149073944373386,0.1176366443116716,-0.408390611410141,0.4268918633460999,-1.003251075744629,-0.04526835680007935,0.06630957126617432,-0.01620125770568848,XArbitraryZVertical,0.08438978497065532,-0.04290832498596633,0.4134436807654786,0.9055945983366371,-0.1474959403276443,-0.1173655167222023,-0.982074499130249,0,0,0,-1,-1,4078.998648291667,unknown,2,2022-06-02T11:09:54.861+02:00,2022-06-02T10:17:13.754+02:00,757,1.604419,0,0,607.4087,0,0,2022-06-02T11:09:54.861+02:00,675853794.8608283,0,5.621094,101.3138,1,0.73
2022-06-02T11:09:56.060+02:00,1654160995.000225,53.22909707411418,10.39854666461711,36.82573,0.1495163,0.7912842,24.8562485501393,26.75566638797535,2.400000095367432,7.999579855010836,-9999,4080.196497125,-0.1403350830078125,0.0299072265625,-0.96600341796875,4080.186503125,0.8550018411906944,-0.1435398760090703,0.1151689187461082,-0.3788220584392548,0.4469670355319977,-0.9608215689659119,-0.03786233067512512,0.09851126372814178,0.002797424793243408,XArbitraryZVertical,0.0819191998491282,-0.04134698663949993,0.4090895789200307,0.9078685627974374,-0.1420998424291611,-0.1149144917726517,-0.9831593632698059,0,0,0,-1,-1,4078.998648291667,unknown,2,2022-06-02T11:09:54.861+02:00,2022-06-02T10:17:13.754+02:00,757,1.604419,0,0,607.4087,0,0,2022-06-02T11:09:54.861+02:00,675853794.8608283,0,5.621094,101.3138,1,0.73
2022-06-02T11:09:56.069+02:00,1654160995.000225,53.22909707411418,10.39854666461711,36.82573,0.1495163,0.7912842,24.8562485501393,26.75566638797535,2.400000095367432,7.999579855010836,-9999,4080.206491125,-0.1197509765625,0.01898193359375,-0.979644775390625,4080.196497125,0.8451358887175274,-0.137912807603239,0.1130309338124261,-0.3173983097076416,0.4585732221603394,-0.9197099804878235,-0.01791173219680786,0.1357090920209885,0.01818108558654785,XArbitraryZVertical,0.07960619777729866,-0.03963093554665764,0.4049264190701444,0.9100147777677394,-0.1365987807512283,-0.1127904057502747,-0.9841845035552979,0,0,0,-1,-1,4078.998648291667,unknown,2,2022-06-02T11:09:54.861+02:00,2022-06-02T10:17:13.754+02:00,757,1.604419,0,0,607.4087,0,0,2022-06-02T11:09:54.861+02:00,675853794.8608283,0,5.621094,101.3138,1,0.73
2022-06-02T11:09:56.080+02:00,1654160996.000214,53.22909726777361,10.39854707145392,36.87714,0.1141865,0.6462225,15.97572879884251,9.999999633974564,2.400000095367432,7.999579855010837,-9999,4080.216485125,-0.114349365234375,-0.0309600830078125,-1.005233764648438,4080.206491125,0.8358838766103311,-0.1323066295311069,0.1115915296148674,-0.2133342176675797,0.4601908326148987,-0.8636003732681274,0.00223994255065918,0.1406264007091522,0.01562756299972534,XArbitraryZVertical,0.0776442755811934,-0.0377359939364551,0.400993197419873,0.9120042937838602,-0.1311004310846329,-0.1113600730895996,-0.9850947260856628,0,0,0,-1,-1,4078.998648291667,unknown,2,2022-06-02T11:09:54.861+02:00,2022-06-02T10:17:13.754+02:00,757,1.604419,0,0,607.4087,0,0,2022-06-02T11:09:54.861+02:00,675853794.8608283,0,5.621094,101.3138,1,0.73
2022-06-02T11:09:56.090+02:00,1654160996.000214,53.22909726777361,10.39854707145392,36.87714,0.1141865,0.6462225,15.97572879884251,9.999999633974564,2.400000095367432,7.999579855010837,-9999,4080.226479125,-0.11907958984375,-0.0956573486328125,-1.02398681640625,4080.216485125,0.8273436195963345,-0.126850842760053,0.1109294789725599,-0.1445241570472717,0.4468168914318085,-0.8037039041519165,0.01077359914779663,0.1087336987257004,-0.006410837173461914,XArbitraryZVertical,0.07609735919933985,-0.03570822026112038,0.3973316451122187,0.9138170354430065,-0.1257333308458328,-0.1107021123170853,-0.9858682155609131,0,0,0,-1,-1,4078.998648291667,unknown,2,2022-06-02T11:09:54.861+02:00,2022-06-02T10:17:13.754+02:00,757,1.604419,0,0,607.4087,0,0,2022-06-02T11:09:54.861+02:00,675853794.8608283,0,5.621094,101.3138,1,0.73
2022-06-02T11:09:56.100+02:00,1654160996.000214,53.22909726777361,10.39854707145392,36.87714,0.1141865,0.6462225,15.97572879884251,9.999999633974564,2.400000095367432,7.999579855010837,-9999,4080.236473125,-0.126007080078125,-0.1548309326171875,-1.024322509765625,4080.226479125,0.8194699540918488,-0.1215944715882372,0.1103605114154655,-0.1792981177568436,0.4375597536563873,-0.7393182516098022,0.005917869508266449,0.04629383236169815,-0.03032881021499634,XArbitraryZVertical,0.07466145783835182,-0.03371545338806563,0.3939513808452593,0.9154731839512991,-0.1205571591854095,-0.1101366281509399,-0.9865778684616089,0,0,0,-1,-1,4078.998648291667,unknown,2,2022-06-02T11:09:54.861+02:00,2022-06-02T10:17:13.754+02:00,757,1.604419,0,0,607.4087,0,0,2022-06-02T11:09:54.861+02:00,675853794.8608283,0,5.621094,101.3138,1,0.73
2022-06-02T11:09:56.109+02:00,1654160996.000214,53.22909726777361,10.39854707145392,36.87714,0.1141865,0.6462225,15.97572879884251,9.999999633974564,2.400000095367432,7.999579855010837,-9999,4080.246467125,-0.1371917724609375,-0.176910400390625,-1.01141357421875,4080.236473125,0.8120864004101672,-0.1164531925679918,0.1087949697491121,-0.3135272264480591,0.4364485740661621,-0.6861782073974609,-0.007131695747375488,-0.01934923976659775,-0.03878360986709595,XArbitraryZVertical,0.07281637498762777,-0.03194415457537062,0.3908179741285296,0.9170270686506117,-0.1155032068490982,-0.1085804775357246,-0.9873546957969666,0,0,0,-1,-1,4078.998648291667,unknown,2,2022-06-02T11:09:54.861+02:00,2022-06-02T10:17:13.754+02:00,757,1.604419,0,0,607.4087,0,0,2022-06-02T11:09:54.861+02:00,675853794.8608283,0,5.621094,101.3138,1,0.73
2022-06-02T11:09:56.120+02:00,1654160996.000214,53.22909726777361,10.39854707145392,36.87714,0.1141865,0.6462225,15.97572879884251,9.999999633974564,2.400000095367432,7.999579855010837,-9999,4080.256461125,-0.148834228515625,-0.1854400634765625,-0.981231689453125,4080.246467125,0.804991106104638,-0.1113096730008348,0.1055943898392827,-0.4862058162689209,0.4521385729312897,-0.645379364490509,-0.01994036138057709,-0.06653780490159988,-0.03181976079940796,XArbitraryZVertical,0.07023949276816137,-0.03046962771514624,0.3878632540471073,0.918531437084623,-0.1104612573981285,-0.1053982675075531,-0.9882760047912598,0,0,0,-1,-1,4078.998648291667,unknown,2,2022-06-02T11:09:54.861+02:00,2022-06-02T10:17:13.754+02:00,757,1.604419,0,0,607.4087,0,0,2022-06-02T11:09:54.861+02:00,675853794.8608283,0,5.621094,101.3138,1,0.73
2022-06-02T11:09:56.129+02:00,1654160996.000214,53.22909726777361,10.39854707145392,36.87714,0.1141865,0.6462225,15.97572879884251,9.999999633974564,2.400000095367432,7.999579855010837,-9999,4080.266455125,-0.1458892822265625,-0.1903533935546875,-0.940582275390625,4080.256461125,0.7981140595604077,-0.1058328412802123,0.1005314885728972,-0.6713597178459167,0.5105493664741516,-0.6059211492538452,-0.04011587798595428,-0.07921848446130753,-0.008021831512451172,XArbitraryZVertical,0.06675705509962915,-0.02917916550526614,0.38506698224997,0.9200083953174364,-0.1051020324230194,-0.1003622338175774,-0.9893841147422791,0,0,0,-1,-1,4078.998648291667,unknown,2,2022-06-02T11:09:54.861+02:00,2022-06-02T10:17:13.754+02:00,757,1.604419,0,0,607.4087,0,0,2022-06-02T11:09:54.861+02:00,675853794.8608283,0,5.621094,101.3138,1,0.73
2022-06-02T11:09:56.139+02:00,1654160996.000214,53.22909726777361,10.39854707145392,36.87714,0.1141865,0.6462225,15.97572879884251,9.999999633974564,2.400000095367432,7.999579855010837,-9999,4080.276449125,-0.1295928955078125,-0.1910552978515625,-0.8880157470703125,4080.266455125,0.7914668067839098,-0.09972420869767831,0.0935033662307659,-0.8701788187026978,0.5847801566123962,-0.5714076161384583,-0.05111394822597504,-0.09553665667772293,0.0288931131362915,XArbitraryZVertical,0.0622612634143913,-0.02794603589401864,0.3824359247684651,0.9214582835046737,-0.09912410378456116,-0.09336717426776886,-0.9906851053237915,0,0,0,-1,-1,4078.998648291667,unknown,2,2022-06-02T11:09:54.861+02:00,2022-06-02T10:17:13.754+02:00,757,1.604419,0,0,607.4087,0,0,2022-06-02T11:09:54.861+02:00,675853794.8608283,0,5.621094,101.3138,1,0.73
2022-06-02T11:09:56.149+02:00,1654160996.000214,53.22909726777361,10.39854707145392,36.87714,0.1141865,0.6462225,15.97572879884251,9.999999633974564,2.400000095367432,7.999579855010837,-9999,4080.286443125,-0.1123199462890625,-0.185302734375,-0.826690673828125,4080.276449125,0.7848750120471661,-0.09293861952735427,0.08437523303535666,-1.075376033782959,0.6615214347839355,-0.5624718070030212,-0.04464076459407806,-0.1071463823318481,0.0748448371887207,XArbitraryZVertical,0.05667646981590143,-0.02677094462339395,0.3798787824990351,0.9229101861913652,-0.09247472882270813,-0.08427515625953674,-0.9921422004699707,0,0,0,-1,-1,4078.998648291667,unknown,2,2022-06-02T11:09:54.861+02:00,2022-06-02T10:17:13.754+02:00,757,1.604419,0,0,607.4087,0,0,2022-06-02T11:09:54.861+02:00,675853794.8608283,0,5.621094,101.3138,1,0.73
2022-06-02T11:09:56.159+02:00,1654160996.000214,53.22909726777361,10.39854707145392,36.87714,0.1141865,0.6462225,15.97572879884251,9.999999633974564,2.400000095367432,7.999579855010837,-9999,4080.296437125,-0.0914459228515625,-0.14794921875,-0.76165771484375,4080.286443125,0.7781691921028175,-0.08541940434429036,0.07319275913923143,-1.278115630149841,0.7400718927383423,-0.5792654156684875,-0.0372120589017868,-0.1173175498843193,0.1353489756584167,XArbitraryZVertical,0.05000841162568164,-0.02561220005078563,0.3772964608710204,0.9243865919167465,-0.08508714288473129,-0.07312742620706558,-0.993686318397522,0,0,0,-1,-1,4078.998648291667,unknown,2,2022-06-02T11:09:54.861+02:00,2022-06-02T10:17:13.754+02:00,757,1.604419,0,0,607.4087,0,0,2022-06-02T11:09:54.861+02:00,675853794.8608283,0,5.621094,101.3138,1,0.73
2022-06-02T11:09:56.169+02:00,1654160996.000214,53.22909726777361,10.39854707145392,36.87714,0.1141865,0.6462225,15.97572879884251,9.999999633974564,2.400000095367432,7.999579855010837,-9999,4080.306431125,-0.0517578125,-0.09088134765625,-0.7122344970703125,4080.296437125,0.7710486363736639,-0.07712894262526038,0.05994413915343638,-1.484517335891724,0.8354700803756714,-0.6237128376960754,-0.02622006833553314,-0.1116768717765808,0.2027405500411987,XArbitraryZVertical,0.04223922613032681,-0.0244482098870132,0.3745260533398059,0.9259311349334494,-0.07691410183906555,-0.05990824475884438,-0.9952362775802612,0,0,0,-1,-1,4078.998648291667,unknown,2,2022-06-02T11:09:54.861+02:00,2022-06-02T10:17:13.754+02:00,757,1.604419,0,0,607.4087,0,0,2022-06-02T11:09:54.861+02:00,675853794.8608283,0,5.621094,101.3138,1,0.73
2022-06-02T11:09:56.179+02:00,1654160996.000214,53.22909726777361,10.39854707145392,36.87714,0.1141865,0.6462225,15.97572879884251,9.999999633974564,2.400000095367432,7.999579855010837,-9999,4080.316425125,-0.015838623046875,-0.04730224609375,-0.6810150146484375,4080.306431125,0.7634483634444451,-0.06789100084905712,0.04467475385610192,-1.667044520378113,0.9331369996070862,-0.6704079508781433,-0.005165852606296539,-0.07373308390378952,0.2639432549476624,XArbitraryZVertical,0.03335578646497991,-0.02317266368420439,0.3715101506684181,0.9275400295937124,-0.06777117401361465,-0.04465989395976067,-0.9967008233070374,0,0,0,-1,-1,4078.998648291667,unknown,2,2022-06-02T11:09:54.861+02:00,2022-06-02T10:17:13.754+02:00,757,1.604419,0,0,607.4087,0,0,2022-06-02T11:09:54.861+02:00,675853794.8608283,0,5.621094,101.3138,1,0.73
2022-06-02T11:09:56.190+02:00,1654160996.000214,53.22909726777361,10.39854707145392,36.87714,0.1141865,0.6462225,15.97572879884251,9.999999633974564,2.400000095367432,7.999579855010837,-9999,4080.326419125,0.0046844482421875,-0.01953125,-0.666412353515625,4080.316425125,0.7553347599373138,-0.05795209757820178,0.02795073998996696,-1.766228318214417,1.004445314407349,-0.739797055721283,0.02640289068222046,-0.03943575173616409,0.3032291531562805,XArbitraryZVertical,0.02366708865859044,-0.02177649880603238,0.368186122160635,0.9291956158013871,-0.05789704248309135,-0.02794709987938404,-0.9979313015937805,0,0,0,-1,-1,4078.998648291667,unknown,2,2022-06-02T11:09:54.861+02:00,2022-06-02T10:17:13.754+02:00,757,1.604419,0,0,607.4087,0,0,2022-06-02T11:09:54.861+02:00,675853794.8608283,0,5.621094,101.3138,1,0.73
2022-06-02T11:09:56.199+02:00,1654160996.000214,53.22909726777361,10.39854707145392,36.87714,0.1141865,0.6462225,15.97572879884251,9.999999633974564,2.400000095367432,7.999579855010837,-9999,4080.336413125,0.0208282470703125,-0.0157470703125,-0.6584320068359375,4080.326419125,0.7466900295699976,-0.04745929674812347,0.01045143917780766,-1.825439691543579,1.068827748298645,-0.8007298707962036,0.04379202425479889,-0.02064620330929756,0.3263951539993286,XArbitraryZVertical,0.0135183758539153,-0.02018715621316492,0.3645089570077945,0.9308828105648478,-0.04743888974189758,-0.01045124884694815,-0.9988194704055786,0,0,0,-1,-1,4078.998648291667,unknown,2,2022-06-02T11:09:54.861+02:00,2022-06-02T10:17:13.754+02:00,757,1.604419,0,0,607.4087,0,0,2022-06-02T11:09:54.861+02:00,675853794.8608283,0,5.621094,101.3138,1,0.73
2022-06-02T11:09:56.210+02:00,1654160996.000214,53.22909726777361,10.39854707145392,36.87714,0.1141865,0.6462225,15.97572879884251,9.999999633974564,2.400000095367432,7.999579855010837,-9999,4080.346408125,0.0405120849609375,-0.0251617431640625,-0.653533935546875,4080.336413125,0.7376845967093413,-0.03642670892953104,-0.007893816175509568,-1.928324222564697,1.140638828277588,-0.8436684012413025,0.04902126640081406,-0.02354929223656654,0.3364789485931396,XArbitraryZVertical,0.002885313619942223,-0.01841011348357568,0.360540291650425,0.9325574067171598,-0.03641751781105995,0.007893734611570835,-0.9993054866790771,0,0,0,-1,-1,4078.998648291667,unknown,2,2022-06-02T11:09:54.861+02:00,2022-06-02T10:17:13.754+02:00,757,1.604419,0,0,607.4087,0,0,2022-06-02T11:09:54.861+02:00,675853794.8608283,0,5.621094,101.3138,1,0.73
2022-06-02T11:09:56.219+02:00,1654160996.000214,53.22909726777361,10.39854707145392,36.87714,0.1141865,0.6462225,15.97572879884251,9.999999633974564,2.400000095367432,7.999579855010837,-9999,4080.356402125,0.05303955078125,-0.029449462890625,-0.6542816162109375,4080.346408125,0.7284290691602192,-0.02489836024826739,-0.02762776539874119,-2.081010103225708,1.20050311088562,-0.8875508904457092,0.05633463710546494,-0.04651467502117157,0.3438825607299805,XArbitraryZVertical,-0.008472281476732643,-0.01655133318909892,0.3563145678784124,0.9341809893975531,-0.02488628774881363,0.02762425132095814,-0.9993085265159607,0,0,0,-1,-1,4078.998648291667,unknown,2,2022-06-02T11:09:54.861+02:00,2022-06-02T10:17:13.754+02:00,757,1.604419,0,0,607.4087,0,0,2022-06-02T11:09:54.861+02:00,675853794.8608283,0,5.621094,101.3138,1,0.73
2022-06-02T11:09:56.229+02:00,1654160996.000214,53.22909726777361,10.39854707145392,36.87714,0.1141865,0.6462225,15.97572879884251,9.999999633974564,2.400000095367432,7.999579855010837,-9999,4080.366396125,0.06317138671875,-0.03338623046875,-0.64056396484375,4080.356402125,0.7188648754494003,-0.01310252569040863,-0.04908273924454101,-2.258133411407471,1.238718509674072,-0.9495689868927002,0.06212810426950455,-0.07832943648099899,0.3439095616340637,XArbitraryZVertical,-0.02066664436010368,-0.01476192966302966,0.3517800383479626,0.9357380161852656,-0.01308637205511332,0.04906303435564041,-0.9987099766731262,0,0,0,-1,-1,4078.998648291667,unknown,2,2022-06-02T11:09:54.861+02:00,2022-06-02T10:17:13.754+02:00,757,1.604419,0,0,607.4087,0,0,2022-06-02T11:09:54.861+02:00,675853794.8608283,0,5.621094,101.3138,1,0.73
2022-06-02T11:09:56.239+02:00,1654160996.000214,53.22909726777361,10.39854707145392,36.87714,0.1141865,0.6462225,15.97572879884251,9.999999633974564,2.400000095367432,7.999579855010837,-9999,4080.376390125,0.076446533203125,-0.060150146484375,-0.6291046142578125,4080.366396125,0.7088838906596155,-0.001121885837551266,-0.07291819645465006,-2.544321298599243,1.283497929573059,-1.003739476203918,0.05684398487210274,-0.1005178242921829,0.3475464582443237,XArbitraryZVertical,-0.03399067718874204,-0.0131766724924788,0.3468555326111288,0.9372098019934922,-0.001118904328905046,0.07285359501838684,-0.9973419904708862,0,0,0,-1,-1,4078.998648291667,unknown,2,2022-06-02T11:09:54.861+02:00,2022-06-02T10:17:13.754+02:00,757,1.604419,0,0,607.4087,0,0,2022-06-02T11:09:54.861+02:00,675853794.8608283,0,5.621094,101.3138,1,0.73
2022-06-02T11:09:56.249+02:00,1654160996.000214,53.22909726777361,10.39854707145392,36.87714,0.1141865,0.6462225,15.97572879884251,9.999999633974564,2.400000095367432,7.999579855010837,-9999,4080.386384125,0.0565338134765625,-0.09552001953125,-0.6225128173828125,4080.376390125,0.6988740397516774,0.01074354171195538,-0.1002666805110881,-2.930179119110107,1.266641497612,-1.022663235664368,0.0615151971578598,-0.1451732814311981,0.3633282780647278,XArbitraryZVertical,-0.04891996294919526,-0.01211589567348022,0.3416808987188037,0.9384637225029566,0.01068937685340643,0.1000987589359283,-0.9949200749397278,0,0,0,-1,-1,4078.998648291667,unknown,2,2022-06-02T11:09:54.861+02:00,2022-06-02T10:17:13.754+02:00,757,1.604419,0,0,607.4087,0,0,2022-06-02T11:09:54.861+02:00,675853794.8608283,0,5.621094,101.3138,1,0.73
2022-06-02T11:09:56.259+02:00,1654160996.000214,53.22909726777361,10.39854707145392,36.87714,0.1141865,0.6462225,15.97572879884251,9.999999633974564,2.400000095367432,7.999579855010837,-9999,4080.396378125,0.0400390625,-0.105194091796875,-0.5955810546875,4080.386384125,0.6889718000519617,0.02230509799188237,-0.1319790821809771,-3.388186931610107,1.287572145462036,-1.047638297080994,0.04692145809531212,-0.2097976207733154,0.3633559942245483,XArbitraryZVertical,-0.0658217589831763,-0.01179369836831149,0.3362646459952121,0.9393904404669003,0.02210928685963154,0.1315962672233582,-0.9910567998886108,0,0,0,-1,-1,4078.998648291667,unknown,2,2022-06-02T11:09:54.861+02:00,2022-06-02T10:17:13.754+02:00,757,1.604419,0,0,607.4087,0,0,2022-06-02T11:09:54.861+02:00,675853794.8608283,0,5.621094,101.3138,1,0.73
2022-06-02T11:09:56.269+02:00,1654160996.000214,53.22909726777361,10.39854707145392,36.87714,0.1141865,0.6462225,15.97572879884251,9.999999633974564,2.400000095367432,7.999579855010837,-9999,4080.406372125,0.0293426513671875,-0.057220458984375,-0.6043701171875,4080.396378125,0.6794966547586991,0.03392033783287497,-0.16868785511664,-3.913895845413208,1.323442935943604,-1.027617454528809,0.01185560971498489,-0.2757381498813629,0.3768861889839172,XArbitraryZVertical,-0.08504864862767078,-0.01213715850183881,0.3306703713566966,0.9398278452855798,0.03343245759606361,0.1678889691829681,-0.9852388501167297,0,0,0,-1,-1,4078.998648291667,unknown,2,2022-06-02T11:09:54.861+02:00,2022-06-02T10:17:13.754+02:00,757,1.604419,0,0,607.4087,0,0,2022-06-02T11:09:54.861+02:00,675853794.8608283,0,5.621094,101.3138,1,0.73
2022-06-02T11:09:56.279+02:00,1654160996.000214,53.22909726777361,10.39854707145392,36.87714,0.1141865,0.6462225,15.97572879884251,9.999999633974564,2.400000095367432,7.999579855010837,-9999,4080.416366125,0.002410888671875,0.025360107421875,-0.6227264404296875,4080.406372125,0.6709393187523319,0.04564111141575497,-0.2109060776630025,-4.461488246917725,1.361661434173584,-0.9930340647697449,-0.007794849574565887,-0.2965042591094971,0.3813643455505371,XArbitraryZVertical,-0.1068347540137274,-0.01321627103072425,0.3250307251524317,0.9395566061788977,0.0446142852306366,0.2093459814786911,-0.9768233299255371,0,0,0,-1,-1,4078.998648291667,unknown,2,2022-06-02T11:09:54.861+02:00,2022-06-02T10:17:13.754+02:00,757,1.604419,0,0,607.4087,0,0,2022-06-02T11:09:54.861+02:00,675853794.8608283,0,5.621094,101.3138,1,0.73
2022-06-02T11:09:56.290+02:00,1654160996.000214,53.22909726777361,10.39854707145392,36.87714,0.1141865,0.6462225,15.97572879884251,9.999999633974564,2.400000095367432,7.999579855010837,-9999,4080.426360125,-0.01202392578125,0.12335205078125,-0.661773681640625,4080.416366125,0.6633772221471188,0.05809026052973952,-0.2583639632123856,-4.928562641143799,1.492475748062134,-0.9670114517211914,-0.04079555347561836,-0.2737945020198822,0.3512563705444336,XArbitraryZVertical,-0.1311280904052511,-0.01470289345723622,0.3192532606088946,0.9384383806524723,0.05613062158226967,0.2554991543292999,-0.9651784896850586,0,0,0,-1,-1,4078.998648291667,unknown,2,2022-06-02T11:09:54.861+02:00,2022-06-02T10:17:13.754+02:00,757,1.604419,0,0,607.4087,0,0,2022-06-02T11:09:54.861+02:00,675853794.8608283,0,5.621094,101.3138,1,0.73
2022-06-02T11:09:56.299+02:00,1654160996.000214,53.22909726777361,10.39854707145392,36.87714,0.1141865,0.6462225,15.97572879884251,9.999999633974564,2.400000095367432,7.999579855010837,-9999,4080.436354125,-0.0180511474609375,0.2248687744140625,-0.711181640625,4080.426360125,0.6569090205267488,0.07200924418291375,-0.3096985557234948,-5.226785659790039,1.658239960670471,-0.9319821000099182,-0.07630617916584015,-0.231605738401413,0.3108122944831848,XArbitraryZVertical,-0.1573646315413967,-0.01605490006184669,0.3132592028511069,0.9364011906821244,0.06852418184280396,0.3047715425491333,-0.9499572515487671,0,0,0,-1,-1,4078.998648291667,unknown,2,2022-06-02T11:09:54.861+02:00,2022-06-02T10:17:13.754+02:00,757,1.604419,0,0,607.4087,0,0,2022-06-02T11:09:54.861+02:00,675853794.8608283,0,5.621094,101.3138,1,0.73
2022-06-02T11:09:56.310+02:00,1654160996.000214,53.22909726777361,10.39854707145392,36.87714,0.1141865,0.6462225,15.97572879884251,9.999999633974564,2.400000095367432,7.999579855010837,-9999,4080.446348125,-0.0488739013671875,0.3311004638671875,-0.80255126953125,4080.436354125,0.6518618553091553,0.08776801273877889,-0.363096395229653,-5.341345310211182,1.837454319000244,-0.8689718842506409,-0.09527657926082611,-0.1816780865192413,0.2462363243103027,XArbitraryZVertical,-0.1846982238370297,-0.01687833774586534,0.3071215996189514,0.9334227341894897,0.08194038271903992,0.3551704585552216,-0.9312033653259277,0,0,0,-1,-1,4078.998648291667,unknown,2,2022-06-02T11:09:54.861+02:00,2022-06-02T10:17:13.754+02:00,757,1.604419,0,0,607.4087,0,0,2022-06-02T11:09:54.861+02:00,675853794.8608283,0,5.621094,101.3138,1,0.73
2022-06-02T11:09:56.319+02:00,1654160996.000214,53.22909726777361,10.39854707145392,36.87714,0.1141865,0.6462225,15.97572879884251,9.999999633974564,2.400000095367432,7.999579855010837,-9999,4080.456342125,-0.099639892578125,0.3997039794921875,-0.9132843017578125,4080.446348125,0.6483846654967174,0.1056458807942234,-0.4172354761314705,-5.372170448303223,2.009673118591309,-0.8137994408607483,-0.1281415522098541,-0.1256174445152283,0.1610230207443237,XArbitraryZVertical,-0.2124993097732954,-0.01691790698863587,0.3008366865390096,0.9295455787386943,0.09640324860811234,0.4052346348762512,-0.9091156721115112,0,0,0,-1,-1,4078.998648291667,unknown,2,2022-06-02T11:09:54.861+02:00,2022-06-02T10:17:13.754+02:00,757,1.604419,0,0,607.4087,0,0,2022-06-02T11:09:54.861+02:00,675853794.8608283,0,5.621094,101.3138,1,0.73
2022-06-02T11:09:56.341+02:00,1654160996.000214,53.22909726777361,10.39854707145392,36.87714,0.1141865,0.6462225,15.97572879884251,9.999999633974564,2.400000095367432,7.999579855010837,-9999,4080.466336125,-0.1353759765625,0.4461212158203125,-0.99212646484375,4080.456342125,0.6464836688957507,0.1258784840930163,-0.4714036314699917,-5.361155986785889,2.217042922973633,-0.7778599262237549,-0.1834474503993988,-0.08324196934700012,0.01727473735809326,XArbitraryZVertical,-0.2404194582030496,-0.01603941562933387,0.2943205252280781,0.9248332414525284,0.111853189766407,0.4541372656822205,-0.883882462978363,0,0,0,-1,-1,4078.998648291667,unknown,2,2022-06-02T11:09:54.861+02:00,2022-06-02T10:17:13.754+02:00,757,1.604419,0,0,607.4087,0,0,2022-06-02T11:09:54.861+02:00,675853794.8608283,0,5.621094,101.3138,1,0.73
2022-06-02T11:09:56.343+02:00,1654160996.000214,53.22909726777361,10.39854707145392,36.87714,0.1141865,0.6462225,15.97572879884251,9.999999633974564,2.400000095367432,7.999579855010837,-9999,4080.476330125,-0.136962890625,0.53839111328125,-1.088088989257812,4080.466336125,0.6463701941917791,0.1489021689600339,-0.5254264743146398,-5.339884281158447,2.417086601257324,-0.7223609685897827,-0.2520900964736938,-0.07691478729248047,-0.09371203184127808,XArbitraryZVertical,-0.2683868321742121,-0.01413832123105415,0.2875248520985295,0.9192920458837869,0.1283412724733353,0.5015820264816284,-0.8555372357368469,0,0,0,-1,-1,4078.998648291667,unknown,2,2022-06-02T11:09:54.861+02:00,2022-06-02T10:17:13.754+02:00,757,1.604419,0,0,607.4087,0,0,2022-06-02T11:09:54.861+02:00,675853794.8608283,0,5.621094,101.3138,1,0.73
2022-06-02T11:09:56.349+02:00,1654160996.000214,53.22909726777361,10.39854707145392,36.87714,0.1141865,0.6462225,15.97572879884251,9.999999633974564,2.400000095367432,7.999579855010837,-9999,4080.486324125,-0.1146087646484375,0.6606597900390625,-1.1781005859375,4080.476330125,0.64788092381618,0.1750366737702189,-0.578886836577007,-5.260061264038086,2.647171974182129,-0.7537577748298645,-0.2852824330329895,-0.06583040952682495,-0.2195109128952026,XArbitraryZVertical,-0.2962028705274492,-0.01108867350353568,0.2802464848782847,0.9130184209805281,0.1457712948322296,0.5470924973487854,-0.8242818117141724,0,0,0,-1,-1,4078.998648291667,unknown,2,2022-06-02T11:09:54.861+02:00,2022-06-02T10:17:13.754+02:00,757,1.604419,0,0,607.4087,0,0,2022-06-02T11:09:54.861+02:00,675853794.8608283,0,5.621094,101.3138,1,0.73
2022-06-02T11:09:56.359+02:00,1654160996.000214,53.22909726777361,10.39854707145392,36.87714,0.1141865,0.6462225,15.97572879884251,9.999999633974564,2.400000095367432,7.999579855010837,-9999,4080.496318125,-0.0833587646484375,0.711883544921875,-1.254974365234375,4080.486324125,0.650650595546564,0.2041600527168738,-0.6315562971585956,-5.181885242462158,2.8742835521698,-0.774407684803009,-0.2936573922634125,0.01421260833740234,-0.3411530256271362,XArbitraryZVertical,-0.3236941996251346,-0.006958954403942124,0.272245438073113,0.906121407761845,0.1636372208595276,0.5904015898704529,-0.7903472781181335,0,0,0,-1,-1,4078.998648291667,unknown,2,2022-06-02T11:09:54.861+02:00,2022-06-02T10:17:13.754+02:00,757,1.604419,0,0,607.4087,0,0,2022-06-02T11:09:54.861+02:00,675853794.8608283,0,5.621094,101.3138,1,0.73
2022-06-02T11:09:56.370+02:00,1654160996.000214,53.22909726777361,10.39854707145392,36.87714,0.1141865,0.6462225,15.97572879884251,9.999999633974564,2.400000095367432,7.999579855010837,-9999,4080.506312125,-0.027008056640625,0.7632293701171875,-1.299942016601562,4080.496318125,0.6549696775546404,0.2366751683298454,-0.6830749978622312,-5.024774074554443,3.114738702774048,-0.8129374980926514,-0.2811383605003357,0.06159842014312744,-0.4656067490577698,XArbitraryZVertical,-0.350700374289817,-0.001652570150351826,0.2635223611171933,0.8986447544998201,0.1818646341562271,0.6311810612678528,-0.7540130615234375,0,0,0,-1,-1,4078.998648291667,unknown,2,2022-06-02T11:09:54.861+02:00,2022-06-02T10:17:13.754+02:00,757,1.604419,0,0,607.4087,0,0,2022-06-02T11:09:54.861+02:00,675853794.8608283,0,5.621094,101.3138,1,0.73
2022-06-02T11:09:56.379+02:00,1654160996.000214,53.22909726777361,10.39854707145392,36.87714,0.1141865,0.6462225,15.97572879884251,9.999999633974564,2.400000095367432,7.999579855010837,-9999,4080.516306125,0.0579071044921875,0.845947265625,-1.313980102539062,4080.506312125,0.660321180023271,0.2724567621622946,-0.7328794303995587,-4.825623989105225,3.345533132553101,-0.9129732847213745,-0.2591354846954346,0.06376016139984131,-0.564789891242981,XArbitraryZVertical,-0.376907269455185,0.00486217285442759,0.2538362231061177,0.8907773753970324,0.2000076621770859,0.6690125465393066,-0.7158345580101013,0,0,0,-1,-1,4078.998648291667,unknown,2,2022-06-02T11:09:54.861+02:00,2022-06-02T10:17:13.754+02:00,757,1.604419,0,0,607.4087,0,0,2022-06-02T11:09:54.861+02:00,675853794.8608283,0,5.621094,101.3138,1,0.73
2022-06-02T11:09:56.389+02:00,1654160996.000214,53.22909726777361,10.39854707145392,36.87714,0.1141865,0.6462225,15.97572879884251,9.999999633974564,2.400000095367432,7.999579855010837,-9999,4080.526300125,0.127716064453125,0.8866729736328125,-1.323760986328125,4080.516306125,0.6666099228828514,0.3110150125598624,-0.7812331791583143,-4.723977088928223,3.502906560897827,-0.9824841022491455,-0.2034673690795898,0.1008675694465637,-0.6370234489440918,XArbitraryZVertical,-0.4023176925218728,0.01226449133534047,0.2431462677414626,0.882536005468654,0.2172918021678925,0.7041555643081665,-0.6759800910949707,0,0,0,-1,-1,4078.998648291667,unknown,2,2022-06-02T11:09:54.861+02:00,2022-06-02T10:17:13.754+02:00,757,1.604419,0,0,607.4087,0,0,2022-06-02T11:09:54.861+02:00,675853794.8608283,0,5.621094,101.3138,1,0.73
2022-06-02T11:09:56.399+02:00,1654160996.000214,53.22909726777361,10.39854707145392,36.87714,0.1141865,0.6462225,15.97572879884251,9.999999633974564,2.400000095367432,7.999579855010837,-9999,4080.536294125,0.1689300537109375,0.9775390625,-1.305648803710938,4080.526300125,0.6746019484961159,0.3525199859489515,-0.8283023360531523,-4.520853996276855,3.646618366241455,-1.03095269203186,-0.1356183439493179,0.1337902545928955,-0.6848475933074951,XArbitraryZVertical,-0.4269782780434158,0.02036734499255381,0.2316824976929573,0.8738408358497286,0.2334424257278442,0.7367845773696899,-0.6345494389533997,0,0,0,-1,-1,4078.998648291667,unknown,2,2022-06-02T11:09:54.861+02:00,2022-06-02T10:17:13.754+02:00,757,1.604419,0,0,607.4087,0,0,2022-06-02T11:09:54.861+02:00,675853794.8608283,0,5.621094,101.3138,1,0.73
2022-06-02T11:09:56.409+02:00,1654160996.000214,53.22909726777361,10.39854707145392,36.87714,0.1141865,0.6462225,15.97572879884251,9.999999633974564,2.400000095367432,7.999579855010837,-9999,4080.546288125,0.2040557861328125,1.123214721679688,-1.255874633789062,4080.536294125,0.6839214126175591,0.3965591963803384,-0.8728414612043438,-4.228155136108398,3.772911787033081,-1.080097675323486,-0.09937289357185364,0.1547250151634216,-0.7256105542182922,XArbitraryZVertical,-0.4502852241486409,0.02921502250075857,0.2195064186707379,0.8649893742516575,0.2482223659753799,0.7661581039428711,-0.5927793979644775,0,0,0,-1,-1,4078.998648291667,unknown,2,2022-06-02T11:09:54.861+02:00,2022-06-02T10:17:13.754+02:00,757,1.604419,0,0,607.4087,0,0,2022-06-02T11:09:54.861+02:00,675853794.8608283,0,5.621094,101.3138,1,0.73
2022-06-02T11:09:56.419+02:00,1654160996.000214,53.22909726777361,10.39854707145392,36.87714,0.1141865,0.6462225,15.97572879884251,9.999999633974564,2.400000095367432,7.999579855010837,-9999,4080.556282125,0.2651824951171875,1.233993530273438,-1.201065063476562,4080.546288125,0.6943419213978608,0.4431533084808453,-0.9146038425986479,-3.943136692047119,3.930307388305664,-1.118441820144653,-0.07628893852233887,0.2565681338310242,-0.735511302947998,XArbitraryZVertical,-0.4721268119896471,0.03886925754127572,0.2065701863275048,0.8561041129792221,0.261606901884079,0.7923209667205811,-0.5511708855628967,0,0,0,-1,-1,4078.998648291667,unknown,2,2022-06-02T11:09:54.861+02:00,2022-06-02T10:17:13.754+02:00,757,1.604419,0,0,607.4087,0,0,2022-06-02T11:09:54.861+02:00,675853794.8608283,0,5.621094,101.3138,1,0.73
2022-06-02T11:09:56.430+02:00,1654160996.000214,53.22909726777361,10.39854707145392,36.87714,0.1141865,0.6462225,15.97572879884251,9.999999633974564,2.400000095367432,7.999579855010837,-9999,4080.566276125,0.3347625732421875,1.269287109375,-1.15130615234375,4080.556282125,0.7062668032259498,0.492603507369671,-0.953450434877038,-3.648335933685303,4.046213150024414,-1.113887310028076,-0.04318591952323914,0.3729366660118103,-0.7148975133895874,XArbitraryZVertical,-0.492483328388464,0.04935933347403655,0.1930279126956586,0.8472095688265783,0.2737614512443542,0.8154177069664001,-0.5100476741790771,0,0,0,-1,-1,4078.998648291667,unknown,2,2022-06-02T11:09:54.861+02:00,2022-06-02T10:17:13.754+02:00,757,1.604419,0,0,607.4087,0,0,2022-06-02T11:09:54.861+02:00,675853794.8608283,0,5.621094,101.3138,1,0.73
2022-06-02T11:09:56.440+02:00,1654160996.000214,53.22909726777361,10.39854707145392,36.87714,0.1141865,0.6462225,15.97572879884251,9.999999633974564,2.400000095367432,7.999579855010837,-9999,4080.576271125,0.38055419921875,1.2730712890625,-1.06640625,4080.566276125,0.720241301692614,0.5450190382330075,-0.9895730068402275,-3.413869619369507,4.130535125732422,-1.094796657562256,0.01807445287704468,0.4240348935127258,-0.7094863653182983,XArbitraryZVertical,-0.511456215759347,0.06052175671429264,0.1790755224084531,0.8382609493807835,0.2846446335315704,0.8357915878295898,-0.4694993197917938,0,0,0,-1,-1,4078.998648291667,unknown,2,2022-06-02T11:09:54.861+02:00,2022-06-02T10:17:13.754+02:00,757,1.604419,0,0,607.4087,0,0,2022-06-02T11:09:54.861+02:00,675853794.8608283,0,5.621094,101.3138,1,0.73
2022-06-02T11:09:56.450+02:00,1654160996.000214,53.22909726777361,10.39854707145392,36.87714,0.1141865,0.6462225,15.97572879884251,9.999999633974564,2.400000095367432,7.999579855010837,-9999,4080.586265125,0.42633056640625,1.318710327148438,-0.9571990966796875,4080.576271125,0.7366534262411741,0.600554537938409,-1.023139008347772,-3.199919700622559,4.207223415374756,-1.049375176429749,0.06382152438163757,0.4163948893547058,-0.6866312623023987,XArbitraryZVertical,-0.5291418004348369,0.07224303672779629,0.1648224681238031,0.8292306729413926,0.294241189956665,0.8537466526031494,-0.4295797944068909,0,0,0,-1,-1,4078.998648291667,unknown,2,2022-06-02T11:09:54.861+02:00,2022-06-02T10:17:13.754+02:00,757,1.604419,0,0,607.4087,0,0,2022-06-02T11:09:54.861+02:00,675853794.8608283,0,5.621094,101.3138,1,0.73
2022-06-02T11:09:56.460+02:00,1654160996.000214,53.22909726777361,10.39854707145392,36.87714,0.1141865,0.6462225,15.97572879884251,9.999999633974564,2.400000095367432,7.999579855010837,-9999,4080.596259125,0.4518585205078125,1.383636474609375,-0.872222900390625,4080.586265125,0.7571339531077597,0.6606796866671174,-1.053893220781566,-3.004417657852173,4.297555923461914,-0.880473256111145,0.1014168560504913,0.4198763370513916,-0.617856502532959,XArbitraryZVertical,-0.545643139550483,0.08469640212988261,0.1506090814195134,0.8200102141838597,0.3032614588737488,0.8693537712097168,-0.3902001678943634,0,0,0,-1,-1,4078.998648291667,unknown,2,2022-06-02T11:09:54.861+02:00,2022-06-02T10:17:13.754+02:00,757,1.604419,0,0,607.4087,0,0,2022-06-02T11:09:54.861+02:00,675853794.8608283,0,5.621094,101.3138,1,0.73
2022-06-02T11:09:56.470+02:00,1654160996.000214,53.22909726777361,10.39854707145392,36.87714,0.1141865,0.6462225,15.97572879884251,9.999999633974564,2.400000095367432,7.999579855010837,-9999,4080.606253125,0.468902587890625,1.4505615234375,-0.80426025390625,4080.596259125,0.7827975000081829,0.7267291988561877,-1.081126248252273,-2.767763137817383,4.413952350616455,-0.7006903290748596,0.1288109719753265,0.4712409377098083,-0.563701868057251,XArbitraryZVertical,-0.5608959648695169,0.09819944448434274,0.1366583373220988,0.8106027523267705,0.3125036954879761,0.8824880719184875,-0.3515051603317261,0,0,0,-1,-1,4078.998648291667,unknown,2,2022-06-02T11:09:54.861+02:00,2022-06-02T10:17:13.754+02:00,757,1.604419,0,0,607.4087,0,0,2022-06-02T11:09:54.861+02:00,675853794.8608283,0,5.621094,101.3138,1,0.73
2022-06-02T11:09:56.480+02:00,1654160996.000214,53.22909726777361,10.39854707145392,36.87714,0.1141865,0.6462225,15.97572879884251,9.999999633974564,2.400000095367432,7.999579855010837,-9999,4080.616247125,0.471282958984375,1.49078369140625,-0.7212677001953125,4080.606253125,0.8127511866228405,0.7978634749017686,-1.104402115448805,-2.512621164321899,4.497973918914795,-0.5070846676826477,0.1379976570606232,0.5211567878723145,-0.5177202224731445,XArbitraryZVertical,-0.5747267533256721,0.1127008302492887,0.1229429954722473,0.8011694696067029,0.3219021856784821,0.8931955099105835,-0.3139753639698029,0,0,0,-1,-1,4078.998648291667,unknown,2,2022-06-02T11:09:54.861+02:00,2022-06-02T10:17:13.754+02:00,757,1.604419,0,0,607.4087,0,0,2022-06-02T11:09:54.861+02:00,675853794.8608283,0,5.621094,101.3138,1,0.73
2022-06-02T11:09:56.490+02:00,1654160996.000214,53.22909726777361,10.39854707145392,36.87714,0.1141865,0.6462225,15.97572879884251,9.999999633974564,2.400000095367432,7.999579855010837,-9999,4080.626241125,0.468841552734375,1.49652099609375,-0.5818328857421875,4080.616247125,0.8464586124097284,0.8735360484761494,-1.123368187236424,-2.235867023468018,4.59185266494751,-0.299840122461319,0.1411693096160889,0.5773800611495972,-0.4951677620410919,XArbitraryZVertical,-0.5870721346464395,0.1282196401776918,0.1095507030083797,0.7917731419709068,0.3316700756549835,0.9015628099441528,-0.2778120636940002,0,0,0,-1,-1,4078.998648291667,unknown,2,2022-06-02T11:09:54.861+02:00,2022-06-02T10:17:13.754+02:00,757,1.604419,0,0,607.4087,0,0,2022-06-02T11:09:54.861+02:00,675853794.8608283,0,5.621094,101.3138,1,0.73
2022-06-02T11:09:56.500+02:00,1654160996.000214,53.22909726777361,10.39854707145392,36.87714,0.1141865,0.6462225,15.97572879884251,9.999999633974564,2.400000095367432,7.999579855010837,-9999,4080.636235125,0.4812164306640625,1.474594116210938,-0.4416656494140625,4080.626241125,0.8818704114287801,0.9520685781095923,-1.137436920152801,-1.884912371635437,4.715805530548096,-0.07358194142580032,0.1252705454826355,0.5888386964797974,-0.4104830622673035,XArbitraryZVertical,-0.5976842887146741,0.1449008548961148,0.0964339017896361,0.7826095749361425,0.3420756459236145,0.9075601696968079,-0.2435544729232788,0,0,0,-1,-1,4078.998648291667,unknown,2,2022-06-02T11:09:54.861+02:00,2022-06-02T10:17:13.754+02:00,757,1.604419,0,0,607.4087,0,0,2022-06-02T11:09:54.861+02:00,675853794.8608283,0,5.621094,101.3138,1,0.73
2022-06-02T11:09:56.510+02:00,1654160996.000214,53.22909726777361,10.39854707145392,36.87714,0.1141865,0.6462225,15.97572879884251,9.999999633974564,2.400000095367432,7.999579855010837,-9999,4080.646229125,0.4959869384765625,1.408355712890625,-0.3121795654296875,4080.636235125,0.9171764366309586,1.031679037516434,-1.14649892149835,-1.576201915740967,4.785720825195312,0.1633766740560532,0.1200389266014099,0.5799894332885742,-0.2984634637832642,XArbitraryZVertical,-0.6064991325930587,0.1627414808560868,0.08363433386538431,0.7737436895745596,0.3532886803150177,0.9113281965255737,-0.2113480269908905,0,0,0,-1,-1,4078.998648291667,unknown,2,2022-06-02T11:09:54.861+02:00,2022-06-02T10:17:13.754+02:00,757,1.604419,0,0,607.4087,0,0,2022-06-02T11:09:54.861+02:00,675853794.8608283,0,5.621094,101.3138,1,0.73
2022-06-02T11:09:56.520+02:00,1654160996.000214,53.22909726777361,10.39854707145392,36.87714,0.1141865,0.6462225,15.97572879884251,9.999999633974564,2.400000095367432,7.999579855010837,-9999,4080.656223125,0.493377685546875,1.35028076171875,-0.219085693359375,4080.646229125,0.9510506378070819,1.110370547607893,-1.151028097947228,-1.307517290115356,4.763123989105225,0.3770455420017242,0.1259200274944305,0.5301758050918579,-0.1943110078573227,XArbitraryZVertical,-0.6136412799791529,0.1813875904913798,0.07132011128192149,0.7651510905580374,0.3651077449321747,0.9131834506988525,-0.1810858398675919,0,0,0,-1,-1,4078.998648291667,unknown,2,2022-06-02T11:09:54.861+02:00,2022-06-02T10:17:13.754+02:00,757,1.604419,0,0,607.4087,0,0,2022-06-02T11:09:54.861+02:00,675853794.8608283,0,5.621094,101.3138,1,0.73
2022-06-02T11:09:56.530+02:00,1654160996.000214,53.22909726777361,10.39854707145392,36.87714,0.1141865,0.6462225,15.97572879884251,9.999999633974564,2.400000095367432,7.999579855010837,-9999,4080.666217125,0.4531707763671875,1.3016357421875,-0.131866455078125,4080.656223125,0.9827756364158744,1.18656198457108,-1.151382871408501,-1.093396782875061,4.687676906585693,0.619317352771759,0.1217351853847504,0.4645101428031921,-0.1084757447242737,XArbitraryZVertical,-0.6192554001804299,0.2004962462315651,0.05979820966087356,0.7568013018477857,0.3775323629379272,0.9133279323577881,-0.152648001909256,0,0,0,-1,-1,4078.998648291667,unknown,2,2022-06-02T11:09:54.861+02:00,2022-06-02T10:17:13.754+02:00,757,1.604419,0,0,607.4087,0,0,2022-06-02T11:09:54.861+02:00,675853794.8608283,0,5.621094,101.3138,1,0.73
2022-06-02T11:09:56.540+02:00,1654160996.000214,53.22909726777361,10.39854707145392,36.87714,0.1141865,0.6462225,15.97572879884251,9.999999633974564,2.400000095367432,7.999579855010837,-9999,4080.676211125,0.399810791015625,1.241668701171875,-0.0439453125,4080.666217125,1.012225782457434,1.260004801490422,-1.148005729633605,-0.9586368203163147,4.636551380157471,0.8339742422103882,0.08801865577697754,0.4126220345497131,-0.05328004062175751,XArbitraryZVertical,-0.6235860682907618,0.2200045740490045,0.04913645718522641,0.7485478183829272,0.3906494975090027,0.91194748878479,-0.1254768073558807,0,0,0,-1,-1,4078.998648291667,unknown,2,2022-06-02T11:09:54.861+02:00,2022-06-02T10:17:13.754+02:00,757,1.604419,0,0,607.4087,0,0,2022-06-02T11:09:54.861+02:00,675853794.8608283,0,5.621094,101.3138,1,0.73
2022-06-02T11:09:56.550+02:00,1654160996.000214,53.22909726777361,10.39854707145392,36.87714,0.1141865,0.6462225,15.97572879884251,9.999999633974564,2.400000095367432,7.999579855010837,-9999,4080.686205125,0.337890625,1.135726928710938,0.0220794677734375,4080.676211125,1.039622915988141,1.330882718778431,-1.141131588438927,-0.842365026473999,4.564477443695068,1.121001720428467,0.02126848697662354,0.3692452907562256,0.0161285400390625,XArbitraryZVertical,-0.6268499969579663,0.2399315646196978,0.03942464956988352,0.7402280446631277,0.4046348333358765,0.9091054797172546,-0.09898385405540466,0,0,0,-1,-1,4078.998648291667,unknown,2,2022-06-02T11:09:54.861+02:00,2022-06-02T10:17:13.754+02:00,757,1.604419,0,0,607.4087,0,0,2022-06-02T11:09:54.861+02:00,675853794.8608283,0,5.621094,101.3138,1,0.73
2022-06-02T11:09:56.560+02:00,1654160996.000214,53.22909726777361,10.39854707145392,36.87714,0.1141865,0.6462225,15.97572879884251,9.999999633974564,2.400000095367432,7.999579855010837,-9999,4080.696199125,0.306610107421875,1.0810546875,0.093170166015625,4080.686205125,1.062544980944492,1.397094548323433,-1.130422101728519,-0.6121717691421509,4.529357433319092,1.366540431976318,-0.0517142117023468,0.2835484743118286,0.06036759167909622,XArbitraryZVertical,-0.6287573237549478,0.2604371860114674,0.03066137995529064,0.7320494687667006,0.4198629558086395,0.9045922160148621,-0.07367339730262756,0,0,0,-1,-1,4078.998648291667,unknown,2,2022-06-02T11:09:54.861+02:00,2022-06-02T10:17:13.754+02:00,757,1.604419,0,0,607.4087,0,0,2022-06-02T11:09:54.861+02:00,675853794.8608283,0,5.621094,101.3138,1,0.73
2022-06-02T11:09:56.572+02:00,1654160996.000214,53.22909726777361,10.39854707145392,36.87714,0.1141865,0.6462225,15.97572879884251,9.999999633974564,2.400000095367432,7.999579855010837,-9999,4080.706193125,0.3053131103515625,1.084365844726562,0.197601318359375,4080.696199125,1.078808315781443,1.456874753165086,-1.116859575587072,-0.3981521725654602,4.488499164581299,1.520754814147949,-0.1168014705181122,0.2000880241394043,0.1049315333366394,XArbitraryZVertical,-0.6292275162671445,0.281334382717962,0.02240583768388581,0.7241695726836421,0.4356643259525299,0.8987277746200562,-0.04984739422798157,0,0,0,-1,-1,4078.998648291667,unknown,2,2022-06-02T11:09:54.861+02:00,2022-06-02T10:17:13.754+02:00,757,1.604419,0,0,607.4087,0,0,2022-06-02T11:09:54.861+02:00,675853794.8608283,0,5.621094,101.3138,1,0.73
2022-06-02T11:09:56.592+02:00,1654160996.000214,53.22909726777361,10.39854707145392,36.87714,0.1141865,0.6462225,15.97572879884251,9.999999633974564,2.400000095367432,7.999579855010837,-9999,4080.716187125,0.3178558349609375,1.076171875,0.2767486572265625,4080.706193125,1.087995941844864,1.509292828256758,-1.101068198826438,-0.1417936235666275,4.353387355804443,1.699774861335754,-0.1506403684616089,0.1862045526504517,0.1765183806419373,XArbitraryZVertical,-0.6282606019811189,0.3022876241164492,0.01470221837685882,0.7167248565669539,0.4517877697944641,0.8916913866996765,-0.02782161720097065,0,0,0,-1,-1,4078.998648291667,unknown,2,2022-06-02T11:09:54.861+02:00,2022-06-02T10:17:13.754+02:00,757,1.604419,0,0,607.4087,0,0,2022-06-02T11:09:54.861+02:00,675853794.8608283,0,5.621094,101.3138,1,0.73
2022-06-02T11:09:56.598+02:00,1654160996.000214,53.22909726777361,10.39854707145392,36.87714,0.1141865,0.6462225,15.97572879884251,9.999999633974564,2.400000095367432,7.999579855010837,-9999,4080.726181125,0.3137054443359375,1.039382934570312,0.3422088623046875,4080.716187125,1.08969625846664,1.553535355189221,-1.083472270805169,0.1283620744943619,4.195936679840088,1.814136028289795,-0.1547012627124786,0.2040572166442871,0.2465617656707764,XArbitraryZVertical,-0.6257769697637862,0.3230511564440295,0.007601366639969655,0.7099177263491445,0.468192994594574,0.8835890889167786,-0.008082268759608269,0,0,0,-1,-1,4078.998648291667,unknown,2,2022-06-02T11:09:54.861+02:00,2022-06-02T10:17:13.754+02:00,757,1.604419,0,0,607.4087,0,0,2022-06-02T11:09:54.861+02:00,675853794.8608283,0,5.621094,101.3138,1,0.73
2022-06-02T11:09:56.601+02:00,1654160996.000214,53.22909726777361,10.39854707145392,36.87714,0.1141865,0.6462225,15.97572879884251,9.999999633974564,2.400000095367432,7.999579855010837,-9999,4080.736175125,0.286956787109375,1.009140014648438,0.4085540771484375,4080.726181125,1.082991486222861,1.588791494651648,-1.065160200473616,0.507823646068573,4.050232410430908,1.849640011787415,-0.1658649444580078,0.1814534664154053,0.3014495372772217,XArbitraryZVertical,-0.6216846270102352,0.3433163152131558,0.0007105582340130906,0.7040180737668588,0.4842852652072906,0.8748665452003479,0.008715735748410225,0,0,0,-1,-1,4078.998648291667,unknown,2,2022-06-02T11:09:54.861+02:00,2022-06-02T10:17:13.754+02:00,757,1.604419,0,0,607.4087,0,0,2022-06-02T11:09:54.861+02:00,675853794.8608283,0,5.621094,101.3138,1,0.73
2022-06-02T11:09:56.609+02:00,1654160996.000214,53.22909726777361,10.39854707145392,36.87714,0.1141865,0.6462225,15.97572879884251,9.999999633974564,2.400000095367432,7.999579855010837,-9999,4080.746169125,0.2788848876953125,0.9566192626953125,0.474853515625,4080.736175125,1.067825449819701,1.615610725357287,-1.046881524759196,0.8595018982887268,3.965093374252319,1.847240924835205,-0.1962586641311646,0.1607133150100708,0.3531372547149658,XArbitraryZVertical,-0.615942772493341,0.3630708974118394,-0.006397401090995266,0.6991087203812472,0.4997712075710297,0.8658673763275146,0.02241195179522038,0,0,0,-1,-1,4078.998648291667,unknown,2,2022-06-02T11:09:54.861+02:00,2022-06-02T10:17:13.754+02:00,757,1.604419,0,0,607.4087,0,0,2022-06-02T11:09:54.861+02:00,675853794.8608283,0,5.621094,101.3138,1,0.73
2022-06-02T11:09:56.619+02:00,1654160996.000214,53.22909726777361,10.39854707145392,36.87714,0.1141865,0.6462225,15.97572879884251,9.999999633974564,2.400000095367432,7.999579855010837,-9999,4080.756163125,0.2981109619140625,0.9013519287109375,0.5340728759765625,4080.746169125,1.045602426500853,1.635629212062068,-1.029120543888959,1.195923089981079,3.872340440750122,1.826692938804626,-0.2372217774391174,0.127040684223175,0.4084155559539795,XArbitraryZVertical,-0.608734322661847,0.3822876382443101,-0.01390978301466333,0.6950575887007002,0.5144891142845154,0.8568459153175354,0.03340262919664383,0,0,0,-1,-1,4078.998648291667,unknown,2,2022-06-02T11:09:54.861+02:00,2022-06-02T10:17:13.754+02:00,757,1.604419,0,0,607.4087,0,0,2022-06-02T11:09:54.861+02:00,675853794.8608283,0,5.621094,101.3138,1,0.73
2022-06-02T11:09:56.629+02:00,1654160996.000214,53.22909726777361,10.39854707145392,36.87714,0.1141865,0.6462225,15.97572879884251,9.999999633974564,2.400000095367432,7.999579855010837,-9999,4080.766157125,0.302978515625,0.83770751953125,0.5739898681640625,4080.756163125,1.017601971260897,1.650020435711264,-1.012057584935792,1.470996618270874,3.784623384475708,1.782575726509094,-0.2408718466758728,0.08214443922042847,0.4639050960540771,XArbitraryZVertical,-0.6002164510584261,0.4008955894446324,-0.02182654019378505,0.6917705029577395,0.5284541845321655,0.8479244112968445,0.04195412248373032,0,0,0,-1,-1,4078.998648291667,unknown,2,2022-06-02T11:09:54.861+02:00,2022-06-02T10:17:13.754+02:00,757,1.604419,0,0,607.4087,0,0,2022-06-02T11:09:54.861+02:00,675853794.8608283,0,5.621094,101.3138,1,0.73
2022-06-02T11:09:56.639+02:00,1654160996.000214,53.22909726777361,10.39854707145392,36.87714,0.1141865,0.6462225,15.97572879884251,9.999999633974564,2.400000095367432,7.999579855010837,-9999,4080.776151125,0.2959442138671875,0.7697296142578125,0.6187591552734375,4080.766157125,0.9854627349296519,1.660199890693626,-0.9960520539411822,1.682001709938049,3.681199789047241,1.704403758049011,-0.2399963140487671,0.02947354316711426,0.507889986038208,XArbitraryZVertical,-0.590695200123069,0.4187452763128651,-0.0301703750705699,0.6890727603997461,0.5414489507675171,0.839331328868866,0.04853685200214386,0,0,0,-1,-1,4078.998648291667,unknown,2,2022-06-02T11:09:54.861+02:00,2022-06-02T10:17:13.754+02:00,757,1.604419,0,0,607.4087,0,0,2022-06-02T11:09:54.861+02:00,675853794.8608283,0,5.621094,101.3138,1,0.73
2022-06-02T11:09:56.649+02:00,1654160996.000214,53.22909726777361,10.39854707145392,36.87714,0.1141865,0.6462225,15.97572879884251,9.999999633974564,2.400000095367432,7.999579855010837,-9999,4080.786145125,0.3108062744140625,0.66400146484375,0.6760711669921875,4080.776151125,0.9510023002643746,1.667601958830622,-0.9808979168597484,1.791346907615662,3.55934476852417,1.678672313690186,-0.2540503740310669,-0.0248144268989563,0.5388998985290527,XArbitraryZVertical,-0.5804660575933231,0.4358238955014047,-0.0386998934973806,0.6867451666261916,0.5536719560623169,0.8309971690177917,0.05376662313938141,0,0,0,-1,-1,4078.998648291667,unknown,2,2022-06-02T11:09:54.861+02:00,2022-06-02T10:17:13.754+02:00,757,1.604419,0,0,607.4087,0,0,2022-06-02T11:09:54.861+02:00,675853794.8608283,0,5.621094,101.3138,1,0.73
2022-06-02T11:09:56.659+02:00,1654160996.000214,53.22909726777361,10.39854707145392,36.87714,0.1141865,0.6462225,15.97572879884251,9.999999633974564,2.400000095367432,7.999579855010837,-9999,4080.796139125,0.337371826171875,0.522430419921875,0.7329559326171875,4080.786145125,0.916455082055825,1.673875231670648,-0.9658178440683357,1.750920653343201,3.411539316177368,1.715245246887207,-0.2665157914161682,-0.09840863943099976,0.5891984701156616,XArbitraryZVertical,-0.5698455529402462,0.4522575878003565,-0.04686942791052566,0.6845014607985354,0.5657252669334412,0.8225143551826477,0.05852175876498222,0,0,0,-1,-1,4078.998648291667,unknown,2,2022-06-02T11:09:54.861+02:00,2022-06-02T10:17:13.754+02:00,757,1.604419,0,0,607.4087,0,0,2022-06-02T11:09:54.861+02:00,675853794.8608283,0,5.621094,101.3138,1,0.73
2022-06-02T11:09:56.669+02:00,1654160996.000214,53.22909726777361,10.39854707145392,36.87714,0.1141865,0.6462225,15.97572879884251,9.999999633974564,2.400000095367432,7.999579855010837,-9999,4080.806133125,0.3680572509765625,0.438934326171875,0.83209228515625,4080.796139125,0.8842362283527899,1.680679380719426,-0.9503998765113466,1.592397809028625,3.224769830703735,1.738687872886658,-0.2540141940116882,-0.2206458449363708,0.6377545595169067,XArbitraryZVertical,-0.5592929427141424,0.4680468360001743,-0.05418287041179218,0.6820466885644891,0.577851414680481,0.8136480450630188,0.06375287473201752,0,0,0,-1,-1,4078.998648291667,unknown,2,2022-06-02T11:09:54.861+02:00,2022-06-02T10:17:13.754+02:00,757,1.604419,0,0,607.4087,0,0,2022-06-02T11:09:54.861+02:00,675853794.8608283,0,5.621094,101.3138,1,0.73
2022-06-02T11:09:56.679+02:00,1654160996.000214,53.22909726777361,10.39854707145392,36.87714,0.1141865,0.6462225,15.97572879884251,9.999999633974564,2.400000095367432,7.999579855010837,-9999,4080.816128125,0.3985748291015625,0.426025390625,0.9437408447265625,4080.806133125,0.8555011339176029,1.688504426819305,-0.9348285272510435,1.407478809356689,2.997873544692993,1.742785453796387,-0.2391381859779358,-0.3347251415252686,0.7098345756530762,XArbitraryZVertical,-0.5491594892943329,0.4830112925085462,-0.06044546225693156,0.6793159140912686,0.589846134185791,0.804497241973877,0.06975210458040237,0,0,0,-1,-1,4078.998648291667,unknown,2,2022-06-02T11:09:54.861+02:00,2022-06-02T10:17:13.754+02:00,757,1.604419,0,0,607.4087,0,0,2022-06-02T11:09:54.861+02:00,675853794.8608283,0,5.621094,101.3138,1,0.73
2022-06-02T11:09:56.689+02:00,1654160996.000214,53.22909726777361,10.39854707145392,36.87714,0.1141865,0.6462225,15.97572879884251,9.999999633974564,2.400000095367432,7.999579855010837,-9999,4080.826122125,0.4163970947265625,0.421356201171875,1.06817626953125,4080.816128125,0.8304785313368712,1.697273773107985,-0.9190831346863889,1.186570644378662,2.766778469085693,1.746313095092773,-0.2182969450950623,-0.3668689131736755,0.8124817609786987,XArbitraryZVertical,-0.5395721017581614,0.4971088167563258,-0.0655463276325228,0.6763493823121279,0.6017045378684998,0.7950458526611328,0.07651045918464661,0,0,0,-1,-1,4078.998648291667,unknown,2,2022-06-02T11:09:54.861+02:00,2022-06-02T10:17:13.754+02:00,757,1.604419,0,0,607.4087,0,0,2022-06-02T11:09:54.861+02:00,675853794.8608283,0,5.621094,101.3138,1,0.73
2022-06-02T11:09:56.699+02:00,1654160996.000214,53.22909726777361,10.39854707145392,36.87714,0.1141865,0.6462225,15.97572879884251,9.999999633974564,2.400000095367432,7.999579855010837,-9999,4080.836116125,0.4351806640625,0.4013671875,1.240966796875,4080.826122125,0.8091010476074166,1.706910768176047,-0.9032792104795425,0.9961434006690979,2.551850080490112,1.725361943244934,-0.2032322287559509,-0.3600987792015076,0.9133601188659668,XArbitraryZVertical,-0.5306141136598977,0.5103417267228193,-0.0695299735061677,0.6731756396871845,0.6133120656013489,0.785361111164093,0.08400002866983414,0,0,0,-1,-1,4078.998648291667,unknown,2,2022-06-02T11:09:54.861+02:00,2022-06-02T10:17:13.754+02:00,757,1.604419,0,0,607.4087,0,0,2022-06-02T11:09:54.861+02:00,675853794.8608283,0,5.621094,101.3138,1,0.73
2022-06-02T11:09:56.709+02:00,1654160996.000214,53.22909726777361,10.39854707145392,36.87714,0.1141865,0.6462225,15.97572879884251,9.999999633974564,2.400000095367432,7.999579855010837,-9999,4080.846110125,0.441375732421875,0.3435211181640625,1.387741088867188,4080.836116125,0.7910384268483184,1.717308355395901,-0.8875656547483044,0.7854729294776917,2.36292028427124,1.716142416000366,-0.2016101479530334,-0.3599032759666443,1.061645746231079,XArbitraryZVertical,-0.5223045519985665,0.5227612334329508,-0.07253665553418041,0.6698185327654996,0.6245378851890564,0.7755372524261475,0.09216270595788956,0,0,0,-1,-1,4078.998648291667,unknown,2,2022-06-02T11:09:54.861+02:00,2022-06-02T10:17:13.754+02:00,757,1.604419,0,0,607.4087,0,0,2022-06-02T11:09:54.861+02:00,675853794.8608283,0,5.621094,101.3138,1,0.73
2022-06-02T11:09:56.719+02:00,1654160996.000214,53.22909726777361,10.39854707145392,36.87714,0.1141865,0.6462225,15.97572879884251,9.999999633974564,2.400000095367432,7.999579855010837,-9999,4080.856104125,0.4226531982421875,0.2896270751953125,1.515823364257812,4080.846110125,0.7765011640983904,1.728832636320456,-0.8716164096986061,0.5640249848365784,2.167460441589355,1.704914212226868,-0.1880295872688293,-0.386113166809082,1.215179443359375,XArbitraryZVertical,-0.5146791284569819,0.5345552085172212,-0.07447474925157123,0.666190324999111,0.6355698108673096,0.76537024974823,0.1012877523899078,0,0,0,-1,-1,4078.998648291667,unknown,2,2022-06-02T11:09:54.861+02:00,2022-06-02T10:17:13.754+02:00,757,1.604419,0,0,607.4087,0,0,2022-06-02T11:09:54.861+02:00,675853794.8608283,0,5.621094,101.3138,1,0.73
2022-06-02T11:09:56.729+02:00,1654160996.000214,53.22909726777361,10.39854707145392,36.87714,0.1141865,0.6462225,15.97572879884251,9.999999633974564,2.400000095367432,7.999579855010837,-9999,4080.866098125,0.3916168212890625,0.271026611328125,1.603164672851562,4080.856104125,0.765549037943281,1.740629629079849,-0.8558378987022481,0.3141590058803558,1.85844886302948,1.641836643218994,-0.2168174386024475,-0.4447415471076965,1.343844890594482,XArbitraryZVertical,-0.5079332166988935,0.545350140283684,-0.07526247436370109,0.6625198665830315,0.64615398645401,0.7551205158233643,0.1108058542013168,0,0,0,-1,-1,4078.998648291667,unknown,2,2022-06-02T11:09:54.861+02:00,2022-06-02T10:17:13.754+02:00,757,1.604419,0,0,607.4087,0,0,2022-06-02T11:09:54.861+02:00,675853794.8608283,0,5.621094,101.3138,1,0.73
2022-06-02T11:09:56.739+02:00,1654160996.000214,53.22909726777361,10.39854707145392,36.87714,0.1141865,0.6462225,15.97572879884251,9.999999633974564,2.400000095367432,7.999579855010837,-9999,4080.876090625,0.3464813232421875,0.2808685302734375,1.645965576171875,4080.866098125,0.758794863548846,1.752265962093482,-0.8403499082902819,0.02091912925243378,1.471454262733459,1.557427525520325,-0.2441522479057312,-0.4664496183395386,1.446984529495239,XArbitraryZVertical,-0.5023389914593713,0.5548533812643058,-0.07465031059149504,0.6589540946694757,0.6562463045120239,0.7448766231536865,0.1204134747385979,0,0,0,-1,-1,4078.998648291667,unknown,2,2022-06-02T11:09:54.861+02:00,2022-06-02T10:17:13.754+02:00,757,1.604419,0,0,607.4087,0,0,2022-06-02T11:09:54.861+02:00,675853794.8608283,0,5.621094,101.3138,1,0.73
2022-06-02T11:09:56.749+02:00,1654160996.000214,53.22909726777361,10.39854707145392,36.87714,0.1141865,0.6462225,15.97572879884251,9.999999633974564,2.400000095367432,7.999579855010837,-9999,4080.886084625,0.333587646484375,0.3553314208984375,1.67462158203125,4080.876090625,0.7562195448656844,1.762191847412073,-0.8256955488634599,-0.2207227647304535,0.8705954551696777,1.383128046989441,-0.3024441003799438,-0.4658547639846802,1.495710730552673,XArbitraryZVertical,-0.4981249404958822,0.562462034418902,-0.07248701126579178,0.6559370323341357,0.6656641960144043,0.7350195646286011,0.1289839893579483,0,0,0,-1,-1,4078.998648291667,unknown,2,2022-06-02T11:09:54.861+02:00,2022-06-02T10:17:13.754+02:00,757,1.604419,0,0,607.4087,0,0,2022-06-02T11:09:54.861+02:00,675853794.8608283,0,5.621094,101.3138,1,0.73
2022-06-02T11:09:56.759+02:00,1654160996.000214,53.22909726777361,10.39854707145392,36.87714,0.1141865,0.6462225,15.97572879884251,9.999999633974564,2.400000095367432,7.999579855010837,-9999,4080.896078625,0.2894134521484375,0.40728759765625,1.750686645507812,4080.886084625,0.7570763636460477,1.76789670886893,-0.8124451866525561,-0.4059807658195496,0.1362109035253525,1.19937527179718,-0.3333760499954224,-0.4129827618598938,1.527998924255371,XArbitraryZVertical,-0.495330848684393,0.567437075781166,-0.06864237425606814,0.6541794290610371,0.6744099259376526,0.725970983505249,0.1346749663352966,0,0,0,-1,-1,4078.998648291667,unknown,2,2022-06-02T11:09:54.861+02:00,2022-06-02T10:17:13.754+02:00,757,1.604419,0,0,607.4087,0,0,2022-06-02T11:09:54.861+02:00,675853794.8608283,0,5.621094,101.3138,1,0.73
2022-06-02T11:09:56.769+02:00,1654160996.000214,53.22909726777361,10.39854707145392,36.87714,0.1141865,0.6462225,15.97572879884251,9.999999633974564,2.400000095367432,7.999579855010837,-9999,4080.906072625,0.22711181640625,0.441619873046875,1.93280029296875,4080.896078625,0.7603346087433515,1.767586948483251,-0.8008596405249556,-0.4802074432373047,-0.6700240969657898,0.9745544195175171,-0.3651496171951294,-0.3307020664215088,1.565344929695129,XArbitraryZVertical,-0.4937795235512116,0.5694141813667237,-0.06313946060093759,0.6541884623973634,0.6826544404029846,0.7179547548294067,0.1361014544963837,0,0,0,-1,-1,4078.998648291667,unknown,2,2022-06-02T11:09:54.861+02:00,2022-06-02T10:17:13.754+02:00,757,1.604419,0,0,607.4087,0,0,2022-06-02T11:09:54.861+02:00,675853794.8608283,0,5.621094,101.3138,1,0.73
2022-06-02T11:09:56.779+02:00,1654160996.000214,53.22909726777361,10.39854707145392,36.87714,0.1141865,0.6462225,15.97572879884251,9.999999633974564,2.400000095367432,7.999579855010837,-9999,4080.916066625,0.1388702392578125,0.467559814453125,2.125152587890625,4080.906072625,0.765074211376419,1.759915828557279,-0.7913939986689269,-0.5427898764610291,-1.550070285797119,0.7525602579116821,-0.4307094812393188,-0.2872310876846313,1.699349403381348,XArbitraryZVertical,-0.4933089491344774,0.5680779235708485,-0.05613368313826134,0.6563403422534816,0.6903223991394043,0.7113337516784668,0.13213250041008,0,0,0,-1,-1,4078.998648291667,unknown,2,2022-06-02T11:09:54.861+02:00,2022-06-02T10:17:13.754+02:00,757,1.604419,0,0,607.4087,0,0,2022-06-02T11:09:54.861+02:00,675853794.8608283,0,5.621094,101.3138,1,0.73
2022-06-02T11:09:56.789+02:00,1654160996.000214,53.22909726777361,10.39854707145392,36.87714,0.1141865,0.6462225,15.97572879884251,9.999999633974564,2.400000095367432,7.999579855010837,-9999,4080.926060625,0.0397796630859375,0.519012451171875,2.235397338867188,4080.916066625,0.7725585468280187,1.744904685347998,-0.7841079864819452,-0.7901808023452759,-2.516498565673828,0.4819602966308594,-0.5119657516479492,-0.2529163956642151,1.912643432617188,XArbitraryZVertical,-0.4942200933317907,0.5630910557404748,-0.0472317808673316,0.6606391789696929,0.6973142623901367,0.7061939239501953,0.122650071978569,0,0,0,-1,-1,4078.998648291667,unknown,2,2022-06-02T11:09:54.861+02:00,2022-06-02T10:17:13.754+02:00,757,1.604419,0,0,607.4087,0,0,2022-06-02T11:09:54.861+02:00,675853794.8608283,0,5.621094,101.3138,1,0.73
2022-06-02T11:09:56.799+02:00,1654160996.000214,53.22909726777361,10.39854707145392,36.87714,0.1141865,0.6462225,15.97572879884251,9.999999633974564,2.400000095367432,7.999579855010837,-9999,4080.936054625,-0.0547027587890625,0.6103363037109375,2.27655029296875,4080.926060625,0.7858641705746318,1.723978732007675,-0.7792221411905905,-1.262757182121277,-3.550324678421021,0.1690825521945953,-0.6152997612953186,-0.2143077850341797,2.08181095123291,XArbitraryZVertical,-0.4972885319679929,0.5540603285846443,-0.0358074181708385,0.6666625447346348,0.7031292915344238,0.7027262449264526,0.1085574626922607,0,0,0,-1,-1,4078.998648291667,unknown,2,2022-06-02T11:09:54.861+02:00,2022-06-02T10:17:13.754+02:00,757,1.604419,0,0,607.4087,0,0,2022-06-02T11:09:54.861+02:00,675853794.8608283,0,5.621094,101.3138,1,0.73
2022-06-02T11:09:56.809+02:00,1654160996.000214,53.22909726777361,10.39854707145392,36.87714,0.1141865,0.6462225,15.97572879884251,9.999999633974564,2.400000095367432,7.999579855010837,-9999,4080.946048625,-0.145233154296875,0.683013916015625,2.2044677734375,4080.936054625,0.8079359951755474,1.698563805756592,-0.7769632078292218,-1.95331883430481,-4.649447441101074,-0.1632913798093796,-0.7132608890533447,-0.1398991942405701,2.171136856079102,XArbitraryZVertical,-0.5031852464007691,0.5405856103690274,-0.02121672685189296,0.6738853865214857,0.7072336077690125,0.7011172771453857,0.09085638821125031,0,0,0,-1,-1,4078.998648291667,unknown,2,2022-06-02T11:09:54.861+02:00,2022-06-02T10:17:13.754+02:00,757,1.604419,0,0,607.4087,0,0,2022-06-02T11:09:54.861+02:00,675853794.8608283,0,5.621094,101.3138,1,0.73
2022-06-02T11:09:56.819+02:00,1654160996.000214,53.22909726777361,10.39854707145392,36.87714,0.1141865,0.6462225,15.97572879884251,9.999999633974564,2.400000095367432,7.999579855010837,-9999,4080.956042625,-0.245025634765625,0.744354248046875,1.99072265625,4080.946048625,0.8414541362486145,1.669730376650002,-0.7775489537984951,-2.785075426101685,-5.823500633239746,-0.5171466469764709,-0.8078136444091797,-0.0458952784538269,2.192535161972046,XArbitraryZVertical,-0.5123961216133628,0.522153879002823,-0.002749707434905653,0.6817609035490596,0.7091503143310547,0.7015348076820374,0.07038892060518265,0,0,0,-1,-1,4078.998648291667,unknown,2,2022-06-02T11:09:54.861+02:00,2022-06-02T10:17:13.754+02:00,757,1.604419,0,0,607.4087,0,0,2022-06-02T11:09:54.861+02:00,675853794.8608283,0,5.621094,101.3138,1,0.73
2022-06-02T11:09:56.829+02:00,1654160996.000214,53.22909726777361,10.39854707145392,36.87714,0.1141865,0.6462225,15.97572879884251,9.999999633974564,2.400000095367432,7.999579855010837,-9999,4080.966036625,-0.3349761962890625,0.813201904296875,1.679183959960938,4080.956042625,0.8870548062739175,1.637593442583806,-0.782097181547397,-3.610650062561035,-7.032996654510498,-0.9233699440956116,-0.9056850671768188,0.003467738628387451,2.06255578994751,XArbitraryZVertical,-0.5249208910373817,0.4981311184773871,0.0195736250721793,0.6898841922244781,0.7078548073768616,0.7047687768936157,0.0473531074821949,0,0,0,-1,-1,4078.998648291667,unknown,2,2022-06-02T11:09:54.861+02:00,2022-06-02T10:17:13.754+02:00,757,1.604419,0,0,607.4087,0,0,2022-06-02T11:09:54.861+02:00,675853794.8608283,0,5.621094,101.3138,1,0.73
2022-06-02T11:09:56.839+02:00,1654160996.000214,53.22909726777361,10.39854707145392,36.87714,0.1141865,0.6462225,15.97572879884251,9.999999633974564,2.400000095367432,7.999579855010837,-9999,4080.976030625,-0.438201904296875,0.9033203125,1.274795532226562,4080.966036625,0.9438953270434153,1.601238955961994,-0.79150442901109,-4.29050350189209,-8.297616958618164,-1.355614066123962,-0.9882320165634155,0.07073885202407837,1.826051473617554,XArbitraryZVertical,-0.5401687785671785,0.4678816192493748,0.04560970517221668,0.6980144621427959,0.702450156211853,0.7114113569259644,0.02139103785157204,0,0,0,-1,-1,4078.998648291667,unknown,2,2022-06-02T11:09:54.861+02:00,2022-06-02T10:17:13.754+02:00,757,1.604419,0,0,607.4087,0,0,2022-06-02T11:09:54.861+02:00,675853794.8608283,0,5.621094,101.3138,1,0.73
2022-06-02T11:09:56.849+02:00,1654160996.000214,53.22909726777361,10.39854707145392,36.87714,0.1141865,0.6462225,15.97572879884251,9.999999633974564,2.400000095367432,7.999579855010837,-9999,4080.986024625,-0.5303802490234375,1.039169311523438,0.85479736328125,4080.976030625,1.009036780706845,1.558398694770039,-0.8068950423274901,-4.769980907440186,-9.613926887512207,-1.806693196296692,-1.081217288970947,0.1265662312507629,1.496612787246704,XArbitraryZVertical,-0.5569265616137234,0.4307492554044388,0.07479998488550922,0.7061818853919763,0.6916908621788025,0.7221428155899048,-0.008575768209993839,0,0,0,-1,-1,4078.998648291667,unknown,2,2022-06-02T11:09:54.861+02:00,2022-06-02T10:17:13.754+02:00,757,1.604419,0,0,607.4087,0,0,2022-06-02T11:09:54.861+02:00,675853794.8608283,0,5.621094,101.3138,1,0.73
2022-06-02T11:09:56.859+02:00,1654160996.000214,53.22909726777361,10.39854707145392,36.87714,0.1141865,0.6462225,15.97572879884251,9.999999633974564,2.400000095367432,7.999579855010837,-9999,4080.996018625,-0.67779541015625,1.171722412109375,0.285247802734375,4080.986024625,1.080894261191063,1.508242977246183,-0.828793680725242,-5.159402847290039,-10.91653633117676,-2.208522319793701,-1.156697869300842,0.2367449402809143,1.103614568710327,XArbitraryZVertical,-0.5740950585310445,0.3863844522041269,0.1069003458653937,0.7139287908187281,0.6744439005851746,0.7371166944503784,-0.0422438383102417,0,0,0,-1,-1,4078.998648291667,unknown,2,2022-06-02T11:09:54.861+02:00,2022-06-02T10:17:13.754+02:00,757,1.604419,0,0,607.4087,0,0,2022-06-02T11:09:54.861+02:00,675853794.8608283,0,5.621094,101.3138,1,0.73
2022-06-02T11:09:56.869+02:00,1654160996.000214,53.22909726777361,10.39854707145392,36.87714,0.1141865,0.6462225,15.97572879884251,9.999999633974564,2.400000095367432,7.999579855010837,-9999,4081.006012625,-0.84112548828125,1.311248779296875,-0.427398681640625,4080.996018625,1.152044249412065,1.445841171265438,-0.8573407936081439,-4.726968288421631,-12.13280582427979,-2.607580900192261,-1.24560022354126,0.3404373526573181,0.6956541538238525,XArbitraryZVertical,-0.5891496741475559,0.3348440066888055,0.1408763135180212,0.7217589480317572,0.6493477821350098,0.7561049461364746,-0.08156430721282959,0,0,0,-1,-1,4078.998648291667,unknown,2,2022-06-02T11:09:54.861+02:00,2022-06-02T10:17:13.754+02:00,757,1.604419,0,0,607.4087,0,0,2022-06-02T11:09:54.861+02:00,675853794.8608283,0,5.621094,101.3138,1,0.73
2022-06-02T11:09:56.879+02:00,1654160996.000214,53.22909726777361,10.39854707145392,36.87714,0.1141865,0.6462225,15.97572879884251,9.999999633974564,2.400000095367432,7.999579855010837,-9999,4081.016006625,-0.8318023681640625,1.252105712890625,-0.699737548828125,4081.006012625,1.211442950626066,1.367082054623124,-0.8915913950712095,-3.899742364883423,-12.67189407348633,-2.873931884765625,-1.383587241172791,0.4784125089645386,0.02678871154785156,XArbitraryZVertical,-0.5992625542645025,0.2781042385986693,0.1744409400946242,0.730145684677454,0.6151850819587708,0.7780724167823792,-0.1270848512649536,0,0,0,-1,-1,4078.998648291667,unknown,2,2022-06-02T11:09:54.861+02:00,2022-06-02T10:17:13.754+02:00,757,1.604419,0,0,607.4087,0,0,2022-06-02T11:09:54.861+02:00,675853794.8608283,0,5.621094,101.3138,1,0.73
2022-06-02T11:09:56.889+02:00,1654160996.000214,53.22909726777361,10.39854707145392,36.87714,0.1141865,0.6462225,15.97572879884251,9.999999633974564,2.400000095367432,7.999579855010837,-9999,4081.026000625,-0.579132080078125,1.221298217773438,-0.5189208984375,4081.016006625,1.25098871116529,1.268927299870101,-0.9268781841028402,-2.478001594543457,-13.2680606842041,-2.744143486022949,-1.439459919929504,0.5091491341590881,-0.4468077421188354,XArbitraryZVertical,-0.6023123380206508,0.2190404211200979,0.2070078477536298,0.7391811741077041,0.5731878876686096,0.7997497320175171,-0.1784822791814804,0,0,0,-1,-1,4078.998648291667,unknown,2,2022-06-02T11:09:54.861+02:00,2022-06-02T10:17:13.754+02:00,757,1.604419,0,0,607.4087,0,0,2022-06-02T11:09:54.861+02:00,675853794.8608283,0,5.621094,101.3138,1,0.73
2022-06-02T11:09:56.899+02:00,1654160996.000214,53.22909726777361,10.39854707145392,36.87714,0.1141865,0.6462225,15.97572879884251,9.999999633974564,2.400000095367432,7.999579855010837,-9999,4081.035994625,-0.6077423095703125,1.320266723632812,1.724502563476562,4081.026000625,1.261576988534625,1.140409484154063,-0.9574807283243401,-0.9354177117347717,-14.16970920562744,-2.548450946807861,-1.24730396270752,0.3904314637184143,-0.4274722933769226,XArbitraryZVertical,-0.595731738710566,0.1582114832850105,0.2398428081508512,0.7500321305529525,0.5230913162231445,0.8177441358566284,-0.2401456385850906,0,0,0,-1,-1,4078.998648291667,unknown,2,2022-06-02T11:09:54.861+02:00,2022-06-02T10:17:13.754+02:00,757,1.604419,0,0,607.4087,0,0,2022-06-02T11:09:54.861+02:00,675853794.8608283,0,5.621094,101.3138,1,0.73
2022-06-02T11:09:56.909+02:00,1654160996.000214,53.22909726777361,10.39854707145392,36.87714,0.1141865,0.6462225,15.97572879884251,9.999999633974564,2.400000095367432,7.999579855010837,-9999,4081.045989625,-9.412078857421875,3.331649780273438,-10.50302124023438,4081.035994625,1.262690823592075,1.042639245092994,-0.9674943249350694,2.205749988555908,2.723371028900146,3.258973360061646,-0.9536922574043274,0.4244123697280884,0.4660337269306183,XArbitraryZVertical,-0.5857929188465776,0.1178435621485137,0.2661181808360037,0.7563998032850028,0.4900539815425873,0.8234666585922241,-0.2859191000461578,0,0,0,-1,-1,4078.998648291667,unknown,2,2022-06-02T11:09:54.861+02:00,2022-06-02T10:17:13.754+02:00,757,1.604419,0,0,607.4087,0,0,2022-06-02T11:09:54.861+02:00,675853794.8608283,0,5.621094,101.3138,1,0.73
2022-06-02T11:09:56.919+02:00,1654160996.000214,53.22909726777361,10.39854707145392,36.87714,0.1141865,0.6462225,15.97572879884251,9.999999633974564,2.400000095367432,7.999579855010837,-9999,4081.055983625,5.405502319335938,0.5274810791015625,-11.66658020019531,4081.045989625,1.228232500154936,1.069883115056982,-0.90526656345483,3.410768270492554,3.167336225509644,2.933200359344482,-7.052617073059082,1.2713782787323,-5.838023662567139,XArbitraryZVertical,-0.5716715777756897,0.1578842102895034,0.2636012523917098,0.7607748612652255,0.54161536693573,0.7865898013114929,-0.2965283691883087,0,0,0,-1,-1,4078.998648291667,unknown,2,2022-06-02T11:09:54.861+02:00,2022-06-02T10:17:13.754+02:00,757,1.604419,0,0,607.4087,0,0,2022-06-02T11:09:54.861+02:00,675853794.8608283,0,5.621094,101.3138,1,0.73
2022-06-02T11:09:56.929+02:00,1654160996.000214,53.22909726777361,10.39854707145392,36.87714,0.1141865,0.6462225,15.97572879884251,9.999999633974564,2.400000095367432,7.999579855010837,-9999,4081.065977625,-0.56768798828125,-0.0032806396484375,-4.024124145507812,4081.055983625,1.258491230477637,1.067026782546292,-0.8969383399116423,-0.4273830056190491,-5.20369815826416,0.9762042760848999,-2.430639743804932,2.920667171478271,-12.43305778503418,XArbitraryZVertical,-0.5715345608662595,0.1507817678474355,0.2783603472999946,0.7570525674164738,0.5464845895767212,0.781420111656189,-0.3012261986732483,0,0,0,-1,-1,4078.998648291667,unknown,2,2022-06-02T11:09:54.861+02:00,2022-06-02T10:17:13.754+02:00,757,1.604419,0,0,607.4087,0,0,2022-06-02T11:09:54.861+02:00,675853794.8608283,0,5.621094,101.3138,1,0.73
2022-06-02T11:09:56.939+02:00,1654160996.000214,53.22909726777361,10.39854707145392,36.87714,0.1141865,0.6462225,15.97572879884251,9.999999633974564,2.400000095367432,7.999579855010837,-9999,4081.075971625,0.0077362060546875,2.509552001953125,-1.894622802734375,4081.065977625,1.223538977087287,0.993304624915733,-0.8929920395661436,2.763181447982788,-4.146234035491943,-1.89922308921814,2.705365896224976,-2.493978500366211,-6.982306003570557,XArbitraryZVertical,-0.5576100892812338,0.1337939921369644,0.2869953339158444,0.767335465645987,0.5253927111625671,0.7789514660835266,-0.3423403203487396,0,0,0,-1,-1,4078.998648291667,unknown,2,2022-06-02T11:09:54.861+02:00,2022-06-02T10:17:13.754+02:00,757,1.604419,0,0,607.4087,0,0,2022-06-02T11:09:54.861+02:00,675853794.8608283,0,5.621094,101.3138,1,0.73
2022-06-02T11:09:56.949+02:00,1654160996.000214,53.22909726777361,10.39854707145392,36.87714,0.1141865,0.6462225,15.97572879884251,9.999999633974564,2.400000095367432,7.999579855010837,-9999,4081.085965625,0.716400146484375,1.132843017578125,-0.270721435546875,4081.075971625,1.177264874694677,0.9249285396768677,-0.8983755175232168,1.525415301322937,-2.309942483901978,-2.193183422088623,-1.632642865180969,1.36186408996582,-2.201615571975708,XArbitraryZVertical,-0.5463582865605157,0.1184861830105736,0.2864784630486129,0.7780641221242809,0.4974194467067719,0.7823160886764526,-0.3749072849750519,0,0,0,-1,-1,4078.998648291667,unknown,2,2022-06-02T11:09:54.861+02:00,2022-06-02T10:17:13.754+02:00,757,1.604419,0,0,607.4087,0,0,2022-06-02T11:09:54.861+02:00,675853794.8608283,0,5.621094,101.3138,1,0.73
2022-06-02T11:09:56.959+02:00,1654160996.000214,53.22909726777361,10.39854707145392,36.87714,0.1141865,0.6462225,15.97572879884251,9.999999633974564,2.400000095367432,7.999579855010837,-9999,4081.095959625,1.072296142578125,0.404541015625,1.185440063476562,4081.085965625,1.143941715960688,0.8789371357306671,-0.8993551067435647,1.509145498275757,-2.034603834152222,-0.491022139787674,-0.0345781147480011,1.036516666412354,-0.8535367250442505,XArbitraryZVertical,-0.5381630219655826,0.1092486609928128,0.2856567596023946,0.7853950170929994,0.4790665209293365,0.7829259037971497,-0.3968905806541443,0,0,0,-1,-1,4078.998648291667,unknown,2,2022-06-02T11:09:54.861+02:00,2022-06-02T10:17:13.754+02:00,757,1.604419,0,0,607.4087,0,0,2022-06-02T11:09:54.861+02:00,675853794.8608283,0,5.621094,101.3138,1,0.73
2022-06-02T11:09:56.969+02:00,1654160996.000214,53.22909726777361,10.39854707145392,36.87714,0.1141865,0.6462225,15.97572879884251,9.999999633974564,2.400000095367432,7.999579855010837,-9999,4081.105953625,0.4196319580078125,-0.333343505859375,0.5784759521484375,4081.095959625,1.143616182078784,0.8551770456948643,-0.895563603306891,-1.352811455726624,-2.841444253921509,0.7204077243804932,0.3806932866573334,-0.07917612791061401,1.131891250610352,XArbitraryZVertical,-0.5335927622816578,0.1011255660563448,0.2929024165318503,0.7869309765934883,0.4717389047145844,0.7805615067481995,-0.4101047813892365,0,0,0,-1,-1,4078.998648291667,unknown,2,2022-06-02T11:09:54.861+02:00,2022-06-02T10:17:13.754+02:00,757,1.604419,0,0,607.4087,0,0,2022-06-02T11:09:54.861+02:00,675853794.8608283,0,5.621094,101.3138,1,0.73
2022-06-02T11:09:56.979+02:00,1654160996.000214,53.22909726777361,10.39854707145392,36.87714,0.1141865,0.6462225,15.97572879884251,9.999999633974564,2.400000095367432,7.999579855010837,-9999,4081.115947625,-0.042266845703125,-0.2059478759765625,0.857574462890625,4081.105953625,1.178333739443705,0.8505926864014816,-0.9169371720104151,-4.489880561828613,-3.499921798706055,-1.393027067184448,0.3660806715488434,-0.7854874730110168,1.309461116790771,XArbitraryZVertical,-0.5407677597362605,0.08358801714376012,0.3020799538754079,0.7805965516607694,0.4572072327136993,0.7937423586845398,-0.401166558265686,0,0,0,-1,-1,4078.998648291667,unknown,2,2022-06-02T11:09:54.861+02:00,2022-06-02T10:17:13.754+02:00,757,1.604419,0,0,607.4087,0,0,2022-06-02T11:09:54.861+02:00,675853794.8608283,0,5.621094,101.3138,1,0.73
2022-06-02T11:09:56.989+02:00,1654160996.000214,53.22909726777361,10.39854707145392,36.87714,0.1141865,0.6462225,15.97572879884251,9.999999633974564,2.400000095367432,7.999579855010837,-9999,4081.125941625,-0.116973876953125,0.450439453125,0.527130126953125,4081.115947625,1.223393385955611,0.8543328572394248,-0.9648887565611349,-5.552315711975098,-2.919737577438354,-1.898473620414734,-0.4014697968959808,-1.236582279205322,1.065704464912415,XArbitraryZVertical,-0.5564482549245096,0.05797539147190241,0.3056449259741643,0.7704448062450944,0.4294848442077637,0.8219855427742004,-0.3740083873271942,0,0,0,-1,-1,4078.998648291667,unknown,2,2022-06-02T11:09:54.861+02:00,2022-06-02T10:17:13.754+02:00,757,1.604419,0,0,607.4087,0,0,2022-06-02T11:09:54.861+02:00,675853794.8608283,0,5.621094,101.3138,1,0.73
2022-06-02T11:09:56.999+02:00,1654160996.000214,53.22909726777361,10.39854707145392,36.87714,0.1141865,0.6462225,15.97572879884251,9.999999633974564,2.400000095367432,7.999579855010837,-9999,4081.135935625,-0.12994384765625,0.9813079833984375,-0.018402099609375,4081.125941625,1.281012875266235,0.8793753803772528,-1.010710806054631,-4.977541446685791,-1.738248109817505,-1.154846668243408,-0.5024202466011047,-0.7237510085105896,1.083864688873291,XArbitraryZVertical,-0.5738199089310743,0.03683631601044449,0.3079424964465423,0.7579874810574675,0.4092499911785126,0.8472096920013428,-0.3387475907802582,0,0,0,-1,-1,4078.998648291667,unknown,2,2022-06-02T11:09:54.861+02:00,2022-06-02T10:17:13.754+02:00,757,1.604419,0,0,607.4087,0,0,2022-06-02T11:09:54.861+02:00,675853794.8608283,0,5.621094,101.3138,1,0.73
2022-06-02T11:09:57.009+02:00,1654160996.000214,53.22909726777361,10.39854707145392,36.87714,0.1141865,0.6462225,15.97572879884251,9.999999633974564,2.400000095367432,7.999579855010837,-9999,4081.145929625,0.245880126953125,1.49530029296875,-0.281768798828125,4081.135935625,1.321377597860973,0.8999627423047626,-1.045203857269121,-2.434621334075928,-1.18396532535553,-1.627760291099548,-0.5928629636764526,-0.1545015573501587,0.5552849173545837,XArbitraryZVertical,-0.5861568783871495,0.02177349972754077,0.3074036693305798,0.7492988448535355,0.3930032551288605,0.8650268316268921,-0.3118920624256134,0,0,0,-1,-1,4078.998648291667,unknown,2,2022-06-02T11:09:54.861+02:00,2022-06-02T10:17:13.754+02:00,757,1.604419,0,0,607.4087,0,0,2022-06-02T11:09:54.861+02:00,675853794.8608283,0,5.621094,101.3138,1,0.73
2022-06-02T11:09:57.020+02:00,1654160996.000214,53.22909726777361,10.39854707145392,36.87714,0.1141865,0.6462225,15.97572879884251,9.999999633974564,2.400000095367432,7.999579855010837,-9999,4081.155923625,0.4922027587890625,1.46044921875,-0.2906036376953125,4081.145929625,1.316270151807281,0.883298934065655,-1.063943835851089,0.3502534925937653,-1.330507040023804,-1.505448460578918,-0.3579749464988708,0.3879454731941223,0.1048077344894409,XArbitraryZVertical,-0.5880924224610605,0.01094825238579333,0.3050166320660092,0.7489941111740992,0.3751562833786011,0.8742766976356506,-0.3080548644065857,0,0,0,-1,-1,4078.998648291667,unknown,2,2022-06-02T11:09:54.861+02:00,2022-06-02T10:17:13.754+02:00,757,1.604419,0,0,607.4087,0,0,2022-06-02T11:09:54.861+02:00,675853794.8608283,0,5.621094,101.3138,1,0.73
2022-06-02T11:09:57.029+02:00,1654160996.000214,53.22909726777361,10.39854707145392,36.87714,0.1141865,0.6462225,15.97572879884251,9.999999633974564,2.400000095367432,7.999579855010837,-9999,4081.165917625,0.36212158203125,0.9782562255859375,-0.3318939208984375,4081.155923625,1.281198294144652,0.8369732239187826,-1.065508416424172,1.880202412605286,-1.79542863368988,-1.030996203422546,0.0433143675327301,0.6958876252174377,0.02404063940048218,XArbitraryZVertical,-0.5812904989924728,0.003287149424986845,0.3049355289284674,0.7543903468173511,0.3594718277454376,0.8750351667404175,-0.3241811096668243,0,0,0,-1,-1,4078.998648291667,unknown,2,2022-06-02T11:09:54.861+02:00,2022-06-02T10:17:13.754+02:00,757,1.604419,0,0,607.4087,0,0,2022-06-02T11:09:54.861+02:00,675853794.8608283,0,5.621094,101.3138,1,0.73
2022-06-02T11:09:57.039+02:00,1654160996.000214,53.22909726777361,10.39854707145392,36.87714,0.1141865,0.6462225,15.97572879884251,9.999999633974564,2.400000095367432,7.999579855010837,-9999,4081.175911625,0.234283447265625,0.8087005615234375,-0.3705596923828125,4081.165917625,1.231447273291303,0.7741210649157538,-1.05727486517208,2.671704053878784,-2.025665044784546,-1.225924968719482,0.1013532876968384,0.3467228412628174,0.04677027463912964,XArbitraryZVertical,-0.5695233747054091,-0.003657858338866708,0.3064009500811825,0.7627241466210329,0.3434251248836517,0.8710200190544128,-0.3512594997882843,0,0,0,-1,-1,4078.998648291667,unknown,2,2022-06-02T11:09:54.861+02:00,2022-06-02T10:17:13.754+02:00,757,1.604419,0,0,607.4087,0,0,2022-06-02T11:09:54.861+02:00,675853794.8608283,0,5.621094,101.3138,1,0.73
2022-06-02T11:09:57.050+02:00,1654160996.000214,53.22909726777361,10.39854707145392,36.87714,0.1141865,0.6462225,15.97572879884251,9.999999633974564,2.400000095367432,7.999579855010837,-9999,4081.185905625,0.245391845703125,0.853729248046875,-0.417022705078125,4081.175911625,1.174939359946936,0.7050137487107431,-1.045841931797183,2.708513021469116,-1.954693078994751,-1.331847667694092,-0.0570976734161377,-0.02737998962402344,0.02518856525421143,XArbitraryZVertical,-0.555909617590937,-0.01081646512548874,0.3071457515025968,0.7723398811171781,0.3247825801372528,0.8653467893600464,-0.3816950023174286,0,0,0,-1,-1,4078.998648291667,unknown,2,2022-06-02T11:09:54.861+02:00,2022-06-02T10:17:13.754+02:00,757,1.604419,0,0,607.4087,0,0,2022-06-02T11:09:54.861+02:00,675853794.8608283,0,5.621094,101.3138,1,0.73
2022-06-02T11:09:57.059+02:00,1654160996.000214,53.22909726777361,10.39854707145392,36.87714,0.1141865,0.6462225,15.97572879884251,9.999999633974564,2.400000095367432,7.999579855010837,-9999,4081.195899625,0.312255859375,0.8508148193359375,-0.4505157470703125,4081.185905625,1.124892619483832,0.6425100607126573,-1.03422647613418,2.225591897964478,-1.912500858306885,-1.197165727615356,-0.07953295111656189,-0.02861100435256958,0.02021822333335876,XArbitraryZVertical,-0.5431846929023827,-0.01795005220948962,0.3077643786503541,0.7809667991667903,0.3063090145587921,0.8594672083854675,-0.4092563688755035,0,0,0,-1,-1,4078.998648291667,unknown,2,2022-06-02T11:09:54.861+02:00,2022-06-02T10:17:13.754+02:00,757,1.604419,0,0,607.4087,0,0,2022-06-02T11:09:54.861+02:00,675853794.8608283,0,5.621094,101.3138,1,0.73
2022-06-02T11:09:57.069+02:00,1654160996.000214,53.22909726777361,10.39854707145392,36.87714,0.1141865,0.6462225,15.97572879884251,9.999999633974564,2.400000095367432,7.999579855010837,-9999,4081.205893625,0.4024658203125,0.7521820068359375,-0.3505706787109375,4081.195899625,1.085738857570795,0.5898192894084415,-1.025806401703967,1.449684977531433,-1.892124056816101,-1.133211374282837,-0.02194178104400635,0.006607472896575928,-0.01853656768798828,XArbitraryZVertical,-0.5328500306257939,-0.02571099945179373,0.3085681000636183,0.7875248916317447,0.2883449494838715,0.855132520198822,-0.430819571018219,0,0,0,-1,-1,4078.998648291667,unknown,2,2022-06-02T11:09:54.861+02:00,2022-06-02T10:17:13.754+02:00,757,1.604419,0,0,607.4087,0,0,2022-06-02T11:09:54.861+02:00,675853794.8608283,0,5.621094,101.3138,1,0.73
2022-06-02T11:09:57.083+02:00,1654160996.000214,53.22909726777361,10.39854707145392,36.87714,0.1141865,0.6462225,15.97572879884251,9.999999633974564,2.400000095367432,7.999579855010837,-9999,4081.215887625,0.44512939453125,0.6394195556640625,-0.1849822998046875,4081.205893625,1.057295594540216,0.5464714681512209,-1.023115084992494,0.585580587387085,-1.927212953567505,-1.066212296485901,0.08799684047698975,-0.04228717088699341,0.02209949493408203,XArbitraryZVertical,-0.5257070698822015,-0.03456380786902767,0.309415976107023,0.7916433631944031,0.270599901676178,0.8537341952323914,-0.4448748528957367,0,0,0,-1,-1,4078.998648291667,unknown,2,2022-06-02T11:09:54.861+02:00,2022-06-02T10:17:13.754+02:00,757,1.604419,0,0,607.4087,0,0,2022-06-02T11:09:54.861+02:00,675853794.8608283,0,5.621094,101.3138,1,0.73
2022-06-02T11:09:57.092+02:00,1654160996.000214,53.22909726777361,10.39854707145392,36.87714,0.1141865,0.6462225,15.97572879884251,9.999999633974564,2.400000095367432,7.999579855010837,-9999,4081.225881625,0.4028778076171875,0.6369171142578125,-0.1225128173828125,4081.215887625,1.039002883133297,0.5110971157940412,-1.026668891646918,-0.2176668047904968,-2.0062575340271,-0.9245110750198364,0.178185373544693,-0.1646767258644104,0.1925758719444275,XArbitraryZVertical,-0.5217661923753545,-0.04473520943248725,0.3106599119591466,0.7932522825766457,0.2532110512256622,0.8555793166160583,-0.4515176117420197,0,0,0,-1,-1,4078.998648291667,unknown,2,2022-06-02T11:09:54.861+02:00,2022-06-02T10:17:13.754+02:00,757,1.604419,0,0,607.4087,0,0,2022-06-02T11:09:54.861+02:00,675853794.8608283,0,5.621094,101.3138,1,0.73
2022-06-02T11:09:57.099+02:00,1654160997.000215,53.22909357911298,10.39854168670872,36.88249,0.2343539,0.6347085,28.19104060107384,81.28191486793578,2.400000095367432,7.999579855010835,-9999,4081.235875625,0.3138427734375,0.7806243896484375,-0.1344451904296875,4081.225881625,1.029492339516968,0.4826243654669591,-1.03530838327035,-0.8187081813812256,-2.032811164855957,-0.7706921696662903,0.1981980353593826,-0.2431527972221375,0.3094920814037323,XArbitraryZVertical,-0.5204773835117319,-0.0558024816898496,0.312484162103753,0.7926809078667383,0.2368147522211075,0.8600197434425354,-0.4519787430763245,0,0,0,-1,-1,4078.998648291667,unknown,2,2022-06-02T11:09:54.861+02:00,2022-06-02T10:17:13.754+02:00,757,1.604419,0,0,607.4087,0,0,2022-06-02T11:09:54.861+02:00,675853794.8608283,0,5.621094,101.3138,1,0.73
2022-06-02T11:09:57.109+02:00,1654160997.000215,53.22909357911298,10.39854168670872,36.88249,0.2343539,0.6347085,28.19104060107384,81.28191486793578,2.400000095367432,7.999579855010835,-9999,4081.245869625,0.2503814697265625,0.979583740234375,-0.187530517578125,4081.235875625,1.025897655078824,0.4594749514659964,-1.047642058007553,-1.172861337661743,-1.958775758743286,-0.6732398271560669,0.1379442512989044,-0.1701874732971191,0.3252390027046204,XArbitraryZVertical,-0.5211372521644427,-0.06720957234963001,0.3145359735838142,0.7905478946829668,0.2215680480003357,0.8662475943565369,-0.4477976858615875,0,0,0,-1,-1,4078.998648291667,unknown,2,2022-06-02T11:09:54.861+02:00,2022-06-02T10:17:13.754+02:00,757,1.604419,0,0,607.4087,0,0,2022-06-02T11:09:54.861+02:00,675853794.8608283,0,5.621094,101.3138,1,0.73
2022-06-02T11:09:57.119+02:00,1654160997.000215,53.22909357911298,10.39854168670872,36.88249,0.2343539,0.6347085,28.19104060107384,81.28191486793578,2.400000095367432,7.999579855010835,-9999,4081.255863625,0.2198028564453125,1.151458740234375,-0.300872802734375,4081.245869625,1.024930542199365,0.4395462786341217,-1.061222565156903,-1.204089045524597,-1.850777149200439,-0.5988473892211914,0.0706993043422699,0.005709528923034668,0.2858580350875854,XArbitraryZVertical,-0.5226397036180823,-0.07829017807888969,0.3165812682787388,0.7877148394867393,0.2075752168893814,0.8729525208473206,-0.441436767578125,0,0,0,-1,-1,4078.998648291667,unknown,2,2022-06-02T11:09:54.861+02:00,2022-06-02T10:17:13.754+02:00,757,1.604419,0,0,607.4087,0,0,2022-06-02T11:09:54.861+02:00,675853794.8608283,0,5.621094,101.3138,1,0.73
2022-06-02T11:09:57.129+02:00,1654160997.000215,53.22909357911298,10.39854168670872,36.88249,0.2343539,0.6347085,28.19104060107384,81.28191486793578,2.400000095367432,7.999579855010835,-9999,4081.265857625,0.2115936279296875,1.264984130859375,-0.4188385009765625,4081.255863625,1.02369593492842,0.4204354126212938,-1.073372057001367,-0.9148896336555481,-1.743598580360413,-0.5149570107460022,0.03583268821239471,0.1939240694046021,0.19879150390625,XArbitraryZVertical,-0.5237872754714098,-0.08856009078153229,0.3186432748417828,0.7850289650730283,0.1947581171989441,0.8788145184516907,-0.4356079995632172,0,0,0,-1,-1,4078.998648291667,unknown,2,2022-06-02T11:09:54.861+02:00,2022-06-02T10:17:13.754+02:00,757,1.604419,0,0,607.4087,0,0,2022-06-02T11:09:54.861+02:00,675853794.8608283,0,5.621094,101.3138,1,0.73
2022-06-02T11:09:57.139+02:00,1654160997.000215,53.22909357911298,10.39854168670872,36.88249,0.2343539,0.6347085,28.19104060107384,81.28191486793578,2.400000095367432,7.999579855010835,-9999,4081.275851625,0.211883544921875,1.283599853515625,-0.483734130859375,4081.265857625,1.019799781633695,0.4000349831938039,-1.081294589089444,-0.3675796389579773,-1.645419836044312,-0.4596908390522003,0.03354522585868835,0.335053563117981,0.06796663999557495,XArbitraryZVertical,-0.5234085124493797,-0.09752758481764798,0.3208795494350818,0.783305973974542,0.1831142902374268,0.8825672268867493,-0.433063805103302,0,0,0,-1,-1,4078.998648291667,unknown,2,2022-06-02T11:09:54.861+02:00,2022-06-02T10:17:13.754+02:00,757,1.604419,0,0,607.4087,0,0,2022-06-02T11:09:54.861+02:00,675853794.8608283,0,5.621094,101.3138,1,0.73
2022-06-02T11:09:57.149+02:00,1654160997.000215,53.22909357911298,10.39854168670872,36.88249,0.2343539,0.6347085,28.19104060107384,81.28191486793578,2.400000095367432,7.999579855010835,-9999,4081.285845625,0.2386016845703125,1.235733032226562,-0.50750732421875,4081.275851625,1.01125252521314,0.3765051214482693,-1.083376254749592,0.2803882360458374,-1.543604016304016,-0.440757155418396,0.03815892338752747,0.4018562436103821,-0.0231824517250061,XArbitraryZVertical,-0.5207667691587505,-0.105026911373737,0.3232684943580564,0.7831147905592674,0.1721987277269363,0.8835440874099731,-0.4355426430702209,0,0,0,-1,-1,4078.998648291667,unknown,2,2022-06-02T11:09:54.861+02:00,2022-06-02T10:17:13.754+02:00,757,1.604419,0,0,607.4087,0,0,2022-06-02T11:09:54.861+02:00,675853794.8608283,0,5.621094,101.3138,1,0.73
2022-06-02T11:09:57.159+02:00,1654160997.000215,53.22909357911298,10.39854168670872,36.88249,0.2343539,0.6347085,28.19104060107384,81.28191486793578,2.400000095367432,7.999579855010835,-9999,4081.295840625,0.264923095703125,1.152359008789062,-0.518157958984375,4081.285845625,0.9984249686478598,0.350276906572968,-1.07983405104201,0.7783918976783752,-1.437971949577332,-0.4252581000328064,0.06095755100250244,0.3834248781204224,-0.05686461925506592,XArbitraryZVertical,-0.5159749630777648,-0.1111172740174037,0.3257117921096493,0.7844326016833882,0.1617902368307114,0.8818795680999756,-0.4428455829620361,0,0,0,-1,-1,4078.998648291667,unknown,2,2022-06-02T11:09:54.861+02:00,2022-06-02T10:17:13.754+02:00,757,1.604419,0,0,607.4087,0,0,2022-06-02T11:09:54.861+02:00,675853794.8608283,0,5.621094,101.3138,1,0.73
2022-06-02T11:09:57.169+02:00,1654160997.000215,53.22909357911298,10.39854168670872,36.88249,0.2343539,0.6347085,28.19104060107384,81.28191486793578,2.400000095367432,7.999579855010835,-9999,4081.305834625,0.271087646484375,1.084548950195312,-0.464385986328125,4081.295840625,0.9837217591899113,0.3233929236069367,-1.07227802745558,1.095708012580872,-1.348651051521301,-0.3935895264148712,0.1031858623027802,0.3185005187988281,-0.06031674146652222,XArbitraryZVertical,-0.5097555602652589,-0.1161003286816089,0.3282163900433067,0.7867299196173173,0.1519410610198975,0.8782919645309448,-0.4533399641513824,0,0,0,-1,-1,4078.998648291667,unknown,2,2022-06-02T11:09:54.861+02:00,2022-06-02T10:17:13.754+02:00,757,1.604419,0,0,607.4087,0,0,2022-06-02T11:09:54.861+02:00,675853794.8608283,0,5.621094,101.3138,1,0.73
2022-06-02T11:09:57.179+02:00,1654160997.000215,53.22909357911298,10.39854168670872,36.88249,0.2343539,0.6347085,28.19104060107384,81.28191486793578,2.400000095367432,7.999579855010835,-9999,4081.315828625,0.282684326171875,1.02618408203125,-0.4210205078125,4081.305834625,0.9688020943012361,0.2970489495913455,-1.062127868541971,1.248965978622437,-1.306479930877686,-0.3470840752124786,0.1257462352514267,0.2390481233596802,-0.03196468949317932,XArbitraryZVertical,-0.5026710943940828,-0.1203287646661558,0.3307970667593026,0.7895669416884147,0.1425490230321884,0.8733937740325928,-0.4656855165958405,0,0,0,-1,-1,4078.998648291667,unknown,2,2022-06-02T11:09:54.861+02:00,2022-06-02T10:17:13.754+02:00,757,1.604419,0,0,607.4087,0,0,2022-06-02T11:09:54.861+02:00,675853794.8608283,0,5.621094,101.3138,1,0.73
2022-06-02T11:09:57.189+02:00,1654160997.000215,53.22909357911298,10.39854168670872,36.88249,0.2343539,0.6347085,28.19104060107384,81.28191486793578,2.400000095367432,7.999579855010835,-9999,4081.325822625,0.2767486572265625,0.97314453125,-0.41290283203125,4081.315828625,0.9553886422662369,0.2723805786771802,-1.050844177104566,1.279370427131653,-1.291273832321167,-0.2847560942173004,0.1444904357194901,0.1905065178871155,0.03949576616287231,XArbitraryZVertical,-0.4953040826165759,-0.1241491314319955,0.3335618955710121,0.7924627949537812,0.1336620002985001,0.867842972278595,-0.4785217046737671,0,0,0,-1,-1,4078.998648291667,unknown,2,2022-06-02T11:09:54.861+02:00,2022-06-02T10:17:13.754+02:00,757,1.604419,0,0,607.4087,0,0,2022-06-02T11:09:54.861+02:00,675853794.8608283,0,5.621094,101.3138,1,0.73
2022-06-02T11:09:57.199+02:00,1654160997.000215,53.22909357911298,10.39854168670872,36.88249,0.2343539,0.6347085,28.19104060107384,81.28191486793578,2.400000095367432,7.999579855010835,-9999,4081.335816625,0.2509918212890625,0.9530792236328125,-0.426116943359375,4081.325822625,0.9438010937459462,0.2495565288301855,-1.039364947983936,1.226582646369934,-1.266836643218994,-0.2442914992570877,0.158914253115654,0.1327142119407654,0.07831889390945435,XArbitraryZVertical,-0.4879950948091955,-0.127773853608916,0.3364473636756677,0.7951967479168197,0.1251586228609085,0.8620826005935669,-0.4910692572593689,0,0,0,-1,-1,4078.998648291667,unknown,2,2022-06-02T11:09:54.861+02:00,2022-06-02T10:17:13.754+02:00,757,1.604419,0,0,607.4087,0,0,2022-06-02T11:09:54.861+02:00,675853794.8608283,0,5.621094,101.3138,1,0.73
2022-06-02T11:09:57.209+02:00,1654160997.000215,53.22909357911298,10.39854168670872,36.88249,0.2343539,0.6347085,28.19104060107384,81.28191486793578,2.400000095367432,7.999579855010835,-9999,4081.345810625,0.2265625,0.945465087890625,-0.4621429443359375,4081.335816625,0.9340564707762751,0.2287268367651408,-1.028479663239708,1.119211316108704,-1.215435028076172,-0.2031397968530655,0.1479141116142273,0.1038881540298462,0.08468037843704224,XArbitraryZVertical,-0.4810628357625369,-0.1312961343748212,0.3393249377430379,0.7976205376819877,0.1170242503285408,0.8565152883529663,-0.5026797652244568,0,0,0,-1,-1,4078.998648291667,unknown,2,2022-06-02T11:09:54.861+02:00,2022-06-02T10:17:13.754+02:00,757,1.604419,0,0,607.4087,0,0,2022-06-02T11:09:54.861+02:00,675853794.8608283,0,5.621094,101.3138,1,0.73
2022-06-02T11:09:57.219+02:00,1654160997.000215,53.22909357911298,10.39854168670872,36.88249,0.2343539,0.6347085,28.19104060107384,81.28191486793578,2.400000095367432,7.999579855010835,-9999,4081.355804625,0.2149200439453125,0.9503173828125,-0.5106658935546875,4081.345810625,0.9261375922959614,0.2102527945059091,-1.018500796294409,1.007026791572571,-1.118895769119263,-0.1602567881345749,0.1286624521017075,0.09606516361236572,0.07226276397705078,XArbitraryZVertical,-0.4746972005874623,-0.1346028722485309,0.3420919160542867,0.7996985473882748,0.1094967052340508,0.8513224124908447,-0.5130892395973206,0,0,0,-1,-1,4078.998648291667,unknown,2,2022-06-02T11:09:54.861+02:00,2022-06-02T10:17:13.754+02:00,757,1.604419,0,0,607.4087,0,0,2022-06-02T11:09:54.861+02:00,675853794.8608283,0,5.621094,101.3138,1,0.73
2022-06-02T11:09:57.229+02:00,1654160997.000215,53.22909357911298,10.39854168670872,36.88249,0.2343539,0.6347085,28.19104060107384,81.28191486793578,2.400000095367432,7.999579855010835,-9999,4081.365798625,0.2046051025390625,0.9566802978515625,-0.567779541015625,4081.355804625,0.9199182401011295,0.1942940388710384,-1.009470446208308,0.897972047328949,-1.018731236457825,-0.1197319328784943,0.1169057637453079,0.1001203656196594,0.03556835651397705,XArbitraryZVertical,-0.4689626566941436,-0.13757682709454,0.3446954048737246,0.8014560072842296,0.1027750000357628,0.8465500473976135,-0.5222932696342468,0,0,0,-1,-1,4078.998648291667,unknown,2,2022-06-02T11:09:54.861+02:00,2022-06-02T10:17:13.754+02:00,757,1.604419,0,0,607.4087,0,0,2022-06-02T11:09:54.861+02:00,675853794.8608283,0,5.621094,101.3138,1,0.73
2022-06-02T11:09:57.239+02:00,1654160997.000215,53.22909357911298,10.39854168670872,36.88249,0.2343539,0.6347085,28.19104060107384,81.28191486793578,2.400000095367432,7.999579855010835,-9999,4081.375792625,0.1839141845703125,0.9585113525390625,-0.6049957275390625,4081.365798625,0.9151284039495015,0.1804118157299036,-1.001179335469179,0.8291626572608948,-0.9515725374221802,-0.06882800161838531,0.1138309240341187,0.1109715700149536,-0.007102251052856445,XArbitraryZVertical,-0.463733928106364,-0.1402589666141265,0.3471963852457722,0.8029526627356495,0.09677086770534515,0.8421075940132141,-0.5305565595626831,0,0,0,-1,-1,4078.998648291667,unknown,2,2022-06-02T11:09:54.861+02:00,2022-06-02T10:17:13.754+02:00,757,1.604419,0,0,607.4087,0,0,2022-06-02T11:09:54.861+02:00,675853794.8608283,0,5.621094,101.3138,1,0.73
2022-06-02T11:09:57.249+02:00,1654160997.000215,53.22909357911298,10.39854168670872,36.88249,0.2343539,0.6347085,28.19104060107384,81.28191486793578,2.400000095367432,7.999579855010835,-9999,4081.385786625,0.1567230224609375,0.9412841796875,-0.623138427734375,4081.375792625,0.911772143159889,0.1683577756431671,-0.9933562709150354,0.775849461555481,-0.8907873034477234,-0.01474019698798656,0.1059027090668678,0.1217927932739258,-0.05375635623931885,XArbitraryZVertical,-0.4588716278590871,-0.1426727727480024,0.3497184828220883,0.8042251494503788,0.09146971255540848,0.8378627896308899,-0.5381625890731812,0,0,0,-1,-1,4078.998648291667,unknown,2,2022-06-02T11:09:54.861+02:00,2022-06-02T10:17:13.754+02:00,757,1.604419,0,0,607.4087,0,0,2022-06-02T11:09:54.861+02:00,675853794.8608283,0,5.621094,101.3138,1,0.73
2022-06-02T11:09:57.259+02:00,1654160997.000215,53.22909357911298,10.39854168670872,36.88249,0.2343539,0.6347085,28.19104060107384,81.28191486793578,2.400000095367432,7.999579855010835,-9999,4081.395780625,0.1377105712890625,0.9271087646484375,-0.6317291259765625,4081.385786625,0.9097474647323868,0.1581599950064971,-0.9859282668377217,0.7237305641174316,-0.8049533367156982,0.03898508101701736,0.08286017179489136,0.1179056167602539,-0.06997489929199219,XArbitraryZVertical,-0.4543650490546529,-0.1447520415677781,0.3522444747242752,0.8053092152095023,0.08695484697818756,0.8337849378585815,-0.5451985001564026,0,0,0,-1,-1,4078.998648291667,unknown,2,2022-06-02T11:09:54.861+02:00,2022-06-02T10:17:13.754+02:00,757,1.604419,0,0,607.4087,0,0,2022-06-02T11:09:54.861+02:00,675853794.8608283,0,5.621094,101.3138,1,0.73
