loggingTime(txt),locationTimestamp_since1970(s),locationLatitude(WGS84),locationLongitude(WGS84),locationAltitude(m),locationSpeed(m/s),locationSpeedAccuracy(m/s),locationCourse(°),locationCourseAccuracy(°),locationVerticalAccuracy(m),locationHorizontalAccuracy(m),locationFloor(Z),accelerometerTimestamp_sinceReboot(s),accelerometerAccelerationX(G),accelerometerAccelerationY(G),accelerometerAccelerationZ(G),motionTimestamp_sinceReboot(s),motionYaw(rad),motionRoll(rad),motionPitch(rad),motionRotationRateX(rad/s),motionRotationRateY(rad/s),motionRotationRateZ(rad/s),motionUserAccelerationX(G),motionUserAccelerationY(G),motionUserAccelerationZ(G),motionAttitudeReferenceFrame(txt),motionQuaternionX(R),motionQuaternionY(R),motionQuaternionZ(R),motionQuaternionW(R),motionGravityX(G),motionGravityY(G),motionGravityZ(G),motionMagneticFieldX(µT),motionMagneticFieldY(µT),motionMagneticFieldZ(µT),motionHeading(°),motionMagneticFieldCalibrationAccuracy(Z),activityTimestamp_sinceReboot(s),activity(txt),activityActivityConfidence(Z),activityActivityStartDate(txt),pedometerStartDate(txt),pedometerNumberofSteps(N),pedometerAverageActivePace(s/m),pedometerCurrentPace(s/m),pedometerCurrentCadence(steps/s),pedometerDistance(m),pedometerFloorAscended(N),pedometerFloorDescended(N),pedometerEndDate(txt),altimeterTimestamp_sinceReboot(s),altimeterReset(bool),altimeterRelativeAltitude(m),altimeterPressure(kPa),batteryState(N),batteryLevel(R)
2022-06-02T10:49:38.447+02:00,1654159777.999833,53.22908569105719,10.39854064219944,36.81969,0,20,-1,-1,2.400000095367432,7.999579855010836,-9999,2922.694866125,-0.175750732421875,-0.569549560546875,-0.6909942626953125,2922.684872125,0.1029574608051232,-0.1053828976928124,0.6485412629777497,0.1591031551361084,-0.3104453384876251,-0.1177078559994698,-0.01986751705408096,0.03043138980865479,0.07953178882598877,XArbitraryZVertical,0.320322628254439,-0.03348407827843303,0.03194816957107301,0.946177294234231,-0.08383119106292725,-0.6040244698524475,-0.7925444841384888,0,0,0,-1,-1,2921.984468125,unknown,2,2022-06-02T10:49:37.706+02:00,2022-06-02T10:17:13.754+02:00,467,1.474645,0,0,361.8512,0,0,2022-06-02T10:49:24.918+02:00,675852567.4721328,0,6.640625,101.3014,1,0.8
2022-06-02T10:49:38.449+02:00,1654159777.999833,53.22908569105719,10.39854064219944,36.81969,0,20,-1,-1,2.400000095367432,7.999579855010836,-9999,2922.704859125,-0.16265869140625,-0.5486907958984375,-0.6926116943359375,2922.694866125,0.1021658030382297,-0.1082229696113162,0.6498788684820838,0.1022902205586433,-0.2613425254821777,-0.1037888452410698,-0.0920909196138382,0.01767241954803467,0.09362328052520752,XArbitraryZVertical,0.3209853931312369,-0.03491061772582119,0.03107364622574769,0.9459302258321964,-0.08599439263343811,-0.6050899624824524,-0.7914992570877075,0,0,0,-1,-1,2921.984468125,unknown,2,2022-06-02T10:49:37.706+02:00,2022-06-02T10:17:13.754+02:00,467,1.474645,0,0,361.8512,0,0,2022-06-02T10:49:24.918+02:00,675852567.4721328,0,6.640625,101.3014,1,0.8
2022-06-02T10:49:38.452+02:00,1654159777.999833,53.22908569105719,10.39854064219944,36.81969,0,20,-1,-1,2.400000095367432,7.999579855010836,-9999,2922.714854125,-0.1927642822265625,-0.546661376953125,-0.709991455078125,2922.704859125,0.102838605681083,-0.1127456216540048,0.6463390997282777,0.05891777575016022,-0.2272134572267532,-0.05628005042672157,-0.07356224954128265,0.0468176007270813,0.1060154438018799,XArbitraryZVertical,0.3193960364680411,-0.03705938300018434,0.0307892218293609,0.9463956398105652,-0.08981359004974365,-0.6022679805755615,-0.7932255268096924,0,0,0,-1,-1,2921.984468125,unknown,2,2022-06-02T10:49:37.706+02:00,2022-06-02T10:17:13.754+02:00,467,1.474645,0,0,361.8512,0,0,2022-06-02T10:49:24.918+02:00,675852567.4721328,0,6.640625,101.3014,1,0.8
2022-06-02T10:49:38.454+02:00,1654159777.999833,53.22908569105719,10.39854064219944,36.81969,0,20,-1,-1,2.400000095367432,7.999579855010836,-9999,2922.724848125,-0.222503662109375,-0.5466156005859375,-0.71844482421875,2922.714854125,0.1027566963965523,-0.1150852127397156,0.6414759585254318,0.004423111211508512,-0.170058012008667,-0.02515621855854988,-0.08206783980131149,0.05179357528686523,0.09518402814865112,XArbitraryZVertical,0.3171327855918804,-0.03834198266512731,0.03054874396097108,0.9471131283779156,-0.09200440347194672,-0.5983786582946777,-0.7959133982658386,0,0,0,-1,-1,2921.984468125,unknown,2,2022-06-02T10:49:37.706+02:00,2022-06-02T10:17:13.754+02:00,467,1.474645,0,0,361.8512,0,0,2022-06-02T10:49:24.918+02:00,675852567.4721328,0,6.640625,101.3014,1,0.8
2022-06-02T10:49:38.460+02:00,1654159777.999833,53.22908569105719,10.39854064219944,36.81969,0,20,-1,-1,2.400000095367432,7.999579855010836,-9999,2922.734842125,-0.21258544921875,-0.5474090576171875,-0.728729248046875,2922.724848125,0.1033879423577978,-0.1177365391247279,0.6369892480000888,-0.04069722816348076,-0.0919291228055954,-0.01440131012350321,-0.1169207394123077,0.04779601097106934,0.0816195011138916,XArbitraryZVertical,0.3150643855287112,-0.03964866236224539,0.03058871202592016,0.9477482339947036,-0.09442872554063797,-0.5947778224945068,-0.7983248233795166,0,0,0,-1,-1,2921.984468125,unknown,2,2022-06-02T10:49:37.706+02:00,2022-06-02T10:17:13.754+02:00,467,1.474645,0,0,361.8512,0,0,2022-06-02T10:49:24.918+02:00,675852567.4721328,0,6.640625,101.3014,1,0.8
2022-06-02T10:49:38.467+02:00,1654159777.999833,53.22908569105719,10.39854064219944,36.81969,0,20,-1,-1,2.400000095367432,7.999579855010836,-9999,2922.744836125,-0.20867919921875,-0.550262451171875,-0.7442169189453125,2922.734842125,0.1039379711514581,-0.1197053086453215,0.6315585381053149,-0.09358973801136017,-0.05902017652988434,-0.0159283671528101,-0.1227468773722649,0.04386419057846069,0.07890516519546509,XArbitraryZVertical,0.3125363152421709,-0.040679295969939,0.030737207811799,0.9485363629732939,-0.09638457000255585,-0.5904033780097961,-0.8013324737548828,0,0,0,-1,-1,2921.984468125,unknown,2,2022-06-02T10:49:37.706+02:00,2022-06-02T10:17:13.754+02:00,467,1.474645,0,0,361.8512,0,0,2022-06-02T10:49:24.918+02:00,675852567.4721328,0,6.640625,101.3014,1,0.8
2022-06-02T10:49:38.479+02:00,1654159777.999833,53.22908569105719,10.39854064219944,36.81969,0,20,-1,-1,2.400000095367432,7.999579855010836,-9999,2922.754831125,-0.20208740234375,-0.569854736328125,-0.7616119384765625,2922.744836125,0.1054386614838008,-0.1231754222664729,0.6251507682544819,-0.1385784298181534,-0.0468197725713253,-0.01610087230801582,-0.1109285280108452,0.03556746244430542,0.06712144613265991,XArbitraryZVertical,0.3095869620393793,-0.04231155131507958,0.03114591856997149,0.9494185319937922,-0.09962747991085052,-0.5852195620536804,-0.8047313094139099,0,0,0,-1,-1,2921.984468125,unknown,2,2022-06-02T10:49:37.706+02:00,2022-06-02T10:17:13.754+02:00,467,1.474645,0,0,361.8512,0,0,2022-06-02T10:49:24.918+02:00,675852567.4721328,0,6.640625,101.3014,1,0.8
2022-06-02T10:49:38.487+02:00,1654159777.999833,53.22908569105719,10.39854064219944,36.81969,0,20,-1,-1,2.400000095367432,7.999579855010836,-9999,2922.764825125,-0.2110748291015625,-0.595916748046875,-0.7762603759765625,2922.754831125,0.1045550514342828,-0.1228827921693538,0.6227630965587263,-0.2005523145198822,-0.07342341542243958,-0.03601519018411636,-0.1051336526870728,0.02627497911453247,0.05265063047409058,XArbitraryZVertical,0.3084324132030558,-0.04239113658407923,0.03086053411642419,0.9497999652075328,-0.09956298023462296,-0.5832817554473877,-0.8061448931694031,0,0,0,-1,-1,2921.984468125,unknown,2,2022-06-02T10:49:37.706+02:00,2022-06-02T10:17:13.754+02:00,467,1.474645,0,0,361.8512,0,0,2022-06-02T10:49:24.918+02:00,675852567.4721328,0,6.640625,101.3014,1,0.8
2022-06-02T10:49:38.497+02:00,1654159777.999833,53.22908569105719,10.39854064219944,36.81969,0,20,-1,-1,2.400000095367432,7.999579855010836,-9999,2922.774819125,-0.2173309326171875,-0.5872650146484375,-0.7826995849609375,2922.764825125,0.1039213861847554,-0.1239353566733298,0.6224425288035794,-0.2497833967208862,-0.1155352517962456,-0.0793444886803627,-0.104872427880764,-0.001558125019073486,0.03760945796966553,XArbitraryZVertical,0.308283065398834,-0.04299966304176676,0.03040926688001199,0.9498357015212421,-0.1004345566034317,-0.583021342754364,-0.8062251806259155,0,0,0,-1,-1,2921.984468125,unknown,2,2022-06-02T10:49:37.706+02:00,2022-06-02T10:17:13.754+02:00,467,1.474645,0,0,361.8512,0,0,2022-06-02T10:49:24.918+02:00,675852567.4721328,0,6.640625,101.3014,1,0.8
2022-06-02T10:49:38.506+02:00,1654159777.999833,53.22908569105719,10.39854064219944,36.81969,0,20,-1,-1,2.400000095367432,7.999579855010836,-9999,2922.784813125,-0.218353271484375,-0.5595855712890625,-0.7925872802734375,2922.774819125,0.1048052141031014,-0.1285664152165619,0.6223374617361416,-0.2717659473419189,-0.1508873701095581,-0.1093420684337616,-0.111095979809761,-0.01462870836257935,0.02535557746887207,XArbitraryZVertical,0.3083228247298159,-0.04506629488404672,0.03011909375631599,0.9497361956288025,-0.1041749939322472,-0.5829359889030457,-0.8058121204376221,0,0,0,-1,-1,2921.984468125,unknown,2,2022-06-02T10:49:37.706+02:00,2022-06-02T10:17:13.754+02:00,467,1.474645,0,0,361.8512,0,0,2022-06-02T10:49:24.918+02:00,675852567.4721328,0,6.640625,101.3014,1,0.8
2022-06-02T10:49:38.517+02:00,1654159777.999833,53.22908569105719,10.39854064219944,36.81969,0,20,-1,-1,2.400000095367432,7.999579855010836,-9999,2922.794808125,-0.24053955078125,-0.5345458984375,-0.7997589111328125,2922.784813125,0.1053092482196065,-0.1332030748881365,0.6217637619993002,-0.2664366960525513,-0.1809936165809631,-0.1241812035441399,-0.108704999089241,0.009273350238800049,0.02026665210723877,XArbitraryZVertical,0.3081319346748728,-0.0472104275723679,0.0296663003356571,0.9497082183204056,-0.1079545319080353,-0.5824697613716125,-0.8056517839431763,0,0,0,-1,-1,2921.984468125,unknown,2,2022-06-02T10:49:37.706+02:00,2022-06-02T10:17:13.754+02:00,467,1.474645,0,0,361.8512,0,0,2022-06-02T10:49:24.918+02:00,675852567.4721328,0,6.640625,101.3014,1,0.8
2022-06-02T10:49:38.526+02:00,1654159777.999833,53.22908569105719,10.39854064219944,36.81969,0,20,-1,-1,2.400000095367432,7.999579855010836,-9999,2922.804802125,-0.2724456787109375,-0.5185699462890625,-0.8114776611328125,2922.794808125,0.1033230454083023,-0.1339057267246511,0.6193217832856586,-0.2631133198738098,-0.1840589195489883,-0.1327030509710312,-0.1179896369576454,0.0346914529800415,0.01027584075927734,XArbitraryZVertical,0.3069377154083186,-0.04793488692859743,0.02871178000703479,0.9500879226517359,-0.1087101697921753,-0.5804830193519592,-0.8069829940795898,0,0,0,-1,-1,2921.984468125,unknown,2,2022-06-02T10:49:37.706+02:00,2022-06-02T10:17:13.754+02:00,467,1.474645,0,0,361.8512,0,0,2022-06-02T10:49:24.918+02:00,675852567.4721328,0,6.640625,101.3014,1,0.8
2022-06-02T10:49:38.536+02:00,1654159777.999833,53.22908569105719,10.39854064219944,36.81969,0,20,-1,-1,2.400000095367432,7.999579855010836,-9999,2922.814796125,-0.27838134765625,-0.509765625,-0.821441650390625,2922.804802125,0.101204535870096,-0.1344204182482014,0.6169293982048832,-0.2580479383468628,-0.1614991426467896,-0.147117018699646,-0.1501033455133438,0.0525323748588562,0.002209484577178955,XArbitraryZVertical,0.3057596394785021,-0.04858640414435855,0.02772119503500901,0.9504640246271011,-0.1093113049864769,-0.5785333514213562,-0.808300793170929,0,0,0,-1,-1,2921.984468125,unknown,2,2022-06-02T10:49:37.706+02:00,2022-06-02T10:17:13.754+02:00,467,1.474645,0,0,361.8512,0,0,2022-06-02T10:49:24.918+02:00,675852567.4721328,0,6.640625,101.3014,1,0.8
2022-06-02T10:49:38.546+02:00,1654159777.999833,53.22908569105719,10.39854064219944,36.81969,0,20,-1,-1,2.400000095367432,7.999579855010836,-9999,2922.824790125,-0.275726318359375,-0.520263671875,-0.8452911376953125,2922.814796125,0.09894083511528237,-0.1346553192223068,0.6145699848872458,-0.2574439346790314,-0.1482267379760742,-0.1574024111032486,-0.1691091954708099,0.0644155740737915,-0.005331158638000488,XArbitraryZVertical,0.3045884804065402,-0.04912357395936584,0.02670266812726427,0.9508414504695104,-0.1096841096878052,-0.5766072273254395,-0.8096254467964172,0,0,0,-1,-1,2921.984468125,unknown,2,2022-06-02T10:49:37.706+02:00,2022-06-02T10:17:13.754+02:00,467,1.474645,0,0,361.8512,0,0,2022-06-02T10:49:24.918+02:00,675852567.4721328,0,6.640625,101.3014,1,0.8
2022-06-02T10:49:38.556+02:00,1654159777.999833,53.22908569105719,10.39854064219944,36.81969,0,20,-1,-1,2.400000095367432,7.999579855010836,-9999,2922.834785125,-0.27978515625,-0.5321044921875,-0.86260986328125,2922.824790125,0.09653467929775374,-0.1347597747128896,0.6122695714043289,-0.2505761086940765,-0.1474919319152832,-0.1680380702018738,-0.1669241040945053,0.06100863218307495,-0.02141010761260986,XArbitraryZVertical,0.3034388417711837,-0.04961578339485482,0.02563326787286867,0.9512128684043394,-0.1099466010928154,-0.5747262239456177,-0.8109262585639954,0,0,0,-1,-1,2921.984468125,unknown,2,2022-06-02T10:49:37.706+02:00,2022-06-02T10:17:13.754+02:00,467,1.474645,0,0,361.8512,0,0,2022-06-02T10:49:24.918+02:00,675852567.4721328,0,6.640625,101.3014,1,0.8
2022-06-02T10:49:38.566+02:00,1654159777.999833,53.22908569105719,10.39854064219944,36.81969,0,20,-1,-1,2.400000095367432,7.999579855010836,-9999,2922.844779125,-0.2821807861328125,-0.542877197265625,-0.86444091796875,2922.834785125,0.09412482334312765,-0.1348905805083621,0.6099727189401103,-0.2609113156795502,-0.1562824845314026,-0.160621166229248,-0.1663203537464142,0.04595911502838135,-0.04253369569778442,XArbitraryZVertical,0.3022899746788656,-0.05011824659551949,0.02455721248629561,0.9515807272371248,-0.110229916870594,-0.5728451013565063,-0.8122178912162781,0,0,0,-1,-1,2921.984468125,unknown,2,2022-06-02T10:49:37.706+02:00,2022-06-02T10:17:13.754+02:00,467,1.474645,0,0,361.8512,0,0,2022-06-02T10:49:24.918+02:00,675852567.4721328,0,6.640625,101.3014,1,0.8
2022-06-02T10:49:38.576+02:00,1654159777.999833,53.22908569105719,10.39854064219944,36.81969,0,20,-1,-1,2.400000095367432,7.999579855010836,-9999,2922.854773125,-0.293701171875,-0.556488037109375,-0.8646240234375,2922.844779125,0.09183189902730339,-0.1352465711542837,0.6075385673118776,-0.2762678861618042,-0.1817760467529297,-0.1494785845279694,-0.1709247231483459,0.03122115135192871,-0.05243945121765137,XArbitraryZVertical,0.3010803674931955,-0.05071195404465041,0.02350752981787091,0.9519591872248969,-0.1107067316770554,-0.5708482265472412,-0.8135578036308289,0,0,0,-1,-1,2921.984468125,unknown,2,2022-06-02T10:49:37.706+02:00,2022-06-02T10:17:13.754+02:00,467,1.474645,0,0,361.8512,0,0,2022-06-02T10:49:24.918+02:00,675852567.4721328,0,6.640625,101.3014,1,0.8
2022-06-02T10:49:38.586+02:00,1654159777.999833,53.22908569105719,10.39854064219944,36.81969,0,20,-1,-1,2.400000095367432,7.999579855010836,-9999,2922.864767125,-0.3023223876953125,-0.5772857666015625,-0.8593292236328125,2922.854773125,0.08956898020360815,-0.1358997173945098,0.6049532331124345,-0.2904523909091949,-0.2050129473209381,-0.151641845703125,-0.1751681566238403,0.02055168151855469,-0.04888570308685303,XArbitraryZVertical,0.2998016500997062,-0.0514447527932534,0.02243302180487381,0.952349215066386,-0.1114376559853554,-0.5687236189842224,-0.8149448037147522,0,0,0,-1,-1,2921.984468125,unknown,2,2022-06-02T10:49:37.706+02:00,2022-06-02T10:17:13.754+02:00,467,1.474645,0,0,361.8512,0,0,2022-06-02T10:49:24.918+02:00,675852567.4721328,0,6.640625,101.3014,1,0.8
2022-06-02T10:49:38.596+02:00,1654159777.999833,53.22908569105719,10.39854064219944,36.81969,0,20,-1,-1,2.400000095367432,7.999579855010836,-9999,2922.874762125,-0.3067474365234375,-0.5831298828125,-0.8485107421875,2922.864767125,0.08715265556620264,-0.1366568321726929,0.6022431833234622,-0.3011200428009033,-0.22039894759655,-0.1708036959171295,-0.1874184012413025,-0.001363396644592285,-0.04625624418258667,XArbitraryZVertical,0.2984589581788165,-0.05225114993279559,0.02127469799882017,0.9527535857300846,-0.1122641861438751,-0.5664924383163452,-0.8163841366767883,0,0,0,-1,-1,2921.984468125,unknown,2,2022-06-02T10:49:37.706+02:00,2022-06-02T10:17:13.754+02:00,467,1.474645,0,0,361.8512,0,0,2022-06-02T10:49:24.918+02:00,675852567.4721328,0,6.640625,101.3014,1,0.8
2022-06-02T10:49:38.606+02:00,1654159777.999833,53.22908569105719,10.39854064219944,36.81969,0,20,-1,-1,2.400000095367432,7.999579855010836,-9999,2922.884756125,-0.3150177001953125,-0.5827789306640625,-0.8460540771484375,2922.874762125,0.08453169331811065,-0.1373958329421161,0.5995995087460594,-0.2827045321464539,-0.222674623131752,-0.1831786036491394,-0.1911117434501648,-0.01915359497070312,-0.03547459840774536,XArbitraryZVertical,0.2971402409585356,-0.0530743346938833,0.02001894133831607,0.9531473599544756,-0.1130721867084503,-0.5643118619918823,-0.8177815675735474,0,0,0,-1,-1,2921.984468125,unknown,2,2022-06-02T10:49:37.706+02:00,2022-06-02T10:17:13.754+02:00,467,1.474645,0,0,361.8512,0,0,2022-06-02T10:49:24.918+02:00,675852567.4721328,0,6.640625,101.3014,1,0.8
2022-06-02T10:49:38.616+02:00,1654159777.999833,53.22908569105719,10.39854064219944,36.81969,0,20,-1,-1,2.400000095367432,7.999579855010836,-9999,2922.894750125,-0.315826416015625,-0.5889129638671875,-0.8448486328125,2922.884756125,0.08187189834215924,-0.1381254266484769,0.5971979200680402,-0.2583228349685669,-0.2246106117963791,-0.1866999864578247,-0.1972868591547012,-0.01872706413269043,-0.02790015935897827,XArbitraryZVertical,0.2959334679202739,-0.05388841626789614,0.01873653066618877,0.9535031155229783,-0.1138550788164139,-0.5623276233673096,-0.8190388679504395,0,0,0,-1,-1,2921.984468125,unknown,2,2022-06-02T10:49:37.706+02:00,2022-06-02T10:17:13.754+02:00,467,1.474645,0,0,361.8512,0,0,2022-06-02T10:49:24.918+02:00,675852567.4721328,0,6.640625,101.3014,1,0.8
2022-06-02T10:49:38.626+02:00,1654159777.999833,53.22908569105719,10.39854064219944,36.81969,0,20,-1,-1,2.400000095367432,7.999579855010836,-9999,2922.904744125,-0.3050537109375,-0.5830230712890625,-0.8468170166015625,2922.894750125,0.07928257708187567,-0.1389568416189866,0.5948976925793255,-0.2603503167629242,-0.2351268976926804,-0.1725543290376663,-0.2028052508831024,-0.0260169506072998,-0.02422910928726196,XArbitraryZVertical,0.2947757436378763,-0.05473478129531321,0.01746867262714492,0.9538374949721409,-0.1147148534655571,-0.5604240298271179,-0.8202227354049683,0,0,0,-1,-1,2921.984468125,unknown,2,2022-06-02T10:49:37.706+02:00,2022-06-02T10:17:13.754+02:00,467,1.474645,0,0,361.8512,0,0,2022-06-02T10:49:24.918+02:00,675852567.4721328,0,6.640625,101.3014,1,0.8
2022-06-02T10:49:38.636+02:00,1654159777.999833,53.22908569105719,10.39854064219944,36.81969,0,20,-1,-1,2.400000095367432,7.999579855010836,-9999,2922.914739125,-0.2937164306640625,-0.5761260986328125,-0.854583740234375,2922.904744125,0.07683853504133317,-0.1400364292366349,0.5925649833965921,-0.2531764507293701,-0.2543207108974457,-0.1622517704963684,-0.1927655041217804,-0.0296747088432312,-0.02351891994476318,XArbitraryZVertical,0.2936064934770097,-0.05567642462771849,0.0162350140129124,0.9541654679813651,-0.1157824546098709,-0.558490514755249,-0.8213907480239868,0,0,0,-1,-1,2921.984468125,unknown,2,2022-06-02T10:49:37.706+02:00,2022-06-02T10:17:13.754+02:00,467,1.474645,0,0,361.8512,0,0,2022-06-02T10:49:24.918+02:00,675852567.4721328,0,6.640625,101.3014,1,0.8
2022-06-02T10:49:38.646+02:00,1654159777.999833,53.22908569105719,10.39854064219944,36.81969,0,20,-1,-1,2.400000095367432,7.999579855010836,-9999,2922.924733125,-0.2860107421875,-0.5746002197265625,-0.8568878173828125,2922.914739125,0.07451161817675545,-0.1414138963872131,0.5903443514908444,-0.2379408031702042,-0.285862922668457,-0.1548452526330948,-0.1834793090820312,-0.02164572477340698,-0.0280991792678833,XArbitraryZVertical,0.292493997453921,-0.05673745888905377,0.01500970203221144,0.9544646302949289,-0.1170882880687714,-0.5566471219062805,-0.8224562406539917,0,0,0,-1,-1,2921.984468125,unknown,2,2022-06-02T10:49:37.706+02:00,2022-06-02T10:17:13.754+02:00,467,1.474645,0,0,361.8512,0,0,2022-06-02T10:49:24.918+02:00,675852567.4721328,0,6.640625,101.3014,1,0.8
2022-06-02T10:49:38.656+02:00,1654159777.999833,53.22908569105719,10.39854064219944,36.81969,0,20,-1,-1,2.400000095367432,7.999579855010836,-9999,2922.934727125,-0.287322998046875,-0.5628662109375,-0.8599395751953125,2922.924733125,0.07235616734347082,-0.1432803056235842,0.5882906402014058,-0.21909099817276,-0.3265031576156616,-0.1419386267662048,-0.1680333167314529,-0.02167445421218872,-0.03269779682159424,XArbitraryZVertical,0.2914669591244324,-0.0580001391327503,0.01378918073514144,0.9547212223785413,-0.1187861114740372,-0.5549398064613342,-0.8233659863471985,0,0,0,-1,-1,2921.984468125,unknown,2,2022-06-02T10:49:37.706+02:00,2022-06-02T10:17:13.754+02:00,467,1.474645,0,0,361.8512,0,0,2022-06-02T10:49:24.918+02:00,675852567.4721328,0,6.640625,101.3014,1,0.8
2022-06-02T10:49:38.666+02:00,1654159777.999833,53.22908569105719,10.39854064219944,36.81969,0,20,-1,-1,2.400000095367432,7.999579855010836,-9999,2922.944721125,-0.2908477783203125,-0.5547943115234375,-0.865966796875,2922.934727125,0.07042405037578921,-0.1456554237599587,0.5863617906179823,-0.2050625383853912,-0.361300528049469,-0.1198335960507393,-0.1649768948554993,-0.01600170135498047,-0.03354215621948242,XArbitraryZVertical,0.2905064336854699,-0.05946815763438242,0.01259771461082183,0.9549401883707975,-0.120896503329277,-0.5533342361450195,-0.8241391181945801,0,0,0,-1,-1,2921.984468125,unknown,2,2022-06-02T10:49:37.706+02:00,2022-06-02T10:17:13.754+02:00,467,1.474645,0,0,361.8512,0,0,2022-06-02T10:49:24.918+02:00,675852567.4721328,0,6.640625,101.3014,1,0.8
2022-06-02T10:49:38.678+02:00,1654159777.999833,53.22908569105719,10.39854064219944,36.81969,0,20,-1,-1,2.400000095367432,7.999579855010836,-9999,2922.954716125,-0.2946014404296875,-0.5481109619140625,-0.8664093017578125,2922.944721125,0.06872622628550618,-0.1484623991987896,0.5846873075471217,-0.1644459068775177,-0.3882741928100586,-0.1094687730073929,-0.1652889847755432,-0.005403816699981689,-0.03776079416275024,XArbitraryZVertical,0.2896737971601673,-0.06110032911980364,0.01144707916114887,0.9551045104775655,-0.1233462393283844,-0.5519386529922485,-0.8247116804122925,0,0,0,-1,-1,2921.984468125,unknown,2,2022-06-02T10:49:37.706+02:00,2022-06-02T10:17:13.754+02:00,467,1.474645,0,0,361.8512,0,0,2022-06-02T10:49:24.918+02:00,675852567.4721328,0,6.640625,101.3014,1,0.8
2022-06-02T10:49:38.691+02:00,1654159777.999833,53.22908569105719,10.39854064219944,36.81969,0,20,-1,-1,2.400000095367432,7.999579855010836,-9999,2922.964710125,-0.2906646728515625,-0.53790283203125,-0.86041259765625,2922.954716125,0.0672708324309715,-0.1516098498087718,0.583403906488001,-0.1221767365932465,-0.4049373269081116,-0.09130042046308517,-0.1682785153388977,-0.001271247863769531,-0.04268735647201538,XArbitraryZVertical,0.2890338651858554,-0.06284870545773272,0.01034894821270667,0.955197469191401,-0.1260482370853424,-0.5508679747581482,-0.8250189423561096,0,0,0,-1,-1,2921.984468125,unknown,2,2022-06-02T10:49:37.706+02:00,2022-06-02T10:17:13.754+02:00,467,1.474645,0,0,361.8512,0,0,2022-06-02T10:49:24.918+02:00,675852567.4721328,0,6.640625,101.3014,1,0.8
2022-06-02T10:49:38.696+02:00,1654159777.999833,53.22908569105719,10.39854064219944,36.81969,0,20,-1,-1,2.400000095367432,7.999579855010836,-9999,2922.974704125,-0.2970733642578125,-0.5272369384765625,-0.857757568359375,2922.964710125,0.06608824861316609,-0.1550183212609438,0.5826268364795009,-0.0590122863650322,-0.4111256897449493,-0.08407339453697205,-0.1641957014799118,0.006594419479370117,-0.03922009468078613,XArbitraryZVertical,0.2886423713039802,-0.06466829751202828,0.009324091111836356,0.9552049441268602,-0.1289256066083908,-0.5502192974090576,-0.8250072002410889,0,0,0,-1,-1,2921.984468125,unknown,2,2022-06-02T10:49:37.706+02:00,2022-06-02T10:17:13.754+02:00,467,1.474645,0,0,361.8512,0,0,2022-06-02T10:49:24.918+02:00,675852567.4721328,0,6.640625,101.3014,1,0.8
2022-06-02T10:49:38.706+02:00,1654159777.999833,53.22908569105719,10.39854064219944,36.81969,0,20,-1,-1,2.400000095367432,7.999579855010836,-9999,2922.984698125,-0.2946319580078125,-0.52142333984375,-0.8458709716796875,2922.974704125,0.06498268248803529,-0.1584312165679068,0.5825447916907921,0.01456233114004135,-0.3936385810375214,-0.09643978625535965,-0.1610379815101624,0.01650518178939819,-0.03481376171112061,XArbitraryZVertical,0.2885820294037937,-0.06645996624461104,0.008307055725848566,0.9551096401078976,-0.1317476481199265,-0.5501508116722107,-0.8246069550514221,0,0,0,-1,-1,2921.984468125,unknown,2,2022-06-02T10:49:37.706+02:00,2022-06-02T10:17:13.754+02:00,467,1.474645,0,0,361.8512,0,0,2022-06-02T10:49:24.918+02:00,675852567.4721328,0,6.640625,101.3014,1,0.8
2022-06-02T10:49:38.716+02:00,1654159777.999833,53.22908569105719,10.39854064219944,36.81969,0,20,-1,-1,2.400000095367432,7.999579855010836,-9999,2922.994693125,-0.291839599609375,-0.5146026611328125,-0.822540283203125,2922.984698125,0.06382572208750802,-0.1616704181109392,0.5831961929255127,0.08106522262096405,-0.3864397406578064,-0.1168455332517624,-0.1635522693395615,0.02710455656051636,-0.029998779296875,XArbitraryZVertical,0.2888662551130096,-0.06815623412810598,0.007259054441425473,0.9549127301986089,-0.1343602985143661,-0.5506946444511414,-0.823822021484375,0,0,0,-1,-1,2921.984468125,unknown,2,2022-06-02T10:49:37.706+02:00,2022-06-02T10:17:13.754+02:00,467,1.474645,0,0,361.8512,0,0,2022-06-02T10:49:24.918+02:00,675852567.4721328,0,6.640625,101.3014,1,0.8
2022-06-02T10:49:38.726+02:00,1654159777.999833,53.22908569105719,10.39854064219944,36.81969,0,20,-1,-1,2.400000095367432,7.999579855010836,-9999,2923.004687125,-0.283294677734375,-0.51092529296875,-0.808685302734375,2922.994693125,0.06262565463301542,-0.1648010924894664,0.5843807005201426,0.1168820783495903,-0.3727391064167023,-0.1141605228185654,-0.1569763123989105,0.03277736902236938,-0.01234495639801025,XArbitraryZVertical,0.2894000105852532,-0.06979252092573698,0.006181972308812129,0.9546403760578787,-0.1368316411972046,-0.5516829490661621,-0.8227532505989075,0,0,0,-1,-1,2921.984468125,unknown,2,2022-06-02T10:49:37.706+02:00,2022-06-02T10:17:13.754+02:00,467,1.474645,0,0,361.8512,0,0,2022-06-02T10:49:24.918+02:00,675852567.4721328,0,6.640625,101.3014,1,0.8
2022-06-02T10:49:38.736+02:00,1654159777.999833,53.22908569105719,10.39854064219944,36.81969,0,20,-1,-1,2.400000095367432,7.999579855010836,-9999,2923.014681125,-0.272247314453125,-0.50128173828125,-0.80047607421875,2923.004687125,0.06163759761969961,-0.1678411203059245,0.5857668614139252,0.1276876479387283,-0.3435192704200745,-0.09391823410987854,-0.149247795343399,0.04025012254714966,0.006423771381378174,XArbitraryZVertical,0.2900342930169463,-0.07134934815973312,0.005208770404170706,0.9543386068532922,-0.1392043232917786,-0.5528385639190674,-0.8215787410736084,0,0,0,-1,-1,2921.984468125,unknown,2,2022-06-02T10:49:37.706+02:00,2022-06-02T10:17:13.754+02:00,467,1.474645,0,0,361.8512,0,0,2022-06-02T10:49:24.918+02:00,675852567.4721328,0,6.640625,101.3014,1,0.8
2022-06-02T10:49:38.746+02:00,1654159777.999833,53.22908569105719,10.39854064219944,36.81969,0,20,-1,-1,2.400000095367432,7.999579855010836,-9999,2923.024675125,-0.2664947509765625,-0.492218017578125,-0.801116943359375,2923.014681125,0.06101408424985964,-0.1707907257463016,0.5872968721336407,0.1565821617841721,-0.310496598482132,-0.05902151018381119,-0.1360437124967575,0.04651397466659546,0.01666492223739624,XArbitraryZVertical,0.2907477402869464,-0.07280604342055615,0.004414375607016231,0.9540153949329448,-0.1414831131696701,-0.5541128516197205,-0.8203300833702087,0,0,0,-1,-1,2921.984468125,unknown,2,2022-06-02T10:49:37.706+02:00,2022-06-02T10:17:13.754+02:00,467,1.474645,0,0,361.8512,0,0,2022-06-02T10:49:24.918+02:00,675852567.4721328,0,6.640625,101.3014,1,0.8
2022-06-02T10:49:38.756+02:00,1654159777.999833,53.22908569105719,10.39854064219944,36.81969,0,20,-1,-1,2.400000095367432,7.999579855010836,-9999,2923.034670125,-0.269195556640625,-0.504791259765625,-0.8048553466796875,2923.024675125,0.06093791437959668,-0.173662017118312,0.589106738721764,0.1917342096567154,-0.2741068005561829,-0.02153818309307098,-0.1240967810153961,0.06085234880447388,0.01862317323684692,XArbitraryZVertical,0.2916126780099647,-0.07413764665079967,0.003877595808078945,0.9536511055779564,-0.1436644047498703,-0.5556185245513916,-0.8189312815666199,0,0,0,-1,-1,2921.984468125,unknown,2,2022-06-02T10:49:37.706+02:00,2022-06-02T10:17:13.754+02:00,467,1.474645,0,0,361.8512,0,0,2022-06-02T10:49:24.918+02:00,675852567.4721328,0,6.640625,101.3014,1,0.8
2022-06-02T10:49:38.767+02:00,1654159777.999833,53.22908569105719,10.39854064219944,36.81969,0,20,-1,-1,2.400000095367432,7.999579855010836,-9999,2923.044664125,-0.266082763671875,-0.525390625,-0.8055572509765625,2923.034670125,0.06147871834007225,-0.1768592323915493,0.5912655209570256,0.2197823524475098,-0.2434961348772049,-0.005440704990178347,-0.1212786287069321,0.06084543466567993,0.01404726505279541,XArbitraryZVertical,0.2926663167479172,-0.07552388210040198,0.003568480232270358,0.9532206629004177,-0.1460705995559692,-0.5574121475219727,-0.8172851204872131,0,0,0,-1,-1,2921.984468125,unknown,2,2022-06-02T10:49:37.706+02:00,2022-06-02T10:17:13.754+02:00,467,1.474645,0,0,361.8512,0,0,2022-06-02T10:49:24.918+02:00,675852567.4721328,0,6.640625,101.3014,1,0.8
2022-06-02T10:49:38.776+02:00,1654159777.999833,53.22908569105719,10.39854064219944,36.81969,0,20,-1,-1,2.400000095367432,7.999579855010836,-9999,2923.054658125,-0.2581939697265625,-0.536376953125,-0.798187255859375,2923.044664125,0.06213943366982611,-0.1798617280652569,0.5935301585390123,0.2189277857542038,-0.2245407551527023,-0.01007706858217716,-0.1207300573587418,0.04445934295654297,0.008027434349060059,XArbitraryZVertical,0.2937739282435252,-0.07679494826223207,0.003336536095106012,0.952779172827386,-0.1482976227998734,-0.559290885925293,-0.8155988454818726,0,0,0,-1,-1,2921.984468125,unknown,2,2022-06-02T10:49:37.706+02:00,2022-06-02T10:17:13.754+02:00,467,1.474645,0,0,361.8512,0,0,2022-06-02T10:49:24.918+02:00,675852567.4721328,0,6.640625,101.3014,1,0.8
2022-06-02T10:49:38.786+02:00,1654159777.999833,53.22908569105719,10.39854064219944,36.81969,0,20,-1,-1,2.400000095367432,7.999579855010836,-9999,2923.064652125,-0.25958251953125,-0.534912109375,-0.7940673828125,2923.054658125,0.06274358356426964,-0.1827405865994986,0.5957409852145048,0.213759645819664,-0.2217686772346497,-0.01501004211604595,-0.1121075004339218,0.02718675136566162,0.01248276233673096,XArbitraryZVertical,0.2948530659559723,-0.07801502896670719,0.003094942135543801,0.9523474828713622,-0.1504199355840683,-0.5611222386360168,-0.8139506578445435,0,0,0,-1,-1,2921.984468125,unknown,2,2022-06-02T10:49:37.706+02:00,2022-06-02T10:17:13.754+02:00,467,1.474645,0,0,361.8512,0,0,2022-06-02T10:49:24.918+02:00,675852567.4721328,0,6.640625,101.3014,1,0.8
2022-06-02T10:49:38.796+02:00,1654159777.999833,53.22908569105719,10.39854064219944,36.81969,0,20,-1,-1,2.400000095367432,7.999579855010836,-9999,2923.074647125,-0.273223876953125,-0.5423583984375,-0.7967987060546875,2923.064652125,0.06328464028345943,-0.1854991922374195,0.5978493038210859,0.1939565539360046,-0.2080021947622299,-0.01331846881657839,-0.1046643555164337,0.02770990133285522,0.01686638593673706,XArbitraryZVertical,0.2958803160380584,-0.07918832722171733,0.00284282498032965,0.9519328074743141,-0.1524462103843689,-0.5628661513328552,-0.8123680949211121,0,0,0,-1,-1,2921.984468125,unknown,2,2022-06-02T10:49:37.706+02:00,2022-06-02T10:17:13.754+02:00,467,1.474645,0,0,361.8512,0,0,2022-06-02T10:49:24.918+02:00,675852567.4721328,0,6.640625,101.3014,1,0.8
2022-06-02T10:49:38.806+02:00,1654159777.999833,53.22908569105719,10.39854064219944,36.81969,0,20,-1,-1,2.400000095367432,7.999579855010836,-9999,2923.084641125,-0.2735137939453125,-0.548553466796875,-0.7969970703125,2923.074647125,0.06386100046921203,-0.1880907396422009,0.5996199375936767,0.1505654007196426,-0.1802318245172501,0.001165132969617844,-0.112252414226532,0.02641069889068604,0.01774650812149048,XArbitraryZVertical,0.2967479553178116,-0.08028509530887634,0.002646020386135317,0.9515712163460779,-0.1543643772602081,-0.5643287301063538,-0.8109899163246155,0,0,0,-1,-1,2921.984468125,unknown,2,2022-06-02T10:49:37.706+02:00,2022-06-02T10:17:13.754+02:00,467,1.474645,0,0,361.8512,0,0,2022-06-02T10:49:24.918+02:00,675852567.4721328,0,6.640625,101.3014,1,0.8
2022-06-02T10:49:38.816+02:00,1654159777.999833,53.22908569105719,10.39854064219944,36.81969,0,20,-1,-1,2.400000095367432,7.999579855010836,-9999,2923.094635125,-0.272186279296875,-0.5342254638671875,-0.795135498046875,2923.084641125,0.064526413405584,-0.1904961006387723,0.6009581801724895,0.1175185069441795,-0.1667879074811935,0.01682185754179955,-0.1189291477203369,0.01771879196166992,0.01318216323852539,XArbitraryZVertical,0.2974133303461399,-0.08129139900017618,0.002538582039642382,0.9512784168190644,-0.156171515583992,-0.5654330253601074,-0.8098740577697754,0,0,0,-1,-1,2921.984468125,unknown,2,2022-06-02T10:49:37.706+02:00,2022-06-02T10:17:13.754+02:00,467,1.474645,0,0,361.8512,0,0,2022-06-02T10:49:24.918+02:00,675852567.4721328,0,6.640625,101.3014,1,0.8
2022-06-02T10:49:38.826+02:00,1654159777.999833,53.22908569105719,10.39854064219944,36.81969,0,20,-1,-1,2.400000095367432,7.999579855010836,-9999,2923.104629125,-0.27349853515625,-0.524200439453125,-0.8004150390625,2923.094635125,0.0652620668453707,-0.1928032408645761,0.6020263069464458,0.09591387957334518,-0.1479985117912292,0.02105095610022545,-0.1131485849618912,0.02296352386474609,0.01257741451263428,XArbitraryZVertical,0.2979533162105015,-0.08224752633639179,0.002491152459877272,0.9510273049066824,-0.1579237878322601,-0.5663136839866638,-0.8089183568954468,0,0,0,-1,-1,2921.984468125,unknown,2,2022-06-02T10:49:37.706+02:00,2022-06-02T10:17:13.754+02:00,467,1.474645,0,0,361.8512,0,0,2022-06-02T10:49:24.918+02:00,675852567.4721328,0,6.640625,101.3014,1,0.8
2022-06-02T10:49:38.836+02:00,1654159777.999833,53.22908569105719,10.39854064219944,36.81969,0,20,-1,-1,2.400000095367432,7.999579855010836,-9999,2923.114624125,-0.2724609375,-0.5128936767578125,-0.8046722412109375,2923.104629125,0.06605888903668364,-0.1949386759733311,0.6029497124076512,0.09561124444007874,-0.125840425491333,0.02859296090900898,-0.1141321659088135,0.03809809684753418,0.01047372817993164,XArbitraryZVertical,0.298427094104985,-0.08311637691808338,0.00250449926581009,0.9508031562291562,-0.1595494449138641,-0.5670745372772217,-0.8080658912658691,0,0,0,-1,-1,2921.984468125,unknown,2,2022-06-02T10:49:37.706+02:00,2022-06-02T10:17:13.754+02:00,467,1.474645,0,0,361.8512,0,0,2022-06-02T10:49:24.918+02:00,675852567.4721328,0,6.640625,101.3014,1,0.8
2022-06-02T10:49:38.846+02:00,1654159777.999833,53.22908569105719,10.39854064219944,36.81969,0,20,-1,-1,2.400000095367432,7.999579855010836,-9999,2923.124618125,-0.26788330078125,-0.521575927734375,-0.8136138916015625,2923.114624125,0.06698006468908296,-0.1968600823072708,0.6038461118417252,0.09104978293180466,-0.08804883062839508,0.04427578300237656,-0.1132896840572357,0.04997509717941284,0.005562186241149902,XArbitraryZVertical,0.2988932598399068,-0.08386497949356282,0.002609216058232948,0.9505906329309073,-0.1610022783279419,-0.5678126215934753,-0.8072589635848999,0,0,0,-1,-1,2921.984468125,unknown,2,2022-06-02T10:49:37.706+02:00,2022-06-02T10:17:13.754+02:00,467,1.474645,0,0,361.8512,0,0,2022-06-02T10:49:24.918+02:00,675852567.4721328,0,6.640625,101.3014,1,0.8
2022-06-02T10:49:38.856+02:00,1654159777.999833,53.22908569105719,10.39854064219944,36.81969,0,20,-1,-1,2.400000095367432,7.999579855010836,-9999,2923.134612125,-0.2634735107421875,-0.5286407470703125,-0.81927490234375,2923.124618125,0.06809700447485795,-0.1985095703969263,0.6046465174854712,0.08477341383695602,-0.05369824916124344,0.06322038173675537,-0.108385905623436,0.05246490240097046,-0.002825438976287842,XArbitraryZVertical,0.2993221264824201,-0.08445727530193396,0.002851666517238521,0.9504024899133999,-0.1622439473867416,-0.5684713125228882,-0.8065464496612549,0,0,0,-1,-1,2921.984468125,unknown,2,2022-06-02T10:49:37.706+02:00,2022-06-02T10:17:13.754+02:00,467,1.474645,0,0,361.8512,0,0,2022-06-02T10:49:24.918+02:00,675852567.4721328,0,6.640625,101.3014,1,0.8
2022-06-02T10:49:38.866+02:00,1654159777.999833,53.22908569105719,10.39854064219944,36.81969,0,20,-1,-1,2.400000095367432,7.999579855010836,-9999,2923.144607125,-0.2670440673828125,-0.536895751953125,-0.82257080078125,2923.134612125,0.069421332861738,-0.2000083192919246,0.6052785674443936,0.06761573255062103,-0.03111650608479977,0.08476428687572479,-0.1004280149936676,0.04280710220336914,-0.01173782348632812,XArbitraryZVertical,0.2996801376975951,-0.08495142102616685,0.003223296649656457,0.9502445309399129,-0.1633811593055725,-0.5689911842346191,-0.8059501647949219,0,0,0,-1,-1,2921.984468125,unknown,2,2022-06-02T10:49:37.706+02:00,2022-06-02T10:17:13.754+02:00,467,1.474645,0,0,361.8512,0,0,2022-06-02T10:49:24.918+02:00,675852567.4721328,0,6.640625,101.3014,1,0.8
2022-06-02T10:49:38.876+02:00,1654159777.999833,53.22908569105719,10.39854064219944,36.81969,0,20,-1,-1,2.400000095367432,7.999579855010836,-9999,2923.154601125,-0.2765350341796875,-0.5396270751953125,-0.8184967041015625,2923.144607125,0.09159087373805221,-0.2380593621178702,0.5934566107549321,0.03124783374369144,-0.01222970150411129,0.09715791046619415,-0.06961077451705933,0.02674400806427002,-0.01713687181472778,XArbitraryZVertical,0.2952185090220448,-0.1001493488348654,0.008784093146206588,0.9501256818476623,-0.1954953968524933,-0.5592299103736877,-0.8056322932243347,0,0,0,-1,-1,2921.984468125,unknown,2,2022-06-02T10:49:37.706+02:00,2022-06-02T10:17:13.754+02:00,467,1.474645,0,0,361.8512,0,0,2022-06-02T10:49:24.918+02:00,675852567.4721328,0,6.640625,101.3014,1,0.8
2022-06-02T10:49:38.886+02:00,1654159777.999833,53.22908569105719,10.39854064219944,36.81969,0,20,-1,-1,2.400000095367432,7.999579855010836,-9999,2923.164595125,-0.2816619873046875,-0.5321197509765625,-0.807647705078125,2923.154601125,0.1070651865890071,-0.2643183412693588,0.5871804220226736,-0.005836416967213154,0.01502136047929525,0.1087019145488739,-0.05394524335861206,0.01473981142044067,-0.01839715242385864,XArbitraryZVertical,0.2932053318664091,-0.1106061902315021,0.01269111932902402,0.9495450536519209,-0.2174933254718781,-0.5540159344673157,-0.8035938143730164,0,0,0,-1,-1,2921.984468125,unknown,2,2022-06-02T10:49:37.706+02:00,2022-06-02T10:17:13.754+02:00,467,1.474645,0,0,361.8512,0,0,2022-06-02T10:49:24.918+02:00,675852567.4721328,0,6.640625,101.3014,1,0.8
2022-06-02T10:49:38.897+02:00,1654159777.999833,53.22908569105719,10.39854064219944,36.81969,0,20,-1,-1,2.400000095367432,7.999579855010836,-9999,2923.174589125,-0.284088134765625,-0.5280303955078125,-0.7894744873046875,2923.164595125,0.1171029978658251,-0.2806235801930448,0.5851922597722157,-0.03539444506168365,0.04466340690851212,0.1135374084115028,-0.04781526327133179,0.01639473438262939,-0.01403528451919556,XArbitraryZVertical,0.2929509414194551,-0.1169654247017967,0.01521068481302135,0.9488242419429693,-0.2308712303638458,-0.5523596405982971,-0.8009976744651794,0,0,0,-1,-1,2921.984468125,unknown,2,2022-06-02T10:49:37.706+02:00,2022-06-02T10:17:13.754+02:00,467,1.474645,0,0,361.8512,0,0,2022-06-02T10:49:24.918+02:00,675852567.4721328,0,6.640625,101.3014,1,0.8
2022-06-02T10:49:38.907+02:00,1654159777.999833,53.22908569105719,10.39854064219944,36.81969,0,20,-1,-1,2.400000095367432,7.999579855010836,-9999,2923.184584125,-0.27789306640625,-0.530914306640625,-0.767913818359375,2923.174589125,0.123156516407353,-0.2895347284264002,0.5824311664375135,-0.06470252573490143,0.07822296023368835,0.117918573319912,-0.0455469936132431,0.02144569158554077,0.001920461654663086,XArbitraryZVertical,0.2920789909386564,-0.1204420876385064,0.01699002554291935,0.9486278380603351,-0.238434299826622,-0.5500559210777283,-0.8003671169281006,0,0,0,-1,-1,2921.984468125,unknown,2,2022-06-02T10:49:37.706+02:00,2022-06-02T10:17:13.754+02:00,467,1.474645,0,0,361.8512,0,0,2022-06-02T10:49:24.918+02:00,675852567.4721328,0,6.640625,101.3014,1,0.8
2022-06-02T10:49:38.917+02:00,1654159777.999833,53.22908569105719,10.39854064219944,36.81969,0,20,-1,-1,2.400000095367432,7.999579855010836,-9999,2923.194578125,-0.2688140869140625,-0.539459228515625,-0.7474212646484375,2923.184584125,0.1275655915913902,-0.2953739921662648,0.577134477900982,-0.09832386672496796,0.103120855987072,0.1056523323059082,-0.03815600275993347,0.01812845468521118,0.02282190322875977,XArbitraryZVertical,0.2899002444767163,-0.122838077515946,0.01864806727776837,0.9489577602018665,-0.2439484596252441,-0.5456247925758362,-0.8017373085021973,0,0,0,-1,-1,2921.984468125,unknown,2,2022-06-02T10:49:37.706+02:00,2022-06-02T10:17:13.754+02:00,467,1.474645,0,0,361.8512,0,0,2022-06-02T10:49:24.918+02:00,675852567.4721328,0,6.640625,101.3014,1,0.8
2022-06-02T10:49:38.927+02:00,1654159777.999833,53.22908569105719,10.39854064219944,36.81969,0,20,-1,-1,2.400000095367432,7.999579855010836,-9999,2923.204572125,-0.2662506103515625,-0.5553741455078125,-0.7256622314453125,2923.194578125,0.1304820740865684,-0.2989132424840845,0.5708786333422102,-0.1392934173345566,0.1049706935882568,0.06670359522104263,-0.02586628496646881,0.005581557750701904,0.04511255025863647,XArbitraryZVertical,0.2871624458842808,-0.1244192304146733,0.0200213227332693,0.9495559840054092,-0.2477847933769226,-0.5403715372085571,-0.8041151762008667,0,0,0,-1,-1,2921.984468125,unknown,2,2022-06-02T10:49:37.706+02:00,2022-06-02T10:17:13.754+02:00,467,1.474645,0,0,361.8512,0,0,2022-06-02T10:49:24.918+02:00,675852567.4721328,0,6.640625,101.3014,1,0.8
2022-06-02T10:49:38.937+02:00,1654159777.999833,53.22908569105719,10.39854064219944,36.81969,0,20,-1,-1,2.400000095367432,7.999579855010836,-9999,2923.214566125,-0.2628326416015625,-0.5838165283203125,-0.698089599609375,2923.204572125,0.1314848498820661,-0.2999769910591615,0.5655333564416375,-0.2150913029909134,0.09429793804883957,0.008233495987951756,-0.01761506497859955,-0.01096302270889282,0.07112544775009155,XArbitraryZVertical,0.2847118050630573,-0.1250586078704544,0.02077583050010104,0.9501934761105679,-0.2494899928569794,-0.5358662009239197,-0.8065990805625916,0,0,0,-1,-1,2921.984468125,unknown,2,2022-06-02T10:49:37.706+02:00,2022-06-02T10:17:13.754+02:00,467,1.474645,0,0,361.8512,0,0,2022-06-02T10:49:24.918+02:00,675852567.4721328,0,6.640625,101.3014,1,0.8
2022-06-02T10:49:38.947+02:00,1654159777.999833,53.22908569105719,10.39854064219944,36.81969,0,20,-1,-1,2.400000095367432,7.999579855010836,-9999,2923.224561125,-0.2609405517578125,-0.5876617431640625,-0.6533050537109375,2923.214566125,0.1302570800937908,-0.2989625691856478,0.5621149656734097,-0.3323590755462646,0.05419312790036201,-0.1139848232269287,-0.01513351500034332,-0.03680151700973511,0.0951424241065979,XArbitraryZVertical,0.2830093017294044,-0.1249277019700644,0.02061146830162359,0.9507228340069583,-0.2492097169160843,-0.5329769253730774,-0.8085976243019104,0,0,0,-1,-1,2921.984468125,unknown,2,2022-06-02T10:49:37.706+02:00,2022-06-02T10:17:13.754+02:00,467,1.474645,0,0,361.8512,0,0,2022-06-02T10:49:24.918+02:00,675852567.4721328,0,6.640625,101.3014,1,0.8
2022-06-02T10:49:38.957+02:00,1654159777.999833,53.22908569105719,10.39854064219944,36.81969,0,20,-1,-1,2.400000095367432,7.999579855010836,-9999,2923.234555125,-0.2562255859375,-0.5628662109375,-0.5892791748046875,2923.224561125,0.1270183653205558,-0.2972358317897121,0.5584246180728849,-0.4936008155345917,-0.003772700671106577,-0.2341884672641754,-0.01481133699417114,-0.06042015552520752,0.1320841312408447,XArbitraryZVertical,0.2810446886408314,-0.1247516219847949,0.01961009997063099,0.951349721409893,-0.2483874708414078,-0.5298507809638977,-0.8109018206596375,0,0,0,-1,-1,2921.984468125,unknown,2,2022-06-02T10:49:37.706+02:00,2022-06-02T10:17:13.754+02:00,467,1.474645,0,0,361.8512,0,0,2022-06-02T10:49:24.918+02:00,675852567.4721328,0,6.640625,101.3014,1,0.8
2022-06-02T10:49:38.967+02:00,1654159777.999833,53.22908569105719,10.39854064219944,36.81969,0,20,-1,-1,2.400000095367432,7.999579855010836,-9999,2923.244549125,-0.2694854736328125,-0.51007080078125,-0.517730712890625,2923.234555125,0.1217543210270709,-0.2951593157245669,0.5537421748519599,-0.6943514943122864,-0.08630672842264175,-0.372751384973526,-0.01006993651390076,-0.05437207221984863,0.1912068724632263,XArbitraryZVertical,0.2784804994714898,-0.1247328379702023,0.01776660551664857,0.9521421010701034,-0.2474220842123032,-0.5258738398551941,-0.813780665397644,0,0,0,-1,-1,2921.984468125,unknown,2,2022-06-02T10:49:37.706+02:00,2022-06-02T10:17:13.754+02:00,467,1.474645,0,0,361.8512,0,0,2022-06-02T10:49:24.918+02:00,675852567.4721328,0,6.640625,101.3014,1,0.8
2022-06-02T10:49:38.977+02:00,1654159777.999833,53.22908569105719,10.39854064219944,36.81969,0,20,-1,-1,2.400000095367432,7.999579855010836,-9999,2923.254543125,-0.2771148681640625,-0.46044921875,-0.4490814208984375,2923.244549125,0.1144235953455278,-0.2928843283532895,0.5472442409523107,-0.9489103555679321,-0.1774820387363434,-0.4613413214683533,-0.01434326171875,-0.01718544960021973,0.2655481100082397,XArbitraryZVertical,0.2749242359076127,-0.1249750329795715,0.01509823385289357,0.9531893357088809,-0.2465514838695526,-0.5203359127044678,-0.8175958395004272,0,0,0,-1,-1,2921.984468125,unknown,2,2022-06-02T10:49:37.706+02:00,2022-06-02T10:17:13.754+02:00,467,1.474645,0,0,361.8512,0,0,2022-06-02T10:49:24.918+02:00,675852567.4721328,0,6.640625,101.3014,1,0.8
2022-06-02T10:49:38.987+02:00,1654159777.999833,53.22908569105719,10.39854064219944,36.81969,0,20,-1,-1,2.400000095367432,7.999579855010836,-9999,2923.264538125,-0.3422088623046875,-0.42462158203125,-0.3778533935546875,2923.254543125,0.1051413891099656,-0.2905408205118729,0.5384349703179619,-1.204915761947632,-0.3151664137840271,-0.5518350005149841,-0.02960480749607086,0.02461856603622437,0.3374848365783691,XArbitraryZVertical,0.270144659798451,-0.1255239102017694,0.01167050990124657,0.9545309529227137,-0.2459383606910706,-0.5127930045127869,-0.8225312232971191,0,0,0,-1,-1,2921.984468125,unknown,2,2022-06-02T10:49:37.706+02:00,2022-06-02T10:17:13.754+02:00,467,1.474645,0,0,361.8512,0,0,2022-06-02T10:49:24.918+02:00,675852567.4721328,0,6.640625,101.3014,1,0.8
2022-06-02T10:49:38.997+02:00,1654159777.999833,53.22908569105719,10.39854064219944,36.81969,0,20,-1,-1,2.400000095367432,7.999579855010836,-9999,2923.274532125,-1.111770629882812,-1.076461791992188,-0.2461090087890625,2923.264538125,0.0931122750341212,-0.288031135627044,0.5275306385866171,-1.528066039085388,-0.3853568136692047,-0.9163499474525452,-0.03671832382678986,0.07821506261825562,0.4138158559799194,XArbitraryZVertical,0.2641871149682293,-0.1263965634161731,0.007087463128804742,0.9561270268674719,-0.2454471737146378,-0.5034012198448181,-0.8284581303596497,0,0,0,-1,-1,2921.984468125,unknown,2,2022-06-02T10:49:37.706+02:00,2022-06-02T10:17:13.754+02:00,467,1.474645,0,0,361.8512,0,0,2022-06-02T10:49:24.918+02:00,675852567.4721328,0,6.640625,101.3014,1,0.8
2022-06-02T10:49:39.007+02:00,1654159777.999833,53.22908569105719,10.39854064219944,36.81969,0,20,-1,-1,2.400000095367432,7.999579855010836,-9999,2923.284526125,-0.531707763671875,-0.2912750244140625,-0.140106201171875,2923.274532125,0.06549240345431456,-0.277004998766949,0.5132858199609766,-2.305910587310791,0.4085485637187958,-2.203094482421875,-0.4264532923698425,-0.148331493139267,0.543584942817688,XArbitraryZVertical,0.2556414018077461,-0.1252356571125798,-0.003660913637102207,0.9586188512559781,-0.2382347583770752,-0.491042286157608,-0.837926983833313,0,0,0,-1,-1,2921.984468125,unknown,2,2022-06-02T10:49:37.706+02:00,2022-06-02T10:17:13.754+02:00,467,1.474645,0,0,361.8512,0,0,2022-06-02T10:49:24.918+02:00,675852567.4721328,0,6.640625,101.3014,1,0.8
2022-06-02T10:49:39.018+02:00,1654159777.999833,53.22908569105719,10.39854064219944,36.81969,0,20,-1,-1,2.400000095367432,7.999579855010836,-9999,2923.294520125,-0.350189208984375,-0.3337249755859375,-0.1080474853515625,2923.284526125,0.04156782202515522,-0.2615377560500613,0.4938282582423466,-2.717361211776733,0.2999652028083801,-1.015257596969604,-0.6974052786827087,-0.3391711711883545,0.584650993347168,XArbitraryZVertical,0.244901465260965,-0.1213783069640121,-0.01188364650476622,0.9618468289509379,-0.2276740372180939,-0.4740002155303955,-0.850581169128418,0,0,0,-1,-1,2921.984468125,unknown,2,2022-06-02T10:49:37.706+02:00,2022-06-02T10:17:13.754+02:00,467,1.474645,0,0,361.8512,0,0,2022-06-02T10:49:24.918+02:00,675852567.4721328,0,6.640625,101.3014,1,0.8
2022-06-02T10:49:39.027+02:00,1654159777.999833,53.22908569105719,10.39854064219944,36.81969,0,20,-1,-1,2.400000095367432,7.999579855010836,-9999,2923.304515125,-0.4304351806640625,-0.591033935546875,-0.1246185302734375,2923.294520125,0.02272782688645319,-0.2507327379812167,0.4699323028429515,-2.720325469970703,0.03026076592504978,-1.064940929412842,-0.1526527553796768,0.293295294046402,0.7730974555015564,XArbitraryZVertical,0.2323499009507606,-0.118969801484627,-0.01814359532161096,0.9651582505531391,-0.2212180495262146,-0.4528259336948395,-0.8637194037437439,0,0,0,-1,-1,2921.984468125,unknown,2,2022-06-02T10:49:37.706+02:00,2022-06-02T10:17:13.754+02:00,467,1.474645,0,0,361.8512,0,0,2022-06-02T10:49:24.918+02:00,675852567.4721328,0,6.640625,101.3014,1,0.8
2022-06-02T10:49:39.039+02:00,1654159777.999833,53.22908569105719,10.39854064219944,36.81969,0,20,-1,-1,2.400000095367432,7.999579855010836,-9999,2923.314509125,-0.603546142578125,-0.726806640625,-0.1616973876953125,2923.304515125,0.00254094381489222,-0.2430054701254494,0.4455449243964754,-2.956493139266968,-0.3140675723552704,-1.231519460678101,-0.1766988337039948,-0.08809331059455872,0.7483915090560913,XArbitraryZVertical,0.2194556275512253,-0.1179301792654784,-0.02554817825730442,0.9681316291496207,-0.2171304970979691,-0.4309496581554413,-0.8758633732795715,0,0,0,-1,-1,2921.984468125,unknown,2,2022-06-02T10:49:37.706+02:00,2022-06-02T10:17:13.754+02:00,467,1.474645,0,0,361.8512,0,0,2022-06-02T10:49:24.918+02:00,675852567.4721328,0,6.640625,101.3014,1,0.8
2022-06-02T10:49:39.046+02:00,1654159777.999833,53.22908569105719,10.39854064219944,36.81969,0,20,-1,-1,2.400000095367432,7.999579855010836,-9999,2923.324503125,-0.759307861328125,-0.77874755859375,-0.214447021484375,2923.314509125,-0.01954296115950549,-0.2381436627429208,0.4182373298396214,-3.335248708724976,-0.5663008689880371,-1.348498582839966,-0.299814760684967,-0.2461934089660645,0.7503973841667175,XArbitraryZVertical,0.2049826143867362,-0.1182113128615606,-0.03415027627843509,0.9710005139002884,-0.2155660688877106,-0.4061503410339355,-0.888016402721405,0,0,0,-1,-1,2921.984468125,unknown,2,2022-06-02T10:49:37.706+02:00,2022-06-02T10:17:13.754+02:00,467,1.474645,0,0,361.8512,0,0,2022-06-02T10:49:24.918+02:00,675852567.4721328,0,6.640625,101.3014,1,0.8
2022-06-02T10:49:39.056+02:00,1654159777.999833,53.22908569105719,10.39854064219944,36.81969,0,20,-1,-1,2.400000095367432,7.999579855010836,-9999,2923.334497125,-0.86981201171875,-0.791778564453125,-0.27435302734375,2923.324503125,-0.04308156872212985,-0.2351298282849288,0.3868063827776432,-3.817137718200684,-0.6688032746315002,-1.389375686645508,-0.4815084636211395,-0.3950146436691284,0.7116249203681946,XArbitraryZVertical,0.1883494359721403,-0.1191919600130815,-0.04353033317390726,0.9738700370419537,-0.2157571315765381,-0.3772326707839966,-0.9006355404853821,0,0,0,-1,-1,2921.984468125,unknown,2,2022-06-02T10:49:37.706+02:00,2022-06-02T10:17:13.754+02:00,467,1.474645,0,0,361.8512,0,0,2022-06-02T10:49:24.918+02:00,675852567.4721328,0,6.640625,101.3014,1,0.8
2022-06-02T10:49:39.066+02:00,1654159777.999833,53.22908569105719,10.39854064219944,36.81969,0,20,-1,-1,2.400000095367432,7.999579855010836,-9999,2923.344492125,-0.9454803466796875,-0.78277587890625,-0.3189697265625,2923.334497125,-0.06808704511589836,-0.2326749903354053,0.350516952313886,-4.343297481536865,-0.6349440813064575,-1.4805988073349,-0.6055216789245605,-0.4390568137168884,0.6665571928024292,XArbitraryZVertical,0.1691933761053217,-0.1201255830093618,-0.05351646696469044,0.9767698550981063,-0.2165608406066895,-0.3433833718299866,-0.9138869047164917,0,0,0,-1,-1,2921.984468125,unknown,2,2022-06-02T10:49:37.706+02:00,2022-06-02T10:17:13.754+02:00,467,1.474645,0,0,361.8512,0,0,2022-06-02T10:49:24.918+02:00,675852567.4721328,0,6.640625,101.3014,1,0.8
2022-06-02T10:49:39.076+02:00,1654159777.999833,53.22908569105719,10.39854064219944,36.81969,0,20,-1,-1,2.400000095367432,7.999579855010836,-9999,2923.354486125,-1.013687133789062,-0.7446441650390625,-0.3919525146484375,2923.344492125,-0.0950705181459443,-0.2299233398987568,0.3091385511334672,-4.903337478637695,-0.5588697791099548,-1.597869157791138,-0.7009456157684326,-0.4936897456645966,0.6283330321311951,XArbitraryZVertical,0.147379873915272,-0.1204802432488072,-0.06428090145304055,0.9796079061610361,-0.2170993685722351,-0.3042381405830383,-0.9275273680686951,0,0,0,-1,-1,2921.984468125,unknown,2,2022-06-02T10:49:37.706+02:00,2022-06-02T10:17:13.754+02:00,467,1.474645,0,0,361.8512,0,0,2022-06-02T10:49:24.918+02:00,675852567.4721328,0,6.640625,101.3014,1,0.8
2022-06-02T10:49:39.086+02:00,1654159778.999833,53.2290865432144,10.39854237285117,36.85035,0,20,-1,-1,2.400000095367432,7.999579855010837,-9999,2923.364480125,-1.094879150390625,-0.7003173828125,-0.4863433837890625,2923.354486125,-0.1241488034748245,-0.2265629693497999,0.2624635331655852,-5.4639573097229,-0.3994428217411041,-1.732058644294739,-0.7640353441238403,-0.5045166015625,0.5905176997184753,XArbitraryZVertical,0.1228142361524872,-0.1199170635545643,-0.07587026732999017,0.9822323183197862,-0.216936931014061,-0.2594605088233948,-0.9410731196403503,0,0,0,-1,-1,2921.984468125,unknown,2,2022-06-02T10:49:37.706+02:00,2022-06-02T10:17:13.754+02:00,467,1.474645,0,0,361.8512,0,0,2022-06-02T10:49:24.918+02:00,675852567.4721328,0,6.640625,101.3014,1,0.8
2022-06-02T10:49:39.096+02:00,1654159778.999833,53.2290865432144,10.39854237285117,36.85035,0,20,-1,-1,2.400000095367432,7.999579855010837,-9999,2923.374474125,-1.175506591796875,-0.6526336669921875,-0.581085205078125,2923.364480125,-0.1552099257434382,-0.2222402462792262,0.2104522190836071,-6.028977394104004,-0.1800180971622467,-1.840823173522949,-0.8406458497047424,-0.515432596206665,0.5110294818878174,XArbitraryZVertical,0.09552053082003388,-0.1180389315695399,-0.08823489319606415,0.9844577710423528,-0.2155521959066391,-0.2089021652936935,-0.9538852572441101,0,0,0,-1,-1,2921.984468125,unknown,2,2022-06-02T10:49:37.706+02:00,2022-06-02T10:17:13.754+02:00,467,1.474645,0,0,361.8512,0,0,2022-06-02T10:49:24.918+02:00,675852567.4721328,0,6.640625,101.3014,1,0.8
2022-06-02T10:49:39.106+02:00,1654159778.999833,53.2290865432144,10.39854237285117,36.85035,0,20,-1,-1,2.400000095367432,7.999579855010837,-9999,2923.384469125,-1.231033325195312,-0.5541534423828125,-0.6314697265625,2923.374474125,-0.1878009922730572,-0.2165520356471669,0.1537599272297037,-6.431594848632812,0.1530285626649857,-1.956301808357239,-0.9260686039924622,-0.526258111000061,0.4294010400772095,XArbitraryZVertical,0.06591562536757405,-0.1144299135006828,-0.1012014102721035,0.9860623845689253,-0.2123285531997681,-0.1531547755002975,-0.965121865272522,0,0,0,-1,-1,2921.984468125,unknown,2,2022-06-02T10:49:37.706+02:00,2022-06-02T10:17:13.754+02:00,467,1.474645,0,0,361.8512,0,0,2022-06-02T10:49:24.918+02:00,675852567.4721328,0,6.640625,101.3014,1,0.8
2022-06-02T10:49:39.118+02:00,1654159778.999833,53.2290865432144,10.39854237285117,36.85035,0,20,-1,-1,2.400000095367432,7.999579855010837,-9999,2923.394463125,-1.244552612304688,-0.3956146240234375,-0.689727783203125,2923.384469125,-0.2213869153687179,-0.2086837461339195,0.09399839555019303,-6.651008605957031,0.6094970107078552,-2.035628080368042,-1.00458812713623,-0.5176664590835571,0.3644885420799255,XArbitraryZVertical,0.03494761816593912,-0.1085626431927225,-0.1146087639152796,0.9868422519891334,-0.2062578052282333,-0.09386003017425537,-0.9739856123924255,0,0,0,-1,-1,2921.984468125,unknown,2,2022-06-02T10:49:37.706+02:00,2022-06-02T10:17:13.754+02:00,467,1.474645,0,0,361.8512,0,0,2022-06-02T10:49:24.918+02:00,675852567.4721328,0,6.640625,101.3014,1,0.8
2022-06-02T10:49:39.126+02:00,1654159778.999833,53.2290865432144,10.39854237285117,36.85035,0,20,-1,-1,2.400000095367432,7.999579855010837,-9999,2923.404457125,-1.195205688476562,-0.2356109619140625,-0.737060546875,2923.394463125,-0.2553859809574957,-0.198071859659953,0.03271048838321115,-6.737321853637695,1.088794589042664,-2.145868539810181,-1.047603845596313,-0.4467723071575165,0.3181802034378052,XArbitraryZVertical,0.003552310897686973,-0.1001284838612072,-0.1283091829294285,0.9866601985190157,-0.1966739892959595,-0.03270465508103371,-0.9799233078956604,0,0,0,-1,-1,2921.984468125,unknown,2,2022-06-02T10:49:37.706+02:00,2022-06-02T10:17:13.754+02:00,467,1.474645,0,0,361.8512,0,0,2022-06-02T10:49:24.918+02:00,675852567.4721328,0,6.640625,101.3014,1,0.8
2022-06-02T10:49:39.136+02:00,1654159778.999833,53.2290865432144,10.39854237285117,36.85035,0,20,-1,-1,2.400000095367432,7.999579855010837,-9999,2923.414451125,-1.099456787109375,-0.095977783203125,-0.8297576904296875,2923.404457125,-0.2902177265090717,-0.1848166006804605,-0.02969860815195384,-6.875019550323486,1.544597268104553,-2.326478242874146,-1.044692993164062,-0.3407294452190399,0.2665330767631531,XArbitraryZVertical,-0.02797178469480088,-0.08915898525252805,-0.1426115237325666,0.9853579365225473,-0.183685228228569,0.02969424240291119,-0.9825364947319031,0,0,0,-1,-1,2921.984468125,unknown,2,2022-06-02T10:49:37.706+02:00,2022-06-02T10:17:13.754+02:00,467,1.474645,0,0,361.8512,0,0,2022-06-02T10:49:24.918+02:00,675852567.4721328,0,6.640625,101.3014,1,0.8
2022-06-02T10:49:39.146+02:00,1654159778.999833,53.2290865432144,10.39854237285117,36.85035,0,20,-1,-1,2.400000095367432,7.999579855010837,-9999,2923.424446125,-1.019821166992188,0.0493316650390625,-0.976898193359375,2923.414451125,-0.3267998177252803,-0.1698583282263147,-0.09375123133035256,-7.039898872375488,1.908594608306885,-2.619516134262085,-0.9823191165924072,-0.2600568532943726,0.209277331829071,XArbitraryZVertical,-0.05985164095792753,-0.07601009762812086,-0.1579874767969583,0.9826902182351174,-0.1683003753423691,0.09361395984888077,-0.981280505657196,0,0,0,-1,-1,2921.984468125,unknown,2,2022-06-02T10:49:37.706+02:00,2022-06-02T10:17:13.754+02:00,467,1.474645,0,0,361.8512,0,0,2022-06-02T10:49:24.918+02:00,675852567.4721328,0,6.640625,101.3014,1,0.8
2022-06-02T10:49:39.156+02:00,1654159778.999833,53.2290865432144,10.39854237285117,36.85035,0,20,-1,-1,2.400000095367432,7.999579855010837,-9999,2923.434440125,-0.9983062744140625,0.1821136474609375,-1.12335205078125,2923.424446125,-0.3662808017694883,-0.1538008825203233,-0.1591135845085315,-7.123690605163574,2.318079471588135,-3.001051187515259,-0.9017336368560791,-0.1803699880838394,0.07787078619003296,XArbitraryZVertical,-0.09185982947178573,-0.060870274072223,-0.1750024198833853,0.9783816393810091,-0.151260107755661,0.1584430485963821,-0.9757131338119507,0,0,0,-1,-1,2921.984468125,unknown,2,2022-06-02T10:49:37.706+02:00,2022-06-02T10:17:13.754+02:00,467,1.474645,0,0,361.8512,0,0,2022-06-02T10:49:24.918+02:00,675852567.4721328,0,6.640625,101.3014,1,0.8
2022-06-02T10:49:39.166+02:00,1654159778.999833,53.2290865432144,10.39854237285117,36.85035,0,20,-1,-1,2.400000095367432,7.999579855010837,-9999,2923.444434125,-0.9971160888671875,0.349273681640625,-1.151458740234375,2923.434440125,-0.4087286776101309,-0.1365828699665579,-0.2247050090251926,-7.076425552368164,2.755763292312622,-3.331071138381958,-0.8695989847183228,-0.1097054332494736,-0.09452170133590698,XArbitraryZVertical,-0.1232885770165049,-0.04369667847131967,-0.1937037349366809,0.9723010128548319,-0.1327355653047562,0.2228187918663025,-0.965781033039093,0,0,0,-1,-1,2921.984468125,unknown,2,2022-06-02T10:49:37.706+02:00,2022-06-02T10:17:13.754+02:00,467,1.474645,0,0,361.8512,0,0,2022-06-02T10:49:24.918+02:00,675852567.4721328,0,6.640625,101.3014,1,0.8
2022-06-02T10:49:39.177+02:00,1654159778.999833,53.2290865432144,10.39854237285117,36.85035,0,20,-1,-1,2.400000095367432,7.999579855010837,-9999,2923.454428125,-0.978790283203125,0.5129547119140625,-1.118759155273438,2923.444434125,-0.4533686740716731,-0.1179442144468732,-0.2898059165234181,-6.940993785858154,3.257800102233887,-3.576896905899048,-0.8846266865730286,-0.02221649885177612,-0.1988557577133179,XArbitraryZVertical,-0.1535650655074001,-0.02443186990717897,-0.2137132466978748,0.9644415802525158,-0.1127640008926392,0.2857662439346313,-0.9516417384147644,0,0,0,-1,-1,2921.984468125,unknown,2,2022-06-02T10:49:37.706+02:00,2022-06-02T10:17:13.754+02:00,467,1.474645,0,0,361.8512,0,0,2022-06-02T10:49:24.918+02:00,675852567.4721328,0,6.640625,101.3014,1,0.8
2022-06-02T10:49:39.186+02:00,1654159778.999833,53.2290865432144,10.39854237285117,36.85035,0,20,-1,-1,2.400000095367432,7.999579855010837,-9999,2923.464423125,-0.911041259765625,0.6682586669921875,-1.05938720703125,2923.454428125,-0.499579353189988,-0.09720256444362255,-0.3535242368689203,-6.677735328674316,3.825086355209351,-3.759269714355469,-0.9008344411849976,0.08703649044036865,-0.206406831741333,XArbitraryZVertical,-0.1820068844858159,-0.002923760402112812,-0.2347833064294914,0.9548516375251647,-0.09104786813259125,0.3462062478065491,-0.933729887008667,0,0,0,-1,-1,2921.984468125,unknown,2,2022-06-02T10:49:37.706+02:00,2022-06-02T10:17:13.754+02:00,467,1.474645,0,0,361.8512,0,0,2022-06-02T10:49:24.918+02:00,675852567.4721328,0,6.640625,101.3014,1,0.8
2022-06-02T10:49:39.196+02:00,1654159778.999833,53.2290865432144,10.39854237285117,36.85035,0,20,-1,-1,2.400000095367432,7.999579855010837,-9999,2923.474417125,-0.8105010986328125,0.8408966064453125,-0.9597625732421875,2923.464423125,-0.5465740755826324,-0.07377279127042288,-0.4147702928323912,-6.288097858428955,4.387211322784424,-3.860900640487671,-0.8852261900901794,0.1872149407863617,-0.1779939532279968,XArbitraryZVertical,-0.2078657368722844,0.02078610211605404,-0.2566236502157881,0.9436651419269448,-0.06745629012584686,0.402979701757431,-0.9127195477485657,0,0,0,-1,-1,2921.984468125,unknown,2,2022-06-02T10:49:37.706+02:00,2022-06-02T10:17:13.754+02:00,467,1.474645,0,0,361.8512,0,0,2022-06-02T10:49:24.918+02:00,675852567.4721328,0,6.640625,101.3014,1,0.8
2022-06-02T10:49:39.206+02:00,1654159778.999833,53.2290865432144,10.39854237285117,36.85035,0,20,-1,-1,2.400000095367432,7.999579855010837,-9999,2923.484411125,-0.7164764404296875,0.985260009765625,-0.85699462890625,2923.474417125,-0.5934142494056935,-0.04746591288512651,-0.4733046762196965,-5.94762659072876,4.896443367004395,-3.857105016708374,-0.8170514106750488,0.2970842123031616,-0.1230207085609436,XArbitraryZVertical,-0.2308868992501713,0.0464661129165581,-0.2788233013199349,0.9310153217217569,-0.0422319695353508,0.4558301568031311,-0.8890642523765564,0,0,0,-1,-1,2921.984468125,unknown,2,2022-06-02T10:49:37.706+02:00,2022-06-02T10:17:13.754+02:00,467,1.474645,0,0,361.8512,0,0,2022-06-02T10:49:24.918+02:00,675852567.4721328,0,6.640625,101.3014,1,0.8
2022-06-02T10:49:39.216+02:00,1654159778.999833,53.2290865432144,10.39854237285117,36.85035,0,20,-1,-1,2.400000095367432,7.999579855010837,-9999,2923.494405125,-0.6149139404296875,1.110809326171875,-0.7518157958984375,2923.484411125,-0.6391584563693893,-0.01811514374445623,-0.5298778597667489,-5.668862342834473,5.388833999633789,-3.7710120677948,-0.7475534081459045,0.4125712513923645,-0.04855817556381226,XArbitraryZVertical,-0.2513283169333357,0.07396257198940183,-0.3009413128703656,0.9169503312755828,-0.01563013717532158,0.5054279565811157,-0.8627272248268127,0,0,0,-1,-1,2921.984468125,unknown,2,2022-06-02T10:49:37.706+02:00,2022-06-02T10:17:13.754+02:00,467,1.474645,0,0,361.8512,0,0,2022-06-02T10:49:24.918+02:00,675852567.4721328,0,6.640625,101.3014,1,0.8
2022-06-02T10:49:39.226+02:00,1654159778.999833,53.2290865432144,10.39854237285117,36.85035,0,20,-1,-1,2.400000095367432,7.999579855010837,-9999,2923.504400125,-0.4981231689453125,1.20867919921875,-0.64166259765625,2923.494405125,-0.6824737095726888,0.01525861436423394,-0.5856617895995397,-5.546233654022217,5.880973339080811,-3.550951480865479,-0.6809433698654175,0.4988236427307129,0.03457391262054443,XArbitraryZVertical,-0.2695674660128997,0.1034826556886353,-0.3224728796503731,0.9014632043624558,0.01271521858870983,0.5527510046958923,-0.8332494497299194,0,0,0,-1,-1,2921.984468125,unknown,2,2022-06-02T10:49:37.706+02:00,2022-06-02T10:17:13.754+02:00,467,1.474645,0,0,361.8512,0,0,2022-06-02T10:49:24.918+02:00,675852567.4721328,0,6.640625,101.3014,1,0.8
2022-06-02T10:49:39.236+02:00,1654159778.999833,53.2290865432144,10.39854237285117,36.85035,0,20,-1,-1,2.400000095367432,7.999579855010837,-9999,2923.514394125,-0.358489990234375,1.3240966796875,-0.484283447265625,2923.504400125,-0.7219189558800713,0.05359502507184225,-0.641823513089767,-5.502732276916504,6.329402446746826,-3.276312351226807,-0.6020218729972839,0.5614686012268066,0.09898853302001953,XArbitraryZVertical,-0.2860191271458313,0.1351496433395882,-0.342928804038813,0.8844927150576195,0.04290935397148132,0.5986570715904236,-0.7998552918434143,0,0,0,-1,-1,2921.984468125,unknown,2,2022-06-02T10:49:37.706+02:00,2022-06-02T10:17:13.754+02:00,467,1.474645,0,0,361.8512,0,0,2022-06-02T10:49:24.918+02:00,675852567.4721328,0,6.640625,101.3014,1,0.8
2022-06-02T10:49:39.246+02:00,1654159778.999833,53.2290865432144,10.39854237285117,36.85035,0,20,-1,-1,2.400000095367432,7.999579855010837,-9999,2923.524388125,-0.2298431396484375,1.450942993164062,-0.3126220703125,2923.514394125,-0.7565213192764952,0.09716137985530771,-0.6990088149223107,-5.537783622741699,6.685430526733398,-2.989650964736938,-0.5044186115264893,0.6203040480613708,0.1936631202697754,XArbitraryZVertical,-0.3009999297300338,0.1687129579840304,-0.3620215942951279,0.8659533627735182,0.07425815612077713,0.6434592604637146,-0.7618699669837952,0,0,0,-1,-1,2921.984468125,unknown,2,2022-06-02T10:49:37.706+02:00,2022-06-02T10:17:13.754+02:00,467,1.474645,0,0,361.8512,0,0,2022-06-02T10:49:24.918+02:00,675852567.4721328,0,6.640625,101.3014,1,0.8
2022-06-02T10:49:39.256+02:00,1654159778.999833,53.2290865432144,10.39854237285117,36.85035,0,20,-1,-1,2.400000095367432,7.999579855010837,-9999,2923.534382125,-0.1296539306640625,1.521621704101562,-0.1267852783203125,2923.524388125,-0.7847396340617082,0.146993078769165,-0.7580671572582556,-5.737274169921875,7.054581165313721,-2.615638971328735,-0.3947485089302063,0.6983602643013,0.3195009827613831,XArbitraryZVertical,-0.31489475082317,0.2041413114218914,-0.3793860001549685,0.8457150404871042,0.1063574329018593,0.6875191926956177,-0.7183352708816528,0,0,0,-1,-1,2921.984468125,unknown,2,2022-06-02T10:49:37.706+02:00,2022-06-02T10:17:13.754+02:00,467,1.474645,0,0,361.8512,0,0,2022-06-02T10:49:24.918+02:00,675852567.4721328,0,6.640625,101.3014,1,0.8
2022-06-02T10:49:39.266+02:00,1654159778.999833,53.2290865432144,10.39854237285117,36.85035,0,20,-1,-1,2.400000095367432,7.999579855010837,-9999,2923.544377125,-0.0074462890625,1.548858642578125,0.0898895263671875,2923.534382125,-0.8038065947513061,0.2061719854575238,-0.8205561395625454,-6.095512866973877,7.485761165618896,-2.225419998168945,-0.3201345205307007,0.7766687870025635,0.4480602145195007,XArbitraryZVertical,-0.3282211236922108,0.2420402485868046,-0.394577199026774,0.8234052611910043,0.1395772844552994,0.7315251231193542,-0.667374849319458,0,0,0,-1,-1,2921.984468125,unknown,2,2022-06-02T10:49:37.706+02:00,2022-06-02T10:17:13.754+02:00,467,1.474645,0,0,361.8512,0,0,2022-06-02T10:49:24.918+02:00,675852567.4721328,0,6.640625,101.3014,1,0.8
2022-06-02T10:49:39.277+02:00,1654159778.999833,53.2290865432144,10.39854237285117,36.85035,0,20,-1,-1,2.400000095367432,7.999579855010837,-9999,2923.554371125,0.161529541015625,1.602767944335938,0.3181610107421875,2923.544377125,-0.8103189872893971,0.2780160188559957,-0.8861971909524565,-6.491511344909668,7.861715793609619,-1.749471664428711,-0.2448704391717911,0.7509620785713196,0.578860342502594,XArbitraryZVertical,-0.3408875249070431,0.282409692925093,-0.4072619453436201,0.7988605025907041,0.1735508590936661,0.7746726274490356,-0.6080809235572815,0,0,0,-1,-1,2921.984468125,unknown,2,2022-06-02T10:49:37.706+02:00,2022-06-02T10:17:13.754+02:00,467,1.474645,0,0,361.8512,0,0,2022-06-02T10:49:24.918+02:00,675852567.4721328,0,6.640625,101.3014,1,0.8
2022-06-02T10:49:39.293+02:00,1654159778.999833,53.2290865432144,10.39854237285117,36.85035,0,20,-1,-1,2.400000095367432,7.999579855010837,-9999,2923.564365125,0.340850830078125,1.665863037109375,0.5281982421875,2923.554371125,-0.7993320000719978,0.3669602382982863,-0.9538955738716159,-6.79258394241333,8.161840438842773,-1.286790370941162,-0.1381301134824753,0.7608626484870911,0.744278609752655,XArbitraryZVertical,-0.3527213325994211,0.324947208262913,-0.4170410945412938,0.7720579780375203,0.2075575888156891,0.8156753182411194,-0.539993941783905,0,0,0,-1,-1,2921.984468125,unknown,2,2022-06-02T10:49:37.706+02:00,2022-06-02T10:17:13.754+02:00,467,1.474645,0,0,361.8512,0,0,2022-06-02T10:49:24.918+02:00,675852567.4721328,0,6.640625,101.3014,1,0.8
2022-06-02T10:49:39.297+02:00,1654159778.999833,53.2290865432144,10.39854237285117,36.85035,0,20,-1,-1,2.400000095367432,7.999579855010837,-9999,2923.574360125,0.5217437744140625,1.711944580078125,0.679107666015625,2923.564365125,-0.765765555362265,0.4782297292425903,-1.021051315510975,-6.984076976776123,8.482104301452637,-0.8463563323020935,0.01405644416809082,0.7806277275085449,0.8933435678482056,XArbitraryZVertical,-0.3631577533937007,0.369038237275625,-0.4240339014849313,0.7430494345042089,0.2404449135065079,0.8526577949523926,-0.4638544619083405,0,0,0,-1,-1,2921.984468125,unknown,2,2022-06-02T10:49:37.706+02:00,2022-06-02T10:17:13.754+02:00,467,1.474645,0,0,361.8512,0,0,2022-06-02T10:49:24.918+02:00,675852567.4721328,0,6.640625,101.3014,1,0.8
2022-06-02T10:49:39.306+02:00,1654159778.999833,53.2290865432144,10.39854237285117,36.85035,0,20,-1,-1,2.400000095367432,7.999579855010837,-9999,2923.584354125,0.7658843994140625,1.824462890625,0.58148193359375,2923.574360125,-0.7037486041191432,0.6178385204589052,-1.083565196798767,-6.850290298461914,8.619933128356934,-0.4185131192207336,0.1556135714054108,0.8069037795066833,0.9919198751449585,XArbitraryZVertical,-0.3713743079339298,0.4138434626660493,-0.4284920641894101,0.7121861773261244,0.2712053060531616,0.8836326003074646,-0.3816294372081757,0,0,0,-1,-1,2921.984468125,unknown,2,2022-06-02T10:49:37.706+02:00,2022-06-02T10:17:13.754+02:00,467,1.474645,0,0,361.8512,0,0,2022-06-02T10:49:24.918+02:00,675852567.4721328,0,6.640625,101.3014,1,0.8
2022-06-02T10:49:39.316+02:00,1654159778.999833,53.2290865432144,10.39854237285117,36.85035,0,20,-1,-1,2.400000095367432,7.999579855010837,-9999,2923.594348125,0.873931884765625,1.91180419921875,0.8722991943359375,2923.584354125,-0.618603089585629,0.7772932367968283,-1.133296411040869,-5.668843746185303,8.068284034729004,-0.1561467200517654,0.3400759696960449,0.8425840139389038,0.9325261116027832,XArbitraryZVertical,-0.3758821035862883,0.4557536632166572,-0.431428378764277,0.6818143058071942,0.2971463203430176,0.9058136940002441,-0.302002489566803,0,0,0,-1,-1,2921.984468125,unknown,2,2022-06-02T10:49:37.706+02:00,2022-06-02T10:17:13.754+02:00,467,1.474645,0,0,361.8512,0,0,2022-06-02T10:49:24.918+02:00,675852567.4721328,0,6.640625,101.3014,1,0.8
2022-06-02T10:49:39.326+02:00,1654159778.999833,53.2290865432144,10.39854237285117,36.85035,0,20,-1,-1,2.400000095367432,7.999579855010837,-9999,2923.604342125,0.7295989990234375,1.875274658203125,0.8822784423828125,2923.594348125,-0.5297177668433848,0.9361944318885559,-1.165051831942653,-4.027263164520264,7.529609203338623,0.1435699462890625,0.5269911885261536,0.9584342837333679,0.9740536212921143,XArbitraryZVertical,-0.375206150168352,0.4921576052794228,-0.4346445646350725,0.6542823740497625,0.3178574740886688,0.9188088178634644,-0.2340024709701538,0,0,0,-1,-1,2921.984468125,unknown,2,2022-06-02T10:49:37.706+02:00,2022-06-02T10:17:13.754+02:00,467,1.474645,0,0,361.8512,0,0,2022-06-02T10:49:24.918+02:00,675852567.4721328,0,6.640625,101.3014,1,0.8
2022-06-02T10:49:39.336+02:00,1654159778.999833,53.2290865432144,10.39854237285117,36.85035,0,20,-1,-1,2.400000095367432,7.999579855010837,-9999,2923.614337125,0.63525390625,1.597000122070312,0.9222564697265625,2923.604342125,-0.4550772886796559,1.079985662831934,-1.181187403417736,-2.649243116378784,7.338804721832275,0.2239530086517334,0.5128815770149231,1.002249240875244,1.078884243965149,XArbitraryZVertical,-0.3689777464074784,0.523776237815897,-0.4396251004203528,0.6294787614623715,0.3349882662296295,0.9250576496124268,-0.1790277510881424,0,0,0,-1,-1,2921.984468125,unknown,2,2022-06-02T10:49:37.706+02:00,2022-06-02T10:17:13.754+02:00,467,1.474645,0,0,361.8512,0,0,2022-06-02T10:49:24.918+02:00,675852567.4721328,0,6.640625,101.3014,1,0.8
2022-06-02T10:49:39.346+02:00,1654159778.999833,53.2290865432144,10.39854237285117,36.85035,0,20,-1,-1,2.400000095367432,7.999579855010837,-9999,2923.624331125,0.621795654296875,1.07391357421875,1.018783569335938,2923.614337125,-0.3992057236647573,1.20502680818126,-1.186074424448655,-1.700302243232727,7.324950695037842,0.5516427159309387,0.3312731385231018,0.8439710140228271,1.031175255775452,XArbitraryZVertical,-0.358147185254379,0.551918502380073,-0.4459092388242433,0.6068618409784943,0.3504742681980133,0.9269028306007385,-0.1342331171035767,0,0,0,-1,-1,2921.984468125,unknown,2,2022-06-02T10:49:37.706+02:00,2022-06-02T10:17:13.754+02:00,467,1.474645,0,0,361.8512,0,0,2022-06-02T10:49:24.918+02:00,675852567.4721328,0,6.640625,101.3014,1,0.8
2022-06-02T10:49:39.356+02:00,1654159778.999833,53.2290865432144,10.39854237285117,36.85035,0,20,-1,-1,2.400000095367432,7.999579855010837,-9999,2923.634325125,0.607940673828125,0.499359130859375,1.118423461914062,2923.624331125,-0.3523158146019191,1.319191241723359,-1.183236345438205,-1.602598190307617,6.844688892364502,1.003419756889343,0.2234316170215607,0.4685903191566467,1.048861980438232,XArbitraryZVertical,-0.3447609848639056,0.5780098083350543,-0.4514218749130983,0.5858862333474442,0.3660306930541992,0.9258340001106262,-0.09408904612064362,0,0,0,-1,-1,2921.984468125,unknown,2,2022-06-02T10:49:37.706+02:00,2022-06-02T10:17:13.754+02:00,467,1.474645,0,0,361.8512,0,0,2022-06-02T10:49:24.918+02:00,675852567.4721328,0,6.640625,101.3014,1,0.8
2022-06-02T10:49:39.366+02:00,1654159778.999833,53.2290865432144,10.39854237285117,36.85035,0,20,-1,-1,2.400000095367432,7.999579855010837,-9999,2923.644319125,0.53826904296875,0.493255615234375,1.35321044921875,2923.634325125,-0.3008068742217965,1.431611299161445,-1.176301278758289,-2.11989164352417,6.148204803466797,1.124449253082275,0.2605188488960266,-0.1894262433052063,1.102577447891235,XArbitraryZVertical,-0.332119051535663,0.6025246109149793,-0.4540428749986839,0.5661324476881739,0.3806248903274536,0.9231907725334167,-0.05332205817103386,0,0,0,-1,-1,2921.984468125,unknown,2,2022-06-02T10:49:37.706+02:00,2022-06-02T10:17:13.754+02:00,467,1.474645,0,0,361.8512,0,0,2022-06-02T10:49:24.918+02:00,675852567.4721328,0,6.640625,101.3014,1,0.8
2022-06-02T10:49:39.376+02:00,1654159778.999833,53.2290865432144,10.39854237285117,36.85035,0,20,-1,-1,2.400000095367432,7.999579855010837,-9999,2923.654314125,0.3744049072265625,0.73699951171875,1.5447998046875,2923.644319125,-0.2330206546987914,1.551720981801936,-1.165512528001485,-2.9813551902771,5.410789966583252,1.393929719924927,0.1872745156288147,-0.4850002527236938,1.238447070121765,XArbitraryZVertical,-0.3221963864315945,0.6264417063113674,-0.4520817062363806,0.5471583202975387,0.3942073881626129,0.9189905524253845,-0.0075205541215837,0,0,0,-1,-1,2921.984468125,unknown,2,2022-06-02T10:49:37.706+02:00,2022-06-02T10:17:13.754+02:00,467,1.474645,0,0,361.8512,0,0,2022-06-02T10:49:24.918+02:00,675852567.4721328,0,6.640625,101.3014,1,0.8
2022-06-02T10:49:39.386+02:00,1654159778.999833,53.2290865432144,10.39854237285117,36.85035,0,20,-1,-1,2.400000095367432,7.999579855010837,-9999,2923.664308125,0.342437744140625,0.9197540283203125,1.776107788085938,2923.654314125,-0.1533174753240882,1.675250422649476,-1.149324115276031,-3.501574039459229,4.680984020233154,1.565801024436951,0.04843288660049438,-0.3066834211349487,1.418160438537598,XArbitraryZVertical,-0.3149265385659729,0.6497297351929241,-0.4457226531750824,0.5291537513154849,0.4068740606307983,0.9124876260757446,0.04265490546822548,0,0,0,-1,-1,2921.984468125,unknown,2,2022-06-02T10:49:37.706+02:00,2022-06-02T10:17:13.754+02:00,467,1.474645,0,0,361.8512,0,0,2022-06-02T10:49:24.918+02:00,675852567.4721328,0,6.640625,101.3014,1,0.8
2022-06-02T10:49:39.396+02:00,1654159778.999833,53.2290865432144,10.39854237285117,36.85035,0,20,-1,-1,2.400000095367432,7.999579855010837,-9999,2923.674302125,0.2448577880859375,0.9999237060546875,2.0228271484375,2923.664308125,-0.07578429322125159,1.787739450656362,-1.127265919372347,-3.529664993286133,3.758920669555664,1.711062073707581,-0.07861775159835815,-0.04980313777923584,1.570183396339417,XArbitraryZVertical,-0.3094585946944028,0.6711330543061163,-0.436217660750064,0.5133515624280086,0.4190717935562134,0.903242290019989,0.09236839413642883,0,0,0,-1,-1,2921.984468125,unknown,2,2022-06-02T10:49:37.706+02:00,2022-06-02T10:17:13.754+02:00,467,1.474645,0,0,361.8512,0,0,2022-06-02T10:49:24.918+02:00,675852567.4721328,0,6.640625,101.3014,1,0.8
2022-06-02T10:49:39.406+02:00,1654159778.999833,53.2290865432144,10.39854237285117,36.85035,0,20,-1,-1,2.400000095367432,7.999579855010837,-9999,2923.684296125,0.289581298828125,0.7757415771484375,2.231033325195312,2923.674302125,-0.009961327909809262,1.88012167454931,-1.10140296282668,-3.418117046356201,2.837566375732422,1.725750923156738,-0.1247852444648743,0.07696807384490967,1.747567892074585,XArbitraryZVertical,-0.3051700946066522,0.6897258796074717,-0.4250997478902575,0.5004393805204526,0.4308765232563019,0.8918428421020508,0.137701153755188,0,0,0,-1,-1,2921.984468125,unknown,2,2022-06-02T10:49:37.706+02:00,2022-06-02T10:17:13.754+02:00,467,1.474645,0,0,361.8512,0,0,2022-06-02T10:49:24.918+02:00,675852567.4721328,0,6.640625,101.3014,1,0.8
2022-06-02T10:49:39.416+02:00,1654159778.999833,53.2290865432144,10.39854237285117,36.85035,0,20,-1,-1,2.400000095367432,7.999579855010837,-9999,2923.694291125,0.34381103515625,0.53411865234375,2.30181884765625,2923.684296125,0.0455764466860673,1.952911002180647,-1.074123023475067,-3.193329095840454,1.84916615486145,1.631099939346313,-0.2005142569541931,0.04105448722839355,1.977135300636292,XArbitraryZVertical,-0.302631041416324,0.7051628190139716,-0.412807598296216,0.4906625992446212,0.4421372711658478,0.8791726231575012,0.1776802986860275,0,0,0,-1,-1,2921.984468125,unknown,2,2022-06-02T10:49:37.706+02:00,2022-06-02T10:17:13.754+02:00,467,1.474645,0,0,361.8512,0,0,2022-06-02T10:49:24.918+02:00,675852567.4721328,0,6.640625,101.3014,1,0.8
2022-06-02T10:49:39.426+02:00,1654159778.999833,53.2290865432144,10.39854237285117,36.85035,0,20,-1,-1,2.400000095367432,7.999579855010837,-9999,2923.704286,0.308074951171875,0.387847900390625,2.3265380859375,2923.694291125,0.09136189453006809,2.006997807886753,-1.047602070995213,-2.809875965118408,0.8919913768768311,1.413030982017517,-0.1150343120098114,-0.2249312996864319,2.062259435653687,XArbitraryZVertical,-0.3018395268769607,0.7172473603098902,-0.4001375149404216,0.4840857709083587,0.4528638422489166,0.8662275671958923,0.2111017554998398,0,0,0,-1,-1,2921.984468125,unknown,2,2022-06-02T10:49:37.706+02:00,2022-06-02T10:17:13.754+02:00,467,1.474645,0,0,361.8512,0,0,2022-06-02T10:49:24.918+02:00,675852567.4721328,0,6.640625,101.3014,1,0.8
2022-06-02T10:49:39.436+02:00,1654159778.999833,53.2290865432144,10.39854237285117,36.85035,0,20,-1,-1,2.400000095367432,7.999579855010837,-9999,2923.71428,0.26556396484375,0.3133087158203125,2.282852172851562,2923.704286,0.1287844460319592,2.044309560394403,-1.023671877127324,-2.52381706237793,0.03829945251345634,1.183721303939819,-0.1395830512046814,-0.4037677645683289,2.084237337112427,XArbitraryZVertical,-0.3027718297445375,0.725910840392498,-0.3877712537472961,0.4806413060662869,0.4629930555820465,0.8540239930152893,0.2372346520423889,0,0,0,-1,-1,2921.984468125,unknown,2,2022-06-02T10:49:37.706+02:00,2022-06-02T10:17:13.754+02:00,467,1.474645,0,0,361.8512,0,0,2022-06-02T10:49:24.918+02:00,675852567.4721328,0,6.640625,101.3014,1,0.8
2022-06-02T10:49:39.446+02:00,1654159778.999833,53.2290865432144,10.39854237285117,36.85035,0,20,-1,-1,2.400000095367432,7.999579855010837,-9999,2923.724274,0.204681396484375,0.360595703125,2.212921142578125,2923.71428,0.1606544215435187,2.068301627096182,-1.002915912327112,-2.271870613098145,-0.7114387154579163,0.8926311135292053,-0.1818139553070068,-0.5010170936584473,2.057224750518799,XArbitraryZVertical,-0.3054415175742631,0.7314676993624784,-0.3758260916807621,0.4800159265415295,0.4726465046405792,0.8430428504943848,0.2566790282726288,0,0,0,-1,-1,2921.984468125,unknown,2,2022-06-02T10:49:37.706+02:00,2022-06-02T10:17:13.754+02:00,467,1.474645,0,0,361.8512,0,0,2022-06-02T10:49:24.918+02:00,675852567.4721328,0,6.640625,101.3014,1,0.8
2022-06-02T10:49:39.456+02:00,1654159778.999833,53.2290865432144,10.39854237285117,36.85035,0,20,-1,-1,2.400000095367432,7.999579855010837,-9999,2923.734269,0.104583740234375,0.4813995361328125,2.111404418945312,2923.724274,0.189647781775039,2.082077480530487,-0.9855530867953392,-2.093860864639282,-1.457181811332703,0.6064422130584717,-0.2440738081932068,-0.5109764337539673,1.976691126823425,XArbitraryZVertical,-0.3099646229145044,0.7342109529592113,-0.3642429848497598,0.4818539667656901,0.4817600548267365,0.8335777521133423,0.2702875733375549,0,0,0,-1,-1,2921.984468125,unknown,2,2022-06-02T10:49:37.706+02:00,2022-06-02T10:17:13.754+02:00,467,1.474645,0,0,361.8512,0,0,2022-06-02T10:49:24.918+02:00,675852567.4721328,0,6.640625,101.3014,1,0.8
2022-06-02T10:49:39.466+02:00,1654159778.999833,53.2290865432144,10.39854237285117,36.85035,0,20,-1,-1,2.400000095367432,7.999579855010837,-9999,2923.744263,0.019012451171875,0.569366455078125,1.972625732421875,2923.734269,0.2186944914753428,2.088139581475417,-0.9707361932656599,-2.123015165328979,-2.201193809509277,0.3598595559597015,-0.3305615782737732,-0.4077450633049011,1.889694452285767,XArbitraryZVertical,-0.3165708987824276,0.7344545425259804,-0.3523661712051269,0.4860013831152687,0.4907940924167633,0.8253016471862793,0.2792812287807465,0,0,0,-1,-1,2921.984468125,unknown,2,2022-06-02T10:49:37.706+02:00,2022-06-02T10:17:13.754+02:00,467,1.474645,0,0,361.8512,0,0,2022-06-02T10:49:24.918+02:00,675852567.4721328,0,6.640625,101.3014,1,0.8
2022-06-02T10:49:39.476+02:00,1654159778.999833,53.2290865432144,10.39854237285117,36.85035,0,20,-1,-1,2.400000095367432,7.999579855010837,-9999,2923.754257,-0.016510009765625,0.59979248046875,1.809890747070312,2923.744263,0.250385703444356,2.088786436208811,-0.9573692615557385,-2.258843660354614,-2.923075914382935,0.1655293852090836,-0.4463210105895996,-0.2838665246963501,1.758024454116821,XArbitraryZVertical,-0.3254395213345511,0.7325346534256211,-0.3394528251022574,0.4921928930877992,0.5001539587974548,0.8176799416542053,0.2850357890129089,0,0,0,-1,-1,2921.984468125,unknown,2,2022-06-02T10:49:37.706+02:00,2022-06-02T10:17:13.754+02:00,467,1.474645,0,0,361.8512,0,0,2022-06-02T10:49:24.918+02:00,675852567.4721328,0,6.640625,101.3014,1,0.8
2022-06-02T10:49:39.486+02:00,1654159778.999833,53.2290865432144,10.39854237285117,36.85035,0,20,-1,-1,2.400000095367432,7.999579855010837,-9999,2923.764251,-0.071319580078125,0.596649169921875,1.694961547851562,2923.754257,0.2843825710118878,2.083886047135559,-0.9455056649001442,-2.25961446762085,-3.637091398239136,-0.06937767565250397,-0.5084806680679321,-0.2203847765922546,1.609817266464233,XArbitraryZVertical,-0.3363526435904788,0.728373885164351,-0.3255078327421865,0.5003828817931505,0.5099608302116394,0.8107930421829224,0.2873232364654541,0,0,0,-1,-1,2921.984468125,unknown,2,2022-06-02T10:49:37.706+02:00,2022-06-02T10:17:13.754+02:00,467,1.474645,0,0,361.8512,0,0,2022-06-02T10:49:24.918+02:00,675852567.4721328,0,6.640625,101.3014,1,0.8
2022-06-02T10:49:39.496+02:00,1654159778.999833,53.2290865432144,10.39854237285117,36.85035,0,20,-1,-1,2.400000095367432,7.999579855010837,-9999,2923.774246,-0.1689910888671875,0.5447998046875,1.705108642578125,2923.764251,0.3194509093528219,2.072715815722609,-0.936295026340034,-2.175624132156372,-4.292619705200195,-0.3409252166748047,-0.5600380301475525,-0.2004480361938477,1.448925614356995,XArbitraryZVertical,-0.3490563973338885,0.7216332650399844,-0.3110732044657856,0.5105276282266864,0.5196632742881775,0.8053674101829529,0.2851898670196533,0,0,0,-1,-1,2921.984468125,unknown,2,2022-06-02T10:49:37.706+02:00,2022-06-02T10:17:13.754+02:00,467,1.474645,0,0,361.8512,0,0,2022-06-02T10:49:24.918+02:00,675852567.4721328,0,6.640625,101.3014,1,0.8
2022-06-02T10:49:39.506+02:00,1654159778.999833,53.2290865432144,10.39854237285117,36.85035,0,20,-1,-1,2.400000095367432,7.999579855010837,-9999,2923.78424,-0.27593994140625,0.5477142333984375,1.738311767578125,2923.774246,0.3541368457770052,2.055274989456826,-0.9304865714428702,-1.925152182579041,-4.793814659118652,-0.6048575639724731,-0.6421682238578796,-0.2276005148887634,1.412950158119202,XArbitraryZVertical,-0.3630173320081137,0.7122831166952825,-0.2967041592321323,0.5223387080125426,0.5286886096000671,0.8019107580184937,0.2782576382160187,0,0,0,-1,-1,2921.984468125,unknown,2,2022-06-02T10:49:37.706+02:00,2022-06-02T10:17:13.754+02:00,467,1.474645,0,0,361.8512,0,0,2022-06-02T10:49:24.918+02:00,675852567.4721328,0,6.640625,101.3014,1,0.8
2022-06-02T10:49:39.516+02:00,1654159778.999833,53.2290865432144,10.39854237285117,36.85035,0,20,-1,-1,2.400000095367432,7.999579855010837,-9999,2923.794234,-0.409271240234375,0.6203460693359375,1.793304443359375,2923.78424,0.3859203717394406,2.030651346936427,-0.9287506157417602,-1.572980046272278,-5.267187118530273,-0.8164697289466858,-0.7625018358230591,-0.2724454402923584,1.453906893730164,XArbitraryZVertical,-0.3774741369002246,0.700285769178993,-0.2830498934293201,0.535719837273861,0.5366259217262268,0.8008723855018616,0.2657737731933594,0,0,0,-1,-1,2921.984468125,unknown,2,2022-06-02T10:49:37.706+02:00,2022-06-02T10:17:13.754+02:00,467,1.474645,0,0,361.8512,0,0,2022-06-02T10:49:24.918+02:00,675852567.4721328,0,6.640625,101.3014,1,0.8
2022-06-02T10:49:39.526+02:00,1654159778.999833,53.2290865432144,10.39854237285117,36.85035,0,20,-1,-1,2.400000095367432,7.999579855010837,-9999,2923.804228,-0.5685272216796875,0.6528167724609375,1.812850952148438,2923.794234,0.4138256519271143,1.997877784242136,-0.93090543397394,-1.151914834976196,-5.817761421203613,-1.04234254360199,-0.8756738305091858,-0.2084567546844482,1.518399953842163,XArbitraryZVertical,-0.3920976952236089,0.6855109418575998,-0.2700123016752367,0.5508424841728241,0.5434746742248535,0.802160918712616,0.2473317086696625,0,0,0,-1,-1,2921.984468125,unknown,2,2022-06-02T10:49:37.706+02:00,2022-06-02T10:17:13.754+02:00,467,1.474645,0,0,361.8512,0,0,2022-06-02T10:49:24.918+02:00,675852567.4721328,0,6.640625,101.3014,1,0.8
2022-06-02T10:49:39.536+02:00,1654159778.999833,53.2290865432144,10.39854237285117,36.85035,0,20,-1,-1,2.400000095367432,7.999579855010837,-9999,2923.814223,-0.68896484375,0.7459716796875,1.731979370117188,2923.804228,0.4346957697988319,1.953733069777847,-0.9381330429671612,-0.4941341578960419,-6.432914733886719,-1.274598836898804,-1.042898416519165,-0.1797467470169067,1.592388987541199,XArbitraryZVertical,-0.40643665239337,0.6672905573151791,-0.2581814853318358,0.5682207148021035,0.5484678149223328,0.8064556121826172,0.2209348827600479,0,0,0,-1,-1,2921.984468125,unknown,2,2022-06-02T10:49:37.706+02:00,2022-06-02T10:17:13.754+02:00,467,1.474645,0,0,361.8512,0,0,2022-06-02T10:49:24.918+02:00,675852567.4721328,0,6.640625,101.3014,1,0.8
2022-06-02T10:49:39.546+02:00,1654159778.999833,53.2290865432144,10.39854237285117,36.85035,0,20,-1,-1,2.400000095367432,7.999579855010837,-9999,2923.824217,-0.8170623779296875,0.73486328125,1.647201538085938,2923.814223,0.4464695589104974,1.895126500422642,-0.9499032888214636,0.1099735721945763,-7.294712543487549,-1.452828288078308,-1.181832671165466,-0.1049243211746216,1.59294319152832,XArbitraryZVertical,-0.4201504439588916,0.6451121782402431,-0.2471957904988871,0.5883859259418627,0.5514310002326965,0.813359260559082,0.1853922307491302,0,0,0,-1,-1,2921.984468125,unknown,2,2022-06-02T10:49:37.706+02:00,2022-06-02T10:17:13.754+02:00,467,1.474645,0,0,361.8512,0,0,2022-06-02T10:49:24.918+02:00,675852567.4721328,0,6.640625,101.3014,1,0.8
2022-06-02T10:49:39.556+02:00,1654159778.999833,53.2290865432144,10.39854237285117,36.85035,0,20,-1,-1,2.400000095367432,7.999579855010837,-9999,2923.834211,-0.9340667724609375,0.797210693359375,1.52850341796875,2923.824217,0.4466668424762178,1.817381022964885,-0.9660705021826396,0.9073256850242615,-8.377055168151855,-1.709492444992065,-1.301705360412598,-0.07647287845611572,1.554964780807495,XArbitraryZVertical,-0.4331511378673852,0.6178738190117915,-0.2366451031044749,0.6120547006732422,0.5513389706611633,0.8226580023765564,0.1387759298086166,0,0,0,-1,-1,2921.984468125,unknown,2,2022-06-02T10:49:37.706+02:00,2022-06-02T10:17:13.754+02:00,467,1.474645,0,0,361.8512,0,0,2022-06-02T10:49:24.918+02:00,675852567.4721328,0,6.640625,101.3014,1,0.8
2022-06-02T10:49:39.566+02:00,1654159778.999833,53.2290865432144,10.39854237285117,36.85035,0,20,-1,-1,2.400000095367432,7.999579855010837,-9999,2923.844205,-0.9942779541015625,0.98919677734375,1.496673583984375,2923.834211,0.4319140468623214,1.716062919730819,-0.98603532924445,1.622775077819824,-9.542745590209961,-1.90994668006897,-1.430707454681396,-0.08639234304428101,1.50352954864502,XArbitraryZVertical,-0.4451162253267717,0.5846573847424275,-0.2263132126554944,0.639397784897155,0.5461859107017517,0.8338440656661987,0.07990542054176331,0,0,0,-1,-1,2921.984468125,unknown,2,2022-06-02T10:49:37.706+02:00,2022-06-02T10:17:13.754+02:00,467,1.474645,0,0,361.8512,0,0,2022-06-02T10:49:24.918+02:00,675852567.4721328,0,6.640625,101.3014,1,0.8
2022-06-02T10:49:39.576+02:00,1654159778.999833,53.2290865432144,10.39854237285117,36.85035,0,20,-1,-1,2.400000095367432,7.999579855010837,-9999,2923.8542,-1.099700927734375,1.239364624023438,1.519744873046875,2923.844205,0.4045128282494836,1.592945138588972,-1.006124190769775,2.111652612686157,-10.77792453765869,-1.99778413772583,-1.499179840087891,0.03836864233016968,1.480488300323486,XArbitraryZVertical,-0.4560524042115793,0.5458406931802222,-0.2145721795762011,0.6693525113246106,0.5350073575973511,0.8447641134262085,0.01185171585530043,0,0,0,-1,-1,2921.984468125,unknown,2,2022-06-02T10:49:37.706+02:00,2022-06-02T10:17:13.754+02:00,467,1.474645,0,0,361.8512,0,0,2022-06-02T10:49:24.918+02:00,675852567.4721328,0,6.640625,101.3014,1,0.8
2022-06-02T10:49:39.586+02:00,1654159778.999833,53.2290865432144,10.39854237285117,36.85035,0,20,-1,-1,2.400000095367432,7.999579855010837,-9999,2923.864194,-1.252288818359375,1.45074462890625,1.579635620117188,2923.8542,0.3638277819549516,1.445919330830692,-1.024384028275215,2.423608541488647,-11.99090385437012,-2.021536350250244,-1.555434823036194,0.2552247643470764,1.573784351348877,XArbitraryZVertical,-0.4657627295644209,0.5007042264802539,-0.2006474503915442,0.7014990495626229,0.5155788660049438,0.854394257068634,-0.06472071260213852,0,0,0,-1,-1,2921.984468125,unknown,2,2022-06-02T10:49:37.706+02:00,2022-06-02T10:17:13.754+02:00,467,1.474645,0,0,361.8512,0,0,2022-06-02T10:49:24.918+02:00,675852567.4721328,0,6.640625,101.3014,1,0.8
2022-06-02T10:49:39.596+02:00,1654159778.999833,53.2290865432144,10.39854237285117,36.85035,0,20,-1,-1,2.400000095367432,7.999579855010837,-9999,2923.874188,-1.615859985351562,1.4913330078125,1.397613525390625,2923.864194,0.3077272901023566,1.272394075947903,-1.038371910189068,2.836487054824829,-13.19598484039307,-1.99612820148468,-1.65286922454834,0.5004205107688904,1.692740678787231,XArbitraryZVertical,-0.4734450919078658,0.4485874888471614,-0.1842847819172165,0.7352945773245384,0.4851904511451721,0.8615789413452148,-0.1492380201816559,0,0,0,-1,-1,2921.984468125,unknown,2,2022-06-02T10:49:37.706+02:00,2022-06-02T10:17:13.754+02:00,467,1.474645,0,0,361.8512,0,0,2022-06-02T10:49:24.918+02:00,675852567.4721328,0,6.640625,101.3014,1,0.8
2022-06-02T10:49:39.606+02:00,1654159778.999833,53.2290865432144,10.39854237285117,36.85035,0,20,-1,-1,2.400000095367432,7.999579855010837,-9999,2923.884183,-2.430877685546875,1.494888305664062,0.7415924072265625,2923.874188,0.2332062249303768,1.072186325159219,-1.043712099731372,3.894203662872314,-13.8808069229126,-1.957928419113159,-1.828445315361023,0.6227524876594543,1.795293092727661,XArbitraryZVertical,-0.4771613508971439,0.3899291409919693,-0.1661852120758081,0.7698407528443542,0.4417723715305328,0.8642774224281311,-0.2405446171760559,0,0,0,-1,-1,2921.984468125,unknown,2,2022-06-02T10:49:37.706+02:00,2022-06-02T10:17:13.754+02:00,467,1.474645,0,0,361.8512,0,0,2022-06-02T10:49:24.918+02:00,675852567.4721328,0,6.640625,101.3014,1,0.8
2022-06-02T10:49:39.616+02:00,1654159778.999833,53.2290865432144,10.39854237285117,36.85035,0,20,-1,-1,2.400000095367432,7.999579855010837,-9999,2923.894177,-3.226806640625,1.531341552734375,-0.6124725341796875,2923.884183,0.1390121149539261,0.8536589845240742,-1.032075876730334,5.409614562988281,-13.54591941833496,-1.62866997718811,-2.363325834274292,0.6348286867141724,1.457011222839355,XArbitraryZVertical,-0.4730909447282136,0.3280136807788152,-0.1487966271845549,0.8040221351255106,0.3866718411445618,0.8583658337593079,-0.337183952331543,0,0,0,-1,-1,2921.984468125,unknown,2,2022-06-02T10:49:37.706+02:00,2022-06-02T10:17:13.754+02:00,467,1.474645,0,0,361.8512,0,0,2022-06-02T10:49:24.918+02:00,675852567.4721328,0,6.640625,101.3014,1,0.8
2022-06-02T10:49:39.626+02:00,1654159778.999833,53.2290865432144,10.39854237285117,36.85035,0,20,-1,-1,2.400000095367432,7.999579855010837,-9999,2923.904171,-12.31280517578125,1.16217041015625,-5.605026245117188,2923.894177,0.04308967413928535,0.6409594988063368,-0.9943035435034354,7.117908477783203,-12.72832870483398,-0.6394978165626526,-3.203201055526733,0.6665641665458679,0.5875644683837891,XArbitraryZVertical,-0.4585011878111652,0.2670712285748824,-0.1322355629611807,0.8372354664412996,0.3259426951408386,0.8383795619010925,-0.4368992447853088,0,0,0,-1,-1,2921.984468125,unknown,2,2022-06-02T10:49:37.706+02:00,2022-06-02T10:17:13.754+02:00,467,1.474645,0,0,361.8512,0,0,2022-06-02T10:49:24.918+02:00,675852567.4721328,0,6.640625,101.3014,1,0.8
2022-06-02T10:49:39.636+02:00,1654159778.999833,53.2290865432144,10.39854237285117,36.85035,0,20,-1,-1,2.400000095367432,7.999579855010837,-9999,2923.914165,-0.69024658203125,-0.1386260986328125,-22.90019226074219,2923.904171,0.02116039196255578,0.5985189166455956,-0.9387265484810406,2.345118761062622,18.22777557373047,8.442907333374023,-3.825369834899902,0.5221729874610901,1.359239101409912,XArbitraryZVertical,-0.4349729096192356,0.2583430531300747,-0.1243253444272819,0.853580975744431,0.33287712931633,0.8068063855171204,-0.4881148636341095,0,0,0,-1,-1,2921.984468125,unknown,2,2022-06-02T10:49:37.706+02:00,2022-06-02T10:17:13.754+02:00,467,1.474645,0,0,361.8512,0,0,2022-06-02T10:49:24.918+02:00,675852567.4721328,0,6.640625,101.3014,1,0.8
2022-06-02T10:49:39.646+02:00,1654159778.999833,53.2290865432144,10.39854237285117,36.85035,0,20,-1,-1,2.400000095367432,7.999579855010837,-9999,2923.92416,4.042266845703125,-0.9697723388671875,-11.86325073242188,2923.914165,0.06044477672349987,0.7257557534374284,-0.9140776177615901,-0.8870443105697632,3.291944980621338,4.110545635223389,-18.61469078063965,-0.5945664048194885,-19.80849838256836,XArbitraryZVertical,-0.4219924128745446,0.3059216016426729,-0.1312219964349756,0.8432764209178522,0.4052035808563232,0.7919998168945312,-0.4566687643527985,0,0,0,-1,-1,2921.984468125,unknown,2,2022-06-02T10:49:37.706+02:00,2022-06-02T10:17:13.754+02:00,467,1.474645,0,0,361.8512,0,0,2022-06-02T10:49:24.918+02:00,675852567.4721328,0,6.640625,101.3014,1,0.8
2022-06-02T10:49:39.656+02:00,1654159778.999833,53.2290865432144,10.39854237285117,36.85035,0,20,-1,-1,2.400000095367432,7.999579855010837,-9999,2923.934154,-2.1912841796875,1.914566040039062,-3.83392333984375,2923.92416,0.05809911403122554,0.7327068206365227,-0.8757795915330947,4.587893486022949,-0.8849300742149353,-0.4877720475196838,8.842857360839844,-2.779227733612061,-17.23784637451172,XArbitraryZVertical,-0.4051464551217773,0.3127795825311308,-0.1272694984136886,0.849604352695182,0.4283522069454193,0.7680429816246033,-0.4760505557060242,0,0,0,-1,-1,2921.984468125,unknown,2,2022-06-02T10:49:37.706+02:00,2022-06-02T10:17:13.754+02:00,467,1.474645,0,0,361.8512,0,0,2022-06-02T10:49:24.918+02:00,675852567.4721328,0,6.640625,101.3014,1,0.8
2022-06-02T10:49:39.666+02:00,1654159778.999833,53.2290865432144,10.39854237285117,36.85035,0,20,-1,-1,2.400000095367432,7.999579855010837,-9999,2923.944148,-1.526947021484375,0.33489990234375,1.802688598632812,2923.934154,0.003233961669042693,0.6943376653158373,-0.8536592795046165,2.803839921951294,1.348911046981812,-1.53979766368866,-0.9835951328277588,0.7223988771438599,-7.013717651367188,XArbitraryZVertical,-0.3897887181640208,0.3090819644795698,-0.1394694106021312,0.8562016326778815,0.420545756816864,0.7536904215812683,-0.5050662159919739,0,0,0,-1,-1,2921.984468125,unknown,2,2022-06-02T10:49:37.706+02:00,2022-06-02T10:17:13.754+02:00,467,1.474645,0,0,361.8512,0,0,2022-06-02T10:49:24.918+02:00,675852567.4721328,0,6.640625,101.3014,1,0.8
2022-06-02T10:49:39.676+02:00,1654159778.999833,53.2290865432144,10.39854237285117,36.85035,0,20,-1,-1,2.400000095367432,7.999579855010837,-9999,2923.954142,-1.647445678710938,-0.473846435546875,2.253250122070312,2923.944148,-0.02973275626692796,0.6881679498432636,-0.8490876264364515,1.019155383110046,2.551002979278564,-1.651551604270935,-2.186985492706299,0.4306268692016602,0.202247679233551,XArbitraryZVertical,-0.3831488231014969,0.3131186258079491,-0.1516865821020784,0.8556546615052032,0.4196057617664337,0.7506779432296753,-0.5103074312210083,0,0,0,-1,-1,2921.984468125,unknown,2,2022-06-02T10:49:37.706+02:00,2022-06-02T10:17:13.754+02:00,467,1.474645,0,0,361.8512,0,0,2022-06-02T10:49:24.918+02:00,675852567.4721328,0,6.640625,101.3014,1,0.8
2022-06-02T10:49:39.686+02:00,1654159778.999833,53.2290865432144,10.39854237285117,36.85035,0,20,-1,-1,2.400000095367432,7.999579855010837,-9999,2923.964137,-1.46868896484375,0.0418853759765625,0.95208740234375,2923.954142,-0.06941283206860925,0.6823503231150018,-0.8473741326511567,2.653188705444336,2.820297718048096,-1.821675777435303,-1.870183944702148,-0.9724453687667847,3.022404193878174,XArbitraryZVertical,-0.3766110181675584,0.3182695446476719,-0.1672853869746271,0.8537470625326861,0.4174403250217438,0.7495447993278503,-0.5137372612953186,0,0,0,-1,-1,2921.984468125,unknown,2,2022-06-02T10:49:37.706+02:00,2022-06-02T10:17:13.754+02:00,467,1.474645,0,0,361.8512,0,0,2022-06-02T10:49:24.918+02:00,675852567.4721328,0,6.640625,101.3014,1,0.8
2022-06-02T10:49:39.696+02:00,1654159778.999833,53.2290865432144,10.39854237285117,36.85035,0,20,-1,-1,2.400000095367432,7.999579855010837,-9999,2923.974131,-0.7256011962890625,0.1185455322265625,-0.1947784423828125,2923.964137,-0.1003613488302002,0.6914199987584554,-0.8370089488403892,1.29819130897522,3.599303007125854,-0.5414264798164368,-1.993557214736938,-0.9421979188919067,2.157290697097778,XArbitraryZVertical,-0.3663384720908006,0.3284087824123202,-0.180658606628619,0.8516490595792986,0.4270136654376984,0.7426433563232422,-0.5158876180648804,0,0,0,-1,-1,2921.984468125,unknown,2,2022-06-02T10:49:37.706+02:00,2022-06-02T10:17:13.754+02:00,467,1.474645,0,0,361.8512,0,0,2022-06-02T10:49:24.918+02:00,675852567.4721328,0,6.640625,101.3014,1,0.8
2022-06-02T10:49:39.706+02:00,1654159778.999833,53.2290865432144,10.39854237285117,36.85035,0,20,-1,-1,2.400000095367432,7.999579855010837,-9999,2923.984125,0.235748291015625,0.31451416015625,-0.1095733642578125,2923.974131,-0.1123782777863816,0.7133774288518516,-0.8428452915142528,-1.284215211868286,2.531422853469849,-1.660679340362549,-1.579863786697388,-0.6578094959259033,0.7348522543907166,XArbitraryZVertical,-0.3648134508439481,0.3396472205515569,-0.190627661597306,0.8457019844749013,0.4353936016559601,0.7465392351150513,-0.5031018257141113,0,0,0,-1,-1,2921.984468125,unknown,2,2022-06-02T10:49:37.706+02:00,2022-06-02T10:17:13.754+02:00,467,1.474645,0,0,361.8512,0,0,2022-06-02T10:49:24.918+02:00,675852567.4721328,0,6.640625,101.3014,1,0.8
2022-06-02T10:49:39.716+02:00,1654159778.999833,53.2290865432144,10.39854237285117,36.85035,0,20,-1,-1,2.400000095367432,7.999579855010837,-9999,2923.994119,0.3492584228515625,0.4590606689453125,0.0571746826171875,2923.984125,-0.1151435158825876,0.7318250529827552,-0.8708749532324687,-2.278169393539429,1.854760527610779,-2.165478229522705,-0.5866180658340454,-0.5184635519981384,0.244758278131485,XArbitraryZVertical,-0.374563174182217,0.34654004590766,-0.1993900663726187,0.8365739014809818,0.4304443597793579,0.7648928165435791,-0.4792248606681824,0,0,0,-1,-1,2921.984468125,unknown,2,2022-06-02T10:49:37.706+02:00,2022-06-02T10:17:13.754+02:00,467,1.474645,0,0,361.8512,0,0,2022-06-02T10:49:24.918+02:00,675852567.4721328,0,6.640625,101.3014,1,0.8
2022-06-02T10:49:39.726+02:00,1654159778.999833,53.2290865432144,10.39854237285117,36.85035,0,20,-1,-1,2.400000095367432,7.999579855010837,-9999,2924.004114,-0.0296173095703125,0.9456329345703125,0.21295166015625,2923.994119,-0.1210885761989017,0.7455642693050435,-0.8978799695638091,-1.235952019691467,1.902781844139099,-2.100974798202515,-0.001705378293991089,-0.4309636950492859,0.4633665084838867,XArbitraryZVertical,-0.383607818209078,0.3519736584353421,-0.2085480560458709,0.8279295201721804,0.4228174388408661,0.7820073366165161,-0.457919180393219,0,0,0,-1,-1,2921.984468125,unknown,2,2022-06-02T10:49:37.706+02:00,2022-06-02T10:17:13.754+02:00,467,1.474645,0,0,361.8512,0,0,2022-06-02T10:49:24.918+02:00,675852567.4721328,0,6.640625,101.3014,1,0.8
2022-06-02T10:49:39.736+02:00,1654159778.999833,53.2290865432144,10.39854237285117,36.85035,0,20,-1,-1,2.400000095367432,7.999579855010837,-9999,2924.014108,-0.3551177978515625,1.0823974609375,0.295379638671875,2924.004114,-0.1334975639270897,0.7546832060248352,-0.9203076932965474,-1.16343092918396,1.972280263900757,-2.076958417892456,-0.2129956185817719,-0.09501296281814575,0.5713883638381958,XArbitraryZVertical,-0.3899048988289084,0.3569269486014444,-0.2188164058026681,0.8201808274780984,0.414854109287262,0.7957879900932312,-0.4411546587944031,0,0,0,-1,-1,2921.984468125,unknown,2,2022-06-02T10:49:37.706+02:00,2022-06-02T10:17:13.754+02:00,467,1.474645,0,0,361.8512,0,0,2022-06-02T10:49:24.918+02:00,675852567.4721328,0,6.640625,101.3014,1,0.8
2022-06-02T10:49:39.746+02:00,1654159778.999833,53.2290865432144,10.39854237285117,36.85035,0,20,-1,-1,2.400000095367432,7.999579855010837,-9999,2924.024102,-0.354705810546875,0.823944091796875,0.332794189453125,2924.014108,-0.1416589868353683,0.7689349710612611,-0.9441214289889662,-1.636196255683899,2.23854398727417,-1.952606320381165,-0.6204190254211426,0.2791596651077271,0.6958553194999695,XArbitraryZVertical,-0.3968296630064889,0.3630398689334614,-0.2285522587447786,0.8114751746843886,0.4078030586242676,0.8099820017814636,-0.4214565455913544,0,0,0,-1,-1,2921.984468125,unknown,2,2022-06-02T10:49:37.706+02:00,2022-06-02T10:17:13.754+02:00,467,1.474645,0,0,361.8512,0,0,2022-06-02T10:49:24.918+02:00,675852567.4721328,0,6.640625,101.3014,1,0.8
2022-06-02T10:49:39.756+02:00,1654159778.999833,53.2290865432144,10.39854237285117,36.85035,0,20,-1,-1,2.400000095367432,7.999579855010837,-9999,2924.034096,-0.1848297119140625,0.698211669921875,0.491790771484375,2924.024102,-0.1425025883851734,0.7913691462642632,-0.9718400500094299,-2.306893825531006,2.402118682861328,-2.043132543563843,-0.7800242900848389,0.1459077000617981,0.7062022686004639,XArbitraryZVertical,-0.4055796370809038,0.3706376300086707,-0.2376385562249597,0.8010373965491504,0.4010264873504639,0.8259245157241821,-0.3962658047676086,0,0,0,-1,-1,2921.984468125,unknown,2,2022-06-02T10:49:37.706+02:00,2022-06-02T10:17:13.754+02:00,467,1.474645,0,0,361.8512,0,0,2022-06-02T10:49:24.918+02:00,675852567.4721328,0,6.640625,101.3014,1,0.8
2022-06-02T10:49:39.766+02:00,1654159778.999833,53.2290865432144,10.39854237285117,36.85035,0,20,-1,-1,2.400000095367432,7.999579855010837,-9999,2924.044091,-0.11651611328125,0.762725830078125,0.6728057861328125,2924.034096,-0.1309871605707553,0.8248995134087393,-1.006285681921148,-3.406517505645752,2.387793302536011,-2.049778461456299,-0.6525766849517822,-0.1159839034080505,0.7591111660003662,XArbitraryZVertical,-0.4178157890713836,0.3793354544839448,-0.2453982265088598,0.7882349463866999,0.3929484188556671,0.844850480556488,-0.3630691468715668,0,0,0,-1,-1,2921.984468125,unknown,2,2022-06-02T10:49:37.706+02:00,2022-06-02T10:17:13.754+02:00,467,1.474645,0,0,361.8512,0,0,2022-06-02T10:49:24.918+02:00,675852567.4721328,0,6.640625,101.3014,1,0.8
2022-06-02T10:49:39.776+02:00,1654159778.999833,53.2290865432144,10.39854237285117,36.85035,0,20,-1,-1,2.400000095367432,7.999579855010837,-9999,2924.054085,-0.129791259765625,0.8577423095703125,0.725982666015625,2924.044091,-0.0992175080463195,0.8758870070428801,-1.047850161259968,-4.528877735137939,2.398047685623169,-2.039104461669922,-0.5030369162559509,-0.1456027030944824,0.9177877902984619,XArbitraryZVertical,-0.4343028340357144,0.3892082873344764,-0.2507824089976836,0.7726617097305292,0.3836216628551483,0.8663515448570251,-0.3197959065437317,0,0,0,-1,-1,2921.984468125,unknown,2,2022-06-02T10:49:37.706+02:00,2022-06-02T10:17:13.754+02:00,467,1.474645,0,0,361.8512,0,0,2022-06-02T10:49:24.918+02:00,675852567.4721328,0,6.640625,101.3014,1,0.8
2022-06-02T10:49:39.786+02:00,1654159778.999833,53.2290865432144,10.39854237285117,36.85035,0,20,-1,-1,2.400000095367432,7.999579855010837,-9999,2924.064079,-0.125091552734375,0.8640594482421875,0.7008514404296875,2924.054085,-0.04370353026824021,0.9490600227485612,-1.09422192323018,-5.309720039367676,2.515184164047241,-2.026888847351074,-0.4864189922809601,-0.07292836904525757,0.9806153774261475,XArbitraryZVertical,-0.4541045817919291,0.4002419763442701,-0.2542420807410617,0.7542919695272088,0.3728936314582825,0.888571560382843,-0.2671907842159271,0,0,0,-1,-1,2921.984468125,unknown,2,2022-06-02T10:49:37.706+02:00,2022-06-02T10:17:13.754+02:00,467,1.474645,0,0,361.8512,0,0,2022-06-02T10:49:24.918+02:00,675852567.4721328,0,6.640625,101.3014,1,0.8
2022-06-02T10:49:39.796+02:00,1654159778.999833,53.2290865432144,10.39854237285117,36.85035,0,20,-1,-1,2.400000095367432,7.999579855010837,-9999,2924.074073,-0.093536376953125,0.7898712158203125,0.6517181396484375,2924.064079,0.03724466597626984,1.048174861686632,-1.141076600646322,-5.674835205078125,2.75498628616333,-1.998263478279114,-0.4844623506069183,-0.03048145771026611,0.9275749921798706,XArbitraryZVertical,-0.4753569264675599,0.4123810457082902,-0.2566558364312178,0.7335567325280368,0.3610035181045532,0.9090825319290161,-0.2079553306102753,0,0,0,-1,-1,2921.984468125,unknown,2,2022-06-02T10:49:37.706+02:00,2022-06-02T10:17:13.754+02:00,467,1.474645,0,0,361.8512,0,0,2022-06-02T10:49:24.918+02:00,675852567.4721328,0,6.640625,101.3014,1,0.8
2022-06-02T10:49:39.806+02:00,1654159778.999833,53.2290865432144,10.39854237285117,36.85035,0,20,-1,-1,2.400000095367432,7.999579855010837,-9999,2924.084068,-0.060028076171875,0.7488250732421875,0.6099090576171875,2924.074073,0.14344241805683,1.174223022449143,-1.183937973426896,-5.648324012756348,2.946853637695312,-1.918129801750183,-0.4533010125160217,-0.09583771228790283,0.8266823291778564,XArbitraryZVertical,-0.4963039832581276,0.4252271314902048,-0.2588035659637526,0.7112559429474243,0.348000168800354,0.9260988831520081,-0.1457284837961197,0,0,0,-1,-1,2921.984468125,unknown,2,2022-06-02T10:49:37.706+02:00,2022-06-02T10:17:13.754+02:00,467,1.474645,0,0,361.8512,0,0,2022-06-02T10:49:24.918+02:00,675852567.4721328,0,6.640625,101.3014,1,0.8
2022-06-02T10:49:39.816+02:00,1654159778.999833,53.2290865432144,10.39854237285117,36.85035,0,20,-1,-1,2.400000095367432,7.999579855010837,-9999,2924.094062,-0.0408477783203125,0.7858734130859375,0.62371826171875,2924.084068,0.2730600027885794,1.325232300637343,-1.219477058445694,-5.462725162506104,3.072508335113525,-1.857234716415405,-0.4032095074653625,-0.1764989495277405,0.7087370157241821,XArbitraryZVertical,-0.5159118841802997,0.4381832195923688,-0.2610396917812026,0.6882503755810415,0.3338125646114349,0.9389195442199707,-0.083660788834095,0,0,0,-1,-1,2921.984468125,unknown,2,2022-06-02T10:49:37.706+02:00,2022-06-02T10:17:13.754+02:00,467,1.474645,0,0,361.8512,0,0,2022-06-02T10:49:24.918+02:00,675852567.4721328,0,6.640625,101.3014,1,0.8
2022-06-02T10:49:39.826+02:00,1654159778.999833,53.2290865432144,10.39854237285117,36.85035,0,20,-1,-1,2.400000095367432,7.999579855010837,-9999,2924.104056,-0.030517578125,0.941680908203125,0.7385711669921875,2924.094062,0.4243018631811117,1.499549950578874,-1.246013103612921,-5.300674438476562,3.24906063079834,-1.768054246902466,-0.3639326691627502,-0.1926693320274353,0.6321669220924377,XArbitraryZVertical,-0.5339763039725688,0.4511224323882,-0.2635634977565686,0.6647496389033093,0.3182936310768127,0.947719931602478,-0.02271571569144726,0,0,0,-1,-1,2921.984468125,unknown,2,2022-06-02T10:49:37.706+02:00,2022-06-02T10:17:13.754+02:00,467,1.474645,0,0,361.8512,0,0,2022-06-02T10:49:24.918+02:00,675852567.4721328,0,6.640625,101.3014,1,0.8
2022-06-02T10:49:39.836+02:00,1654159778.999833,53.2290865432144,10.39854237285117,36.85035,0,20,-1,-1,2.400000095367432,7.999579855010837,-9999,2924.11405,-0.06341552734375,1.08465576171875,0.798614501953125,2924.104056,0.5955481177933346,1.695592209777374,-1.26161386687594,-5.317746639251709,3.396025419235229,-1.611658215522766,-0.3307221531867981,-0.09976893663406372,0.6323983669281006,XArbitraryZVertical,-0.550713914991047,0.4643827955639314,-0.2660196554253518,0.6405437810233822,0.3019135594367981,0.9525826573371887,0.03787439316511154,0,0,0,-1,-1,2921.984468125,unknown,2,2022-06-02T10:49:37.706+02:00,2022-06-02T10:17:13.754+02:00,467,1.474645,0,0,361.8512,0,0,2022-06-02T10:49:24.918+02:00,675852567.4721328,0,6.640625,101.3014,1,0.8
2022-06-02T10:49:39.846+02:00,1654159778.999833,53.2290865432144,10.39854237285117,36.85035,0,20,-1,-1,2.400000095367432,7.999579855010837,-9999,2924.124045,-0.1087188720703125,1.159515380859375,0.7535400390625,2924.11405,0.7803658215426404,1.906069822411872,-1.264707864312122,-5.400884628295898,3.459259510040283,-1.539116859436035,-0.3218605816364288,0.07277125120162964,0.6907402276992798,XArbitraryZVertical,-0.5667152255219696,0.4779193618603161,-0.2678852185401486,0.6153570902444679,0.2845528721809387,0.9535195231437683,0.09914612770080566,0,0,0,-1,-1,2921.984468125,unknown,2,2022-06-02T10:49:37.706+02:00,2022-06-02T10:17:13.754+02:00,467,1.474645,0,0,361.8512,0,0,2022-06-02T10:49:24.918+02:00,675852567.4721328,0,6.640625,101.3014,1,0.8
2022-06-02T10:49:39.856+02:00,1654159778.999833,53.2290865432144,10.39854237285117,36.85035,0,20,-1,-1,2.400000095367432,7.999579855010837,-9999,2924.134039,-0.0917816162109375,1.250473022460938,0.7325439453125,2924.124045,0.9578080999109122,2.110450990007608,-1.256107119312673,-5.114445686340332,3.629503965377808,-1.477136254310608,-0.3559719324111938,0.1718335747718811,0.6185897588729858,XArbitraryZVertical,-0.5815040668340388,0.4912991994442899,-0.2698467766361815,0.5896275280579789,0.265533059835434,0.9508926272392273,0.1590437591075897,0,0,0,-1,-1,2921.984468125,unknown,2,2022-06-02T10:49:37.706+02:00,2022-06-02T10:17:13.754+02:00,467,1.474645,0,0,361.8512,0,0,2022-06-02T10:49:24.918+02:00,675852567.4721328,0,6.640625,101.3014,1,0.8
2022-06-02T10:49:39.866+02:00,1654159778.999833,53.2290865432144,10.39854237285117,36.85035,0,20,-1,-1,2.400000095367432,7.999579855010837,-9999,2924.144033,-0.025146484375,1.270401000976562,0.7169647216796875,2924.134039,1.110277866111389,2.29238725951662,-1.23832135759092,-4.817615032196045,3.838346004486084,-1.346841335296631,-0.3530508875846863,0.2622361779212952,0.5259597301483154,XArbitraryZVertical,-0.5942846314018428,0.5046056050825423,-0.2725827927445261,0.5638239698692176,0.24503393471241,0.9452374577522278,0.2156020849943161,0,0,0,-1,-1,2921.984468125,unknown,2,2022-06-02T10:49:37.706+02:00,2022-06-02T10:17:13.754+02:00,467,1.474645,0,0,361.8512,0,0,2022-06-02T10:49:24.918+02:00,675852567.4721328,0,6.640625,101.3014,1,0.8
2022-06-02T10:49:39.876+02:00,1654159778.999833,53.2290865432144,10.39854237285117,36.85035,0,20,-1,-1,2.400000095367432,7.999579855010837,-9999,2924.154028,0.038116455078125,1.304901123046875,0.7696685791015625,2924.144033,1.233729439415685,2.448045243190439,-1.213359787942222,-4.608447074890137,4.048417568206787,-1.137502670288086,-0.2853696346282959,0.3320170044898987,0.4524956345558167,XArbitraryZVertical,-0.6050174844898609,0.5181477615227456,-0.2758599343975672,0.5379384816464863,0.2236630767583847,0.9367967844009399,0.2690465152263641,0,0,0,-1,-1,2921.984468125,unknown,2,2022-06-02T10:49:37.706+02:00,2022-06-02T10:17:13.754+02:00,467,1.474645,0,0,361.8512,0,0,2022-06-02T10:49:24.918+02:00,675852567.4721328,0,6.640625,101.3014,1,0.8
2022-06-02T10:49:39.886+02:00,1654159778.999833,53.2290865432144,10.39854237285117,36.85035,0,20,-1,-1,2.400000095367432,7.999579855010837,-9999,2924.164022,0.0570068359375,1.347305297851562,0.740203857421875,2924.154028,1.331691294779835,2.580594606204381,-1.181093163194707,-4.920084476470947,4.173462390899658,-0.8875415921211243,-0.1918111145496368,0.3529626727104187,0.4131503105163574,XArbitraryZVertical,-0.6142705481986779,0.5324592448109795,-0.2787177627506415,0.5113464871230619,0.2021261006593704,0.9250218868255615,0.3216823041439056,0,0,0,-1,-1,2921.984468125,unknown,2,2022-06-02T10:49:37.706+02:00,2022-06-02T10:17:13.754+02:00,467,1.474645,0,0,361.8512,0,0,2022-06-02T10:49:24.918+02:00,675852567.4721328,0,6.640625,101.3014,1,0.8
2022-06-02T10:49:39.896+02:00,1654159778.999833,53.2290865432144,10.39854237285117,36.85035,0,20,-1,-1,2.400000095367432,7.999579855010837,-9999,2924.174016,0.1358642578125,1.381103515625,0.7872161865234375,2924.164022,1.410659242758493,2.695281522424014,-1.139890698394328,-5.292015552520752,4.223846912384033,-0.6108561754226685,-0.1346088349819183,0.4222683906555176,0.4093998670578003,XArbitraryZVertical,-0.6231989285321604,0.5477338867788297,-0.279860195259881,0.4829998852434654,0.1802936643362045,0.9085878729820251,0.37677863240242,0,0,0,-1,-1,2921.984468125,unknown,2,2022-06-02T10:49:37.706+02:00,2022-06-02T10:17:13.754+02:00,467,1.474645,0,0,361.8512,0,0,2022-06-02T10:49:24.918+02:00,675852567.4721328,0,6.640625,101.3014,1,0.8
2022-06-02T10:49:39.906+02:00,1654159778.999833,53.2290865432144,10.39854237285117,36.85035,0,20,-1,-1,2.400000095367432,7.999579855010837,-9999,2924.18401,0.1804962158203125,1.354705810546875,0.72796630859375,2924.174016,1.466576557155982,2.786740074799061,-1.090675865619292,-5.707741260528564,3.993998527526855,-0.06432998925447464,-0.06653475761413574,0.4803701639175415,0.3034324645996094,XArbitraryZVertical,-0.6312697331061738,0.5639619772265425,-0.27834017949908,0.453841443592039,0.160483181476593,0.8869392871856689,0.4331091642379761,0,0,0,-1,-1,2921.984468125,unknown,2,2022-06-02T10:49:37.706+02:00,2022-06-02T10:17:13.754+02:00,467,1.474645,0,0,361.8512,0,0,2022-06-02T10:49:24.918+02:00,675852567.4721328,0,6.640625,101.3014,1,0.8
2022-06-02T10:49:39.916+02:00,1654159778.999833,53.2290865432144,10.39854237285117,36.85035,0,20,-1,-1,2.400000095367432,7.999579855010837,-9999,2924.194005,0.141204833984375,1.439605712890625,0.74017333984375,2924.18401,1.500862634193169,2.855238031549273,-1.035390888034957,-5.824216842651367,3.689800262451172,0.372745007276535,0.018536776304245,0.5112454295158386,0.2909808158874512,XArbitraryZVertical,-0.6381751185068646,0.5808956994325476,-0.2736920413464642,0.4247178979259379,0.1441067010164261,0.8600618243217468,0.4894146025180817,0,0,0,-1,-1,2921.984468125,unknown,2,2022-06-02T10:49:37.706+02:00,2022-06-02T10:17:13.754+02:00,467,1.474645,0,0,361.8512,0,0,2022-06-02T10:49:24.918+02:00,675852567.4721328,0,6.640625,101.3014,1,0.8
2022-06-02T10:49:39.926+02:00,1654159778.999833,53.2290865432144,10.39854237285117,36.85035,0,20,-1,-1,2.400000095367432,7.999579855010837,-9999,2924.203999,0.0243072509765625,1.63934326171875,0.954864501953125,2924.194005,1.51817568370008,2.905209407919774,-0.9782294104280795,-5.639460563659668,3.369844913482666,0.8222314715385437,0.04672867059707642,0.5442693829536438,0.1646652221679688,XArbitraryZVertical,-0.6435147969823486,0.5978036629679905,-0.2668358703822982,0.396633373341074,0.130792111158371,0.8295097947120667,0.5429610013961792,0,0,0,-1,-1,2921.984468125,unknown,2,2022-06-02T10:49:37.706+02:00,2022-06-02T10:17:13.754+02:00,467,1.474645,0,0,361.8512,0,0,2022-06-02T10:49:24.918+02:00,675852567.4721328,0,6.640625,101.3014,1,0.8
2022-06-02T10:49:39.936+02:00,1654159778.999833,53.2290865432144,10.39854237285117,36.85035,0,20,-1,-1,2.400000095367432,7.999579855010837,-9999,2924.213993,-0.02264404296875,1.838851928710938,1.235427856445312,2924.203999,1.520716445821066,2.939380699087384,-0.9244362106648184,-4.898781776428223,3.018786907196045,1.235483527183533,-0.04202707856893539,0.7296267747879028,0.239393949508667,XArbitraryZVertical,-0.6463256690980167,0.6142226030651715,-0.2592069941860958,0.3712213222431699,0.1209607869386673,0.7982813119888306,0.5900125503540039,0,0,0,-1,-1,2921.984468125,unknown,2,2022-06-02T10:49:37.706+02:00,2022-06-02T10:17:13.754+02:00,467,1.474645,0,0,361.8512,0,0,2022-06-02T10:49:24.918+02:00,675852567.4721328,0,6.640625,101.3014,1,0.8
2022-06-02T10:49:39.946+02:00,1654159778.999833,53.2290865432144,10.39854237285117,36.85035,0,20,-1,-1,2.400000095367432,7.999579855010837,-9999,2924.223987,0.05645751953125,1.707656860351562,1.510955810546875,2924.213993,1.511343170404846,2.960617739563977,-0.8779281759351659,-3.992916584014893,2.681253433227539,1.706170320510864,-0.1238934695720673,0.9983287453651428,0.4686851501464844,XArbitraryZVertical,-0.646172542473788,0.6297765239090382,-0.2519612700995371,0.3497971092773975,0.1149671077728271,0.7694171667098999,0.6283148527145386,0,0,0,-1,-1,2921.984468125,unknown,2,2022-06-02T10:49:37.706+02:00,2022-06-02T10:17:13.754+02:00,467,1.474645,0,0,361.8512,0,0,2022-06-02T10:49:24.918+02:00,675852567.4721328,0,6.640625,101.3014,1,0.8
2022-06-02T10:49:39.956+02:00,1654159778.999833,53.2290865432144,10.39854237285117,36.85035,0,20,-1,-1,2.400000095367432,7.999579855010837,-9999,2924.233982,0.1293182373046875,1.5655517578125,1.5421142578125,2924.223987,1.49183415064759,2.969912703229125,-0.841232696144266,-2.77527117729187,2.091839790344238,2.106715440750122,-0.1165717616677284,1.057024717330933,0.7249377369880676,XArbitraryZVertical,-0.6429239547895708,0.6442216236216134,-0.2456831969089809,0.3335670366947748,0.1138709709048271,0.7454653382301331,0.656745433807373,0,0,0,-1,-1,2921.984468125,unknown,2,2022-06-02T10:49:37.706+02:00,2022-06-02T10:17:13.754+02:00,467,1.474645,0,0,361.8512,0,0,2022-06-02T10:49:24.918+02:00,675852567.4721328,0,6.640625,101.3014,1,0.8
