loggingTime(txt),locationTimestamp_since1970(s),locationLatitude(WGS84),locationLongitude(WGS84),locationAltitude(m),locationSpeed(m/s),locationSpeedAccuracy(m/s),locationCourse(°),locationCourseAccuracy(°),locationVerticalAccuracy(m),locationHorizontalAccuracy(m),locationFloor(Z),accelerometerTimestamp_sinceReboot(s),accelerometerAccelerationX(G),accelerometerAccelerationY(G),accelerometerAccelerationZ(G),motionTimestamp_sinceReboot(s),motionYaw(rad),motionRoll(rad),motionPitch(rad),motionRotationRateX(rad/s),motionRotationRateY(rad/s),motionRotationRateZ(rad/s),motionUserAccelerationX(G),motionUserAccelerationY(G),motionUserAccelerationZ(G),motionAttitudeReferenceFrame(txt),motionQuaternionX(R),motionQuaternionY(R),motionQuaternionZ(R),motionQuaternionW(R),motionGravityX(G),motionGravityY(G),motionGravityZ(G),motionMagneticFieldX(µT),motionMagneticFieldY(µT),motionMagneticFieldZ(µT),motionHeading(°),motionMagneticFieldCalibrationAccuracy(Z),activityTimestamp_sinceReboot(s),activity(txt),activityActivityConfidence(Z),activityActivityStartDate(txt),pedometerStartDate(txt),pedometerNumberofSteps(N),pedometerAverageActivePace(s/m),pedometerCurrentPace(s/m),pedometerCurrentCadence(steps/s),pedometerDistance(m),pedometerFloorAscended(N),pedometerFloorDescended(N),pedometerEndDate(txt),altimeterTimestamp_sinceReboot(s),altimeterReset(bool),altimeterRelativeAltitude(m),altimeterPressure(kPa),batteryState(N),batteryLevel(R)
2022-06-02T10:52:26.506+02:00,1654159945.813378,53.22890393440913,10.39865269326642,39.63852,0,0.21,226.7578125,65.06141773144168,4,5,-9999,3090.75220575,-0.033355712890625,-0.3882598876953125,-0.8577728271484375,3090.74221075,-0.1119238769690923,-0.04915707566582887,0.3941452104923318,0.05134960636496544,-0.1452197730541229,-0.06368603557348251,0.0104118213057518,-0.06210213899612427,0.07444673776626587,XArbitraryZVertical,0.1940858875863637,-0.0350109322816485,-0.05963797969876315,0.9785438877832541,-0.04536968842148781,-0.3840190768241882,-0.9222097992897034,0,0,0,-1,-1,3088.195926,walking,2,2022-06-02T10:52:23.918+02:00,2022-06-02T10:17:13.754+02:00,516,1.472617,0,0,401.0887,0,0,2022-06-02T10:52:26.477+02:00,675852741.3618507,0,4.601562,101.327,1,0.79
2022-06-02T10:52:26.509+02:00,1654159945.813378,53.22890393440913,10.39865269326642,39.63852,0,0.21,226.7578125,65.06141773144168,4,5,-9999,3090.76219975,-0.0546112060546875,-0.3720245361328125,-0.8856658935546875,3090.76219975,-0.1129813834033837,-0.0505342245594505,0.3952735948796045,0.1346572786569595,-0.04422605037689209,-0.03942889720201492,-0.001706819981336594,0.01077786087989807,0.05007004737854004,XArbitraryZVertical,0.1945782309461059,-0.03581576027857514,-0.06029671012355064,0.9783765497679549,-0.04661774635314941,-0.3850606977939606,-0.92171311378479,0,0,0,-1,-1,3088.195926,walking,2,2022-06-02T10:52:23.918+02:00,2022-06-02T10:17:13.754+02:00,516,1.472617,0,0,401.0887,0,0,2022-06-02T10:52:26.477+02:00,675852741.3618507,0,4.601562,101.327,1,0.79
2022-06-02T10:52:26.512+02:00,1654159945.813378,53.22890393440913,10.39865269326642,39.63852,0,0.21,226.7578125,65.06141773144168,4,5,-9999,3090.77219375,-0.052276611328125,-0.3940582275390625,-0.9051513671875,3090.76219975,-0.1129813834033837,-0.0505342245594505,0.3952735948796045,0.1346572786569595,-0.04422605037689209,-0.03942889720201492,-0.001706819981336594,0.01077786087989807,0.05007004737854004,XArbitraryZVertical,0.1945782309461059,-0.03581576027857514,-0.06029671012355064,0.9783765497679549,-0.04661774635314941,-0.3850606977939606,-0.92171311378479,0,0,0,-1,-1,3088.195926,walking,2,2022-06-02T10:52:23.918+02:00,2022-06-02T10:17:13.754+02:00,516,1.472617,0,0,401.0887,0,0,2022-06-02T10:52:26.477+02:00,675852741.3618507,0,4.601562,101.327,1,0.79
2022-06-02T10:52:26.518+02:00,1654159945.813378,53.22890393440913,10.39865269326642,39.63852,0,0.21,226.7578125,65.06141773144168,4,5,-9999,3090.78218775,-0.043365478515625,-0.41241455078125,-0.9221649169921875,3090.77219375,-0.113513914061308,-0.05012836680323213,0.3967021995904268,0.1723338216543198,-0.008926116861402988,-0.0385628379881382,-0.007479604333639145,0.00791504979133606,0.02367490530014038,XArbitraryZVertical,0.1952801650016548,-0.0357052281428608,-0.06052728404733397,0.978226523827995,-0.04621604457497597,-0.3863787651062012,-0.9211815595626831,0,0,0,-1,-1,3090.75523875,unknown,2,2022-06-02T10:52:26.477+02:00,2022-06-02T10:17:13.754+02:00,516,1.472617,0,0,401.0887,0,0,2022-06-02T10:52:26.477+02:00,675852746.4766881,0,4.8125,101.3242,1,0.79
2022-06-02T10:52:26.520+02:00,1654159945.813378,53.22890393440913,10.39865269326642,39.63852,0,0.21,226.7578125,65.06141773144168,4,5,-9999,3090.79218175,-0.0453033447265625,-0.4033966064453125,-0.942169189453125,3090.78218775,-0.1139971304116926,-0.0495559445558536,0.3982947503517213,0.1925272941589355,-0.002957307267934084,-0.03031090088188648,-0.005199320614337921,-0.02081373333930969,0.007048487663269043,XArbitraryZVertical,0.196068240575534,-0.03551300116112512,-0.06071809657332009,0.9780639973860401,-0.04565819352865219,-0.3878471255302429,-0.9205921292304993,0,0,0,-1,-1,3090.75523875,unknown,2,2022-06-02T10:52:26.477+02:00,2022-06-02T10:17:13.754+02:00,516,1.472617,0,0,401.0887,0,0,2022-06-02T10:52:26.477+02:00,675852746.4766881,0,4.8125,101.3242,1,0.79
2022-06-02T10:52:26.524+02:00,1654159945.813378,53.22890393440913,10.39865269326642,39.63852,0,0.21,226.7578125,65.06141773144168,4,5,-9999,3090.80217675,-0.04510498046875,-0.395904541015625,-0.9431304931640625,3090.79218175,-0.1141833880969956,-0.04959008025667947,0.3992282284100044,0.2113901972770691,-0.00458822725340724,-0.02978838793933392,0.004854410886764526,-0.02221181988716125,-0.01238858699798584,XArbitraryZVertical,0.196520629165692,-0.03557176170735904,-0.06081857822435,0.9779648360184861,-0.04567165300250053,-0.3887073695659637,-0.9202286005020142,0,0,0,-1,-1,3090.75523875,unknown,2,2022-06-02T10:52:26.477+02:00,2022-06-02T10:17:13.754+02:00,516,1.472617,0,0,401.0887,0,0,2022-06-02T10:52:26.477+02:00,675852746.4766881,0,4.8125,101.3242,1,0.79
2022-06-02T10:52:26.534+02:00,1654159945.813378,53.22890393440913,10.39865269326642,39.63852,0,0.21,226.7578125,65.06141773144168,4,5,-9999,3090.81217075,-0.04644775390625,-0.4058685302734375,-0.9315643310546875,3090.80217675,-0.1148188975693606,-0.04838167022503316,0.4019277726578421,0.2194863557815552,-0.01478493865579367,-0.02441998943686485,-0.006089422851800919,-0.005733668804168701,-0.02658438682556152,XArbitraryZVertical,0.1978667960777569,-0.03511270650049047,-0.06102711941523576,0.9776970335971972,-0.04450869560241699,-0.3911932110786438,-0.919231653213501,0,0,0,-1,-1,3090.75523875,unknown,2,2022-06-02T10:52:26.477+02:00,2022-06-02T10:17:13.754+02:00,516,1.472617,0,0,401.0887,0,0,2022-06-02T10:52:26.477+02:00,675852746.4766881,0,4.8125,101.3242,1,0.79
2022-06-02T10:52:26.544+02:00,1654159945.813378,53.22890393440913,10.39865269326642,39.63852,0,0.21,226.7578125,65.06141773144168,4,5,-9999,3090.82216475,-0.0623626708984375,-0.3794403076171875,-0.9182586669921875,3090.81217075,-0.1154447995725666,-0.04753907558965025,0.4051950474114363,0.1987373977899551,-0.01167756225913763,-0.04610664397478104,0.004534393548965454,-0.009335905313491821,-0.01925337314605713,XArbitraryZVertical,0.199479449658101,-0.03484727108859884,-0.06126882131531446,0.9773636322817787,-0.04367316886782646,-0.3941980302333832,-0.9179872274398804,0,0,0,-1,-1,3090.75523875,unknown,2,2022-06-02T10:52:26.477+02:00,2022-06-02T10:17:13.754+02:00,516,1.472617,0,0,401.0887,0,0,2022-06-02T10:52:26.477+02:00,675852746.4766881,0,4.8125,101.3242,1,0.79
2022-06-02T10:52:26.554+02:00,1654159945.813378,53.22890393440913,10.39865269326642,39.63852,0,0.21,226.7578125,65.06141773144168,4,5,-9999,3090.83215875,-0.041473388671875,-0.3842010498046875,-0.9050140380859375,3090.82216475,-0.1159636055052764,-0.04720771097677833,0.4085476080449237,0.1974789798259735,0.01885278336703777,-0.05716262385249138,-0.0169505700469017,0.005553245544433594,-0.00863182544708252,XArbitraryZVertical,0.2011195514152672,-0.03482421492758399,-0.06150836172959651,0.9770132380052093,-0.0433063693344593,-0.3972768783569336,-0.91667640209198,0,0,0,-1,-1,3090.75523875,unknown,2,2022-06-02T10:52:26.477+02:00,2022-06-02T10:17:13.754+02:00,516,1.472617,0,0,401.0887,0,0,2022-06-02T10:52:26.477+02:00,675852746.4766881,0,4.8125,101.3242,1,0.79
2022-06-02T10:52:26.564+02:00,1654159945.813378,53.22890393440913,10.39865269326642,39.63852,0,0.21,226.7578125,65.06141773144168,4,5,-9999,3090.84215375,-0.0356903076171875,-0.3885040283203125,-0.9012451171875,3090.83215875,-0.1166777742985688,-0.04633871596886562,0.4111803415279362,0.161870926618576,0.02918425016105175,-0.0581945963203907,-0.009098254144191742,0.02218911051750183,0.005326390266418457,XArbitraryZVertical,0.2024206031646346,-0.03454045486737926,-0.06178403923298243,0.9767372046980053,-0.04246116802096367,-0.3996915519237518,-0.9156656861305237,0,0,0,-1,-1,3090.75523875,unknown,2,2022-06-02T10:52:26.477+02:00,2022-06-02T10:17:13.754+02:00,516,1.472617,0,0,401.0887,0,0,2022-06-02T10:52:26.477+02:00,675852746.4766881,0,4.8125,101.3242,1,0.79
2022-06-02T10:52:26.574+02:00,1654159945.813378,53.22890393440913,10.39865269326642,39.63852,0,0.21,226.7578125,65.06141773144168,4,5,-9999,3090.85214775,-0.02764892578125,-0.3872222900390625,-0.9073944091796875,3090.84215375,-0.1170627391991641,-0.04597637721332649,0.412381626218211,0.1055616810917854,0.03963522985577583,-0.04116121679544449,0.002159804105758667,0.0114491879940033,0.01394033432006836,XArbitraryZVertical,0.203012144771766,-0.03443403373197387,-0.0619416846240019,0.9766081501246878,-0.04210728779435158,-0.4007924199104309,-0.9152007102966309,0,0,0,-1,-1,3090.75523875,unknown,2,2022-06-02T10:52:26.477+02:00,2022-06-02T10:17:13.754+02:00,516,1.472617,0,0,401.0887,0,0,2022-06-02T10:52:26.477+02:00,675852746.4766881,0,4.8125,101.3242,1,0.79
2022-06-02T10:52:26.584+02:00,1654159945.813378,53.22890393440913,10.39865269326642,39.63852,0,0.21,226.7578125,65.06141773144168,4,5,-9999,3090.86214175,-0.0285186767578125,-0.38018798828125,-0.9132232666015625,3090.85214775,-0.1172552030985608,-0.04571622290150879,0.4129364768728152,0.07698782533407211,0.05154648423194885,-0.03007980436086655,0.01124991476535797,0.01372748613357544,0.0113791823387146,XArbitraryZVertical,0.2032879795899031,-0.0343411461643045,-0.06201212495061579,0.9765495616729373,-0.04185902327299118,-0.4013006985187531,-0.9149893522262573,0,0,0,-1,-1,3090.75523875,unknown,2,2022-06-02T10:52:26.477+02:00,2022-06-02T10:17:13.754+02:00,516,1.472617,0,0,401.0887,0,0,2022-06-02T10:52:26.477+02:00,675852746.4766881,0,4.8125,101.3242,1,0.79
2022-06-02T10:52:26.594+02:00,1654159945.813378,53.22890393440913,10.39865269326642,39.63852,0,0.21,226.7578125,65.06141773144168,4,5,-9999,3090.872135416667,-0.0303497314453125,-0.3703155517578125,-0.9089202880859375,3090.86214175,-0.1174127281288401,-0.04532772501842502,0.4139133551544235,0.07237888872623444,0.06227835267782211,-0.02664951980113983,0.01405048742890358,0.01590380072593689,0.001680195331573486,XArbitraryZVertical,0.2037745542257191,-0.03419323548997914,-0.06205448373704025,0.9764506674218498,-0.04148576408624649,-0.4021952748298645,-0.9146134853363037,0,0,0,-1,-1,3090.75523875,unknown,2,2022-06-02T10:52:26.477+02:00,2022-06-02T10:17:13.754+02:00,516,1.472617,0,0,401.0887,0,0,2022-06-02T10:52:26.477+02:00,675852746.4766881,0,4.8125,101.3242,1,0.79
2022-06-02T10:52:26.604+02:00,1654159945.813378,53.22890393440913,10.39865269326642,39.63852,0,0.21,226.7578125,65.06141773144168,4,5,-9999,3090.882130416667,-0.0235595703125,-0.3717803955078125,-0.9021453857421875,3090.872135416667,-0.1177240111473731,-0.04448437611693287,0.4146108764296995,0.06673724949359894,0.08004749566316605,-0.03307812660932541,0.01201542466878891,0.02697929739952087,0.0015716552734375,XArbitraryZVertical,0.2041361668938939,-0.03383168852939891,-0.06212388870926725,0.97638331438082,-0.04070192575454712,-0.4028338193893433,-0.91436767578125,0,0,0,-1,-1,3090.75523875,unknown,2,2022-06-02T10:52:26.477+02:00,2022-06-02T10:17:13.754+02:00,516,1.472617,0,0,401.0887,0,0,2022-06-02T10:52:26.477+02:00,675852746.4766881,0,4.8125,101.3242,1,0.79
2022-06-02T10:52:26.614+02:00,1654159945.813378,53.22890393440913,10.39865269326642,39.63852,0,0.21,226.7578125,65.06141773144168,4,5,-9999,3090.892124416667,-0.0230712890625,-0.372467041015625,-0.898895263671875,3090.882130416667,-0.1178626226310985,-0.04388601301470686,0.4146871822824983,0.05653215199708939,0.07577072829008102,-0.01698890328407288,0.01076504215598106,0.03373247385025024,0.009362399578094482,XArbitraryZVertical,0.2041896946197503,-0.03355574750626326,-0.06213083816350824,0.9763811865520755,-0.04015344753861427,-0.4029036462306976,-0.9143611788749695,0,0,0,-1,-1,3090.75523875,unknown,2,2022-06-02T10:52:26.477+02:00,2022-06-02T10:17:13.754+02:00,516,1.472617,0,0,401.0887,0,0,2022-06-02T10:52:26.477+02:00,675852746.4766881,0,4.8125,101.3242,1,0.79
2022-06-02T10:52:26.624+02:00,1654159945.813378,53.22890393440913,10.39865269326642,39.63852,0,0.21,226.7578125,65.06141773144168,4,5,-9999,3090.902118416667,-0.023345947265625,-0.370880126953125,-0.9004364013671875,3090.892124416667,-0.1179403889687207,-0.04306734787799245,0.4148817844879613,0.04218277335166931,0.07091179490089417,0.002713428810238838,0.01849698275327682,0.030660480260849,0.01526755094528198,XArbitraryZVertical,0.2043088745361344,-0.0331692003281173,-0.06208608294760051,0.9763723090449751,-0.03940150141716003,-0.4030817449092865,-0.914315402507782,0,0,0,-1,-1,3090.75523875,unknown,2,2022-06-02T10:52:26.477+02:00,2022-06-02T10:17:13.754+02:00,516,1.472617,0,0,401.0887,0,0,2022-06-02T10:52:26.477+02:00,675852746.4766881,0,4.8125,101.3242,1,0.79
2022-06-02T10:52:26.634+02:00,1654159945.813378,53.22890393440913,10.39865269326642,39.63852,0,0.21,226.7578125,65.06141773144168,4,5,-9999,3090.912112416667,-0.0194091796875,-0.38336181640625,-0.8987579345703125,3090.902118416667,-0.117445958300675,-0.04346509251102073,0.4145517339679008,0.03246856108307838,0.06446760892868042,0.008491555228829384,0.01418197527527809,0.03221997618675232,0.01471328735351562,XArbitraryZVertical,0.2041435513669996,-0.03330412936533723,-0.06188383001394424,0.9764151194053227,-0.0397709421813488,-0.4027796685695648,-0.9144324660301208,0,0,0,-1,-1,3090.75523875,unknown,2,2022-06-02T10:52:26.477+02:00,2022-06-02T10:17:13.754+02:00,516,1.472617,0,0,401.0887,0,0,2022-06-02T10:52:26.477+02:00,675852746.4766881,0,4.8125,101.3242,1,0.79
2022-06-02T10:52:26.644+02:00,1654159945.813378,53.22890393440913,10.39865269326642,39.63852,0,0.21,226.7578125,65.06141773144168,4,5,-9999,3090.922107416667,-0.012237548828125,-0.39617919921875,-0.9070587158203125,3090.912112416667,-0.1170796194067808,-0.04365161298993079,0.4135453562268869,0.01571248471736908,0.05040611699223518,0.001629387959837914,0.01853585615754128,0.02838423848152161,0.01486623287200928,XArbitraryZVertical,0.2036522688933893,-0.03333124436414225,-0.06171933657766937,0.9765272285145452,-0.03995916992425919,-0.4018583297729492,-0.9148295521736145,0,0,0,-1,-1,3090.75523875,unknown,2,2022-06-02T10:52:26.477+02:00,2022-06-02T10:17:13.754+02:00,516,1.472617,0,0,401.0887,0,0,2022-06-02T10:52:26.477+02:00,675852746.4766881,0,4.8125,101.3242,1,0.79
2022-06-02T10:52:26.654+02:00,1654159945.813378,53.22890393440913,10.39865269326642,39.63852,0,0.21,226.7578125,65.06141773144168,4,5,-9999,3090.932101416667,-0.0133514404296875,-0.3954010009765625,-0.9105682373046875,3090.922107416667,-0.1171067330043382,-0.04333842207190754,0.4132438074918935,-0.009311642497777939,0.01790649630129337,-0.0065718162804842,0.02344257384538651,0.008225858211517334,0.01280242204666138,XArbitraryZVertical,0.2035141584165949,-0.03317311924365501,-0.06169929968722292,0.9765627012518651,-0.03967789933085442,-0.4015821814537048,-0.9149630665779114,0,0,0,-1,-1,3090.75523875,unknown,2,2022-06-02T10:52:26.477+02:00,2022-06-02T10:17:13.754+02:00,516,1.472617,0,0,401.0887,0,0,2022-06-02T10:52:26.477+02:00,675852746.4766881,0,4.8125,101.3242,1,0.79
2022-06-02T10:52:26.664+02:00,1654159945.813378,53.22890393440913,10.39865269326642,39.63852,0,0.21,226.7578125,65.06141773144168,4,5,-9999,3090.942095416667,-0.0157623291015625,-0.3978424072265625,-0.914794921875,3090.932101416667,-0.1174217959655318,-0.04274021724675399,0.4125960930580887,-0.03090748190879822,-0.007171692792326212,-0.01140944845974445,0.02635481953620911,0.005191177129745483,0.007104218006134033,XArbitraryZVertical,0.203210977693757,-0.03289590901982649,-0.06178939865610283,0.9766295125645067,-0.03914166241884232,-0.400988906621933,-0.915246307849884,0,0,0,-1,-1,3090.75523875,unknown,2,2022-06-02T10:52:26.477+02:00,2022-06-02T10:17:13.754+02:00,516,1.472617,0,0,401.0887,0,0,2022-06-02T10:52:26.477+02:00,675852746.4766881,0,4.8125,101.3242,1,0.79
2022-06-02T10:52:26.674+02:00,1654159945.813378,53.22890393440913,10.39865269326642,39.63852,0,0.21,226.7578125,65.06141773144168,4,5,-9999,3090.952089416667,-0.0212860107421875,-0.396270751953125,-0.9092559814453125,3090.942095416667,-0.1178971241875831,-0.04216292724859599,0.4116902536090352,-0.02462854981422424,-0.02454748749732971,-0.02310045808553696,0.02401068806648254,0.004162818193435669,0.002835273742675781,XArbitraryZVertical,0.202778459982653,-0.032638143638109,-0.06195897857811176,0.9767173312468496,-0.03862858936190605,-0.4001589119434357,-0.9156312942504883,0,0,0,-1,-1,3090.75523875,unknown,2,2022-06-02T10:52:26.477+02:00,2022-06-02T10:17:13.754+02:00,516,1.472617,0,0,401.0887,0,0,2022-06-02T10:52:26.477+02:00,675852746.4766881,0,4.8125,101.3242,1,0.79
2022-06-02T10:52:26.684+02:00,1654159945.813378,53.22890393440913,10.39865269326642,39.63852,0,0.21,226.7578125,65.06141773144168,4,5,-9999,3090.962084416667,-0.0307159423828125,-0.3981781005859375,-0.907470703125,3090.952089416667,-0.1183860887942512,-0.04178544684351587,0.4104503788926043,-0.02025190740823746,-0.03290794789791107,-0.02558545395731926,0.0199626088142395,0.002400636672973633,0.00229191780090332,XArbitraryZVertical,0.2021763747664916,-0.03247012288016716,-0.06215432689095277,0.9768352573258602,-0.03830364719033241,-0.3990223407745361,-0.9161407947540283,0,0,0,-1,-1,3090.75523875,unknown,2,2022-06-02T10:52:26.477+02:00,2022-06-02T10:17:13.754+02:00,516,1.472617,0,0,401.0887,0,0,2022-06-02T10:52:26.477+02:00,675852746.4766881,0,4.8125,101.3242,1,0.79
2022-06-02T10:52:26.694+02:00,1654159945.813378,53.22890393440913,10.39865269326642,39.63852,0,0.21,226.7578125,65.06141773144168,4,5,-9999,3090.972078416667,-0.0413055419921875,-0.38751220703125,-0.9051666259765625,3090.962084416667,-0.1188587844616442,-0.04161715411622834,0.4093309661188657,-0.01328354794532061,-0.03343698382377625,-0.03268823772668839,0.0135708823800087,0.0008398890495300293,0.008603453636169434,XArbitraryZVertical,0.2016268897348426,-0.032405533407007,-0.06236356596766618,0.9769376624169676,-0.03816802799701691,-0.39799565076828,-0.9165929555892944,0,0,0,-1,-1,3090.75523875,unknown,2,2022-06-02T10:52:26.477+02:00,2022-06-02T10:17:13.754+02:00,516,1.472617,0,0,401.0887,0,0,2022-06-02T10:52:26.477+02:00,675852746.4766881,0,4.8125,101.3242,1,0.79
2022-06-02T10:52:26.704+02:00,1654159945.813378,53.22890393440913,10.39865269326642,39.63852,0,0.21,226.7578125,65.06141773144168,4,5,-9999,3090.982072416667,-0.0475921630859375,-0.38238525390625,-0.9123077392578125,3090.972078416667,-0.1195332121978427,-0.04112494180422465,0.4086715406981242,-0.008848319761455059,-0.02406745404005051,-0.04426233842968941,0.0007403641939163208,0.001898080110549927,0.008533239364624023,XArbitraryZVertical,0.2013090768480339,-0.03221518659720345,-0.0626407449997297,0.9769918438415964,-0.03772764652967453,-0.3973906338214874,-0.9168736934661865,0,0,0,-1,-1,3090.75523875,unknown,2,2022-06-02T10:52:26.477+02:00,2022-06-02T10:17:13.754+02:00,516,1.472617,0,0,401.0887,0,0,2022-06-02T10:52:26.477+02:00,675852746.4766881,0,4.8125,101.3242,1,0.79
2022-06-02T10:52:26.714+02:00,1654159945.813378,53.22890393440913,10.39865269326642,39.63852,0,0.21,226.7578125,65.06141773144168,4,5,-9999,3090.992066416667,-0.044677734375,-0.3912506103515625,-0.918487548828125,3090.982072416667,-0.1201792294880974,-0.0407133173617274,0.4082054758184659,0.02265963889658451,-0.00911413598805666,-0.04614512249827385,-0.007106319069862366,0.01424193382263184,0.01131236553192139,XArbitraryZVertical,0.20108384821626,-0.03206640228820225,-0.06291309687545958,0.9770255087320442,-0.03735776990652084,-0.3969628810882568,-0.9170740842819214,0,0,0,-1,-1,3090.75523875,unknown,2,2022-06-02T10:52:26.477+02:00,2022-06-02T10:17:13.754+02:00,516,1.472617,0,0,401.0887,0,0,2022-06-02T10:52:26.477+02:00,675852746.4766881,0,4.8125,101.3242,1,0.79
2022-06-02T10:52:26.724+02:00,1654159945.813378,53.22890393440913,10.39865269326642,39.63852,0,0.21,226.7578125,65.06141773144168,4,5,-9999,3091.002061416667,-0.0402069091796875,-0.400177001953125,-0.9388275146484375,3090.992066416667,-0.1208430609350451,-0.04009793130698087,0.4080570789761377,0.03320815414190292,-0.005051750224083662,-0.03733805194497108,-0.01065904274582863,0.01024526357650757,0.002727031707763672,XArbitraryZVertical,0.2010200971813404,-0.03182843441797702,-0.06317496021798381,0.9770295825283761,-0.03679576888680458,-0.3968266844749451,-0.9171557426452637,0,0,0,-1,-1,3090.75523875,unknown,2,2022-06-02T10:52:26.477+02:00,2022-06-02T10:17:13.754+02:00,516,1.472617,0,0,401.0887,0,0,2022-06-02T10:52:26.477+02:00,675852746.4766881,0,4.8125,101.3242,1,0.79
2022-06-02T10:52:26.734+02:00,1654159945.813378,53.22890393440913,10.39865269326642,39.63852,0,0.21,226.7578125,65.06141773144168,4,5,-9999,3091.012055416667,-0.0446929931640625,-0.396453857421875,-0.9563751220703125,3091.002061416667,-0.1214784045734795,-0.0393006287335082,0.4084483298030394,0.02031715586781502,-0.009766810573637486,-0.02695311978459358,-0.005643844604492188,0.002990216016769409,-0.01014018058776855,XArbitraryZVertical,0.2012264855057876,-0.03151364974598376,-0.0634065427834358,0.9769823179483698,-0.03605840727686882,-0.3971857726573944,-0.9170295596122742,0,0,0,-1,-1,3090.75523875,unknown,2,2022-06-02T10:52:26.477+02:00,2022-06-02T10:17:13.754+02:00,516,1.472617,0,0,401.0887,0,0,2022-06-02T10:52:26.477+02:00,675852746.4766881,0,4.8125,101.3242,1,0.79
2022-06-02T10:52:26.744+02:00,1654159945.813378,53.22890393440913,10.39865269326642,39.63852,0,0.21,226.7578125,65.06141773144168,4,5,-9999,3091.022049416667,-0.047821044921875,-0.411773681640625,-0.96502685546875,3091.012055416667,-0.1220802397890315,-0.03826982098264211,0.4087854586751544,0.02416302636265755,-0.0126936249434948,-0.009879595600068569,-0.007845491170883179,-0.002376675605773926,-0.03211849927902222,XArbitraryZVertical,0.2014145812972541,-0.03108008634328203,-0.06359788899032215,0.9769449034569946,-0.03510797768831253,-0.3974951505661011,-0.9169324040412903,0,0,0,-1,-1,3090.75523875,unknown,2,2022-06-02T10:52:26.477+02:00,2022-06-02T10:17:13.754+02:00,516,1.472617,0,0,401.0887,0,0,2022-06-02T10:52:26.477+02:00,675852746.4766881,0,4.8125,101.3242,1,0.79
2022-06-02T10:52:26.758+02:00,1654159945.813378,53.22890393440913,10.39865269326642,39.63852,0,0.21,226.7578125,65.06141773144168,4,5,-9999,3091.032043416667,-0.046783447265625,-0.41314697265625,-0.96014404296875,3091.022049416667,-0.1225312544611183,-0.03748486863430485,0.4090466333526118,0.02391448616981506,-0.02205583453178406,-0.008537761867046356,-0.011773481965065,-0.00473099946975708,-0.04478347301483154,XArbitraryZVertical,0.20156023595888,-0.03074941365312916,-0.06373991239819946,0.9769160638868305,-0.03438432887196541,-0.3977347910404205,-0.9168558716773987,0,0,0,-1,-1,3090.75523875,unknown,2,2022-06-02T10:52:26.477+02:00,2022-06-02T10:17:13.754+02:00,516,1.472617,0,0,401.0887,0,0,2022-06-02T10:52:26.477+02:00,675852746.4766881,0,4.8125,101.3242,1,0.79
2022-06-02T10:52:26.770+02:00,1654159945.813378,53.22890393440913,10.39865269326642,39.63852,0,0.21,226.7578125,65.06141773144168,4,5,-9999,3091.042038416667,-0.0504608154296875,-0.40753173828125,-0.95343017578125,3091.032043416667,-0.1228957605636256,-0.0370710704281427,0.4092610042286577,0.0115736648440361,-0.03777008131146431,-0.01027920283377171,-0.01465848088264465,-0.01684817671775818,-0.04726541042327881,XArbitraryZVertical,0.201672581850414,-0.03059006052299328,-0.06387684975838191,0.9768890589327395,-0.03400177136063576,-0.3979314565658569,-0.9167848229408264,0,0,0,-1,-1,3090.75523875,unknown,2,2022-06-02T10:52:26.477+02:00,2022-06-02T10:17:13.754+02:00,516,1.472617,0,0,401.0887,0,0,2022-06-02T10:52:26.477+02:00,675852746.4766881,0,4.8125,101.3242,1,0.79
2022-06-02T10:52:26.774+02:00,1654159945.813378,53.22890393440913,10.39865269326642,39.63852,0,0.21,226.7578125,65.06141773144168,4,5,-9999,3091.052032416667,-0.0540618896484375,-0.3950347900390625,-0.937255859375,3091.042038416667,-0.1231299300009863,-0.03711016762397861,0.4095096362960914,0.02393752336502075,-0.0437036044895649,-0.01524733006954193,-0.01311568915843964,-0.01462119817733765,-0.04126214981079102,XArbitraryZVertical,0.2017892675675317,-0.03063979555523143,-0.06399587786618602,0.97685551079765,-0.03403394296765327,-0.3981595635414124,-0.9166845679283142,0,0,0,-1,-1,3090.75523875,unknown,2,2022-06-02T10:52:26.477+02:00,2022-06-02T10:17:13.754+02:00,516,1.472617,0,0,401.0887,0,0,2022-06-02T10:52:26.477+02:00,675852746.4766881,0,4.8125,101.3242,1,0.79
2022-06-02T10:52:26.784+02:00,1654159945.813378,53.22890393440913,10.39865269326642,39.63852,0,0.21,226.7578125,65.06141773144168,4,5,-9999,3091.062026416667,-0.05029296875,-0.398681640625,-0.9201507568359375,3091.052032416667,-0.1232604372839546,-0.03751533213495407,0.4098455631955822,0.03258081525564194,-0.02921707555651665,-0.01702392473816872,-0.01866971701383591,-0.0008853375911712646,-0.02978253364562988,XArbitraryZVertical,0.2019384320433273,-0.03086034123419623,-0.06410147145724174,0.9768108414649614,-0.0344003289937973,-0.3984676897525787,-0.9165370464324951,0,0,0,-1,-1,3090.75523875,unknown,2,2022-06-02T10:52:26.477+02:00,2022-06-02T10:17:13.754+02:00,516,1.472617,0,0,401.0887,0,0,2022-06-02T10:52:26.477+02:00,675852746.4766881,0,4.8125,101.3242,1,0.79
2022-06-02T10:52:26.794+02:00,1654159945.813378,53.22890393440913,10.39865269326642,39.63852,0,0.21,226.7578125,65.06141773144168,4,5,-9999,3091.072020416667,-0.045166015625,-0.3982086181640625,-0.9111785888671875,3091.062026416667,-0.1232551736538135,-0.0380513575783241,0.4098694424988994,0.04566891491413116,-0.01074938382953405,-0.01287498604506254,-0.0173243023455143,0.001639038324356079,-0.01043194532394409,XArbitraryZVertical,0.2019329990653614,-0.03112228128868816,-0.06415309426855616,0.976800245922924,-0.03489125147461891,-0.3984895944595337,-0.9165089130401611,0,0,0,-1,-1,3090.75523875,unknown,2,2022-06-02T10:52:26.477+02:00,2022-06-02T10:17:13.754+02:00,516,1.472617,0,0,401.0887,0,0,2022-06-02T10:52:26.477+02:00,675852746.4766881,0,4.8125,101.3242,1,0.79
2022-06-02T10:52:26.803+02:00,1654159945.813378,53.22890393440913,10.39865269326642,39.63852,0,0.21,226.7578125,65.06141773144168,4,5,-9999,3091.082015416667,-0.03900146484375,-0.4060211181640625,-0.91473388671875,3091.072020416667,-0.123087324345338,-0.0385121030224388,0.4099531068581206,0.04318072646856308,0.01456236466765404,0.005595900118350983,-0.01217308640480042,0.001074850559234619,0.0007337331771850586,XArbitraryZVertical,0.2019617356607979,-0.03133272019365209,-0.06411790212947599,0.976789843394677,-0.0353122390806675,-0.398566335439682,-0.9164594411849976,0,0,0,-1,-1,3090.75523875,unknown,2,2022-06-02T10:52:26.477+02:00,2022-06-02T10:17:13.754+02:00,516,1.472617,0,0,401.0887,0,0,2022-06-02T10:52:26.477+02:00,675852746.4766881,0,4.8125,101.3242,1,0.79
2022-06-02T10:52:26.814+02:00,1654159945.813378,53.22890393440913,10.39865269326642,39.63852,0,0.21,226.7578125,65.06141773144168,4,5,-9999,3091.092009416667,-0.0348052978515625,-0.4112548828125,-0.922576904296875,3091.082015416667,-0.1228088087017574,-0.03860818329960284,0.4099812571804014,0.02779308333992958,0.02804641425609589,0.02618726156651974,-0.005905658006668091,-0.002744525671005249,0.005159437656402588,XArbitraryZVertical,0.2019767619635346,-0.03135230628137282,-0.06399166204256959,0.9767944645530318,-0.03539986163377762,-0.3985921442508698,-0.9164448380470276,0,0,0,-1,-1,3090.75523875,unknown,2,2022-06-02T10:52:26.477+02:00,2022-06-02T10:17:13.754+02:00,516,1.472617,0,0,401.0887,0,0,2022-06-02T10:52:26.477+02:00,675852746.4766881,0,4.8125,101.3242,1,0.79
2022-06-02T10:52:26.823+02:00,1654159945.813378,53.22890393440913,10.39865269326642,39.63852,0,0.21,226.7578125,65.06141773144168,4,5,-9999,3091.102003416667,-0.03692626953125,-0.4152984619140625,-0.9275665283203125,3091.092009416667,-0.1223834119361124,-0.03872965587013898,0.4098113423203916,0.0178855899721384,0.01631146110594273,0.03231918811798096,-0.001351408660411835,-0.01030087471008301,-0.001750469207763672,XArbitraryZVertical,0.2018965191417983,-0.03136392040674084,-0.06379561372741245,0.9768235222173024,-0.03551380708813667,-0.3984363079071045,-0.9165081977844238,0,0,0,-1,-1,3090.75523875,unknown,2,2022-06-02T10:52:26.477+02:00,2022-06-02T10:17:13.754+02:00,516,1.472617,0,0,401.0887,0,0,2022-06-02T10:52:26.477+02:00,675852746.4766881,0,4.8125,101.3242,1,0.79
2022-06-02T10:52:26.834+02:00,1654159945.813378,53.22890393440913,10.39865269326642,39.63852,0,0.21,226.7578125,65.06141773144168,4,5,-9999,3091.111997416667,-0.0443878173828125,-0.3971710205078125,-0.9287261962890625,3091.102003416667,-0.1218606028521272,-0.03908969120255545,0.4094547911923047,0.0007915245369076729,-0.002600243780761957,0.04029116407036781,0.001028791069984436,-0.01517504453659058,-0.008838832378387451,XArbitraryZVertical,0.2017190399473861,-0.0314770729187197,-0.06357541545276195,0.976870875802658,-0.03584932908415794,-0.3981092572212219,-0.9166372418403625,0,0,0,-1,-1,3090.75523875,unknown,2,2022-06-02T10:52:26.477+02:00,2022-06-02T10:17:13.754+02:00,516,1.472617,0,0,401.0887,0,0,2022-06-02T10:52:26.477+02:00,675852746.4766881,0,4.8125,101.3242,1,0.79
2022-06-02T10:52:26.844+02:00,1654159945.813378,53.22890393440913,10.39865269326642,39.63852,0,0.21,226.7578125,65.06141773144168,4,5,-9999,3091.121991416667,-0.05548095703125,-0.3881683349609375,-0.9117431640625,3091.111997416667,-0.1213510236698461,-0.03968377829954937,0.4094056676698388,0.0126878647133708,-0.02530315890908241,0.0305679626762867,-0.002499967813491821,-0.01108500361442566,-0.01276224851608276,XArbitraryZVertical,0.2016842180554664,-0.0317144907086242,-0.06338625869221445,0.9768827254674317,-0.03639465942978859,-0.3980641961097717,-0.9166353344917297,0,0,0,-1,-1,3090.75523875,unknown,2,2022-06-02T10:52:26.477+02:00,2022-06-02T10:17:13.754+02:00,516,1.472617,0,0,401.0887,0,0,2022-06-02T10:52:26.477+02:00,675852746.4766881,0,4.8125,101.3242,1,0.79
2022-06-02T10:52:26.854+02:00,1654159945.813378,53.22890393440913,10.39865269326642,39.63852,0,0.21,226.7578125,65.06141773144168,4,5,-9999,3091.131986416667,-0.05059814453125,-0.39141845703125,-0.8967437744140625,3091.121991416667,-0.121013968821937,-0.04032309171734449,0.4094898407979564,0.01470231357961893,-0.03512483090162277,0.01588509045541286,-0.01503787189722061,0.008813410997390747,-0.004884600639343262,XArbitraryZVertical,0.2017104685324438,-0.03199508720853785,-0.0632864041689128,0.9768746593379602,-0.0369793176651001,-0.3981413841247559,-0.9165784120559692,0,0,0,-1,-1,3090.75523875,unknown,2,2022-06-02T10:52:26.477+02:00,2022-06-02T10:17:13.754+02:00,516,1.472617,0,0,401.0887,0,0,2022-06-02T10:52:26.477+02:00,675852746.4766881,0,4.8125,101.3242,1,0.79
2022-06-02T10:52:26.864+02:00,1654159945.813378,53.22890393440913,10.39865269326642,39.63852,0,0.21,226.7578125,65.06141773144168,4,5,-9999,3091.141980416667,-0.0484619140625,-0.3881378173828125,-0.880706787109375,3091.131986416667,-0.1207803726080818,-0.041131982962627,0.4092596710923349,-0.006794989109039307,-0.04542993381619453,-0.00216634850949049,-0.01659677922725677,0.007732510566711426,0.01301425695419312,XArbitraryZVertical,0.2015761684055423,-0.03236030510403318,-0.06325298695518115,0.9768924544881202,-0.03772448748350143,-0.397930234670639,-0.9166397452354431,0,0,0,-1,-1,3090.75523875,unknown,2,2022-06-02T10:52:26.477+02:00,2022-06-02T10:17:13.754+02:00,516,1.472617,0,0,401.0887,0,0,2022-06-02T10:52:26.477+02:00,675852746.4766881,0,4.8125,101.3242,1,0.79
2022-06-02T10:52:26.874+02:00,1654159945.813378,53.22890393440913,10.39865269326642,39.63852,0,0.21,226.7578125,65.06141773144168,4,5,-9999,3091.151974416667,-0.0377655029296875,-0.3918304443359375,-0.8599090576171875,3091.141980416667,-0.1207188123950039,-0.04197430771167503,0.4089048959723369,-0.04091447591781616,-0.04804329201579094,-0.01494685839861631,-0.009059116244316101,0.00835302472114563,0.02847349643707275,XArbitraryZVertical,0.2013771411356991,-0.03275580924129098,-0.06330634479016274,0.9769168514738076,-0.03850250318646431,-0.3976047337055206,-0.916748583316803,0,0,0,-1,-1,3090.75523875,unknown,2,2022-06-02T10:52:26.477+02:00,2022-06-02T10:17:13.754+02:00,516,1.472617,0,0,401.0887,0,0,2022-06-02T10:52:26.477+02:00,675852746.4766881,0,4.8125,101.3242,1,0.79
2022-06-02T10:52:26.884+02:00,1654159945.813378,53.22890393440913,10.39865269326642,39.63852,0,0.21,226.7578125,65.06141773144168,4,5,-9999,3091.161968416667,-0.0393829345703125,-0.4048309326171875,-0.845672607421875,3091.151974416667,-0.1208023943927958,-0.04264532619697968,0.4082461594755628,-0.09565176069736481,-0.06348562985658646,-0.01138008665293455,-0.005716744810342789,0.007733285427093506,0.04558515548706055,XArbitraryZVertical,0.2010325676423624,-0.03307394594366377,-0.06341190121166647,0.9769702320196021,-0.03912880644202232,-0.3970002233982086,-0.9169840216636658,0,0,0,-1,-1,3090.75523875,unknown,2,2022-06-02T10:52:26.477+02:00,2022-06-02T10:17:13.754+02:00,516,1.472617,0,0,401.0887,0,0,2022-06-02T10:52:26.477+02:00,675852746.4766881,0,4.8125,101.3242,1,0.79
2022-06-02T10:52:26.894+02:00,1654159945.813378,53.22890393440913,10.39865269326642,39.63852,0,0.21,226.7578125,65.06141773144168,4,5,-9999,3091.171963416667,-0.04156494140625,-0.3988037109375,-0.8319854736328125,3091.161968416667,-0.1210626519871144,-0.04329923304303319,0.4069620524196255,-0.187828317284584,-0.08152542263269424,-0.02963092923164368,0.004960436373949051,-0.003974229097366333,0.06430214643478394,XArbitraryZVertical,0.2003798319294497,-0.03338430289534574,-0.06359902599938536,0.9770816399361439,-0.03975045308470726,-0.3958213329315186,-0.9174668192863464,0,0,0,-1,-1,3090.75523875,unknown,2,2022-06-02T10:52:26.477+02:00,2022-06-02T10:17:13.754+02:00,516,1.472617,0,0,401.0887,0,0,2022-06-02T10:52:26.477+02:00,675852746.4766881,0,4.8125,101.3242,1,0.79
2022-06-02T10:52:26.903+02:00,1654159945.813378,53.22890393440913,10.39865269326642,39.63852,0,0.21,226.7578125,65.06141773144168,4,5,-9999,3091.181957416667,-0.0361175537109375,-0.3752593994140625,-0.8195343017578125,3091.171963416667,-0.1215967286442933,-0.04397103134972087,0.4047782606299959,-0.275873214006424,-0.1008269488811493,-0.04569032415747643,-0.002548776566982269,-0.009749531745910645,0.0799223780632019,XArbitraryZVertical,0.1992819068042002,-0.03370586796199957,-0.06391714601257084,0.9772743295606687,-0.04040469601750374,-0.3938149511814117,-0.9183012843132019,0,0,0,-1,-1,3090.75523875,unknown,2,2022-06-02T10:52:26.477+02:00,2022-06-02T10:17:13.754+02:00,516,1.472617,0,0,401.0887,0,0,2022-06-02T10:52:26.477+02:00,675852746.4766881,0,4.8125,101.3242,1,0.79
2022-06-02T10:52:26.914+02:00,1654159945.813378,53.22890393440913,10.39865269326642,39.63852,0,0.21,226.7578125,65.06141773144168,4,5,-9999,3091.191951416667,-0.0324554443359375,-0.3643951416015625,-0.81878662109375,3091.181957416667,-0.122311223068394,-0.04471104655203034,0.4018103797599006,-0.3533267974853516,-0.114426776766777,-0.05069879442453384,0.002501070499420166,0.0006738007068634033,0.09329336881637573,XArbitraryZVertical,0.1977948667992957,-0.0340564448272826,-0.06432572084108025,0.9775374077112164,-0.04113630205392838,-0.3910851776599884,-0.9194347262382507,0,0,0,-1,-1,3090.75523875,unknown,2,2022-06-02T10:52:26.477+02:00,2022-06-02T10:17:13.754+02:00,516,1.472617,0,0,401.0887,0,0,2022-06-02T10:52:26.477+02:00,675852746.4766881,0,4.8125,101.3242,1,0.79
2022-06-02T10:52:26.924+02:00,1654159945.813378,53.22890393440913,10.39865269326642,39.63852,0,0.21,226.7578125,65.06141773144168,4,5,-9999,3091.201945416667,-0.0271453857421875,-0.37493896484375,-0.8309783935546875,3091.191951416667,-0.1230512241513917,-0.04546794034521607,0.3981386548567538,-0.4150378406047821,-0.112792395055294,-0.06193520873785019,0.007610715925693512,0.02213320136070251,0.104638934135437,XArbitraryZVertical,0.1959618251996556,-0.03439722742540466,-0.06474383923829637,0.9778670891247619,-0.04189719259738922,-0.3877032697200775,-0.920831561088562,0,0,0,-1,-1,3090.75523875,unknown,2,2022-06-02T10:52:26.477+02:00,2022-06-02T10:17:13.754+02:00,516,1.472617,0,0,401.0887,0,0,2022-06-02T10:52:26.477+02:00,675852746.4766881,0,4.8125,101.3242,1,0.79
2022-06-02T10:52:26.934+02:00,1654159945.813378,53.22890393440913,10.39865269326642,39.63852,0,0.21,226.7578125,65.06141773144168,4,5,-9999,3091.211940416667,-0.0106201171875,-0.380828857421875,-0.8482818603515625,3091.201945416667,-0.1239719520812251,-0.0462769384794172,0.3937356704339222,-0.4736962616443634,-0.1081955805420876,-0.07241600751876831,0.01214209198951721,0.01298964023590088,0.1002585887908936,XArbitraryZVertical,0.1937652043438223,-0.03475929664871766,-0.06525023762827002,0.9782582127206187,-0.04272068291902542,-0.3836409151554108,-0.9224936962127686,0,0,0,-1,-1,3090.75523875,unknown,2,2022-06-02T10:52:26.477+02:00,2022-06-02T10:17:13.754+02:00,516,1.472617,0,0,401.0887,0,0,2022-06-02T10:52:26.477+02:00,675852746.4766881,0,4.8125,101.3242,1,0.79
2022-06-02T10:52:26.944+02:00,1654159945.813378,53.22890393440913,10.39865269326642,39.63852,0,0.21,226.7578125,65.06141773144168,4,5,-9999,3091.221934416667,-0.004730224609375,-0.3929595947265625,-0.8576812744140625,3091.211940416667,-0.1250346751004409,-0.04710356226900744,0.3889838762101642,-0.5128665566444397,-0.1226605400443077,-0.08474510908126831,0.02502916380763054,0.00336340069770813,0.08352458477020264,XArbitraryZVertical,0.1913934766518289,-0.03513185408818756,-0.06582418853902253,0.9786732335164295,-0.04356857016682625,-0.3792484104633331,-0.9242686033248901,0,0,0,-1,-1,3090.75523875,unknown,2,2022-06-02T10:52:26.477+02:00,2022-06-02T10:17:13.754+02:00,516,1.472617,0,0,401.0887,0,0,2022-06-02T10:52:26.477+02:00,675852746.4766881,0,4.8125,101.3242,1,0.79
2022-06-02T10:52:26.954+02:00,1654159945.813378,53.22890393440913,10.39865269326642,39.63852,0,0.21,226.7578125,65.06141773144168,4,5,-9999,3091.231928416667,0.0039215087890625,-0.3991546630859375,-0.8670196533203125,3091.221934416667,-0.1263009645483004,-0.04801519189737448,0.3836917888090207,-0.5946052670478821,-0.153823122382164,-0.1027679219841957,0.03857120499014854,-0.01286065578460693,0.07221633195877075,XArbitraryZVertical,0.1887491977125201,-0.03554742743644945,-0.06650086773500119,0.979126011082009,-0.04450685158371925,-0.3743463754653931,-0.9262202382087708,0,0,0,-1,-1,3090.75523875,unknown,2,2022-06-02T10:52:26.477+02:00,2022-06-02T10:17:13.754+02:00,516,1.472617,0,0,401.0887,0,0,2022-06-02T10:52:26.477+02:00,675852746.4766881,0,4.8125,101.3242,1,0.79
2022-06-02T10:52:26.964+02:00,1654159945.813378,53.22890393440913,10.39865269326642,39.63852,0,0.21,226.7578125,65.06141773144168,4,5,-9999,3091.241922416667,-0.001068115234375,-0.39703369140625,-0.8817138671875,3091.231928416667,-0.1279309090926338,-0.04917910669703233,0.3774377667302555,-0.7124887704849243,-0.2027264833450317,-0.1394255310297012,0.04641624540090561,-0.02988246083259583,0.06528306007385254,XArbitraryZVertical,0.1856166790112262,-0.03608930900004174,-0.0673710757490613,0.9796453902588108,-0.04569905996322632,-0.3685398101806641,-0.92848801612854,0,0,0,-1,-1,3090.75523875,unknown,2,2022-06-02T10:52:26.477+02:00,2022-06-02T10:17:13.754+02:00,516,1.472617,0,0,401.0887,0,0,2022-06-02T10:52:26.477+02:00,675852746.4766881,0,4.8125,101.3242,1,0.79
2022-06-02T10:52:26.974+02:00,1654159945.813378,53.22890393440913,10.39865269326642,39.63852,0,0.21,226.7578125,65.06141773144168,4,5,-9999,3091.251917416667,-0.0083770751953125,-0.3821258544921875,-0.8829345703125,3091.241922416667,-0.1301297681938824,-0.05075660353620081,0.3698443854887161,-0.8218581676483154,-0.2705621719360352,-0.19925856590271,0.04968470335006714,-0.03689086437225342,0.0570831298828125,XArbitraryZVertical,0.1818001415046148,-0.03684135433940308,-0.06854580455116793,0.9802514465203035,-0.04730430617928505,-0.3614703416824341,-0.931182861328125,0,0,0,-1,-1,3090.75523875,unknown,2,2022-06-02T10:52:26.477+02:00,2022-06-02T10:17:13.754+02:00,516,1.472617,0,0,401.0887,0,0,2022-06-02T10:52:26.477+02:00,675852746.4766881,0,4.8125,101.3242,1,0.79
2022-06-02T10:52:26.984+02:00,1654159945.813378,53.22890393440913,10.39865269326642,39.63852,0,0.21,226.7578125,65.06141773144168,4,5,-9999,3091.261911416667,-0.0018463134765625,-0.376373291015625,-0.84332275390625,3091.251917416667,-0.1331857221983885,-0.05276972743782666,0.3613507633718196,-0.9103446006774902,-0.3563260734081268,-0.2834711968898773,0.04241149127483368,-0.03983348608016968,0.04663634300231934,XArbitraryZVertical,0.1775063504263011,-0.03784818755222816,-0.07016785626596661,0.9808850034447057,-0.04933895915746689,-0.3535380959510803,-0.9341180324554443,0,0,0,-1,-1,3090.75523875,unknown,2,2022-06-02T10:52:26.477+02:00,2022-06-02T10:17:13.754+02:00,516,1.472617,0,0,401.0887,0,0,2022-06-02T10:52:26.477+02:00,675852746.4766881,0,4.8125,101.3242,1,0.79
2022-06-02T10:52:26.994+02:00,1654159945.813378,53.22890393440913,10.39865269326642,39.63852,0,0.21,226.7578125,65.06141773144168,4,5,-9999,3091.271905416667,-0.00640869140625,-0.385772705078125,-0.7988739013671875,3091.261911416667,-0.137218342580919,-0.05548553614125595,0.3518889953923452,-1.023577570915222,-0.4777174293994904,-0.3665938675403595,0.0469319149851799,-0.02979427576065063,0.07224267721176147,XArbitraryZVertical,0.1726868305634545,-0.03924189895326908,-0.07231500823022011,0.9815343409430799,-0.05205884203314781,-0.3446716666221619,-0.937278687953949,0,0,0,-1,-1,3090.75523875,unknown,2,2022-06-02T10:52:26.477+02:00,2022-06-02T10:17:13.754+02:00,516,1.472617,0,0,401.0887,0,0,2022-06-02T10:52:26.477+02:00,675852746.4766881,0,4.8125,101.3242,1,0.79
2022-06-02T10:52:27.003+02:00,1654159945.813378,53.22890393440913,10.39865269326642,39.63852,0,0.21,226.7578125,65.06141773144168,4,5,-9999,3091.281899416667,-0.2226104736328125,-0.486358642578125,-0.7071380615234375,3091.271905416667,-0.1421845860564641,-0.05952678032086257,0.34132975719848,-1.143569707870483,-0.6723606586456299,-0.4493238925933838,0.05610538274049759,-0.04816362261772156,0.1163005232810974,XArbitraryZVertical,0.1672504169421816,-0.04131121142698212,-0.07501089244207521,0.9821884335537571,-0.056059580296278,-0.3347404301166534,-0.9406413435935974,0,0,0,-1,-1,3090.75523875,unknown,2,2022-06-02T10:52:26.477+02:00,2022-06-02T10:17:13.754+02:00,516,1.472617,0,0,401.0887,0,0,2022-06-02T10:52:26.477+02:00,675852746.4766881,0,4.8125,101.3242,1,0.79
2022-06-02T10:52:27.014+02:00,1654159945.813378,53.22890393440913,10.39865269326642,39.63852,0,0.21,226.7578125,65.06141773144168,4,5,-9999,3091.291894416667,-1.204620361328125,-0.9675445556640625,-0.6769256591796875,3091.281899416667,-0.1491740224086774,-0.06532564011022213,0.32846644647423,-1.68175745010376,-0.9658740162849426,-0.6829409599304199,0.02185701951384544,-0.0784853994846344,0.1765291690826416,XArbitraryZVertical,0.1605536174149012,-0.04430488251846423,-0.07880040311679813,0.9828783718138717,-0.06178924068808556,-0.3225918412208557,-0.9445192217826843,0,0,0,-1,-1,3090.75523875,unknown,2,2022-06-02T10:52:26.477+02:00,2022-06-02T10:17:13.754+02:00,516,1.472617,0,0,401.0887,0,0,2022-06-02T10:52:26.477+02:00,675852746.4766881,0,4.8125,101.3242,1,0.79
2022-06-02T10:52:27.024+02:00,1654159945.813378,53.22890393440913,10.39865269326642,39.63852,0,0.21,226.7578125,65.06141773144168,4,5,-9999,3091.301888416667,-0.3045806884765625,-0.52532958984375,-0.5205535888671875,3091.291894416667,-0.1614988969342463,-0.06000175443915854,0.3081115178215247,-2.303208589553833,0.7281227707862854,-0.8516432046890259,-0.9081443548202515,-0.5717556476593018,0.3102172017097473,XArbitraryZVertical,0.1504873730179112,-0.04191627743745304,-0.08425842363327518,0.9841225336710917,-0.05714184790849686,-0.3032596409320831,-0.9511931538581848,0,0,0,-1,-1,3090.75523875,unknown,2,2022-06-02T10:52:26.477+02:00,2022-06-02T10:17:13.754+02:00,516,1.472617,0,0,401.0887,0,0,2022-06-02T10:52:26.477+02:00,675852746.4766881,0,4.8125,101.3242,1,0.79
2022-06-02T10:52:27.034+02:00,1654159945.813378,53.22890393440913,10.39865269326642,39.63852,0,0.21,226.7578125,65.06141773144168,4,5,-9999,3091.311882416667,-0.03253173828125,-0.631866455078125,-0.4880828857421875,3091.301888416667,-0.1708115125942699,-0.05044719960622703,0.2827172580003375,-2.751930713653564,0.6359404325485229,-0.814649760723114,-0.7446973323822021,-0.4213818311691284,0.3717532157897949,XArbitraryZVertical,0.1382002266034164,-0.03689258235362291,-0.08796464876149078,0.9858000283153305,-0.04842394962906837,-0.2789660692214966,-0.9590792655944824,0,0,0,-1,-1,3090.75523875,unknown,2,2022-06-02T10:52:26.477+02:00,2022-06-02T10:17:13.754+02:00,516,1.472617,0,0,401.0887,0,0,2022-06-02T10:52:26.477+02:00,675852746.4766881,0,4.8125,101.3242,1,0.79
2022-06-02T10:52:27.044+02:00,1654159945.813378,53.22890393440913,10.39865269326642,39.63852,0,0.21,226.7578125,65.06141773144168,4,5,-9999,3091.321876416667,-0.3017730712890625,-0.7449188232421875,-0.4399261474609375,3091.311882416667,-0.1836077115097242,-0.04387020947161289,0.2548372004038851,-2.950438499450684,0.07843135297298431,-1.460888385772705,-0.03351844847202301,-0.2804896235466003,0.4606850743293762,XArbitraryZVertical,0.1245141156390532,-0.03331063852437306,-0.09368532515381835,0.9872231466865852,-0.0424397774040699,-0.2520878612995148,-0.9667732715606689,0,0,0,-1,-1,3090.75523875,unknown,2,2022-06-02T10:52:26.477+02:00,2022-06-02T10:17:13.754+02:00,516,1.472617,0,0,401.0887,0,0,2022-06-02T10:52:26.477+02:00,675852746.4766881,0,4.8125,101.3242,1,0.79
2022-06-02T10:52:27.054+02:00,1654159945.813378,53.22890393440913,10.39865269326642,39.63852,0,0.21,226.7578125,65.06141773144168,4,5,-9999,3091.331870416667,-0.6368560791015625,-0.6222686767578125,-0.4650421142578125,3091.321876416667,-0.2016812854240727,-0.04077828894275368,0.2235647597815735,-3.470067977905273,-0.1885043233633041,-1.767737150192261,-0.08904698491096497,-0.4926941990852356,0.5119614005088806,XArbitraryZVertical,0.1089203675479701,-0.03138492523171275,-0.102283435540406,0.9882759212429852,-0.03975243121385574,-0.2217070758342743,-0.9743027091026306,0,0,0,-1,-1,3090.75523875,unknown,2,2022-06-02T10:52:26.477+02:00,2022-06-02T10:17:13.754+02:00,516,1.472617,0,0,401.0887,0,0,2022-06-02T10:52:26.477+02:00,675852746.4766881,0,4.8125,101.3242,1,0.79
2022-06-02T10:52:27.064+02:00,1654159945.813378,53.22890393440913,10.39865269326642,39.63852,0,0.21,226.7578125,65.06141773144168,4,5,-9999,3091.341865416667,-0.7468719482421875,-0.5771026611328125,-0.5047454833984375,3091.331870416667,-0.2200716141991988,-0.0386866403332503,0.1873552092532091,-3.855470895767212,-0.07018008828163147,-1.576534628868103,-0.4633120894432068,-0.5137816667556763,0.5364068746566772,XArbitraryZVertical,0.09084282823026632,-0.02941098786911226,-0.1111102948110641,0.9892102557779298,-0.03800015524029732,-0.1862610429525375,-0.9817651510238647,0,0,0,-1,-1,3090.75523875,unknown,2,2022-06-02T10:52:26.477+02:00,2022-06-02T10:17:13.754+02:00,516,1.472617,0,0,401.0887,0,0,2022-06-02T10:52:26.477+02:00,675852746.4766881,0,4.8125,101.3242,1,0.79
2022-06-02T10:52:27.074+02:00,1654159945.813378,53.22890393440913,10.39865269326642,39.63852,0,0.21,226.7578125,65.06141773144168,4,5,-9999,3091.351859416667,-0.694427490234375,-0.568939208984375,-0.4954986572265625,3091.341865416667,-0.2375478404979549,-0.03522303640940699,0.1486322760206324,-4.021665096282959,0.206580862402916,-1.644026875495911,-0.6831595301628113,-0.4350442886352539,0.4962499141693115,XArbitraryZVertical,0.07163221782694722,-0.02623488625059383,-0.1194478127625725,0.9899053243641266,-0.03482748195528984,-0.1480856239795685,-0.988361120223999,0,0,0,-1,-1,3090.75523875,unknown,2,2022-06-02T10:52:26.477+02:00,2022-06-02T10:17:13.754+02:00,516,1.472617,0,0,401.0887,0,0,2022-06-02T10:52:26.477+02:00,675852746.4766881,0,4.8125,101.3242,1,0.79
2022-06-02T10:52:27.084+02:00,1654159945.813378,53.22890393440913,10.39865269326642,39.63852,0,0.21,226.7578125,65.06141773144168,4,5,-9999,3091.361853416667,-0.645965576171875,-0.578338623046875,-0.459716796875,3091.351859416667,-0.2563588445776415,-0.02991332100533536,0.1078119108668779,-4.280703067779541,0.3797467947006226,-1.844646215438843,-0.7035106420516968,-0.464509904384613,0.4900107383728027,XArbitraryZVertical,0.05152281823815726,-0.02169848339907894,-0.128427982439567,0.9901417841685928,-0.02973520755767822,-0.1076031774282455,-0.9937491416931152,0,0,0,-1,-1,3090.75523875,unknown,2,2022-06-02T10:52:26.477+02:00,2022-06-02T10:17:13.754+02:00,516,1.472617,0,0,401.0887,0,0,2022-06-02T10:52:26.477+02:00,675852746.4766881,0,4.8125,101.3242,1,0.79
2022-06-02T10:52:27.094+02:00,1654159945.813378,53.22890393440913,10.39865269326642,39.63852,0,0.21,226.7578125,65.06141773144168,4,5,-9999,3091.371847416667,-0.678680419921875,-0.605621337890625,-0.4567718505859375,3091.361853416667,-0.2772117953140651,-0.02407526872970506,0.06349224033519213,-4.732276916503906,0.4616771340370178,-2.085223913192749,-0.633171558380127,-0.5040095448493958,0.5170287489891052,XArbitraryZVertical,0.02977183050039109,-0.01630096231434232,-0.1384613046787278,0.9897860480843313,-0.02402443625032902,-0.06344959139823914,-0.9976958632469177,0,0,0,-1,-1,3090.75523875,unknown,2,2022-06-02T10:52:26.477+02:00,2022-06-02T10:17:13.754+02:00,516,1.472617,0,0,401.0887,0,0,2022-06-02T10:52:26.477+02:00,675852746.4766881,0,4.8125,101.3242,1,0.79
2022-06-02T10:52:27.104+02:00,1654159945.813378,53.22890393440913,10.39865269326642,39.63852,0,0.21,226.7578125,65.06141773144168,4,5,-9999,3091.381842416667,-0.7442474365234375,-0.5815277099609375,-0.5137786865234375,3091.371847416667,-0.3000474350185071,-0.01807345112387299,0.01327048880682948,-5.43787956237793,0.5736143589019775,-2.26813268661499,-0.6353867650032043,-0.5789540410041809,0.5502399802207947,XArbitraryZVertical,0.005209802965906195,-0.009926568615599511,-0.1495114734475804,0.9886964608686689,-0.01807087659835815,-0.01327009964734316,-0.9997486472129822,0,0,0,-1,-1,3090.75523875,unknown,2,2022-06-02T10:52:26.477+02:00,2022-06-02T10:17:13.754+02:00,516,1.472617,0,0,401.0887,0,0,2022-06-02T10:52:26.477+02:00,675852746.4766881,0,4.8125,101.3242,1,0.79
2022-06-02T10:52:27.114+02:00,1654159945.813378,53.22890393440913,10.39865269326642,39.63852,0,0.21,226.7578125,65.06141773144168,4,5,-9999,3091.391836416667,-0.8112945556640625,-0.4780731201171875,-0.59228515625,3091.381842416667,-0.324377668097549,-0.01220704969987355,-0.04486825408721518,-6.268362045288086,0.6902433633804321,-2.424889087677002,-0.6962863206863403,-0.647895872592926,0.5176112055778503,XArbitraryZVertical,-0.02312277120724805,-0.002399608077160094,-0.1612999380406716,0.9866316187723486,-0.01219446118921041,0.04485319927334785,-0.9989191293716431,0,0,0,-1,-1,3090.75523875,unknown,2,2022-06-02T10:52:26.477+02:00,2022-06-02T10:17:13.754+02:00,516,1.472617,0,0,401.0887,0,0,2022-06-02T10:52:26.477+02:00,675852746.4766881,0,4.8125,101.3242,1,0.79
2022-06-02T10:52:27.124+02:00,1654159945.813378,53.22890393440913,10.39865269326642,39.63852,0,0.21,226.7578125,65.06141773144168,4,5,-9999,3091.401830416667,-0.90106201171875,-0.3053131103515625,-0.6445159912109375,3091.391836416667,-0.3498561085652522,-0.00648854646022112,-0.111162090014561,-7.031096458435059,0.8590843081474304,-2.530040502548218,-0.766958475112915,-0.6501483917236328,0.4434071779251099,XArbitraryZVertical,-0.0552681129263549,0.006478319981095093,-0.17359014365373,0.9832446067123782,-0.006448452826589346,0.1109332963824272,-0.9938069581985474,0,0,0,-1,-1,3090.75523875,unknown,2,2022-06-02T10:52:26.477+02:00,2022-06-02T10:17:13.754+02:00,516,1.472617,0,0,401.0887,0,0,2022-06-02T10:52:26.477+02:00,675852746.4766881,0,4.8125,101.3242,1,0.79
2022-06-02T10:52:27.134+02:00,1654159945.813378,53.22890393440913,10.39865269326642,39.63852,0,0.21,226.7578125,65.06141773144168,4,5,-9999,3091.411824416667,-0.9661712646484375,-0.0943145751953125,-0.6554718017578125,3091.401830416667,-0.3762426463625832,-0.0007654802907073063,-0.1843181730515493,-7.586177825927734,1.073688387870789,-2.649458885192871,-0.8504132032394409,-0.580615222454071,0.3569167256355286,XArbitraryZVertical,-0.09047632418252304,0.01683623404441929,-0.1861854688958423,0.9781949904448354,-0.0007525141118094325,0.1832762956619263,-0.9830611348152161,0,0,0,-1,-1,3090.75523875,unknown,2,2022-06-02T10:52:26.477+02:00,2022-06-02T10:17:13.754+02:00,516,1.472617,0,0,401.0887,0,0,2022-06-02T10:52:26.477+02:00,675852746.4766881,0,4.8125,101.3242,1,0.79
2022-06-02T10:52:27.144+02:00,1654159945.813378,53.22890393440913,10.39865269326642,39.63852,0,0.21,226.7578125,65.06141773144168,4,5,-9999,3091.421819416667,-0.9863128662109375,0.1271514892578125,-0.6303863525390625,3091.411824416667,-0.404005108974323,0.005490769817075209,-0.2616432888092616,-7.851421356201172,1.427277565002441,-2.796087265014648,-0.9442229270935059,-0.4646619856357574,0.3120362162590027,XArbitraryZVertical,-0.1272497813564352,0.02883862919345887,-0.1992672844514485,0.9712200233897258,0.005303871352225542,0.2586682736873627,-0.965951681137085,0,0,0,-1,-1,3090.75523875,unknown,2,2022-06-02T10:52:26.477+02:00,2022-06-02T10:17:13.754+02:00,516,1.472617,0,0,401.0887,0,0,2022-06-02T10:52:26.477+02:00,675852746.4766881,0,4.8125,101.3242,1,0.79
2022-06-02T10:52:27.154+02:00,1654159945.813378,53.22890393440913,10.39865269326642,39.63852,0,0.21,226.7578125,65.06141773144168,4,5,-9999,3091.431813416667,-0.989410400390625,0.2714996337890625,-0.5661773681640625,3091.421819416667,-0.433055161945114,0.01322881054161669,-0.3408945651575275,-7.935476779937744,1.85463535785675,-2.89827823638916,-0.9906471371650696,-0.312800258398056,0.297415018081665,XArbitraryZVertical,-0.1642583096007048,0.04280728011324805,-0.2128174817855646,0.9622345430349202,0.01246720738708973,0.3343303203582764,-0.942373514175415,0,0,0,-1,-1,3090.75523875,unknown,2,2022-06-02T10:52:26.477+02:00,2022-06-02T10:17:13.754+02:00,516,1.472617,0,0,401.0887,0,0,2022-06-02T10:52:26.477+02:00,675852746.4766881,0,4.8125,101.3242,1,0.79
2022-06-02T10:52:27.164+02:00,1654159945.813378,53.22890393440913,10.39865269326642,39.63852,0,0.21,226.7578125,65.06141773144168,4,5,-9999,3091.441807416667,-0.9509735107421875,0.3851776123046875,-0.5049896240234375,3091.431813416667,-0.4632750778086049,0.02293087529525902,-0.4203283230094406,-7.82719087600708,2.337255477905273,-2.999877452850342,-1.010114550590515,-0.1958715617656708,0.3089094758033752,XArbitraryZVertical,-0.2004610616112769,0.05880363235979798,-0.2268335354100219,0.9512644113368773,0.02093302272260189,0.408060222864151,-0.9127150177955627,0,0,0,-1,-1,3090.75523875,unknown,2,2022-06-02T10:52:26.477+02:00,2022-06-02T10:17:13.754+02:00,516,1.472617,0,0,401.0887,0,0,2022-06-02T10:52:26.477+02:00,675852746.4766881,0,4.8125,101.3242,1,0.79
2022-06-02T10:52:27.174+02:00,1654159945.813378,53.22890393440913,10.39865269326642,39.63852,0,0.21,226.7578125,65.06141773144168,4,5,-9999,3091.451801416667,-0.8946685791015625,0.5088348388671875,-0.467620849609375,3091.441807416667,-0.4948190526239317,0.03473493609127721,-0.49813427646987,-7.57165002822876,2.824795246124268,-3.093236684799194,-1.00671923160553,-0.1532940566539764,0.34721440076828,XArbitraryZVertical,-0.2348363297596775,0.07667529812170043,-0.2414512103309051,0.9384423016662643,0.0305076539516449,0.4777873754501343,-0.877945601940155,0,0,0,-1,-1,3090.75523875,unknown,2,2022-06-02T10:52:26.477+02:00,2022-06-02T10:17:13.754+02:00,516,1.472617,0,0,401.0887,0,0,2022-06-02T10:52:26.477+02:00,675852746.4766881,0,4.8125,101.3242,1,0.79
2022-06-02T10:52:27.187+02:00,1654159945.813378,53.22890393440913,10.39865269326642,39.63852,0,0.21,226.7578125,65.06141773144168,4,5,-9999,3091.461796416667,-0.8528289794921875,0.598480224609375,-0.4375457763671875,3091.451801416667,-0.5274964935752683,0.04861991917687713,-0.5738292772855249,-7.328757762908936,3.288149833679199,-3.148407220840454,-0.9600210189819336,-0.09161913394927979,0.3539268970489502,XArbitraryZVertical,-0.2670495872410678,0.09626280809163379,-0.2566110993250145,0.9238878663154096,0.0408163033425808,0.542851984500885,-0.8388359546661377,0,0,0,-1,-1,3090.75523875,unknown,2,2022-06-02T10:52:26.477+02:00,2022-06-02T10:17:13.754+02:00,516,1.472617,0,0,401.0887,0,0,2022-06-02T10:52:26.477+02:00,675852746.4766881,0,4.8125,101.3242,1,0.79
2022-06-02T10:52:27.195+02:00,1654159945.813378,53.22890393440913,10.39865269326642,39.63852,0,0.21,226.7578125,65.06141773144168,4,5,-9999,3091.471790416667,-0.79547119140625,0.7453765869140625,-0.40716552734375,3091.461796416667,-0.5613256212131399,0.06423557542645651,-0.647282304273459,-7.031001567840576,3.706204414367676,-3.211301326751709,-0.9260849952697754,-0.04889780282974243,0.3456103205680847,XArbitraryZVertical,-0.2969866236423994,0.1172978443019415,-0.2722895220635704,0.9076885440307635,0.05120712891221046,0.6030206680297852,-0.7960803508758545,0,0,0,-1,-1,3090.75523875,unknown,2,2022-06-02T10:52:26.477+02:00,2022-06-02T10:17:13.754+02:00,516,1.472617,0,0,401.0887,0,0,2022-06-02T10:52:26.477+02:00,675852746.4766881,0,4.8125,101.3242,1,0.79
2022-06-02T10:52:27.204+02:00,1654159945.813378,53.22890393440913,10.39865269326642,39.63852,0,0.21,226.7578125,65.06141773144168,4,5,-9999,3091.481784416667,-0.7475128173828125,0.9186859130859375,-0.34954833984375,3091.471790416667,-0.596322596035872,0.08128010301357405,-0.7186870116088735,-6.868461608886719,4.134238719940186,-3.227656602859497,-0.8847639560699463,0.003544449806213379,0.3228483200073242,XArbitraryZVertical,-0.3246934152885099,0.1395750610890946,-0.2884299341266623,0.8898882963584684,0.06110982596874237,0.6583970189094543,-0.7501859664916992,0,0,0,-1,-1,3090.75523875,unknown,2,2022-06-02T10:52:26.477+02:00,2022-06-02T10:17:13.754+02:00,516,1.472617,0,0,401.0887,0,0,2022-06-02T10:52:26.477+02:00,675852746.4766881,0,4.8125,101.3242,1,0.79
2022-06-02T10:52:27.214+02:00,1654159945.813378,53.22890393440913,10.39865269326642,39.63852,0,0.21,226.7578125,65.06141773144168,4,5,-9999,3091.491778416667,-0.7088623046875,1.046157836914062,-0.2917938232421875,3091.481784416667,-0.6315960183941038,0.1003346756079827,-0.7899053362501902,-6.858178615570068,4.508691310882568,-3.183211088180542,-0.8411992788314819,0.1262763142585754,0.3182311654090881,XArbitraryZVertical,-0.3509021391712887,0.1633448821756612,-0.3046451856644359,0.8702742282007121,0.07050839066505432,0.7102866172790527,-0.7003722786903381,0,0,0,-1,-1,3090.75523875,unknown,2,2022-06-02T10:52:26.477+02:00,2022-06-02T10:17:13.754+02:00,516,1.472617,0,0,401.0887,0,0,2022-06-02T10:52:26.477+02:00,675852746.4766881,0,4.8125,101.3242,1,0.79
2022-06-02T10:52:27.224+02:00,1654159945.813378,53.22890393440913,10.39865269326642,39.63852,0,0.21,226.7578125,65.06141773144168,4,5,-9999,3091.501773416667,-0.67449951171875,1.164398193359375,-0.2318878173828125,3091.491778416667,-0.6667685678767603,0.1213362406008845,-0.8612515527894921,-6.802872657775879,4.85762882232666,-3.135488271713257,-0.8062112331390381,0.2263267040252686,0.3297887444496155,XArbitraryZVertical,-0.3757000961345803,0.1884148415695506,-0.3207362321390086,0.8488094665304713,0.07885533571243286,0.7586585283279419,-0.6466985940933228,0,0,0,-1,-1,3090.75523875,unknown,2,2022-06-02T10:52:26.477+02:00,2022-06-02T10:17:13.754+02:00,516,1.472617,0,0,401.0887,0,0,2022-06-02T10:52:26.477+02:00,675852746.4766881,0,4.8125,101.3242,1,0.79
2022-06-02T10:52:27.234+02:00,1654159945.813378,53.22890393440913,10.39865269326642,39.63852,0,0.21,226.7578125,65.06141773144168,4,5,-9999,3091.511767416667,-0.6421356201171875,1.257476806640625,-0.1519622802734375,3091.501773416667,-0.7017392766984342,0.1442762265746114,-0.9325986853515188,-6.775914192199707,5.203926563262939,-3.072433233261108,-0.7768166065216064,0.30373215675354,0.3223166465759277,XArbitraryZVertical,-0.3989659205008917,0.2145848165443137,-0.3366502546279472,0.8254975108252172,0.08565450459718704,0.8031708002090454,-0.5895590782165527,0,0,0,-1,-1,3090.75523875,unknown,2,2022-06-02T10:52:26.477+02:00,2022-06-02T10:17:13.754+02:00,516,1.472617,0,0,401.0887,0,0,2022-06-02T10:52:26.477+02:00,675852746.4766881,0,4.8125,101.3242,1,0.79
2022-06-02T10:52:27.244+02:00,1654159945.813378,53.22890393440913,10.39865269326642,39.63852,0,0.21,226.7578125,65.06141773144168,4,5,-9999,3091.521761416667,-0.5952301025390625,1.363845825195312,-0.0500946044921875,3091.511767416667,-0.7360991370249341,0.1698335051556427,-1.003472828098284,-6.600077629089355,5.573620319366455,-2.982561826705933,-0.7502959966659546,0.3703417181968689,0.3358129262924194,XArbitraryZVertical,-0.4203681608053929,0.2418013929399335,-0.3523741058234637,0.8004093164883446,0.09082646667957306,0.8433423042297363,-0.5296453833580017,0,0,0,-1,-1,3090.75523875,unknown,2,2022-06-02T10:52:26.477+02:00,2022-06-02T10:17:13.754+02:00,516,1.472617,0,0,401.0887,0,0,2022-06-02T10:52:26.477+02:00,675852746.4766881,0,4.8125,101.3242,1,0.79
2022-06-02T10:52:27.260+02:00,1654159945.813378,53.22890393440913,10.39865269326642,39.63852,0,0.21,226.7578125,65.06141773144168,4,5,-9999,3091.531755416667,-0.5343780517578125,1.499481201171875,0.0872650146484375,3091.521761416667,-0.7692172573719117,0.1992741000676806,-1.072166208545007,-6.274766445159912,6.031445026397705,-2.843313455581665,-0.715487003326416,0.4282189607620239,0.3655943274497986,XArbitraryZVertical,-0.4390240078313914,0.2699599793342048,-0.3680584881525722,0.7738943186745368,0.09466796368360519,0.8782384991645813,-0.4687590599060059,0,0,0,-1,-1,3090.75523875,unknown,2,2022-06-02T10:52:26.477+02:00,2022-06-02T10:17:13.754+02:00,516,1.472617,0,0,401.0887,0,0,2022-06-02T10:52:26.477+02:00,675852746.4766881,0,4.8125,101.3242,1,0.79
2022-06-02T10:52:27.276+02:00,1654159945.813378,53.22890393440913,10.39865269326642,39.63852,0,0.21,226.7578125,65.06141773144168,4,5,-9999,3091.541749416667,-0.453155517578125,1.61431884765625,0.2661895751953125,3091.531755416667,-0.8004451392423791,0.2342235989309687,-1.137317315262923,-5.866299152374268,6.550865650177002,-2.691698789596558,-0.6648667454719543,0.521551787853241,0.4183574020862579,XArbitraryZVertical,-0.4541890327782006,0.2990513075801686,-0.3840058137040321,0.7462036983528272,0.09748392552137375,0.907509982585907,-0.4085612893104553,0,0,0,-1,-1,3090.75523875,unknown,2,2022-06-02T10:52:26.477+02:00,2022-06-02T10:17:13.754+02:00,516,1.472617,0,0,401.0887,0,0,2022-06-02T10:52:26.477+02:00,675852746.4766881,0,4.8125,101.3242,1,0.79
2022-06-02T10:52:27.280+02:00,1654159945.813378,53.22890393440913,10.39865269326642,39.63852,0,0.21,226.7578125,65.06141773144168,4,5,-9999,3091.551744416667,-0.3660736083984375,1.68505859375,0.439056396484375,3091.541749416667,-0.8281989912643385,0.2769154922238674,-1.198784284361872,-5.493225574493408,7.091402053833008,-2.513895988464355,-0.5966737866401672,0.6325499415397644,0.5284297466278076,XArbitraryZVertical,-0.4656642424305962,0.3291436623288658,-0.4003249723154327,0.7173290940490534,0.09937459975481033,0.931597888469696,-0.3496425151824951,0,0,0,-1,-1,3090.75523875,unknown,2,2022-06-02T10:52:26.477+02:00,2022-06-02T10:17:13.754+02:00,516,1.472617,0,0,401.0887,0,0,2022-06-02T10:52:26.477+02:00,675852746.4766881,0,4.8125,101.3242,1,0.79
2022-06-02T10:52:27.284+02:00,1654159945.813378,53.22890393440913,10.39865269326642,39.63852,0,0.21,226.7578125,65.06141773144168,4,5,-9999,3091.561738416667,-0.2751007080078125,1.738433837890625,0.588592529296875,3091.551744416667,-0.8505054616079961,0.3293075256463768,-1.256871156899605,-5.16806697845459,7.596643447875977,-2.382736682891846,-0.5092535018920898,0.7032136917114258,0.6477922201156616,XArbitraryZVertical,-0.4735750032838517,0.3600361196995129,-0.4169963526268303,0.687178723265998,0.09986022114753723,0.9511288404464722,-0.292201429605484,0,0,0,-1,-1,3090.75523875,unknown,2,2022-06-02T10:52:26.477+02:00,2022-06-02T10:17:13.754+02:00,516,1.472617,0,0,401.0887,0,0,2022-06-02T10:52:26.477+02:00,675852746.4766881,0,4.8125,101.3242,1,0.79
2022-06-02T10:52:27.294+02:00,1654159945.813378,53.22890393440913,10.39865269326642,39.63852,0,0.21,226.7578125,65.06141773144168,4,5,-9999,3091.571732416667,-0.1364898681640625,1.772384643554688,0.7189483642578125,3091.561738416667,-0.8642214825199015,0.3940628921901358,-1.311846712194808,-4.872025012969971,7.955926418304443,-2.227075338363647,-0.4204427003860474,0.7451934814453125,0.7531936764717102,XArbitraryZVertical,-0.4781476113975693,0.3913503197458815,-0.4338800883870091,0.6557193229027314,0.09831447899341583,0.9666594862937927,-0.2364395707845688,0,0,0,-1,-1,3090.75523875,unknown,2,2022-06-02T10:52:26.477+02:00,2022-06-02T10:17:13.754+02:00,516,1.472617,0,0,401.0887,0,0,2022-06-02T10:52:26.477+02:00,675852746.4766881,0,4.8125,101.3242,1,0.79
2022-06-02T10:52:27.304+02:00,1654159945.813378,53.22890393440913,10.39865269326642,39.63852,0,0.21,226.7578125,65.06141773144168,4,5,-9999,3091.581726416667,0.061553955078125,1.765274047851562,0.8362274169921875,3091.571732416667,-0.8598770493433751,0.4788950827894131,-1.364747523191509,-4.785841941833496,8.124320030212402,-2.059876203536987,-0.3095016479492188,0.7817883491516113,0.8401622772216797,XArbitraryZVertical,-0.4801698559842546,0.4226677687855126,-0.4502056531284196,0.6229796590193405,0.09427648037672043,0.9788469672203064,-0.1815777271986008,0,0,0,-1,-1,3090.75523875,unknown,2,2022-06-02T10:52:26.477+02:00,2022-06-02T10:17:13.754+02:00,516,1.472617,0,0,401.0887,0,0,2022-06-02T10:52:26.477+02:00,675852746.4766881,0,4.8125,101.3242,1,0.79
2022-06-02T10:52:27.313+02:00,1654159945.813378,53.22890393440913,10.39865269326642,39.63852,0,0.21,226.7578125,65.06141773144168,4,5,-9999,3091.591721416667,0.2186431884765625,1.830230712890625,0.8764190673828125,3091.581726416667,-0.8235126260111136,0.5949837829303183,-1.413489940256347,-4.236079692840576,7.909731388092041,-1.78925883769989,-0.1282878220081329,0.7760494947433472,0.9097976088523865,XArbitraryZVertical,-0.4797337091454131,0.4527544984729656,-0.4654236945174099,0.5901268657105251,0.08780631422996521,0.9876528382301331,-0.1297378689050674,0,0,0,-1,-1,3090.75523875,unknown,2,2022-06-02T10:52:26.477+02:00,2022-06-02T10:17:13.754+02:00,516,1.472617,0,0,401.0887,0,0,2022-06-02T10:52:26.477+02:00,675852746.4766881,0,4.8125,101.3242,1,0.79
2022-06-02T10:52:27.323+02:00,1654159945.813378,53.22890393440913,10.39865269326642,39.63852,0,0.21,226.7578125,65.06141773144168,4,5,-9999,3091.601715416667,0.3108367919921875,1.76788330078125,0.9433135986328125,3091.591721416667,-0.7342371585946887,0.7610408905092163,-1.45507080415375,-3.767578125,7.623268127441406,-1.538803219795227,0.07246414572000504,0.8065697550773621,0.9488927125930786,XArbitraryZVertical,-0.4767622440722847,0.4805116836332732,-0.4794156431280113,0.5585400715876572,0.07963550090789795,0.9933112859725952,-0.08361256867647171,0,0,0,-1,-1,3090.75523875,unknown,2,2022-06-02T10:52:26.477+02:00,2022-06-02T10:17:13.754+02:00,516,1.472617,0,0,401.0887,0,0,2022-06-02T10:52:26.477+02:00,675852746.4766881,0,4.8125,101.3242,1,0.79
2022-06-02T10:52:27.333+02:00,1654159945.813378,53.22890393440913,10.39865269326642,39.63852,0,0.21,226.7578125,65.06141773144168,4,5,-9999,3091.611709416667,0.3735504150390625,1.65032958984375,1.091384887695312,3091.601715416667,-0.5505676408135681,1.018615409962441,-1.488259665880244,-3.225135326385498,7.321892261505127,-1.305827021598816,0.1982723772525787,0.8197188377380371,0.9360979795455933,XArbitraryZVertical,-0.471599491453874,0.5059360515421033,-0.4924060077349753,0.5283549806768046,0.07019081711769104,0.9965957999229431,-0.04324526339769363,0,0,0,-1,-1,3090.75523875,unknown,2,2022-06-02T10:52:26.477+02:00,2022-06-02T10:17:13.754+02:00,516,1.472617,0,0,401.0887,0,0,2022-06-02T10:52:26.477+02:00,675852746.4766881,0,4.8125,101.3242,1,0.79
2022-06-02T10:52:27.355+02:00,1654159945.813378,53.22890393440913,10.39865269326642,39.63852,0,0.21,226.7578125,65.06141773144168,4,5,-9999,3091.621703416667,0.4066619873046875,1.480087280273438,1.224395751953125,3091.611709416667,-0.2008658143722032,1.438835524040996,-1.510186940848264,-2.970847368240356,6.953057765960693,-1.096603870391846,0.286406546831131,0.7124531865119934,1.022038340568542,XArbitraryZVertical,-0.4648085982632303,0.5291200849740368,-0.504258267915151,0.4997083315289614,0.06004427373409271,0.9981638193130493,-0.007969805039465427,0,0,0,-1,-1,3090.75523875,unknown,2,2022-06-02T10:52:26.477+02:00,2022-06-02T10:17:13.754+02:00,516,1.472617,0,0,401.0887,0,0,2022-06-02T10:52:26.477+02:00,675852746.4766881,0,4.8125,101.3242,1,0.79
2022-06-02T10:52:27.363+02:00,1654159945.813378,53.22890393440913,10.39865269326642,39.63852,0,0.21,226.7578125,65.06141773144168,4,5,-9999,3091.631698416667,0.336181640625,1.286422729492188,1.345474243164062,3091.621703416667,0.3436614754026242,2.050190773921182,-1.515072957047801,-3.079597473144531,6.618239402770996,-0.9210301041603088,0.3464135229587555,0.5762895941734314,1.13672661781311,XArbitraryZVertical,-0.4575669489108802,0.5508869257526826,-0.5142123097005104,0.4719551737750591,0.04941475391387939,0.9984478354454041,0.02568783611059189,0,0,0,-1,-1,3090.75523875,unknown,2,2022-06-02T10:52:26.477+02:00,2022-06-02T10:17:13.754+02:00,516,1.472617,0,0,401.0887,0,0,2022-06-02T10:52:26.477+02:00,675852746.4766881,0,4.8125,101.3242,1,0.79
2022-06-02T10:52:27.366+02:00,1654159945.813378,53.22890393440913,10.39865269326642,39.63852,0,0.21,226.7578125,65.06141773144168,4,5,-9999,3091.641692416667,0.3205108642578125,1.147491455078125,1.4814453125,3091.631698416667,0.8038070313805322,2.57408459062496,-1.499714354655716,-3.260945081710815,6.312353610992432,-0.7554365992546082,0.3267989456653595,0.3758924603462219,1.211840510368347,XArbitraryZVertical,-0.4504063418796174,0.5719074237777706,-0.5220065597451581,0.4444829583535102,0.03817607834935188,0.997474730014801,0.05988794937729836,0,0,0,-1,-1,3090.75523875,unknown,2,2022-06-02T10:52:26.477+02:00,2022-06-02T10:17:13.754+02:00,516,1.472617,0,0,401.0887,0,0,2022-06-02T10:52:26.477+02:00,675852746.4766881,0,4.8125,101.3242,1,0.79
2022-06-02T10:52:27.374+02:00,1654159945.813378,53.22890393440913,10.39865269326642,39.63852,0,0.21,226.7578125,65.06141773144168,4,5,-9999,3091.651686416667,0.1707916259765625,1.010910034179688,1.567901611328125,3091.641692416667,1.031801839655905,2.862770554010723,-1.471167175360086,-3.500969409942627,6.020175457000732,-0.4537569284439087,0.3075099587440491,0.2210080027580261,1.320026993751526,XArbitraryZVertical,-0.4433261647797693,0.5926829765460477,-0.5271962314589855,0.4174360617195113,0.02737472765147686,0.9950411319732666,0.09562239795923233,0,0,0,-1,-1,3090.75523875,unknown,2,2022-06-02T10:52:26.477+02:00,2022-06-02T10:17:13.754+02:00,516,1.472617,0,0,401.0887,0,0,2022-06-02T10:52:26.477+02:00,675852746.4766881,0,4.8125,101.3242,1,0.79
2022-06-02T10:52:27.383+02:00,1654159945.813378,53.22890393440913,10.39865269326642,39.63852,0,0.21,226.7578125,65.06141773144168,4,5,-9999,3091.661680416667,0.136322021484375,0.9731597900390625,1.52362060546875,3091.651686416667,1.123021144643766,3.012514981980676,-1.437065022407372,-3.598923444747925,5.788983345031738,-0.2648152410984039,0.2397956848144531,0.08841156959533691,1.401651978492737,XArbitraryZVertical,-0.4359272253527825,0.6132525237487275,-0.5301921384600342,0.3908771166835147,0.0171623807400465,0.9910712838172913,0.1322224140167236,0,0,0,-1,-1,3090.75523875,unknown,2,2022-06-02T10:52:26.477+02:00,2022-06-02T10:17:13.754+02:00,516,1.472617,0,0,401.0887,0,0,2022-06-02T10:52:26.477+02:00,675852746.4766881,0,4.8125,101.3242,1,0.79
2022-06-02T10:52:27.394+02:00,1654159945.813378,53.22890393440913,10.39865269326642,39.63852,0,0.21,226.7578125,65.06141773144168,4,5,-9999,3091.671675416667,0.180511474609375,0.938995361328125,1.51275634765625,3091.661680416667,1.149539776502269,3.093516041386018,-1.401088965129559,-3.632978916168213,5.110527992248535,0.1138349547982216,0.1150675415992737,-0.007347583770751953,1.391619682312012,XArbitraryZVertical,-0.428494024623862,0.6330418724267849,-0.530906731205966,0.3657715551696741,0.008116696029901505,0.9856342077255249,0.1686982810497284,0,0,0,-1,-1,3090.75523875,unknown,2,2022-06-02T10:52:26.477+02:00,2022-06-02T10:17:13.754+02:00,516,1.472617,0,0,401.0887,0,0,2022-06-02T10:52:26.477+02:00,675852746.4766881,0,4.8125,101.3242,1,0.79
2022-06-02T10:52:27.403+02:00,1654159945.813378,53.22890393440913,10.39865269326642,39.63852,0,0.21,226.7578125,65.06141773144168,4,5,-9999,3091.681669416667,0.1877288818359375,0.9224853515625,1.611328125,3091.671675416667,1.138467243900255,3.128937573322789,-1.365658446234117,-3.403547525405884,4.124693393707275,0.4992928802967072,0.1618357002735138,-0.02189505100250244,1.29973304271698,XArbitraryZVertical,-0.4214955156237424,0.651294081627668,-0.5288359207092361,0.3442237056892998,0.002577786333858967,0.9790329337120056,0.2036848962306976,0,0,0,-1,-1,3090.75523875,unknown,2,2022-06-02T10:52:26.477+02:00,2022-06-02T10:17:13.754+02:00,516,1.472617,0,0,401.0887,0,0,2022-06-02T10:52:26.477+02:00,675852746.4766881,0,4.8125,101.3242,1,0.79
2022-06-02T10:52:27.414+02:00,1654159945.813378,53.22890393440913,10.39865269326642,39.63852,0,0.21,226.7578125,65.06141773144168,4,5,-9999,3091.691663416667,0.1712799072265625,0.934783935546875,1.758468627929688,3091.681669416667,1.11189390567784,3.13892894658184,-1.334248025015684,-2.832229375839233,3.070569038391113,0.6840498447418213,0.1882948577404022,-0.0451202392578125,1.318539619445801,XArbitraryZVertical,-0.4153006582156071,0.666857527001646,-0.5249965967105854,0.3274215858805778,0.0006242337403818965,0.9721526503562927,0.2343471944332123,0,0,0,-1,-1,3090.75523875,unknown,2,2022-06-02T10:52:26.477+02:00,2022-06-02T10:17:13.754+02:00,516,1.472617,0,0,401.0887,0,0,2022-06-02T10:52:26.477+02:00,675852746.4766881,0,4.8125,101.3242,1,0.79
2022-06-02T10:52:27.423+02:00,1654159945.813378,53.22890393440913,10.39865269326642,39.63852,0,0.21,226.7578125,65.06141773144168,4,5,-9999,3091.701657416667,0.1587677001953125,0.9181365966796875,1.927825927734375,3091.691663416667,1.082998973085687,3.136733959451945,-1.309934357366303,-2.020456075668335,2.099019289016724,0.7444934844970703,0.178403913974762,-0.03794550895690918,1.420373558998108,XArbitraryZVertical,-0.4100311965968861,0.678844199253454,-0.5209941183509298,0.3156105627432902,0.001253115944564342,0.9661680459976196,0.2579100728034973,0,0,0,-1,-1,3090.75523875,unknown,2,2022-06-02T10:52:26.477+02:00,2022-06-02T10:17:13.754+02:00,516,1.472617,0,0,401.0887,0,0,2022-06-02T10:52:26.477+02:00,675852746.4766881,0,4.8125,101.3242,1,0.79
2022-06-02T10:52:27.433+02:00,1654159945.813378,53.22890393440913,10.39865269326642,39.63852,0,0.21,226.7578125,65.06141773144168,4,5,-9999,3091.711652416667,0.098602294921875,0.8294830322265625,2.0628662109375,3091.701657416667,1.055181450956483,3.126507190016414,-1.293609888098967,-1.269817590713501,1.240568280220032,0.7580345869064331,0.1626658737659454,-0.03021913766860962,1.57492208480835,XArbitraryZVertical,-0.4056783311123338,0.687193324187874,-0.5176492182377525,0.3085930201807981,0.004127984866499901,0.9618291854858398,0.273619145154953,0,0,0,-1,-1,3090.75523875,unknown,2,2022-06-02T10:52:26.477+02:00,2022-06-02T10:17:13.754+02:00,516,1.472617,0,0,401.0887,0,0,2022-06-02T10:52:26.477+02:00,675852746.4766881,0,4.8125,101.3242,1,0.79
2022-06-02T10:52:27.443+02:00,1654159945.813378,53.22890393440913,10.39865269326642,39.63852,0,0.21,226.7578125,65.06141773144168,4,5,-9999,3091.721646416667,0.0714874267578125,0.7378387451171875,2.115936279296875,3091.711652416667,1.031126275704289,3.111833670520435,-1.282893225458234,-0.8964601755142212,0.4618772268295288,0.6123477220535278,0.1245165169239044,-0.07361793518066406,1.714871048927307,XArbitraryZVertical,-0.4027287259304071,0.6926166975862553,-0.5146428584318207,0.3053431395614693,0.008448588661849499,0.9588413834571838,0.2838166356086731,0,0,0,-1,-1,3090.75523875,unknown,2,2022-06-02T10:52:26.477+02:00,2022-06-02T10:17:13.754+02:00,516,1.472617,0,0,401.0887,0,0,2022-06-02T10:52:26.477+02:00,675852746.4766881,0,4.8125,101.3242,1,0.79
2022-06-02T10:52:27.454+02:00,1654159945.813378,53.22890393440913,10.39865269326642,39.63852,0,0.21,226.7578125,65.06141773144168,4,5,-9999,3091.731640416667,0.07452392578125,0.68280029296875,2.050003051757812,3091.721646416667,1.013959791752469,3.096614762954293,-1.273998973008746,-0.8726850152015686,-0.2035287022590637,0.439994752407074,0.06476166844367981,-0.1789802312850952,1.813183784484863,XArbitraryZVertical,-0.4019111998711529,0.6960953805174519,-0.5110623103052124,0.3045222528327011,0.01314973458647728,0.9562780261039734,0.2921627759933472,0,0,0,-1,-1,3090.75523875,unknown,2,2022-06-02T10:52:26.477+02:00,2022-06-02T10:17:13.754+02:00,516,1.472617,0,0,401.0887,0,0,2022-06-02T10:52:26.477+02:00,675852746.4766881,0,4.8125,101.3242,1,0.79
2022-06-02T10:52:27.463+02:00,1654159945.813378,53.22890393440913,10.39865269326642,39.63852,0,0.21,226.7578125,65.06141773144168,4,5,-9999,3091.741634416667,0.0719451904296875,0.6897735595703125,1.889968872070312,3091.731640416667,1.003775083393418,3.081782289546351,-1.264827150935034,-0.9294537901878357,-0.8042280673980713,0.2571479678153992,0.0547487698495388,-0.2499576807022095,1.794307708740234,XArbitraryZVertical,-0.4033626363904833,0.6983105411860648,-0.506362993516841,0.305380584909646,0.01800513826310635,0.9535554647445679,0.3006780445575714,0,0,0,-1,-1,3090.75523875,unknown,2,2022-06-02T10:52:26.477+02:00,2022-06-02T10:17:13.754+02:00,516,1.472617,0,0,401.0887,0,0,2022-06-02T10:52:26.477+02:00,675852746.4766881,0,4.8125,101.3242,1,0.79
2022-06-02T10:52:27.473+02:00,1654159945.813378,53.22890393440913,10.39865269326642,39.63852,0,0.21,226.7578125,65.06141773144168,4,5,-9999,3091.751628416667,0.061492919921875,0.713043212890625,1.698562622070312,3091.741634416667,1.000954461667725,3.068387560331471,-1.255298540298344,-0.9417014718055725,-1.346700668334961,0.04364468157291412,0.05153959989547729,-0.2705428004264832,1.670553088188171,XArbitraryZVertical,-0.406984947339842,0.6993512441400855,-0.5006624771025486,0.3075840860818721,0.02269444242119789,0.9506420493125916,0.3094578087329865,0,0,0,-1,-1,3090.75523875,unknown,2,2022-06-02T10:52:26.477+02:00,2022-06-02T10:17:13.754+02:00,516,1.472617,0,0,401.0887,0,0,2022-06-02T10:52:26.477+02:00,675852746.4766881,0,4.8125,101.3242,1,0.79
2022-06-02T10:52:27.483+02:00,1654159945.813378,53.22890393440913,10.39865269326642,39.63852,0,0.21,226.7578125,65.06141773144168,4,5,-9999,3091.761623416667,0.0292205810546875,0.6927947998046875,1.531448364257812,3091.761623416667,1.015772524994571,3.045673243522348,-1.238289973730192,-0.7302348613739014,-2.31755542755127,-0.3728024065494537,0.01453030109405518,-0.2361513376235962,1.290108203887939,XArbitraryZVertical,-0.4199110689543375,0.6972309150221638,-0.4875149410137138,0.3160267131762365,0.03126134723424911,0.9452272057533264,0.3249125182628632,0,0,0,-1,-1,3090.75523875,unknown,2,2022-06-02T10:52:26.477+02:00,2022-06-02T10:17:13.754+02:00,516,1.472617,0,0,401.0887,0,0,2022-06-02T10:52:26.477+02:00,675852746.4766881,0,4.8125,101.3242,1,0.79
2022-06-02T10:52:27.493+02:00,1654159945.813378,53.22890393440913,10.39865269326642,39.63852,0,0.21,226.7578125,65.06141773144168,4,5,-9999,3091.771617416667,0.0075225830078125,0.6545562744140625,1.387008666992188,3091.761623416667,1.015772524994571,3.045673243522348,-1.238289973730192,-0.7302348613739014,-2.31755542755127,-0.3728024065494537,0.01453030109405518,-0.2361513376235962,1.290108203887939,XArbitraryZVertical,-0.4199110689543375,0.6972309150221638,-0.4875149410137138,0.3160267131762365,0.03126134723424911,0.9452272057533264,0.3249125182628632,0,0,0,-1,-1,3090.75523875,unknown,2,2022-06-02T10:52:26.477+02:00,2022-06-02T10:17:13.754+02:00,516,1.472617,0,0,401.0887,0,0,2022-06-02T10:52:26.477+02:00,675852746.4766881,0,4.8125,101.3242,1,0.79
2022-06-02T10:52:27.503+02:00,1654159945.813378,53.22890393440913,10.39865269326642,39.63852,0,0.21,226.7578125,65.06141773144168,4,5,-9999,3091.781611416667,-0.011962890625,0.650604248046875,1.275833129882812,3091.771617416667,1.031841659214697,3.035559887909848,-1.232810863704732,-0.4597269594669342,-2.73795223236084,-0.5716372132301331,-0.01841536164283752,-0.2721294760704041,1.126680850982666,XArbitraryZVertical,-0.4286250346614175,0.6936446953159722,-0.4808210117390275,0.3224108059298044,0.03509324416518211,0.9434245824813843,0.3297247588634491,0,0,0,-1,-1,3090.75523875,unknown,2,2022-06-02T10:52:26.477+02:00,2022-06-02T10:17:13.754+02:00,516,1.472617,0,0,401.0887,0,0,2022-06-02T10:52:26.477+02:00,675852746.4766881,0,4.8125,101.3242,1,0.79
2022-06-02T10:52:27.513+02:00,1654159945.813378,53.22890393440913,10.39865269326642,39.63852,0,0.21,226.7578125,65.06141773144168,4,5,-9999,3091.791605416667,-0.06317138671875,0.6383819580078125,1.19488525390625,3091.781611416667,1.052909645273009,3.02608199228873,-1.230346946834213,-0.1897164732217789,-3.128530979156494,-0.7666648030281067,-0.03907960280776024,-0.295906662940979,0.9950506687164307,XArbitraryZVertical,-0.4384721714240905,0.6881751354312553,-0.4744383045344461,0.3302506268890936,0.03848455101251602,0.9426047205924988,0.3316857218742371,0,0,0,-1,-1,3090.75523875,unknown,2,2022-06-02T10:52:26.477+02:00,2022-06-02T10:17:13.754+02:00,516,1.472617,0,0,401.0887,0,0,2022-06-02T10:52:26.477+02:00,675852746.4766881,0,4.8125,101.3242,1,0.79
2022-06-02T10:52:27.523+02:00,1654159945.813378,53.22890393440913,10.39865269326642,39.63852,0,0.21,226.7578125,65.06141773144168,4,5,-9999,3091.801600416667,-0.121429443359375,0.6544342041015625,1.152252197265625,3091.791605416667,1.079395121157362,3.017964340235144,-1.23076808185522,0.05547863617539406,-3.493685245513916,-0.9955547451972961,-0.07315495610237122,-0.2940636873245239,0.9021097421646118,XArbitraryZVertical,-0.4493976261331846,0.680827324238677,-0.4683541462824471,0.3393527554148263,0.04112677276134491,0.9427452683448792,0.3309681415557861,0,0,0,-1,-1,3090.75523875,unknown,2,2022-06-02T10:52:26.477+02:00,2022-06-02T10:17:13.754+02:00,516,1.472617,0,0,401.0887,0,0,2022-06-02T10:52:26.477+02:00,675852746.4766881,0,4.8125,101.3242,1,0.79
2022-06-02T10:52:27.533+02:00,1654159945.813378,53.22890393440913,10.39865269326642,39.63852,0,0.21,226.7578125,65.06141773144168,4,5,-9999,3091.811594416667,-0.2052154541015625,0.6681060791015625,1.1209716796875,3091.801600416667,1.110825299206862,3.0109773035559,-1.233300820021507,0.155777782201767,-3.835382699966431,-1.143396377563477,-0.135778471827507,-0.3031601905822754,0.8407628536224365,XArbitraryZVertical,-0.4613278197692458,0.6718101879182651,-0.4622550936818007,0.3495253782532765,0.0431271493434906,0.9435869455337524,0.3283045589923859,0,0,0,-1,-1,3090.75523875,unknown,2,2022-06-02T10:52:26.477+02:00,2022-06-02T10:17:13.754+02:00,516,1.472617,0,0,401.0887,0,0,2022-06-02T10:52:26.477+02:00,675852746.4766881,0,4.8125,101.3242,1,0.79
2022-06-02T10:52:27.543+02:00,1654159945.813378,53.22890393440913,10.39865269326642,39.63852,0,0.21,226.7578125,65.06141773144168,4,5,-9999,3091.821588416667,-0.3037872314453125,0.6853179931640625,1.087295532226562,3091.811594416667,1.14692504050631,3.005139361073769,-1.236371933002062,0.1213881149888039,-4.149179935455322,-1.3046555519104,-0.2040875554084778,-0.2840008735656738,0.8139709234237671,XArbitraryZVertical,-0.4742973133098884,0.661535327831529,-0.4555698114558001,0.3603734788377708,0.04464849829673767,0.9445993900299072,0.3251738548278809,0,0,0,-1,-1,3090.75523875,unknown,2,2022-06-02T10:52:26.477+02:00,2022-06-02T10:17:13.754+02:00,516,1.472617,0,0,401.0887,0,0,2022-06-02T10:52:26.477+02:00,675852746.4766881,0,4.8125,101.3242,1,0.79
2022-06-02T10:52:27.553+02:00,1654159945.813378,53.22890393440913,10.39865269326642,39.63852,0,0.21,226.7578125,65.06141773144168,4,5,-9999,3091.831582416667,-0.3826446533203125,0.7130889892578125,1.066116333007812,3091.821588416667,1.188762642407537,3.001731638021151,-1.238966599649794,0.009908856824040413,-4.443277359008789,-1.476827263832092,-0.300266832113266,-0.269193708896637,0.7803435325622559,XArbitraryZVertical,-0.4884343156255121,0.6501753860902835,-0.4480026935350985,0.371480043293132,0.04541458189487457,0.9454478621482849,0.3225922286510468,0,0,0,-1,-1,3090.75523875,unknown,2,2022-06-02T10:52:26.477+02:00,2022-06-02T10:17:13.754+02:00,516,1.472617,0,0,401.0887,0,0,2022-06-02T10:52:26.477+02:00,675852746.4766881,0,4.8125,101.3242,1,0.79
2022-06-02T10:52:27.563+02:00,1654159945.813378,53.22890393440913,10.39865269326642,39.63852,0,0.21,226.7578125,65.06141773144168,4,5,-9999,3091.841577416667,-0.4599456787109375,0.764373779296875,1.063339233398438,3091.831582416667,1.23587756658882,3.000566566961508,-1.240550966019405,-0.1327638775110245,-4.704014778137207,-1.591581583023071,-0.392412006855011,-0.2506351470947266,0.7522323131561279,XArbitraryZVertical,-0.503640651869083,0.6378666344954494,-0.4393776697616484,0.3826479209001838,0.04557977244257927,0.9459627866744995,0.3210555016994476,0,0,0,-1,-1,3090.75523875,unknown,2,2022-06-02T10:52:26.477+02:00,2022-06-02T10:17:13.754+02:00,516,1.472617,0,0,401.0887,0,0,2022-06-02T10:52:26.477+02:00,675852746.4766881,0,4.8125,101.3242,1,0.79
2022-06-02T10:52:27.573+02:00,1654159945.813378,53.22890393440913,10.39865269326642,39.63852,0,0.21,226.7578125,65.06141773144168,4,5,-9999,3091.851571416667,-0.5608367919921875,0.7899627685546875,1.061996459960938,3091.841577416667,1.286506457181259,3.000164954835755,-1.240656336774113,-0.3030864000320435,-4.959712982177734,-1.669915080070496,-0.4640447795391083,-0.2062510848045349,0.744384765625,XArbitraryZVertical,-0.5196951672810669,0.6248087243930264,-0.4294826067394353,0.3937962462476384,0.04569458961486816,0.9459969997406006,0.3209380209445953,0,0,0,-1,-1,3090.75523875,unknown,2,2022-06-02T10:52:26.477+02:00,2022-06-02T10:17:13.754+02:00,516,1.472617,0,0,401.0887,0,0,2022-06-02T10:52:26.477+02:00,675852746.4766881,0,4.8125,101.3242,1,0.79
2022-06-02T10:52:27.583+02:00,1654159945.813378,53.22890393440913,10.39865269326642,39.63852,0,0.21,226.7578125,65.06141773144168,4,5,-9999,3091.861565416667,-0.6433868408203125,0.803924560546875,1.08294677734375,3091.851571416667,1.340655837980687,3.00060903656663,-1.239245866854927,-0.4619482159614563,-5.194166660308838,-1.776456713676453,-0.5578550100326538,-0.1644872426986694,0.7359631061553955,XArbitraryZVertical,-0.5365483963288307,0.6109464702454899,-0.4183170569069539,0.4048098318234966,0.04573958367109299,0.9455388188362122,0.3222795426845551,0,0,0,-1,-1,3090.75523875,unknown,2,2022-06-02T10:52:26.477+02:00,2022-06-02T10:17:13.754+02:00,516,1.472617,0,0,401.0887,0,0,2022-06-02T10:52:26.477+02:00,675852746.4766881,0,4.8125,101.3242,1,0.79
2022-06-02T10:52:27.593+02:00,1654159945.813378,53.22890393440913,10.39865269326642,39.63852,0,0.21,226.7578125,65.06141773144168,4,5,-9999,3091.871559541667,-0.734130859375,0.8566131591796875,1.117782592773438,3091.861565416667,1.397814876793342,3.001735778354293,-1.23745029575058,-0.3709076344966888,-5.401049613952637,-1.866943597793579,-0.6480757594108582,-0.1499089598655701,0.7511379718780518,XArbitraryZVertical,-0.5538536282882134,0.5960301291638088,-0.4063086999540307,0.415821359887538,0.04561302065849304,0.9449527859687805,0.324011504650116,0,0,0,-1,-1,3090.75523875,unknown,2,2022-06-02T10:52:26.477+02:00,2022-06-02T10:17:13.754+02:00,516,1.472617,0,0,401.0887,0,0,2022-06-02T10:52:26.477+02:00,675852746.4766881,0,4.8125,101.3242,1,0.79
2022-06-02T10:52:27.603+02:00,1654159945.813378,53.22890393440913,10.39865269326642,39.63852,0,0.21,226.7578125,65.06141773144168,4,5,-9999,3091.881554541667,-0.811279296875,0.887237548828125,1.201400756835938,3091.871559541667,1.457114810897709,3.002864399529125,-1.237589227947085,-0.1325381994247437,-5.603739261627197,-1.980069279670715,-0.7324544787406921,-0.1183685660362244,0.7632248401641846,XArbitraryZVertical,-0.5710337241232887,0.5795576500596472,-0.3941691087677497,0.4273922682781519,0.04522920772433281,0.9449982643127441,0.3239331543445587,0,0,0,-1,-1,3090.75523875,unknown,2,2022-06-02T10:52:26.477+02:00,2022-06-02T10:17:13.754+02:00,516,1.472617,0,0,401.0887,0,0,2022-06-02T10:52:26.477+02:00,675852746.4766881,0,4.8125,101.3242,1,0.79
2022-06-02T10:52:27.613+02:00,1654159945.813378,53.22890393440913,10.39865269326642,39.63852,0,0.21,226.7578125,65.06141773144168,4,5,-9999,3091.891548541667,-0.8603515625,0.9673614501953125,1.306625366210938,3091.881554541667,1.518471973183139,3.004035175068451,-1.24133889717181,0.379192054271698,-5.799835205078125,-2.070015668869019,-0.820624053478241,-0.06737279891967773,0.8400030136108398,XArbitraryZVertical,-0.5876474452198575,0.5611659869640978,-0.3823742948325612,0.4399467125449052,0.04436370730400085,0.9462180137634277,0.3204735815525055,0,0,0,-1,-1,3090.75523875,unknown,2,2022-06-02T10:52:26.477+02:00,2022-06-02T10:17:13.754+02:00,516,1.472617,0,0,401.0887,0,0,2022-06-02T10:52:26.477+02:00,675852746.4766881,0,4.8125,101.3242,1,0.79
2022-06-02T10:52:27.623+02:00,1654159945.813378,53.22890393440913,10.39865269326642,39.63852,0,0.21,226.7578125,65.06141773144168,4,5,-9999,3091.901542541667,-0.9588165283203125,1.004257202148438,1.2664794921875,3091.891548541667,1.579605088644792,3.002623954655336,-1.250716543176052,0.882568895816803,-6.104373931884766,-2.047129392623901,-0.8790797591209412,-0.03787910938262939,0.9482479095458984,XArbitraryZVertical,-0.6030309920864232,0.540516570260448,-0.3711326038363422,0.454374385992847,0.04358484596014023,0.9492103457450867,0.3116090893745422,0,0,0,-1,-1,3090.75523875,unknown,2,2022-06-02T10:52:26.477+02:00,2022-06-02T10:17:13.754+02:00,516,1.472617,0,0,401.0887,0,0,2022-06-02T10:52:26.477+02:00,675852746.4766881,0,4.8125,101.3242,1,0.79
2022-06-02T10:52:27.633+02:00,1654159945.813378,53.22890393440913,10.39865269326642,39.63852,0,0.21,226.7578125,65.06141773144168,4,5,-9999,3091.911536541667,-1.106231689453125,0.8817596435546875,1.222335815429688,3091.901542541667,1.640907395215532,2.997334103272354,-1.263355972814201,1.081470727920532,-6.681230068206787,-2.085329532623291,-0.9415144920349121,0.06355124711990356,1.001426696777344,XArbitraryZVertical,-0.6177952064294269,0.5177522448133138,-0.3590667061908313,0.4704601937906416,0.0435042642056942,0.9531112909317017,0.2994765937328339,0,0,0,-1,-1,3090.75523875,unknown,2,2022-06-02T10:52:26.477+02:00,2022-06-02T10:17:13.754+02:00,516,1.472617,0,0,401.0887,0,0,2022-06-02T10:52:26.477+02:00,675852746.4766881,0,4.8125,101.3242,1,0.79
2022-06-02T10:52:27.643+02:00,1654159945.813378,53.22890393440913,10.39865269326642,39.63852,0,0.21,226.7578125,65.06141773144168,4,5,-9999,3091.921530541667,-1.213104248046875,0.89202880859375,1.104736328125,3091.911536541667,1.706911031767816,2.989179407738945,-1.277295263570672,1.064588189125061,-7.604896545410156,-2.170273780822754,-1.078728675842285,-0.01638007164001465,0.9561599493026733,XArbitraryZVertical,-0.6331108936137324,0.4920835008455671,-0.3446725776524426,0.4880831279758783,0.04392338171601295,0.9572368860244751,0.2859511375427246,0,0,0,-1,-1,3090.75523875,unknown,2,2022-06-02T10:52:26.477+02:00,2022-06-02T10:17:13.754+02:00,516,1.472617,0,0,401.0887,0,0,2022-06-02T10:52:26.477+02:00,675852746.4766881,0,4.8125,101.3242,1,0.79
2022-06-02T10:52:27.653+02:00,1654159945.813378,53.22890393440913,10.39865269326642,39.63852,0,0.21,226.7578125,65.06141773144168,4,5,-9999,3091.931525541667,-1.312652587890625,1.146194458007812,1.0875244140625,3091.921530541667,1.776113988275462,2.973827054119597,-1.290567146297822,0.9561157822608948,-8.781010627746582,-2.114218950271606,-1.210199236869812,-0.09908425807952881,0.9058809280395508,XArbitraryZVertical,-0.6494597961576996,0.4631935162813526,-0.3261837462417206,0.5072059031936581,0.04618251323699951,0.9609920978546143,0.2726925313472748,0,0,0,-1,-1,3090.75523875,unknown,2,2022-06-02T10:52:26.477+02:00,2022-06-02T10:17:13.754+02:00,516,1.472617,0,0,401.0887,0,0,2022-06-02T10:52:26.477+02:00,675852746.4766881,0,4.8125,101.3242,1,0.79
2022-06-02T10:52:27.664+02:00,1654159945.813378,53.22890393440913,10.39865269326642,39.63852,0,0.21,226.7578125,65.06141773144168,4,5,-9999,3091.941519541667,-1.58050537109375,1.591094970703125,1.1312255859375,3091.931525541667,1.844749488634992,2.946677528090597,-1.303604827666945,0.9864190816879272,-9.82065486907959,-2.017838716506958,-1.30547034740448,0.02075892686843872,0.7987003326416016,XArbitraryZVertical,-0.6662794533912311,0.4307939748536798,-0.3029620485661137,0.5279224475972242,0.05113684386014938,0.9645162224769592,0.259023517370224,0,0,0,-1,-1,3090.75523875,unknown,2,2022-06-02T10:52:26.477+02:00,2022-06-02T10:17:13.754+02:00,516,1.472617,0,0,401.0887,0,0,2022-06-02T10:52:26.477+02:00,675852746.4766881,0,4.8125,101.3242,1,0.79
2022-06-02T10:52:27.673+02:00,1654159945.813378,53.22890393440913,10.39865269326642,39.63852,0,0.21,226.7578125,65.06141773144168,4,5,-9999,3091.951513541667,-1.883987426757812,2.084030151367188,1.112945556640625,3091.941519541667,1.911627562741262,2.90975799950917,-1.320724695469486,1.767530560493469,-10.50282764434814,-2.081412792205811,-1.48238217830658,0.3800891041755676,0.884284496307373,XArbitraryZVertical,-0.6816734045573595,0.3946488518695032,-0.2769168183415343,0.5503551139675997,0.05686036869883537,0.9688947200775146,0.2408526986837387,0,0,0,-1,-1,3090.75523875,unknown,2,2022-06-02T10:52:26.477+02:00,2022-06-02T10:17:13.754+02:00,516,1.472617,0,0,401.0887,0,0,2022-06-02T10:52:26.477+02:00,675852746.4766881,0,4.8125,101.3242,1,0.79
2022-06-02T10:52:27.683+02:00,1654159945.813378,53.22890393440913,10.39865269326642,39.63852,0,0.21,226.7578125,65.06141773144168,4,5,-9999,3091.961507541667,-1.968490600585938,2.014373779296875,2.6541748046875,3091.951513541667,1.973131084547677,2.862469860901259,-1.351022073321517,3.523976802825928,-10.85291862487793,-2.24272632598877,-1.793691515922546,0.8826653957366943,0.9406050443649292,XArbitraryZVertical,-0.6925974870328578,0.3536871918121282,-0.2509809343456851,0.5763875990434474,0.06006429344415665,0.9759466648101807,0.2095718234777451,0,0,0,-1,-1,3090.75523875,unknown,2,2022-06-02T10:52:26.477+02:00,2022-06-02T10:17:13.754+02:00,516,1.472617,0,0,401.0887,0,0,2022-06-02T10:52:26.477+02:00,675852746.4766881,0,4.8125,101.3242,1,0.79
2022-06-02T10:52:27.693+02:00,1654159945.813378,53.22890393440913,10.39865269326642,39.63852,0,0.21,226.7578125,65.06141773144168,4,5,-9999,3091.971502541667,-17.46475219726562,-1.550765991210938,-13.58612060546875,3091.961507541667,2.017990875119569,2.791978630881575,-1.397982344090749,3.398533582687378,-13.26561546325684,-2.448970079421997,-2.094285726547241,1.222811460494995,0.7903972864151001,XArbitraryZVertical,-0.6975745592219126,0.3068648970210582,-0.2248769936214988,0.6071688445212334,0.05890066921710968,0.9851047992706299,0.1615526676177979,0,0,0,-1,-1,3090.75523875,unknown,2,2022-06-02T10:52:26.477+02:00,2022-06-02T10:17:13.754+02:00,516,1.472617,0,0,401.0887,0,0,2022-06-02T10:52:26.477+02:00,675852746.4766881,0,4.8125,101.3242,1,0.79
2022-06-02T10:52:27.703+02:00,1654159945.813378,53.22890393440913,10.39865269326642,39.63852,0,0.21,226.7578125,65.06141773144168,4,5,-9999,3091.981496541667,7.876678466796875,3.575973510742188,-14.13087463378906,3091.971502541667,2.000125908204685,2.882001688621098,-1.401290283445658,-0.9157410264015198,7.958793163299561,2.324873685836792,-7.052700996398926,-0.4099236726760864,0.3377047777175903,XArbitraryZVertical,-0.6829391789361912,0.3392867222563261,-0.262115761131668,0.5914168094594002,0.04330149665474892,0.9856682419776917,0.1630427986383438,0,0,0,-1,-1,3090.75523875,unknown,2,2022-06-02T10:52:26.477+02:00,2022-06-02T10:17:13.754+02:00,516,1.472617,0,0,401.0887,0,0,2022-06-02T10:52:26.477+02:00,675852746.4766881,0,4.8125,101.3242,1,0.79
2022-06-02T10:52:27.713+02:00,1654159945.813378,53.22890393440913,10.39865269326642,39.63852,0,0.21,226.7578125,65.06141773144168,4,5,-9999,3091.991490541667,-0.229278564453125,3.790878295898438,-8.671676635742188,3091.981496541667,1.769565824291227,2.681395383914067,-1.37891805683056,-0.2843091785907745,-1.135816216468811,6.486917972564697,-5.312875747680664,-0.9015697240829468,-18.15410995483398,XArbitraryZVertical,-0.6732068794777767,0.3636261925779845,-0.2561657543498441,0.5907178339456179,0.08469586074352264,0.981647789478302,0.1708630174398422,0,0,0,-1,-1,3090.75523875,unknown,2,2022-06-02T10:52:26.477+02:00,2022-06-02T10:17:13.754+02:00,516,1.472617,0,0,401.0887,0,0,2022-06-02T10:52:26.477+02:00,675852746.4766881,0,4.8125,101.3242,1,0.79
2022-06-02T10:52:27.723+02:00,1654159945.813378,53.22890393440913,10.39865269326642,39.63852,0,0.21,226.7578125,65.06141773144168,4,5,-9999,3092.001484541667,-1.649200439453125,3.127182006835938,-2.420272827148438,3091.991490541667,1.500680308104027,2.409566124216941,-1.394678289950021,6.61067008972168,-0.08627989143133163,0.8494046926498413,4.301825046539307,3.151714324951172,-10.61042594909668,XArbitraryZVertical,-0.6561936459359965,0.3668399185438094,-0.2515402383051841,0.6095618786232487,0.1171050444245338,0.9845312833786011,0.1303232610225677,0,0,0,-1,-1,3090.75523875,unknown,2,2022-06-02T10:52:26.477+02:00,2022-06-02T10:17:13.754+02:00,516,1.472617,0,0,401.0887,0,0,2022-06-02T10:52:26.477+02:00,675852746.4766881,0,4.8125,101.3242,1,0.79
2022-06-02T10:52:27.733+02:00,1654159945.813378,53.22890393440913,10.39865269326642,39.63852,0,0.21,226.7578125,65.06141773144168,4,5,-9999,3092.011479541667,-1.875656127929688,2.014785766601562,1.707794189453125,3092.001484541667,1.197973224616464,2.119797663227854,-1.427447045100368,5.016037940979004,1.43247663974762,0.7289574146270752,-1.666770935058594,2.647097587585449,-5.895090103149414,XArbitraryZVertical,-0.6361470238608234,0.3641306187402971,-0.2632475004607618,0.6272371743819829,0.1218642964959145,0.9897430539131165,0.07454828917980194,0,0,0,-1,-1,3090.75523875,unknown,2,2022-06-02T10:52:26.477+02:00,2022-06-02T10:17:13.754+02:00,516,1.472617,0,0,401.0887,0,0,2022-06-02T10:52:26.477+02:00,675852746.4766881,0,4.8125,101.3242,1,0.79
2022-06-02T10:52:27.743+02:00,1654159945.813378,53.22890393440913,10.39865269326642,39.63852,0,0.21,226.7578125,65.06141773144168,4,5,-9999,3092.021473541667,-2.241790771484375,0.796600341796875,2.602264404296875,3092.011479541667,0.8888730747941161,1.829653690588208,-1.440229607773811,3.516538619995117,1.15989089012146,0.3977837860584259,-1.954135656356812,1.438672184944153,0.07159233093261719,XArbitraryZVertical,-0.6192809691081923,0.3649035340542781,-0.2747011017157215,0.6386515185860617,0.1258580684661865,0.9914882779121399,0.03332701697945595,0,0,0,-1,-1,3090.75523875,unknown,2,2022-06-02T10:52:26.477+02:00,2022-06-02T10:17:13.754+02:00,516,1.472617,0,0,401.0887,0,0,2022-06-02T10:52:26.477+02:00,675852746.4766881,0,4.8125,101.3242,1,0.79
2022-06-02T10:52:27.753+02:00,1654159945.813378,53.22890393440913,10.39865269326642,39.63852,0,0.21,226.7578125,65.06141773144168,4,5,-9999,3092.031467541667,-1.669189453125,-0.2655792236328125,1.987503051757812,3092.021473541667,0.6021756020884711,1.551966254984028,-1.451111570105194,4.005632400512695,0.8062138557434082,-1.205742835998535,-2.220542907714844,0.5088778138160706,2.460011720657349,XArbitraryZVertical,-0.6076916855113038,0.3599815854672748,-0.2855037164629308,0.6477743424391612,0.1193772032856941,0.9928463101387024,-0.002248147036880255,0,0,0,-1,-1,3090.75523875,unknown,2,2022-06-02T10:52:26.477+02:00,2022-06-02T10:17:13.754+02:00,516,1.472617,0,0,401.0887,0,0,2022-06-02T10:52:26.477+02:00,675852746.4766881,0,4.8125,101.3242,1,0.79
2022-06-02T10:52:27.763+02:00,1654159945.813378,53.22890393440913,10.39865269326642,39.63852,0,0.21,226.7578125,65.06141773144168,4,5,-9999,3092.041461541667,-0.8723907470703125,-0.7508697509765625,1.142745971679688,3092.031467541667,0.2554826314849423,1.230668038843318,-1.454250616713931,3.651805400848389,3.608407735824585,-0.5183730125427246,-2.171265125274658,-0.828574001789093,2.435886859893799,XArbitraryZVertical,-0.593316681059348,0.3585793450293338,-0.302856153406624,0.6539680537163051,0.1096196547150612,0.9932162165641785,-0.03879233822226524,0,0,0,-1,-1,3090.75523875,unknown,2,2022-06-02T10:52:26.477+02:00,2022-06-02T10:17:13.754+02:00,516,1.472617,0,0,401.0887,0,0,2022-06-02T10:52:26.477+02:00,675852746.4766881,0,4.8125,101.3242,1,0.79
2022-06-02T10:52:27.773+02:00,1654159945.813378,53.22890393440913,10.39865269326642,39.63852,0,0.21,226.7578125,65.06141773144168,4,5,-9999,3092.051456541667,-0.2938079833984375,-0.65252685546875,0.5806427001953125,3092.041461541667,0.05701610215632328,1.071821554582541,-1.446985107390615,1.009022831916809,3.585440158843994,-0.08073032647371292,-1.359474778175354,-1.570409297943115,1.570066213607788,XArbitraryZVertical,-0.5798734013590051,0.3663321177110173,-0.3195308168016849,0.6537947538626496,0.1084371879696846,0.9923451542854309,-0.05909523740410805,0,0,0,-1,-1,3090.75523875,unknown,2,2022-06-02T10:52:26.477+02:00,2022-06-02T10:17:13.754+02:00,516,1.472617,0,0,401.0887,0,0,2022-06-02T10:52:26.477+02:00,675852746.4766881,0,4.8125,101.3242,1,0.79
2022-06-02T10:52:27.783+02:00,1654159945.813378,53.22890393440913,10.39865269326642,39.63852,0,0.21,226.7578125,65.06141773144168,4,5,-9999,3092.061450541667,-0.1420440673828125,0.038787841796875,0.3765411376953125,3092.051456541667,0.08676516863573158,1.132064355281311,-1.451252621668267,-1.819336533546448,2.573455572128296,-0.2838818728923798,-0.6460942625999451,-1.783039808273315,0.8647463321685791,XArbitraryZVertical,-0.5769778234867303,0.3765193581153285,-0.3281648745387347,0.6462486688165401,0.1079625561833382,0.9928631782531738,-0.05065952986478806,0,0,0,-1,-1,3090.75523875,unknown,2,2022-06-02T10:52:26.477+02:00,2022-06-02T10:17:13.754+02:00,516,1.472617,0,0,401.0887,0,0,2022-06-02T10:52:26.477+02:00,675852746.4766881,0,4.8125,101.3242,1,0.79
2022-06-02T10:52:27.793+02:00,1654159945.813378,53.22890393440913,10.39865269326642,39.63852,0,0.21,226.7578125,65.06141773144168,4,5,-9999,3092.071444541667,-0.2357330322265625,0.76092529296875,0.3751373291015625,3092.061450541667,0.2549651300655713,1.323660620567081,-1.463553882972518,-2.316573143005371,2.306821346282959,-0.6904751658439636,-0.2630411386489868,-1.348808288574219,0.4592896699905396,XArbitraryZVertical,-0.5809694689750107,0.3865001016824475,-0.3326950129189717,0.6343549575710697,0.1037852242588997,0.9942550659179688,-0.02618429437279701,0,0,0,-1,-1,3090.75523875,unknown,2,2022-06-02T10:52:26.477+02:00,2022-06-02T10:17:13.754+02:00,516,1.472617,0,0,401.0887,0,0,2022-06-02T10:52:26.477+02:00,675852746.4766881,0,4.8125,101.3242,1,0.79
2022-06-02T10:52:27.803+02:00,1654159945.813378,53.22890393440913,10.39865269326642,39.63852,0,0.21,226.7578125,65.06141773144168,4,5,-9999,3092.081438541667,-0.2729949951171875,1.111740112304688,0.44476318359375,3092.071444541667,0.4296571859839008,1.520957382730856,-1.475358043051685,-1.454724192619324,2.380321741104126,-1.006346344947815,-0.2826753258705139,-0.5671502351760864,0.3654955625534058,XArbitraryZVertical,-0.5848203360650397,0.3944762212267504,-0.3386281548607751,0.6226593605035612,0.0951753631234169,0.9954492449760437,-0.004747370723634958,0,0,0,-1,-1,3090.75523875,unknown,2,2022-06-02T10:52:26.477+02:00,2022-06-02T10:17:13.754+02:00,516,1.472617,0,0,401.0887,0,0,2022-06-02T10:52:26.477+02:00,675852746.4766881,0,4.8125,101.3242,1,0.79
2022-06-02T10:52:27.813+02:00,1654159945.813378,53.22890393440913,10.39865269326642,39.63852,0,0.21,226.7578125,65.06141773144168,4,5,-9999,3092.091433541667,-0.2865142822265625,0.9811553955078125,0.5395050048828125,3092.081438541667,0.5452121792483383,1.661382140106504,-1.486135413688831,-0.6448729038238525,2.642386436462402,-1.146313548088074,-0.3495470881462097,-0.001057207584381104,0.390589714050293,XArbitraryZVertical,-0.5857957394294881,0.4008341645395752,-0.3474100167088114,0.6127654649808201,0.0842120498418808,0.9964184165000916,0.007649351377040148,0,0,0,-1,-1,3090.75523875,unknown,2,2022-06-02T10:52:26.477+02:00,2022-06-02T10:17:13.754+02:00,516,1.472617,0,0,401.0887,0,0,2022-06-02T10:52:26.477+02:00,675852746.4766881,0,4.8125,101.3242,1,0.79
2022-06-02T10:52:27.823+02:00,1654159945.813378,53.22890393440913,10.39865269326642,39.63852,0,0.21,226.7578125,65.06141773144168,4,5,-9999,3092.101427541667,-0.32464599609375,0.679168701171875,0.6047210693359375,3092.091433541667,0.6327586454346031,1.775705726727149,-1.498075882382502,-0.4371897280216217,2.712266206741333,-1.383224010467529,-0.3530706167221069,0.09772026538848877,0.4764883518218994,XArbitraryZVertical,-0.5851451186557901,0.4061981648010105,-0.3582053436667529,0.6035702123768703,0.07113400846719742,0.9973570108413696,0.01478351838886738,0,0,0,-1,-1,3090.75523875,unknown,2,2022-06-02T10:52:26.477+02:00,2022-06-02T10:17:13.754+02:00,516,1.472617,0,0,401.0887,0,0,2022-06-02T10:52:26.477+02:00,675852746.4766881,0,4.8125,101.3242,1,0.79
2022-06-02T10:52:27.833+02:00,1654159945.813378,53.22890393440913,10.39865269326642,39.63852,0,0.21,226.7578125,65.06141773144168,4,5,-9999,3092.111421541667,-0.3706512451171875,0.5789642333984375,0.6515045166015625,3092.101427541667,0.769109736095577,1.939020850711935,-1.510721732123307,-0.6214271187782288,2.726959943771362,-1.497185826301575,-0.3652783334255219,-0.1778378486633301,0.5510969161987305,XArbitraryZVertical,-0.58470828156549,0.4110009697900084,-0.3695223392960761,0.59384141326324,0.05601324886083603,0.9981960654258728,0.02161114290356636,0,0,0,-1,-1,3090.75523875,unknown,2,2022-06-02T10:52:26.477+02:00,2022-06-02T10:17:13.754+02:00,516,1.472617,0,0,401.0887,0,0,2022-06-02T10:52:26.477+02:00,675852746.4766881,0,4.8125,101.3242,1,0.79
2022-06-02T10:52:27.843+02:00,1654159945.813378,53.22890393440913,10.39865269326642,39.63852,0,0.21,226.7578125,65.06141773144168,4,5,-9999,3092.121415541667,-0.4028167724609375,0.733612060546875,0.6928863525390625,3092.111421541667,1.02509824561728,2.222441611227996,-1.520190883748324,-0.9201200604438782,2.822589635848999,-1.497301936149597,-0.3952730000019073,-0.4070757031440735,0.5933157205581665,XArbitraryZVertical,-0.5848905104263433,0.4162230754733412,-0.3804956165563863,0.5829960430142407,0.04021625965833664,0.9987198114395142,0.03067711554467678,0,0,0,-1,-1,3090.75523875,unknown,2,2022-06-02T10:52:26.477+02:00,2022-06-02T10:17:13.754+02:00,516,1.472617,0,0,401.0887,0,0,2022-06-02T10:52:26.477+02:00,675852746.4766881,0,4.8125,101.3242,1,0.79
2022-06-02T10:52:27.853+02:00,1654159945.813378,53.22890393440913,10.39865269326642,39.63852,0,0.21,226.7578125,65.06141773144168,4,5,-9999,3092.131409541667,-0.4088287353515625,0.930694580078125,0.6994781494140625,3092.121415541667,1.393934888674121,2.619762331718378,-1.522187045105435,-1.194029092788696,2.954919815063477,-1.489470362663269,-0.4176521003246307,-0.3664641976356506,0.6315083503723145,XArbitraryZVertical,-0.5854830352239471,0.4222206235266902,-0.3910694379649294,0.570967557875621,0.02421951293945312,0.9988188147544861,0.0421212799847126,0,0,0,-1,-1,3090.75523875,unknown,2,2022-06-02T10:52:26.477+02:00,2022-06-02T10:17:13.754+02:00,516,1.472617,0,0,401.0887,0,0,2022-06-02T10:52:26.477+02:00,675852746.4766881,0,4.8125,101.3242,1,0.79
2022-06-02T10:52:27.863+02:00,1654159945.813378,53.22890393440913,10.39865269326642,39.63852,0,0.21,226.7578125,65.06141773144168,4,5,-9999,3092.141404541667,-0.347442626953125,0.999481201171875,0.6513671875,3092.131409541667,1.745989732874233,3.001707505954368,-1.514545120590573,-1.411908149719238,3.111977815628052,-1.477794289588928,-0.4252274334430695,-0.1567589044570923,0.6450290679931641,XArbitraryZVertical,-0.5863328302345591,0.4290089103862729,-0.4013891529939559,0.5577201531031099,0.007838553749024868,0.9984183311462402,0.05566966533660889,0,0,0,-1,-1,3090.75523875,unknown,2,2022-06-02T10:52:26.477+02:00,2022-06-02T10:17:13.754+02:00,516,1.472617,0,0,401.0887,0,0,2022-06-02T10:52:26.477+02:00,675852746.4766881,0,4.8125,101.3242,1,0.79
2022-06-02T10:52:27.874+02:00,1654159945.813378,53.22890393440913,10.39865269326642,39.63852,0,0.21,226.7578125,65.06141773144168,4,5,-9999,3092.151398541667,-0.280975341796875,0.9933319091796875,0.615203857421875,3092.141404541667,1.979153369808437,-3.016961965014367,-1.500015894111907,-1.509811758995056,3.251265287399292,-1.443819046020508,-0.3826576769351959,-0.01647806167602539,0.607866644859314,XArbitraryZVertical,-0.587042805541348,0.4364254357496183,-0.4116096982015078,0.5435908769904702,-0.008791252970695496,0.9974961280822754,0.07017283141613007,0,0,0,-1,-1,3090.75523875,unknown,2,2022-06-02T10:52:26.477+02:00,2022-06-02T10:17:13.754+02:00,516,1.472617,0,0,401.0887,0,0,2022-06-02T10:52:26.477+02:00,675852746.4766881,0,4.8125,101.3242,1,0.79
2022-06-02T10:52:27.883+02:00,1654159945.813378,53.22890393440913,10.39865269326642,39.63852,0,0.21,226.7578125,65.06141773144168,4,5,-9999,3092.161392541667,-0.2549285888671875,0.9615325927734375,0.620208740234375,3092.151398541667,2.110418105341532,-2.853128895933063,-1.480999145693252,-1.825600862503052,3.342583179473877,-1.395687222480774,-0.2889728546142578,0.003082871437072754,0.5335826873779297,XArbitraryZVertical,-0.5876981989032034,0.4445174547217699,-0.4214841455865967,0.5285508987024733,-0.0255107469856739,0.9959709644317627,0.08596988022327423,0,0,0,-1,-1,3090.75523875,unknown,2,2022-06-02T10:52:26.477+02:00,2022-06-02T10:17:13.754+02:00,516,1.472617,0,0,401.0887,0,0,2022-06-02T10:52:26.477+02:00,675852746.4766881,0,4.8125,101.3242,1,0.79
2022-06-02T10:52:27.893+02:00,1654159945.813378,53.22890393440913,10.39865269326642,39.63852,0,0.21,226.7578125,65.06141773144168,4,5,-9999,3092.171386541667,-0.267425537109375,0.9724884033203125,0.5828094482421875,3092.161392541667,2.170922155771079,-2.759351151763431,-1.456772178562994,-2.35020899772644,3.347068071365356,-1.367573618888855,-0.2249409258365631,-0.01669979095458984,0.5162758827209473,XArbitraryZVertical,-0.5890637557635332,0.4536370747151583,-0.430268922797828,0.5119432406068312,-0.04243878647685051,0.9935063123703003,0.1055654063820839,0,0,0,-1,-1,3090.75523875,unknown,2,2022-06-02T10:52:26.477+02:00,2022-06-02T10:17:13.754+02:00,516,1.472617,0,0,401.0887,0,0,2022-06-02T10:52:26.477+02:00,675852746.4766881,0,4.8125,101.3242,1,0.79
2022-06-02T10:52:27.903+02:00,1654159945.813378,53.22890393440913,10.39865269326642,39.63852,0,0.21,226.7578125,65.06141773144168,4,5,-9999,3092.181381541667,-0.3180084228515625,1.031051635742188,0.547027587890625,3092.171386541667,2.187835175047764,-2.70979485398371,-1.427457165535713,-2.847502708435059,3.207393407821655,-1.354009628295898,-0.198869377374649,-0.03222513198852539,0.4790587425231934,XArbitraryZVertical,-0.5916241508301673,0.4635181004183911,-0.4373880545648501,0.4937847436189675,-0.05978234112262726,0.9897445440292358,0.1297363340854645,0,0,0,-1,-1,3090.75523875,unknown,2,2022-06-02T10:52:26.477+02:00,2022-06-02T10:17:13.754+02:00,516,1.472617,0,0,401.0887,0,0,2022-06-02T10:52:26.477+02:00,675852746.4766881,0,4.8125,101.3242,1,0.79
2022-06-02T10:52:27.913+02:00,1654159945.813378,53.22890393440913,10.39865269326642,39.63852,0,0.21,226.7578125,65.06141773144168,4,5,-9999,3092.191375541667,-0.3673553466796875,1.11199951171875,0.49932861328125,3092.181381541667,2.181409682659083,-2.684594398108772,-1.394694964376246,-3.127709627151489,3.133366346359253,-1.273752450942993,-0.2142297923564911,0.01342105865478516,0.4034396409988403,XArbitraryZVertical,-0.595035156184866,0.4738566613292237,-0.4428973751179731,0.4745891370515621,-0.07730457186698914,0.9845342040061951,0.1572139412164688,0,0,0,-1,-1,3090.75523875,unknown,2,2022-06-02T10:52:26.477+02:00,2022-06-02T10:17:13.754+02:00,516,1.472617,0,0,401.0887,0,0,2022-06-02T10:52:26.477+02:00,675852746.4766881,0,4.8125,101.3242,1,0.79
2022-06-02T10:52:27.923+02:00,1654159945.813378,53.22890393440913,10.39865269326642,39.63852,0,0.21,226.7578125,65.06141773144168,4,5,-9999,3092.201369541667,-0.3917083740234375,1.221755981445312,0.448516845703125,3092.191375541667,2.164450978014434,-2.669663069852033,-1.36126977544721,-3.11238694190979,3.201839685440063,-1.14240026473999,-0.2526876330375671,0.08957368135452271,0.3398545980453491,XArbitraryZVertical,-0.5981804645593743,0.4845727600506184,-0.4476116932459547,0.4549869689502734,-0.09455655515193939,0.978129506111145,0.1852612495422363,0,0,0,-1,-1,3090.75523875,unknown,2,2022-06-02T10:52:26.477+02:00,2022-06-02T10:17:13.754+02:00,516,1.472617,0,0,401.0887,0,0,2022-06-02T10:52:26.477+02:00,675852746.4766881,0,4.8125,101.3242,1,0.79
2022-06-02T10:52:27.933+02:00,1654159945.813378,53.22890393440913,10.39865269326642,39.63852,0,0.21,226.7578125,65.06141773144168,4,5,-9999,3092.211363541667,-0.400634765625,1.244583129882812,0.38214111328125,3092.201369541667,2.144605582518632,-2.656692390423132,-1.329480676560787,-2.959948062896729,3.266252279281616,-0.9926480650901794,-0.2741805016994476,0.1940147876739502,0.2639712691307068,XArbitraryZVertical,-0.6002693107129096,0.4953711001802827,-0.4522613904171523,0.4355961119047165,-0.1113938167691231,0.9710243940353394,0.211431547999382,0,0,0,-1,-1,3090.75523875,unknown,2,2022-06-02T10:52:26.477+02:00,2022-06-02T10:17:13.754+02:00,516,1.472617,0,0,401.0887,0,0,2022-06-02T10:52:26.477+02:00,675852746.4766881,0,4.8125,101.3242,1,0.79
2022-06-02T10:52:27.943+02:00,1654159945.813378,53.22890393440913,10.39865269326642,39.63852,0,0.21,226.7578125,65.06141773144168,4,5,-9999,3092.221358541667,-0.382781982421875,1.129989624023438,0.4363250732421875,3092.211363541667,2.120755167652999,-2.646934185313496,-1.299337489524984,-2.936931610107422,3.293017625808716,-0.7746955156326294,-0.26897794008255,0.2938212752342224,0.1751832813024521,XArbitraryZVertical,-0.6012967700057072,0.5063988885885772,-0.4566325457953569,0.416520053665487,-0.1272927671670914,0.963380753993988,0.235995277762413,0,0,0,-1,-1,3090.75523875,unknown,2,2022-06-02T10:52:26.477+02:00,2022-06-02T10:17:13.754+02:00,516,1.472617,0,0,401.0887,0,0,2022-06-02T10:52:26.477+02:00,675852746.4766881,0,4.8125,101.3242,1,0.79
2022-06-02T10:52:27.953+02:00,1654159945.813378,53.22890393440913,10.39865269326642,39.63852,0,0.21,226.7578125,65.06141773144168,4,5,-9999,3092.231352541667,-0.365020751953125,1.112136840820312,0.4550323486328125,3092.221358541667,2.091624252645893,-2.642629071862559,-1.270270693819805,-3.002231359481812,3.151865482330322,-0.5467219352722168,-0.2598380744457245,0.2311592102050781,0.1349821090698242,XArbitraryZVertical,-0.601601342290645,0.5177268960315324,-0.460136784201205,0.3978802990205417,-0.1416511535644531,0.9551810026168823,0.2599306404590607,0,0,0,-1,-1,3090.75523875,unknown,2,2022-06-02T10:52:26.477+02:00,2022-06-02T10:17:13.754+02:00,516,1.472617,0,0,401.0887,0,0,2022-06-02T10:52:26.477+02:00,675852746.4766881,0,4.8125,101.3242,1,0.79
2022-06-02T10:52:27.963+02:00,1654159945.813378,53.22890393440913,10.39865269326642,39.63852,0,0.21,226.7578125,65.06141773144168,4,5,-9999,3092.241346541667,-0.3599395751953125,1.157608032226562,0.4468536376953125,3092.231352541667,2.054525040438,-2.647321660865879,-1.240518651495941,-3.340510606765747,2.945206642150879,-0.2604696750640869,-0.2144998908042908,0.1599435806274414,0.1714029312133789,XArbitraryZVertical,-0.6017632660947331,0.5297418004198605,-0.4618392429505854,0.3794193247672197,-0.1538472324609756,0.9459523558616638,0.2854908108711243,0,0,0,-1,-1,3090.75523875,unknown,2,2022-06-02T10:52:26.477+02:00,2022-06-02T10:17:13.754+02:00,516,1.472617,0,0,401.0887,0,0,2022-06-02T10:52:26.477+02:00,675852746.4766881,0,4.8125,101.3242,1,0.79
2022-06-02T10:52:27.973+02:00,1654159945.813378,53.22890393440913,10.39865269326642,39.63852,0,0.21,226.7578125,65.06141773144168,4,5,-9999,3092.251340541667,-0.342041015625,1.268051147460938,0.439605712890625,3092.241346541667,2.010735536373528,-2.660335012344487,-1.20984353703426,-3.434260606765747,2.689970254898071,-0.004865662194788456,-0.2019849568605423,0.1928265690803528,0.1396624743938446,XArbitraryZVertical,-0.6019012030830705,0.5424391229392731,-0.4614312198546839,0.3613251319496915,-0.1634782403707504,0.9355607628822327,0.3130505084991455,0,0,0,-1,-1,3090.75523875,unknown,2,2022-06-02T10:52:26.477+02:00,2022-06-02T10:17:13.754+02:00,516,1.472617,0,0,401.0887,0,0,2022-06-02T10:52:26.477+02:00,675852746.4766881,0,4.8125,101.3242,1,0.79
2022-06-02T10:52:27.983+02:00,1654159945.813378,53.22890393440913,10.39865269326642,39.63852,0,0.21,226.7578125,65.06141773144168,4,5,-9999,3092.261335541667,-0.3421630859375,1.351425170898438,0.4300689697265625,3092.251340541667,1.965060112435568,-2.676931447033335,-1.180266673638537,-3.342177629470825,2.506779432296753,0.3028088212013245,-0.1801797598600388,0.2823387384414673,0.103547066450119,XArbitraryZVertical,-0.6015309215916493,0.5552642394985312,-0.4596467507345255,0.3443353785320488,-0.1705892235040665,0.9247075915336609,0.3403156399726868,0,0,0,-1,-1,3090.75523875,unknown,2,2022-06-02T10:52:26.477+02:00,2022-06-02T10:17:13.754+02:00,516,1.472617,0,0,401.0887,0,0,2022-06-02T10:52:26.477+02:00,675852746.4766881,0,4.8125,101.3242,1,0.79
2022-06-02T10:52:27.993+02:00,1654159945.813378,53.22890393440913,10.39865269326642,39.63852,0,0.21,226.7578125,65.06141773144168,4,5,-9999,3092.271329541667,-0.3411407470703125,1.34539794921875,0.4777679443359375,3092.261335541667,1.918678693401208,-2.694907273833476,-1.153256057525333,-3.10741138458252,2.445640325546265,0.591904878616333,-0.1651895344257355,0.4079170227050781,0.06768488883972168,XArbitraryZVertical,-0.6000447295913703,0.5681629890894287,-0.4572391198393847,0.3287392159541039,-0.1751729398965836,0.9140891432762146,0.3657257258892059,0,0,0,-1,-1,3090.75523875,unknown,2,2022-06-02T10:52:26.477+02:00,2022-06-02T10:17:13.754+02:00,516,1.472617,0,0,401.0887,0,0,2022-06-02T10:52:26.477+02:00,675852746.4766881,0,4.8125,101.3242,1,0.79
2022-06-02T10:52:28.003+02:00,1654159945.813378,53.22890393440913,10.39865269326642,39.63852,0,0.21,226.7578125,65.06141773144168,4,5,-9999,3092.281323541667,-0.3065948486328125,1.38409423828125,0.53228759765625,3092.271329541667,1.873356719794387,-2.7116645417658,-1.12972548470011,-2.745518922805786,2.446551322937012,0.8241562247276306,-0.1661329120397568,0.4485185742378235,0.05722460150718689,XArbitraryZVertical,-0.5971423962541385,0.5809041054953601,-0.4549975820608098,0.3145607364298371,-0.1779374480247498,0.904295027256012,0.3880572319030762,0,0,0,-1,-1,3090.75523875,unknown,2,2022-06-02T10:52:26.477+02:00,2022-06-02T10:17:13.754+02:00,516,1.472617,0,0,401.0887,0,0,2022-06-02T10:52:26.477+02:00,675852746.4766881,0,4.8125,101.3242,1,0.79
2022-06-02T10:52:28.013+02:00,1654159945.813378,53.22890393440913,10.39865269326642,39.63852,0,0.21,226.7578125,65.06141773144168,4,5,-9999,3092.291317541667,-0.2930145263671875,1.38922119140625,0.5554351806640625,3092.281323541667,1.830075929437226,-2.725940936876111,-1.11088658806979,-2.219545602798462,2.492290258407593,1.079177260398865,-0.1474326401948929,0.4611004590988159,0.109658420085907,XArbitraryZVertical,-0.5925985980704167,0.5931809077240064,-0.4535715934375844,0.3020531497516962,-0.1792274564504623,0.8960925936698914,0.4060733616352081,0,0,0,-1,-1,3090.75523875,unknown,2,2022-06-02T10:52:26.477+02:00,2022-06-02T10:17:13.754+02:00,516,1.472617,0,0,401.0887,0,0,2022-06-02T10:52:26.477+02:00,675852746.4766881,0,4.8125,101.3242,1,0.79
