loggingTime(txt),locationTimestamp_since1970(s),locationLatitude(WGS84),locationLongitude(WGS84),locationAltitude(m),locationSpeed(m/s),locationSpeedAccuracy(m/s),locationCourse(°),locationCourseAccuracy(°),locationVerticalAccuracy(m),locationHorizontalAccuracy(m),locationFloor(Z),accelerometerTimestamp_sinceReboot(s),accelerometerAccelerationX(G),accelerometerAccelerationY(G),accelerometerAccelerationZ(G),motionTimestamp_sinceReboot(s),motionYaw(rad),motionRoll(rad),motionPitch(rad),motionRotationRateX(rad/s),motionRotationRateY(rad/s),motionRotationRateZ(rad/s),motionUserAccelerationX(G),motionUserAccelerationY(G),motionUserAccelerationZ(G),motionAttitudeReferenceFrame(txt),motionQuaternionX(R),motionQuaternionY(R),motionQuaternionZ(R),motionQuaternionW(R),motionGravityX(G),motionGravityY(G),motionGravityZ(G),motionMagneticFieldX(µT),motionMagneticFieldY(µT),motionMagneticFieldZ(µT),motionHeading(°),motionMagneticFieldCalibrationAccuracy(Z),activityTimestamp_sinceReboot(s),activity(txt),activityActivityConfidence(Z),activityActivityStartDate(txt),pedometerStartDate(txt),pedometerNumberofSteps(N),pedometerAverageActivePace(s/m),pedometerCurrentPace(s/m),pedometerCurrentCadence(steps/s),pedometerDistance(m),pedometerFloorAscended(N),pedometerFloorDescended(N),pedometerEndDate(txt),altimeterTimestamp_sinceReboot(s),altimeterReset(bool),altimeterRelativeAltitude(m),altimeterPressure(kPa),batteryState(N),batteryLevel(R)
2022-06-02T11:08:42.169+02:00,1654160922.00024,53.22912066769875,10.39856500788329,37.13083,0.03524953,0.7171914,59.2043256124807,180,2.400000095367432,7.999579855010837,-9999,4006.289372416667,-0.0776824951171875,-0.2531585693359375,-0.9173736572265625,4006.279377416667,0.1266748272072595,-0.02563768889286595,0.3054358074349919,-0.1144202500581741,0.1604990065097809,-0.2068126946687698,-0.04230879619717598,0.04672625660896301,0.04938036203384399,XArbitraryZVertical,0.1526093611028159,-0.003015928837614786,0.06060715771944968,0.9864218415128598,-0.02444839477539062,-0.3007088303565979,-0.953402578830719,0,0,0,-1,-1,4004.803703375,unknown,2,2022-06-02T11:08:40.666+02:00,2022-06-02T10:17:13.754+02:00,757,1.541467,0,0,607.4087,0,0,2022-06-02T11:08:40.666+02:00,675853720.6658913,0,4.703125,101.3248,1,0.74
2022-06-02T11:08:42.175+02:00,1654160922.00024,53.22912066769875,10.39856500788329,37.13083,0.03524953,0.7171914,59.2043256124807,180,2.400000095367432,7.999579855010837,-9999,4006.299366416667,-0.06414794921875,-0.25677490234375,-0.924774169921875,4006.289372416667,0.1245881509692082,-0.02357948920706403,0.304047605140651,-0.1379857659339905,0.164092943072319,-0.1941123455762863,-0.05712448060512543,0.04547831416130066,0.03902661800384521,XArbitraryZVertical,0.1518601469810439,-0.002203902915807538,0.0597496037496404,0.9865918439755781,-0.02249587327241898,-0.299384593963623,-0.9538672566413879,0,0,0,-1,-1,4004.803703375,unknown,2,2022-06-02T11:08:40.666+02:00,2022-06-02T10:17:13.754+02:00,757,1.541467,0,0,607.4087,0,0,2022-06-02T11:08:40.666+02:00,675853720.6658913,0,4.703125,101.3248,1,0.74
2022-06-02T11:08:42.177+02:00,1654160922.00024,53.22912066769875,10.39856500788329,37.13083,0.03524953,0.7171914,59.2043256124807,180,2.400000095367432,7.999579855010837,-9999,4006.309360416667,-0.059844970703125,-0.2694091796875,-0.9314117431640625,4006.299366416667,0.1227598288915888,-0.02198180405072278,0.3017122748471813,-0.1662387400865555,0.154568076133728,-0.1842037290334702,-0.04981359839439392,0.04627054929733276,0.03423404693603516,XArbitraryZVertical,0.15065906560813,-0.001627286180033851,0.0589924324401926,0.9868226821506817,-0.02098717540502548,-0.2971555590629578,-0.9545983672142029,0,0,0,-1,-1,4004.803703375,unknown,2,2022-06-02T11:08:40.666+02:00,2022-06-02T10:17:13.754+02:00,757,1.541467,0,0,607.4087,0,0,2022-06-02T11:08:40.666+02:00,675853720.6658913,0,4.703125,101.3248,1,0.74
2022-06-02T11:08:42.183+02:00,1654160922.00024,53.22912066769875,10.39856500788329,37.13083,0.03524953,0.7171914,59.2043256124807,180,2.400000095367432,7.999579855010837,-9999,4006.319355416667,-0.0608062744140625,-0.2700653076171875,-0.937713623046875,4006.309360416667,0.1212237742764209,-0.02122399915494158,0.2986917032126522,-0.2002630233764648,0.128026470541954,-0.1672673523426056,-0.04095078259706497,0.02719548344612122,0.02749800682067871,XArbitraryZVertical,0.149145360987962,-0.001461913123522356,0.05832108539947729,0.9870927570794746,-0.02028272673487663,-0.2942700982093811,-0.9555070400238037,0,0,0,-1,-1,4004.803703375,unknown,2,2022-06-02T11:08:40.666+02:00,2022-06-02T10:17:13.754+02:00,757,1.541467,0,0,607.4087,0,0,2022-06-02T11:08:40.666+02:00,675853720.6658913,0,4.703125,101.3248,1,0.74
2022-06-02T11:08:42.192+02:00,1654160922.00024,53.22912066769875,10.39856500788329,37.13083,0.03524953,0.7171914,59.2043256124807,180,2.400000095367432,7.999579855010837,-9999,4006.329349416667,-0.0634307861328125,-0.2108917236328125,-0.9342041015625,4006.319355416667,0.1199075810571574,-0.02088131214450779,0.2957666085740999,-0.2071874141693115,0.1034851148724556,-0.1462549567222595,-0.03875789791345596,0.02116379141807556,0.02260887622833252,XArbitraryZVertical,0.1476908703655284,-0.001479845248227701,0.05772507375176865,0.9873464249209988,-0.01997317187488079,-0.2914732694625854,-0.9563704133033752,0,0,0,-1,-1,4004.803703375,unknown,2,2022-06-02T11:08:40.666+02:00,2022-06-02T10:17:13.754+02:00,757,1.541467,0,0,607.4087,0,0,2022-06-02T11:08:40.666+02:00,675853720.6658913,0,4.703125,101.3248,1,0.74
2022-06-02T11:08:42.203+02:00,1654160922.00024,53.22912066769875,10.39856500788329,37.13083,0.03524953,0.7171914,59.2043256124807,180,2.400000095367432,7.999579855010837,-9999,4006.339343416667,-0.0801239013671875,-0.2762603759765625,-0.9300079345703125,4006.329349416667,0.1196139246623644,-0.02206902777833965,0.2937502948129232,-0.08962029963731766,0.07559968531131744,0.03011316247284412,-0.04072188213467598,0.02385783195495605,0.01598316431045532,XArbitraryZVertical,0.1467295336762462,-0.002149111169116871,0.05751221785320482,0.9875009339979922,-0.02112198062241077,-0.2895438969135284,-0.9569316506385803,0,0,0,-1,-1,4004.803703375,unknown,2,2022-06-02T11:08:40.666+02:00,2022-06-02T10:17:13.754+02:00,757,1.541467,0,0,607.4087,0,0,2022-06-02T11:08:40.666+02:00,675853720.6658913,0,4.703125,101.3248,1,0.74
2022-06-02T11:08:42.212+02:00,1654160922.00024,53.22912066769875,10.39856500788329,37.13083,0.03524953,0.7171914,59.2043256124807,180,2.400000095367432,7.999579855010837,-9999,4006.349338416667,0.0007171630859375,-0.3003082275390625,-0.8940887451171875,4006.339343416667,0.1194443898558059,-0.02259209746742874,0.2925252387530579,-0.1072933375835419,0.1433376520872116,-0.1413842290639877,-0.06659579277038574,0.08965587615966797,0.006529748439788818,XArbitraryZVertical,0.146139585263844,-0.002456990219053966,0.0574023049553582,0.9875940822293788,-0.02163051627576351,-0.2883711159229279,-0.9572743773460388,0,0,0,-1,-1,4004.803703375,unknown,2,2022-06-02T11:08:40.666+02:00,2022-06-02T10:17:13.754+02:00,757,1.541467,0,0,607.4087,0,0,2022-06-02T11:08:40.666+02:00,675853720.6658913,0,4.703125,101.3248,1,0.74
2022-06-02T11:08:42.222+02:00,1654160922.00024,53.22912066769875,10.39856500788329,37.13083,0.03524953,0.7171914,59.2043256124807,180,2.400000095367432,7.999579855010837,-9999,4006.359332416667,-0.034759521484375,-0.279510498046875,-0.9112091064453125,4006.349338416667,0.1182426946012258,-0.02227358601646665,0.2914224685427569,-0.1579383909702301,0.05484933406114578,-0.1467038840055466,-0.007048655301332474,-0.0264056921005249,0.05507171154022217,XArbitraryZVertical,0.1455845553936689,-0.002420634459149322,0.05684297801009917,0.9877084780015138,-0.02133268117904663,-0.2873150110244751,-0.9575985670089722,0,0,0,-1,-1,4004.803703375,unknown,2,2022-06-02T11:08:40.666+02:00,2022-06-02T10:17:13.754+02:00,757,1.541467,0,0,607.4087,0,0,2022-06-02T11:08:40.666+02:00,675853720.6658913,0,4.703125,101.3248,1,0.74
2022-06-02T11:08:42.233+02:00,1654160922.00024,53.22912066769875,10.39856500788329,37.13083,0.03524953,0.7171914,59.2043256124807,180,2.400000095367432,7.999579855010837,-9999,4006.369327416667,-0.0810394287109375,-0.3018341064453125,-0.9246826171875,4006.359332416667,0.1169444388464014,-0.02250594123147485,0.2896962009185732,-0.1653236746788025,0.03766648471355438,-0.1507344543933868,0.01253312081098557,0.002519011497497559,0.05397427082061768,XArbitraryZVertical,0.1447370365728419,-0.002681200559088564,0.05620179873891629,0.9878690405161578,-0.02156631276011467,-0.2856611013412476,-0.9580879807472229,0,0,0,-1,-1,4004.803703375,unknown,2,2022-06-02T11:08:40.666+02:00,2022-06-02T10:17:13.754+02:00,757,1.541467,0,0,607.4087,0,0,2022-06-02T11:08:40.666+02:00,675853720.6658913,0,4.703125,101.3248,1,0.74
2022-06-02T11:08:42.242+02:00,1654160922.00024,53.22912066769875,10.39856500788329,37.13083,0.03524953,0.7171914,59.2043256124807,180,2.400000095367432,7.999579855010837,-9999,4006.379321416667,-0.0008087158203125,-0.304046630859375,-0.9052886962890625,4006.369327416667,0.1158696122938662,-0.02289822072464141,0.2879149931524225,-0.1671817600727081,0.1214466094970703,-0.1553526371717453,-0.0465124100446701,0.002337425947189331,0.04716390371322632,XArbitraryZVertical,0.1438667785338816,-0.003005242845675167,0.05566000094750585,0.9880258892760055,-0.0219537653028965,-0.2839536666870117,-0.9585866332054138,0,0,0,-1,-1,4004.803703375,unknown,2,2022-06-02T11:08:40.666+02:00,2022-06-02T10:17:13.754+02:00,757,1.541467,0,0,607.4087,0,0,2022-06-02T11:08:40.666+02:00,675853720.6658913,0,4.703125,101.3248,1,0.74
2022-06-02T11:08:42.255+02:00,1654160922.00024,53.22912066769875,10.39856500788329,37.13083,0.03524953,0.7171914,59.2043256124807,180,2.400000095367432,7.999579855010837,-9999,4006.389315416667,-0.0185089111328125,-0.29638671875,-0.9295196533203125,4006.379321416667,0.1145981694188965,-0.02338132138737073,0.2857077421594393,-0.2171681672334671,0.02273027971386909,-0.1578872948884964,-0.01673784479498863,-0.03011414408683777,0.04426795244216919,XArbitraryZVertical,0.142787802439805,-0.003399757899201009,0.05501890809785128,0.9882170288566284,-0.02243145555257797,-0.2818365693092346,-0.9592001438140869,0,0,0,-1,-1,4004.803703375,unknown,2,2022-06-02T11:08:40.666+02:00,2022-06-02T10:17:13.754+02:00,757,1.541467,0,0,607.4087,0,0,2022-06-02T11:08:40.666+02:00,675853720.6658913,0,4.703125,101.3248,1,0.74
2022-06-02T11:08:42.265+02:00,1654160922.00024,53.22912066769875,10.39856500788329,37.13083,0.03524953,0.7171914,59.2043256124807,180,2.400000095367432,7.999579855010837,-9999,4006.399310416667,-0.03497314453125,-0.2705230712890625,-0.9482574462890625,4006.389315416667,0.1130937221442382,-0.02377709232325062,0.2836616527512462,-0.2164320647716522,-0.005212139338254929,-0.1776764392852783,0.02172611653804779,-0.02003869414329529,0.0453065037727356,XArbitraryZVertical,0.1417850363621449,-0.003761679725771595,0.05426749952232279,0.9884015987937799,-0.02282474003732204,-0.2798728346824646,-0.9597657322883606,0,0,0,-1,-1,4004.803703375,unknown,2,2022-06-02T11:08:40.666+02:00,2022-06-02T10:17:13.754+02:00,757,1.541467,0,0,607.4087,0,0,2022-06-02T11:08:40.666+02:00,675853720.6658913,0,4.703125,101.3248,1,0.74
2022-06-02T11:08:42.274+02:00,1654160922.00024,53.22912066769875,10.39856500788329,37.13083,0.03524953,0.7171914,59.2043256124807,180,2.400000095367432,7.999579855010837,-9999,4006.409304416667,-0.0271148681640625,-0.251983642578125,-0.9698486328125,4006.399310416667,0.111171045047944,-0.02329167989245774,0.2815877720572252,-0.2094545364379883,-0.004809335805475712,-0.1784968376159668,-0.008297828957438469,-0.004345297813415527,0.01972687244415283,XArbitraryZVertical,0.1407435493868527,-0.003716807244236466,0.05337174361832631,0.9885994161839222,-0.02237232401967049,-0.2778812348842621,-0.9603548645973206,0,0,0,-1,-1,4004.803703375,unknown,2,2022-06-02T11:08:40.666+02:00,2022-06-02T10:17:13.754+02:00,757,1.541467,0,0,607.4087,0,0,2022-06-02T11:08:40.666+02:00,675853720.6658913,0,4.703125,101.3248,1,0.74
2022-06-02T11:08:42.282+02:00,1654160922.00024,53.22912066769875,10.39856500788329,37.13083,0.03524953,0.7171914,59.2043256124807,180,2.400000095367432,7.999579855010837,-9999,4006.419299416667,-0.018280029296875,-0.24798583984375,-0.9843292236328125,4006.409304416667,0.1092184183378669,-0.02277792919471035,0.2797430788644967,-0.1741354167461395,-0.006596317049115896,-0.1855627298355103,-0.01206021755933762,0.01240631937980652,0.001404464244842529,XArbitraryZVertical,0.1398146033541614,-0.003651567979110028,0.05246011141025328,0.9887802871959943,-0.02189057692885399,-0.2761087119579315,-0.9608770608901978,0,0,0,-1,-1,4004.803703375,unknown,2,2022-06-02T11:08:40.666+02:00,2022-06-02T10:17:13.754+02:00,757,1.541467,0,0,607.4087,0,0,2022-06-02T11:08:40.666+02:00,675853720.6658913,0,4.703125,101.3248,1,0.74
2022-06-02T11:08:42.292+02:00,1654160922.00024,53.22912066769875,10.39856500788329,37.13083,0.03524953,0.7171914,59.2043256124807,180,2.400000095367432,7.999579855010837,-9999,4006.429293416667,-0.0166778564453125,-0.2514190673828125,-0.98651123046875,4006.419299416667,0.1075822239538308,-0.02357003475767622,0.2769786438427118,-0.1355359852313995,-0.0214200709015131,-0.1827458441257477,0.002253338694572449,0.02625828981399536,-0.01599651575088501,XArbitraryZVertical,0.1384653561154601,-0.004233422680839165,0.05162221484912866,0.9890119299214919,-0.02266958728432655,-0.2734507024288177,-0.9616188406944275,0,0,0,-1,-1,4004.803703375,unknown,2,2022-06-02T11:08:40.666+02:00,2022-06-02T10:17:13.754+02:00,757,1.541467,0,0,607.4087,0,0,2022-06-02T11:08:40.666+02:00,675853720.6658913,0,4.703125,101.3248,1,0.74
2022-06-02T11:08:42.303+02:00,1654160922.00024,53.22912066769875,10.39856500788329,37.13083,0.03524953,0.7171914,59.2043256124807,180,2.400000095367432,7.999579855010837,-9999,4006.439287416667,-0.0197601318359375,-0.255218505859375,-0.988616943359375,4006.429293416667,0.1057955045402803,-0.02389293302766468,0.2774571313424257,-0.1055013909935951,-0.0301312692463398,-0.185260146856308,0.00495634414255619,0.02435341477394104,-0.02507644891738892,XArbitraryZVertical,0.138706291940394,-0.004503880880242353,0.05071172260928559,0.9890240566622855,-0.0229769628494978,-0.2739109098911285,-0.9614805579185486,0,0,0,-1,-1,4004.803703375,unknown,2,2022-06-02T11:08:40.666+02:00,2022-06-02T10:17:13.754+02:00,757,1.541467,0,0,607.4087,0,0,2022-06-02T11:08:40.666+02:00,675853720.6658913,0,4.703125,101.3248,1,0.74
2022-06-02T11:08:42.312+02:00,1654160922.00024,53.22912066769875,10.39856500788329,37.13083,0.03524953,0.7171914,59.2043256124807,180,2.400000095367432,7.999579855010837,-9999,4006.449282416667,-0.015899658203125,-0.258880615234375,-0.9845123291015625,4006.439287416667,0.1037461414298789,-0.02340741606708624,0.2774181726692158,-0.08065856248140335,-0.03225234523415565,-0.188776433467865,0.003803130239248276,0.02089798450469971,-0.0264279842376709,XArbitraryZVertical,0.138670263741902,-0.004406933969551418,0.04973229334845425,0.9890793365420225,-0.02251039445400238,-0.2738734483718872,-0.9615022540092468,0,0,0,-1,-1,4004.803703375,unknown,2,2022-06-02T11:08:40.666+02:00,2022-06-02T10:17:13.754+02:00,757,1.541467,0,0,607.4087,0,0,2022-06-02T11:08:40.666+02:00,675853720.6658913,0,4.703125,101.3248,1,0.74
2022-06-02T11:08:42.322+02:00,1654160922.00024,53.22912066769875,10.39856500788329,37.13083,0.03524953,0.7171914,59.2043256124807,180,2.400000095367432,7.999579855010837,-9999,4006.459276416667,-0.0170745849609375,-0.2662811279296875,-0.9832916259765625,4006.449282416667,0.1023989107361544,-0.02542129456108217,0.2780456990026673,-0.08103007078170776,-0.03078600950539112,-0.1887130588293076,0.006482740864157677,0.01846498250961304,-0.02509087324142456,XArbitraryZVertical,0.1390268938570374,-0.005479863471933483,0.04892020565471392,0.9890643273507881,-0.02444232255220413,-0.2744769155979156,-0.9612829685211182,0,0,0,-1,-1,4004.803703375,unknown,2,2022-06-02T11:08:40.666+02:00,2022-06-02T10:17:13.754+02:00,757,1.541467,0,0,607.4087,0,0,2022-06-02T11:08:40.666+02:00,675853720.6658913,0,4.703125,101.3248,1,0.74
2022-06-02T11:08:42.332+02:00,1654160922.00024,53.22912066769875,10.39856500788329,37.13083,0.03524953,0.7171914,59.2043256124807,180,2.400000095367432,7.999579855010837,-9999,4006.469271416667,-0.0213165283203125,-0.2662200927734375,-0.9835357666015625,4006.459276416667,0.1006710016198615,-0.02622324068076301,0.279568279120083,-0.09361813217401505,-0.03349144756793976,-0.192307323217392,0.008493863046169281,0.01164323091506958,-0.02217274904251099,XArbitraryZVertical,0.1397941831643516,-0.005957264867323999,0.04799473821542007,0.9889987680461185,-0.02520222589373589,-0.2759407162666321,-0.9608442187309265,0,0,0,-1,-1,4004.803703375,unknown,2,2022-06-02T11:08:40.666+02:00,2022-06-02T10:17:13.754+02:00,757,1.541467,0,0,607.4087,0,0,2022-06-02T11:08:40.666+02:00,675853720.6658913,0,4.703125,101.3248,1,0.74
2022-06-02T11:08:42.342+02:00,1654160922.00024,53.22912066769875,10.39856500788329,37.13083,0.03524953,0.7171914,59.2043256124807,180,2.400000095367432,7.999579855010837,-9999,4006.479265416667,-0.022186279296875,-0.261474609375,-0.987762451171875,4006.469271416667,0.09852156396791902,-0.02539933257145993,0.2800418456704741,-0.1014475598931313,-0.02638879790902138,-0.1844874918460846,0.005242221057415009,0.009412825107574463,-0.02254247665405273,XArbitraryZVertical,0.1400024923400883,-0.005688094341676428,0.04698479501919871,0.9890194367111783,-0.02440724894404411,-0.276395857334137,-0.9607338905334473,0,0,0,-1,-1,4004.803703375,unknown,2,2022-06-02T11:08:40.666+02:00,2022-06-02T10:17:13.754+02:00,757,1.541467,0,0,607.4087,0,0,2022-06-02T11:08:40.666+02:00,675853720.6658913,0,4.703125,101.3248,1,0.74
2022-06-02T11:08:42.352+02:00,1654160922.00024,53.22912066769875,10.39856500788329,37.13083,0.03524953,0.7171914,59.2043256124807,180,2.400000095367432,7.999579855010837,-9999,4006.489259416667,-0.02618408203125,-0.2591400146484375,-0.9931640625,4006.479265416667,0.09664006905086994,-0.02536155396156714,0.2795307008583255,-0.1010744571685791,-0.01988082937896252,-0.1855884343385696,0.001883089542388916,0.01206487417221069,-0.02482658624649048,XArbitraryZVertical,0.1397434763090705,-0.005813790031086584,0.04606192938890349,0.9890987104694516,-0.02437453344464302,-0.2759045958518982,-0.960875928401947,0,0,0,-1,-1,4004.803703375,unknown,2,2022-06-02T11:08:40.666+02:00,2022-06-02T10:17:13.754+02:00,757,1.541467,0,0,607.4087,0,0,2022-06-02T11:08:40.666+02:00,675853720.6658913,0,4.703125,101.3248,1,0.74
2022-06-02T11:08:42.362+02:00,1654160922.00024,53.22912066769875,10.39856500788329,37.13083,0.03524953,0.7171914,59.2043256124807,180,2.400000095367432,7.999579855010837,-9999,4006.499254416667,-0.02545166015625,-0.25042724609375,-1.000518798828125,4006.489259416667,0.09476658138958324,-0.02518356320345572,0.2781683444421271,-0.114656575024128,-0.006139451637864113,-0.1798261553049088,0.0008212365210056305,0.01386791467666626,-0.02827733755111694,XArbitraryZVertical,0.1390602584149296,-0.005889801251828854,0.04516078321381186,0.9892360428608751,-0.02421294711530209,-0.2745948731899261,-0.9612551331520081,0,0,0,-1,-1,4004.803703375,unknown,2,2022-06-02T11:08:40.666+02:00,2022-06-02T10:17:13.754+02:00,757,1.541467,0,0,607.4087,0,0,2022-06-02T11:08:40.666+02:00,675853720.6658913,0,4.703125,101.3248,1,0.74
2022-06-02T11:08:42.372+02:00,1654160922.00024,53.22912066769875,10.39856500788329,37.13083,0.03524953,0.7171914,59.2043256124807,180,2.400000095367432,7.999579855010837,-9999,4006.509248416667,-0.022369384765625,-0.2481689453125,-1.0032958984375,4006.499254416667,0.09283745862283282,-0.02445629178284638,0.2761856375905289,-0.1088927909731865,0.008572183549404144,-0.1761755496263504,-0.002214450389146805,0.01737776398658752,-0.03624725341796875,XArbitraryZVertical,0.1380577807261599,-0.00571142260710828,0.04427549056935867,0.9894175611039719,-0.0235271155834198,-0.2726878225803375,-0.9618148803710938,0,0,0,-1,-1,4004.803703375,unknown,2,2022-06-02T11:08:40.666+02:00,2022-06-02T10:17:13.754+02:00,757,1.541467,0,0,607.4087,0,0,2022-06-02T11:08:40.666+02:00,675853720.6658913,0,4.703125,101.3248,1,0.74
2022-06-02T11:08:42.382+02:00,1654160922.00024,53.22912066769875,10.39856500788329,37.13083,0.03524953,0.7171914,59.2043256124807,180,2.400000095367432,7.999579855010837,-9999,4006.519242416667,-0.0187530517578125,-0.25140380859375,-1.003280639648438,4006.509248416667,0.09091954102054142,-0.023521008451481,0.2742482905297194,-0.1040208041667938,0.02935735695064068,-0.1740988194942474,-0.001880943775177002,0.02353945374488831,-0.03891897201538086,XArbitraryZVertical,0.1370735792527628,-0.005426260788171869,0.04340852546173694,0.9895943828333922,-0.0226399190723896,-0.2708233892917633,-0.9623627662658691,0,0,0,-1,-1,4004.803703375,unknown,2,2022-06-02T11:08:40.666+02:00,2022-06-02T10:17:13.754+02:00,757,1.541467,0,0,607.4087,0,0,2022-06-02T11:08:40.666+02:00,675853720.6658913,0,4.703125,101.3248,1,0.74
2022-06-02T11:08:42.392+02:00,1654160922.00024,53.22912066769875,10.39856500788329,37.13083,0.03524953,0.7171914,59.2043256124807,180,2.400000095367432,7.999579855010837,-9999,4006.529237416667,-0.01605224609375,-0.254547119140625,-1.001632690429688,4006.519242416667,0.08905638891986006,-0.02246994886701402,0.2724744867321189,-0.08734019845724106,0.03840284794569016,-0.1684042513370514,-0.0004555508494377136,0.01777264475822449,-0.04046159982681274,XArbitraryZVertical,0.1361684797830669,-0.005074334224711133,0.04257389388643765,0.9897574119386852,-0.02163916453719139,-0.2691154479980469,-0.9628648161888123,0,0,0,-1,-1,4004.803703375,unknown,2,2022-06-02T11:08:40.666+02:00,2022-06-02T10:17:13.754+02:00,757,1.541467,0,0,607.4087,0,0,2022-06-02T11:08:40.666+02:00,675853720.6658913,0,4.703125,101.3248,1,0.74
2022-06-02T11:08:42.403+02:00,1654160922.00024,53.22912066769875,10.39856500788329,37.13083,0.03524953,0.7171914,59.2043256124807,180,2.400000095367432,7.999579855010837,-9999,4006.539231416667,-0.014556884765625,-0.257568359375,-0.9941558837890625,4006.529237416667,0.08724147975938812,-0.02133531125149336,0.2708196577122938,-0.08977006375789642,0.04738728702068329,-0.1638150960206985,0.004870098084211349,0.01634636521339417,-0.0397496223449707,XArbitraryZVertical,0.1353212341146589,-0.004673309162731516,0.04176657906433989,0.9899099992484672,-0.0205561202019453,-0.2675213217735291,-0.9633326530456543,0,0,0,-1,-1,4004.803703375,unknown,2,2022-06-02T11:08:40.666+02:00,2022-06-02T10:17:13.754+02:00,757,1.541467,0,0,607.4087,0,0,2022-06-02T11:08:40.666+02:00,675853720.6658913,0,4.703125,101.3248,1,0.74
2022-06-02T11:08:42.412+02:00,1654160922.00024,53.22912066769875,10.39856500788329,37.13083,0.03524953,0.7171914,59.2043256124807,180,2.400000095367432,7.999579855010837,-9999,4006.549226416667,-0.0099639892578125,-0.2534637451171875,-0.9927215576171875,4006.539231416667,0.08545183161555146,-0.02009420118325547,0.2695249650827874,-0.09408991038799286,0.06487080454826355,-0.1647816896438599,0.003116847947239876,0.009941190481185913,-0.03231453895568848,XArbitraryZVertical,0.1346508049976934,-0.004208350605476562,0.0409748918726912,0.9900366180864263,-0.01936744712293148,-0.2662735879421234,-0.963702917098999,0,0,0,-1,-1,4004.803703375,unknown,2,2022-06-02T11:08:40.666+02:00,2022-06-02T10:17:13.754+02:00,757,1.541467,0,0,607.4087,0,0,2022-06-02T11:08:40.666+02:00,675853720.6658913,0,4.703125,101.3248,1,0.74
2022-06-02T11:08:42.422+02:00,1654160922.00024,53.22912066769875,10.39856500788329,37.13083,0.03524953,0.7171914,59.2043256124807,180,2.400000095367432,7.999579855010837,-9999,4006.559220416667,-0.00701904296875,-0.2501220703125,-0.9919281005859375,4006.549226416667,0.08370617556830995,-0.01892592003239734,0.2684663354664794,-0.09232343733310699,0.07265815138816833,-0.1677407324314117,0.005215886980295181,0.008630692958831787,-0.02911210060119629,XArbitraryZVertical,0.1340996099693551,-0.003770150751392753,0.04019732123330659,0.9901450209864112,-0.01824688166379929,-0.2652530372142792,-0.9640061855316162,0,0,0,-1,-1,4004.803703375,unknown,2,2022-06-02T11:08:40.666+02:00,2022-06-02T10:17:13.754+02:00,757,1.541467,0,0,607.4087,0,0,2022-06-02T11:08:40.666+02:00,675853720.6658913,0,4.703125,101.3248,1,0.74
2022-06-02T11:08:42.432+02:00,1654160922.00024,53.22912066769875,10.39856500788329,37.13083,0.03524953,0.7171914,59.2043256124807,180,2.400000095367432,7.999579855010837,-9999,4006.569214416667,-0.0055084228515625,-0.25457763671875,-0.9920654296875,4006.559220416667,0.08200117028244315,-0.01777333054419793,0.267439584015689,-0.08389287441968918,0.08131249994039536,-0.1615796536207199,0.00880931131541729,0.01285907626152039,-0.02608859539031982,XArbitraryZVertical,0.1335653364561414,-0.003335296753784309,0.03943780415129633,0.9902493837343628,-0.01714059896767139,-0.2642629146575928,-0.9642983675003052,0,0,0,-1,-1,4004.803703375,unknown,2,2022-06-02T11:08:40.666+02:00,2022-06-02T10:17:13.754+02:00,757,1.541467,0,0,607.4087,0,0,2022-06-02T11:08:40.666+02:00,675853720.6658913,0,4.703125,101.3248,1,0.74
2022-06-02T11:08:42.442+02:00,1654160922.00024,53.22912066769875,10.39856500788329,37.13083,0.03524953,0.7171914,59.2043256124807,180,2.400000095367432,7.999579855010837,-9999,4006.579209416667,0.003204345703125,-0.2595062255859375,-0.9886016845703125,4006.569214416667,0.08036409906442478,-0.01658848638361956,0.2664463291090028,-0.07816441357135773,0.09076085686683655,-0.1576597392559052,0.008708702400326729,0.01316753029823303,-0.0280652642250061,XArbitraryZVertical,0.1330478887682323,-0.002878277755320829,0.03871309150773217,0.9903490074139577,-0.01600238867104053,-0.2633048295974731,-0.9645799398422241,0,0,0,-1,-1,4004.803703375,unknown,2,2022-06-02T11:08:40.666+02:00,2022-06-02T10:17:13.754+02:00,757,1.541467,0,0,607.4087,0,0,2022-06-02T11:08:40.666+02:00,675853720.6658913,0,4.703125,101.3248,1,0.74
2022-06-02T11:08:42.452+02:00,1654160922.00024,53.22912066769875,10.39856500788329,37.13083,0.03524953,0.7171914,59.2043256124807,180,2.400000095367432,7.999579855010837,-9999,4006.589203416667,0.008270263671875,-0.260772705078125,-0.9873046875,4006.579209416667,0.07880374726850238,-0.01538300550430044,0.2653590086538749,-0.07438138872385025,0.09557612240314484,-0.1525115817785263,0.01319605391472578,0.004183828830718994,-0.02571630477905273,XArbitraryZVertical,0.1324842996922797,-0.002406915837869901,0.03802759741899552,0.9904524041183848,-0.01484399009495974,-0.2622557282447815,-0.9648842215538025,0,0,0,-1,-1,4004.803703375,unknown,2,2022-06-02T11:08:40.666+02:00,2022-06-02T10:17:13.754+02:00,757,1.541467,0,0,607.4087,0,0,2022-06-02T11:08:40.666+02:00,675853720.6658913,0,4.703125,101.3248,1,0.74
2022-06-02T11:08:42.462+02:00,1654160922.00024,53.22912066769875,10.39856500788329,37.13083,0.03524953,0.7171914,59.2043256124807,180,2.400000095367432,7.999579855010837,-9999,4006.599198416667,0.009307861328125,-0.2590179443359375,-0.9836883544921875,4006.589203416667,0.07726703397425531,-0.01417257072542111,0.2641460119766113,-0.06990008801221848,0.09409646689891815,-0.1492353677749634,0.02008925192058086,0.001136243343353271,-0.02210104465484619,XArbitraryZVertical,0.1318591323218697,-0.001933039590093424,0.03735408988952919,0.990562445608299,-0.01368054840713739,-0.2610850036144257,-0.9652188420295715,0,0,0,-1,-1,4004.803703375,unknown,2,2022-06-02T11:08:40.666+02:00,2022-06-02T10:17:13.754+02:00,757,1.541467,0,0,607.4087,0,0,2022-06-02T11:08:40.666+02:00,675853720.6658913,0,4.703125,101.3248,1,0.74
2022-06-02T11:08:42.472+02:00,1654160922.00024,53.22912066769875,10.39856500788329,37.13083,0.03524953,0.7171914,59.2043256124807,180,2.400000095367432,7.999579855010837,-9999,4006.609192416667,0.01275634765625,-0.2530517578125,-0.9781036376953125,4006.599198416667,0.07576176354658404,-0.01293933544439342,0.2630276971292509,-0.07736965268850327,0.0952521488070488,-0.14651720225811,0.02035225369036198,-0.0006911158561706543,-0.02098488807678223,XArbitraryZVertical,0.1312811598677055,-0.001442932311626608,0.03669621208539548,0.9906646384956789,-0.01249396614730358,-0.2600052952766418,-0.9655263423919678,0,0,0,-1,-1,4004.803703375,unknown,2,2022-06-02T11:08:40.666+02:00,2022-06-02T10:17:13.754+02:00,757,1.541467,0,0,607.4087,0,0,2022-06-02T11:08:40.666+02:00,675853720.6658913,0,4.703125,101.3248,1,0.74
2022-06-02T11:08:42.482+02:00,1654160922.00024,53.22912066769875,10.39856500788329,37.13083,0.03524953,0.7171914,59.2043256124807,180,2.400000095367432,7.999579855010837,-9999,4006.619186416667,0.01348876953125,-0.2479095458984375,-0.9757080078125,4006.609192416667,0.07427238965919636,-0.01161801165657314,0.2619122007792641,-0.07172082364559174,0.0917772576212883,-0.1408566534519196,0.02211633324623108,0.002381950616836548,-0.0151408314704895,XArbitraryZVertical,0.1307037101643632,-0.0009071363397788901,0.03605110829017597,0.9907653678748134,-0.01122154574841261,-0.2589280009269714,-0.965831458568573,0,0,0,-1,-1,4004.803703375,unknown,2,2022-06-02T11:08:40.666+02:00,2022-06-02T10:17:13.754+02:00,757,1.541467,0,0,607.4087,0,0,2022-06-02T11:08:40.666+02:00,675853720.6658913,0,4.703125,101.3248,1,0.74
2022-06-02T11:08:42.492+02:00,1654160922.00024,53.22912066769875,10.39856500788329,37.13083,0.03524953,0.7171914,59.2043256124807,180,2.400000095367432,7.999579855010837,-9999,4006.629181416667,0.0095977783203125,-0.2461700439453125,-0.97064208984375,4006.619186416667,0.07286334018766399,-0.0104375659118176,0.2610017529762027,-0.06531386077404022,0.08937974274158478,-0.136618360877037,0.02432034537196159,0.008445233106613159,-0.01110875606536865,XArbitraryZVertical,0.1302311407171021,-0.0004311804502771517,0.03543473728169821,0.9908500489459195,-0.01008388306945562,-0.2580485045909882,-0.9660793542861938,0,0,0,-1,-1,4004.803703375,unknown,2,2022-06-02T11:08:40.666+02:00,2022-06-02T10:17:13.754+02:00,757,1.541467,0,0,607.4087,0,0,2022-06-02T11:08:40.666+02:00,675853720.6658913,0,4.703125,101.3248,1,0.74
2022-06-02T11:08:42.502+02:00,1654160922.00024,53.22912066769875,10.39856500788329,37.13083,0.03524953,0.7171914,59.2043256124807,180,2.400000095367432,7.999579855010837,-9999,4006.639175416667,0.01287841796875,-0.247802734375,-0.967315673828125,4006.629181416667,0.07152867800077371,-0.00927442642698134,0.2601766055838413,-0.06399932503700256,0.08874564617872238,-0.1257731765508652,0.02034523338079453,0.01179835200309753,-0.007390797138214111,XArbitraryZVertical,0.1298017587937363,4.329776000659035e-05,0.03485304442078663,0.9909272494517688,-0.008962162770330906,-0.2572512030601501,-0.9663029909133911,0,0,0,-1,-1,4004.803703375,unknown,2,2022-06-02T11:08:40.666+02:00,2022-06-02T10:17:13.754+02:00,757,1.541467,0,0,607.4087,0,0,2022-06-02T11:08:40.666+02:00,675853720.6658913,0,4.703125,101.3248,1,0.74
2022-06-02T11:08:42.512+02:00,1654160922.00024,53.22912066769875,10.39856500788329,37.13083,0.03524953,0.7171914,59.2043256124807,180,2.400000095367432,7.999579855010837,-9999,4006.649170416667,0.0173492431640625,-0.2465057373046875,-0.966094970703125,4006.639175416667,0.07025132552662118,-0.007979922004527957,0.2592466547620362,-0.06262626498937607,0.09350831806659698,-0.1148639395833015,0.01766191981732845,0.009785681962966919,-0.002761960029602051,XArbitraryZVertical,0.1293188261863688,0.0005853593271493721,0.0343081176209053,0.9910091829938128,-0.007713178172707558,-0.2563524544239044,-0.9665526151657104,0,0,0,-1,-1,4004.803703375,unknown,2,2022-06-02T11:08:40.666+02:00,2022-06-02T10:17:13.754+02:00,757,1.541467,0,0,607.4087,0,0,2022-06-02T11:08:40.666+02:00,675853720.6658913,0,4.703125,101.3248,1,0.74
2022-06-02T11:08:42.522+02:00,1654160922.00024,53.22912066769875,10.39856500788329,37.13083,0.03524953,0.7171914,59.2043256124807,180,2.400000095367432,7.999579855010837,-9999,4006.659164416667,0.0166168212890625,-0.2449188232421875,-0.9677886962890625,4006.649170416667,0.06909872881587917,-0.006761340939682092,0.2583004615325142,-0.05545596778392792,0.08451934158802032,-0.1062970757484436,0.02129224687814713,0.008260637521743774,0.000937342643737793,XArbitraryZVertical,0.1288297104219736,0.001098245903678168,0.03381947530249083,0.9910892426285204,-0.006536987144500017,-0.2554377615451813,-0.9668033719062805,0,0,0,-1,-1,4004.803703375,unknown,2,2022-06-02T11:08:40.666+02:00,2022-06-02T10:17:13.754+02:00,757,1.541467,0,0,607.4087,0,0,2022-06-02T11:08:40.666+02:00,675853720.6658913,0,4.703125,101.3248,1,0.74
2022-06-02T11:08:42.532+02:00,1654160922.00024,53.22912066769875,10.39856500788329,37.13083,0.03524953,0.7171914,59.2043256124807,180,2.400000095367432,7.999579855010837,-9999,4006.669158416667,0.0143280029296875,-0.2548370361328125,-0.968170166015625,4006.659164416667,0.06797339103509491,-0.005513878537155009,0.2576661301060006,-0.04814792051911354,0.07990927994251251,-0.09991041570901871,0.02379496954381466,0.008990049362182617,-0.001289069652557373,XArbitraryZVertical,0.128495197473274,0.001633142343668066,0.0333444181306112,0.9911479882449276,-0.005331823602318764,-0.2548244297504425,-0.9669726490974426,0,0,0,-1,-1,4004.803703375,unknown,2,2022-06-02T11:08:40.666+02:00,2022-06-02T10:17:13.754+02:00,757,1.541467,0,0,607.4087,0,0,2022-06-02T11:08:40.666+02:00,675853720.6658913,0,4.703125,101.3248,1,0.74
2022-06-02T11:08:42.542+02:00,1654160922.00024,53.22912066769875,10.39856500788329,37.13083,0.03524953,0.7171914,59.2043256124807,180,2.400000095367432,7.999579855010837,-9999,4006.679153416667,0.016021728515625,-0.259765625,-0.9661712646484375,4006.669158416667,0.0668333535540486,-0.004048639791686087,0.2571370100406485,-0.05165157467126846,0.07798594236373901,-0.09855300188064575,0.01995251700282097,0.005304574966430664,-0.001529037952423096,XArbitraryZVertical,0.1282098298800579,0.002277209916972946,0.03287523355251949,0.991199387296832,-0.003915518056601286,-0.2543127238750458,-0.9671140909194946,0,0,0,-1,-1,4004.803703375,unknown,2,2022-06-02T11:08:40.666+02:00,2022-06-02T10:17:13.754+02:00,757,1.541467,0,0,607.4087,0,0,2022-06-02T11:08:40.666+02:00,675853720.6658913,0,4.703125,101.3248,1,0.74
2022-06-02T11:08:42.553+02:00,1654160922.00024,53.22912066769875,10.39856500788329,37.13083,0.03524953,0.7171914,59.2043256124807,180,2.400000095367432,7.999579855010837,-9999,4006.689147416667,0.016571044921875,-0.2545318603515625,-0.966583251953125,4006.679153416667,0.06570852321567452,-0.00256567254456492,0.2565873606834266,-0.05966156721115112,0.07345377653837204,-0.09461339563131332,0.01764892227947712,-0.00477910041809082,-8.767843246459961e-05,XArbitraryZVertical,0.127914676690148,0.002931074908162558,0.03241432529491821,0.9912510033927865,-0.002481674076989293,-0.2537811100482941,-0.9672585129737854,0,0,0,-1,-1,4004.803703375,unknown,2,2022-06-02T11:08:40.666+02:00,2022-06-02T10:17:13.754+02:00,757,1.541467,0,0,607.4087,0,0,2022-06-02T11:08:40.666+02:00,675853720.6658913,0,4.703125,101.3248,1,0.74
2022-06-02T11:08:42.562+02:00,1654160922.00024,53.22912066769875,10.39856500788329,37.13083,0.03524953,0.7171914,59.2043256124807,180,2.400000095367432,7.999579855010837,-9999,4006.699141416667,0.0097808837890625,-0.2613525390625,-0.9730224609375,4006.689147416667,0.06457716428442878,-0.001015138702253827,0.2558890784271706,-0.06481344997882843,0.06371220201253891,-0.09162026643753052,0.01651554182171822,-0.003745585680007935,0.001678884029388428,XArbitraryZVertical,0.1275454885431511,0.003616012008779075,0.03195436680024059,0.9913112001342032,-0.0009820841951295733,-0.253105640411377,-0.9674381613731384,0,0,0,-1,-1,4004.803703375,unknown,2,2022-06-02T11:08:40.666+02:00,2022-06-02T10:17:13.754+02:00,757,1.541467,0,0,607.4087,0,0,2022-06-02T11:08:40.666+02:00,675853720.6658913,0,4.703125,101.3248,1,0.74
2022-06-02T11:08:42.572+02:00,1654160922.00024,53.22912066769875,10.39856500788329,37.13083,0.03524953,0.7171914,59.2043256124807,180,2.400000095367432,7.999579855010837,-9999,4006.709136416667,0.00848388671875,-0.2600250244140625,-0.974151611328125,4006.699141416667,0.06345220600405797,0.0006571304824830489,0.2548805594976351,-0.06943842768669128,0.06364428997039795,-0.08865377306938171,0.01323434989899397,-0.005820006132125854,-0.002689480781555176,XArbitraryZVertical,0.1270213014582712,0.004357308663942186,0.03150527811547067,0.9913899059103057,0.0006359007675200701,-0.2521298229694366,-0.9676932096481323,0,0,0,-1,-1,4004.803703375,unknown,2,2022-06-02T11:08:40.666+02:00,2022-06-02T10:17:13.754+02:00,757,1.541467,0,0,607.4087,0,0,2022-06-02T11:08:40.666+02:00,675853720.6658913,0,4.703125,101.3248,1,0.74
2022-06-02T11:08:42.582+02:00,1654160922.00024,53.22912066769875,10.39856500788329,37.13083,0.03524953,0.7171914,59.2043256124807,180,2.400000095367432,7.999579855010837,-9999,4006.719130416667,0.0097503662109375,-0.2533721923828125,-0.970794677734375,4006.709136416667,0.06237629712291982,0.002065069385401046,0.2537362905079892,-0.07411413639783859,0.05740343779325485,-0.09096086770296097,0.007430995348840952,-0.01153564453125,-0.005912959575653076,XArbitraryZVertical,0.1264345503939303,0.00496927329076098,0.03106304067658078,0.991475984994003,0.001998947001993656,-0.2510223686695099,-0.9679791927337646,0,0,0,-1,-1,4004.803703375,unknown,2,2022-06-02T11:08:40.666+02:00,2022-06-02T10:17:13.754+02:00,757,1.541467,0,0,607.4087,0,0,2022-06-02T11:08:40.666+02:00,675853720.6658913,0,4.703125,101.3248,1,0.74
2022-06-02T11:08:42.592+02:00,1654160922.00024,53.22912066769875,10.39856500788329,37.13083,0.03524953,0.7171914,59.2043256124807,180,2.400000095367432,7.999579855010837,-9999,4006.729125416667,0.01031494140625,-0.2483978271484375,-0.96795654296875,4006.719130416667,0.06136056358303169,0.003244278510005096,0.2527505857406335,-0.07202542573213577,0.05352400988340378,-0.08681246638298035,0.004732348956167698,-0.006996750831604004,-0.005150258541107178,XArbitraryZVertical,0.125930343935297,0.005474751922277943,0.03063515929983463,0.9915507616840075,0.003141196677461267,-0.2500680983066559,-0.9682231545448303,0,0,0,-1,-1,4004.803703375,unknown,2,2022-06-02T11:08:40.666+02:00,2022-06-02T10:17:13.754+02:00,757,1.541467,0,0,607.4087,0,0,2022-06-02T11:08:40.666+02:00,675853720.6658913,0,4.703125,101.3248,1,0.74
2022-06-02T11:08:42.602+02:00,1654160922.00024,53.22912066769875,10.39856500788329,37.13083,0.03524953,0.7171914,59.2043256124807,180,2.400000095367432,7.999579855010837,-9999,4006.739119416667,0.01239013671875,-0.244873046875,-0.9694976806640625,4006.729125416667,0.06031699554874447,0.004559157086937588,0.2519287812215405,-0.06710203737020493,0.05081957206130028,-0.08822287619113922,0.005472481716424227,-0.0001783818006515503,-0.001013278961181641,XArbitraryZVertical,0.125505905469622,0.006048762812616328,0.03020119773106575,0.9916145271797493,0.004415224771946669,-0.2492723166942596,-0.9684233665466309,0,0,0,-1,-1,4004.803703375,unknown,2,2022-06-02T11:08:40.666+02:00,2022-06-02T10:17:13.754+02:00,757,1.541467,0,0,607.4087,0,0,2022-06-02T11:08:40.666+02:00,675853720.6658913,0,4.703125,101.3248,1,0.74
2022-06-02T11:08:42.612+02:00,1654160922.00024,53.22912066769875,10.39856500788329,37.13083,0.03524953,0.7171914,59.2043256124807,180,2.400000095367432,7.999579855010837,-9999,4006.749113416667,0.0139617919921875,-0.24188232421875,-0.970550537109375,4006.739119416667,0.05926512654552348,0.005934495911956276,0.2511212968227671,-0.05772135034203529,0.04842985048890114,-0.08387333154678345,0.005100686103105545,0.0006569921970367432,-0.001139700412750244,XArbitraryZVertical,0.1250882436275667,0.006652948460729621,0.02976628190668445,0.9916766262041733,0.005748323164880276,-0.2484902441501617,-0.96861732006073,0,0,0,-1,-1,4004.803703375,unknown,2,2022-06-02T11:08:40.666+02:00,2022-06-02T10:17:13.754+02:00,757,1.541467,0,0,607.4087,0,0,2022-06-02T11:08:40.666+02:00,675853720.6658913,0,4.703125,101.3248,1,0.74
2022-06-02T11:08:42.622+02:00,1654160922.00024,53.22912066769875,10.39856500788329,37.13083,0.03524953,0.7171914,59.2043256124807,180,2.400000095367432,7.999579855010837,-9999,4006.759108416667,0.018768310546875,-0.242919921875,-0.966949462890625,4006.749113416667,0.05831443145563495,0.007097509892618034,0.2506170778005584,-0.04178952425718307,0.04738323017954826,-0.08152441680431366,0.005377095658332109,0.005432814359664917,-0.001845896244049072,XArbitraryZVertical,0.1248243148717436,0.007162981581873814,0.02936765708669033,0.9917181870359214,0.006875722669064999,-0.2480018138885498,-0.9687351584434509,0,0,0,-1,-1,4004.803703375,unknown,2,2022-06-02T11:08:40.666+02:00,2022-06-02T10:17:13.754+02:00,757,1.541467,0,0,607.4087,0,0,2022-06-02T11:08:40.666+02:00,675853720.6658913,0,4.703125,101.3248,1,0.74
2022-06-02T11:08:42.632+02:00,1654160922.00024,53.22912066769875,10.39856500788329,37.13083,0.03524953,0.7171914,59.2043256124807,180,2.400000095367432,7.999579855010837,-9999,4006.769102416667,0.0185699462890625,-0.2444305419921875,-0.9710540771484375,4006.759108416667,0.05738712045751509,0.008094956875193573,0.2506834763330428,-0.02897559106349945,0.04402045533061028,-0.08000615239143372,0.008774983696639538,0.005741283297538757,0.0002207756042480469,XArbitraryZVertical,0.124846110051148,0.00760063194428326,0.02897010203085692,0.9917239225898485,0.007841847836971283,-0.2480661273002625,-0.9687113761901855,0,0,0,-1,-1,4004.803703375,unknown,2,2022-06-02T11:08:40.666+02:00,2022-06-02T10:17:13.754+02:00,757,1.541467,0,0,607.4087,0,0,2022-06-02T11:08:40.666+02:00,675853720.6658913,0,4.703125,101.3248,1,0.74
2022-06-02T11:08:42.642+02:00,1654160922.00024,53.22912066769875,10.39856500788329,37.13083,0.03524953,0.7171914,59.2043256124807,180,2.400000095367432,7.999579855010837,-9999,4006.779097416667,0.0175628662109375,-0.2490234375,-0.9716644287109375,4006.769102416667,0.05649170372923223,0.009003455989188561,0.2508036416385514,-0.01957117021083832,0.03602511063218117,-0.07943809777498245,0.009909342974424362,0.004179224371910095,0.000412285327911377,XArbitraryZVertical,0.1248961083921485,0.007996880422607463,0.02858285986625879,0.9917258167982944,0.008721649646759033,-0.2481825351715088,-0.9686740040779114,0,0,0,-1,-1,4004.803703375,unknown,2,2022-06-02T11:08:40.666+02:00,2022-06-02T10:17:13.754+02:00,757,1.541467,0,0,607.4087,0,0,2022-06-02T11:08:40.666+02:00,675853720.6658913,0,4.703125,101.3248,1,0.74
2022-06-02T11:08:42.652+02:00,1654160922.00024,53.22912066769875,10.39856500788329,37.13083,0.03524953,0.7171914,59.2043256124807,180,2.400000095367432,7.999579855010837,-9999,4006.789091416667,0.0168609619140625,-0.25274658203125,-0.97705078125,4006.779097416667,0.05563959840994456,0.009743974522412742,0.2509463968222967,-0.01684159785509109,0.03567696735262871,-0.07661455124616623,0.009955307468771935,0.001265749335289001,-0.001781344413757324,XArbitraryZVertical,0.124959866866029,0.008312794296033616,0.02820667156856208,0.9917258943126843,0.009438622742891312,-0.2483208179473877,-0.9686318635940552,0,0,0,-1,-1,4004.803703375,unknown,2,2022-06-02T11:08:40.666+02:00,2022-06-02T10:17:13.754+02:00,757,1.541467,0,0,607.4087,0,0,2022-06-02T11:08:40.666+02:00,675853720.6658913,0,4.703125,101.3248,1,0.74
2022-06-02T11:08:42.662+02:00,1654160922.00024,53.22912066769875,10.39856500788329,37.13083,0.03524953,0.7171914,59.2043256124807,180,2.400000095367432,7.999579855010837,-9999,4006.799084916667,0.017547607421875,-0.2558135986328125,-0.97735595703125,4006.789091416667,0.05486309685708411,0.01026681983515901,0.2512582373094006,-0.01489056553691626,0.03399251773953438,-0.07436684519052505,0.005665481090545654,-0.002536803483963013,-0.00613635778427124,XArbitraryZVertical,0.1251104473895686,0.00852768333907364,0.02785455764367448,0.99171500196259,0.009944270364940166,-0.2486228793859482,-0.9685493111610413,0,0,0,-1,-1,4004.803703375,unknown,2,2022-06-02T11:08:40.666+02:00,2022-06-02T10:17:13.754+02:00,757,1.541467,0,0,607.4087,0,0,2022-06-02T11:08:40.666+02:00,675853720.6658913,0,4.703125,101.3248,1,0.74
2022-06-02T11:08:42.672+02:00,1654160922.00024,53.22912066769875,10.39856500788329,37.13083,0.03524953,0.7171914,59.2043256124807,180,2.400000095367432,7.999579855010837,-9999,4006.809079916667,0.0126495361328125,-0.2592010498046875,-0.9769439697265625,4006.799084916667,0.05415901739444542,0.01066584612723952,0.2512979874239579,-0.02592457458376884,0.02926807291805744,-0.06516562402248383,0.007491634227335453,-0.004787102341651917,-0.009079933166503906,XArbitraryZVertical,0.125127662005288,0.008682021456876261,0.02753043153114621,0.9917205478718605,0.01033064071089029,-0.2486613839864731,-0.9685353636741638,0,0,0,-1,-1,4004.803703375,unknown,2,2022-06-02T11:08:40.666+02:00,2022-06-02T10:17:13.754+02:00,757,1.541467,0,0,607.4087,0,0,2022-06-02T11:08:40.666+02:00,675853720.6658913,0,4.703125,101.3248,1,0.74
2022-06-02T11:08:42.682+02:00,1654160922.00024,53.22912066769875,10.39856500788329,37.13083,0.03524953,0.7171914,59.2043256124807,180,2.400000095367432,7.999579855010837,-9999,4006.819073916667,0.0151824951171875,-0.25689697265625,-0.976409912109375,4006.809079916667,0.05351817553025009,0.01109289923105875,0.2509729375311793,-0.03974931314587593,0.02889656275510788,-0.06164439022541046,0.004391576163470745,-0.01027469336986542,-0.008896887302398682,XArbitraryZVertical,0.1249634353846921,0.008849486453272232,0.02723903058579915,0.9917478246365667,0.010745151899755,-0.2483465373516083,-0.9686116576194763,0,0,0,-1,-1,4004.803703375,unknown,2,2022-06-02T11:08:40.666+02:00,2022-06-02T10:17:13.754+02:00,757,1.541467,0,0,607.4087,0,0,2022-06-02T11:08:40.666+02:00,675853720.6658913,0,4.703125,101.3248,1,0.74
2022-06-02T11:08:42.692+02:00,1654160922.00024,53.22912066769875,10.39856500788329,37.13083,0.03524953,0.7171914,59.2043256124807,180,2.400000095367432,7.999579855010837,-9999,4006.829068916667,0.0156707763671875,-0.25555419921875,-0.9781646728515625,4006.819073916667,0.0529223446652667,0.01151864055308954,0.2505046201044816,-0.04673661291599274,0.0292377807199955,-0.056990846991539,0.002192582003772259,-0.0116591602563858,-0.00800710916519165,XArbitraryZVertical,0.1247280841434041,0.009017394536175085,0.02696960968837869,0.9917833297072604,0.01115886773914099,-0.2478928565979004,-0.9687231779098511,0,0,0,-1,-1,4004.803703375,unknown,2,2022-06-02T11:08:40.666+02:00,2022-06-02T10:17:13.754+02:00,757,1.541467,0,0,607.4087,0,0,2022-06-02T11:08:40.666+02:00,675853720.6658913,0,4.703125,101.3248,1,0.74
2022-06-02T11:08:42.702+02:00,1654160922.00024,53.22912066769875,10.39856500788329,37.13083,0.03524953,0.7171914,59.2043256124807,180,2.400000095367432,7.999579855010837,-9999,4006.839062916667,0.0137481689453125,-0.25628662109375,-0.97589111328125,4006.829068916667,0.05237507622329489,0.01193184549998529,0.2498059323415105,-0.0539332702755928,0.02297855354845524,-0.04991030320525169,0.003194047138094902,-0.008384078741073608,-0.008342444896697998,XArbitraryZVertical,0.124378523039948,0.009179353568193074,0.02672306387593436,0.9918324848137817,0.01156121212989092,-0.2472159266471863,-0.968891441822052,0,0,0,-1,-1,4004.803703375,unknown,2,2022-06-02T11:08:40.666+02:00,2022-06-02T10:17:13.754+02:00,757,1.541467,0,0,607.4087,0,0,2022-06-02T11:08:40.666+02:00,675853720.6658913,0,4.703125,101.3248,1,0.74
2022-06-02T11:08:42.712+02:00,1654160922.00024,53.22912066769875,10.39856500788329,37.13083,0.03524953,0.7171914,59.2043256124807,180,2.400000095367432,7.999579855010837,-9999,4006.849056916667,0.0151824951171875,-0.2517547607421875,-0.975799560546875,4006.839062916667,0.05181418545221902,0.01245797079339907,0.2490464915602253,-0.06625934690237045,0.02173931710422039,-0.04995045065879822,0.002849802374839783,-0.01037123799324036,-0.007444024085998535,XArbitraryZVertical,0.1239974985478473,0.009395923437325543,0.02647650728947821,0.9918846797953044,0.01207330357283354,-0.2464799880981445,-0.969072699546814,0,0,0,-1,-1,4004.803703375,unknown,2,2022-06-02T11:08:40.666+02:00,2022-06-02T10:17:13.754+02:00,757,1.541467,0,0,607.4087,0,0,2022-06-02T11:08:40.666+02:00,675853720.6658913,0,4.703125,101.3248,1,0.74
2022-06-02T11:08:42.722+02:00,1654160922.00024,53.22912066769875,10.39856500788329,37.13083,0.03524953,0.7171914,59.2043256124807,180,2.400000095367432,7.999579855010837,-9999,4006.859051916667,0.016448974609375,-0.2427825927734375,-0.9779052734375,4006.849056916667,0.05124901830654555,0.01304137652454605,0.2483109644668617,-0.06592778116464615,0.0241372287273407,-0.05043567717075348,0.002266822382807732,-0.009497225284576416,-0.006415724754333496,XArbitraryZVertical,0.1236276876661385,0.009641167050855572,0.02623117356429152,0.9919350834728539,0.01264102477580309,-0.2457670867443085,-0.969246506690979,0,0,0,-1,-1,4004.803703375,unknown,2,2022-06-02T11:08:40.666+02:00,2022-06-02T10:17:13.754+02:00,757,1.541467,0,0,607.4087,0,0,2022-06-02T11:08:40.666+02:00,675853720.6658913,0,4.703125,101.3248,1,0.74
2022-06-02T11:08:42.732+02:00,1654160922.00024,53.22912066769875,10.39856500788329,37.13083,0.03524953,0.7171914,59.2043256124807,180,2.400000095367432,7.999579855010837,-9999,4006.869045916667,0.0167999267578125,-0.240966796875,-0.9780120849609375,4006.859051916667,0.05065513837289171,0.01362091898079274,0.2477483338048291,-0.05470125749707222,0.02107159607112408,-0.05350916460156441,0.001520117744803429,-0.002031773328781128,-0.006376683712005615,XArbitraryZVertical,0.1233439720100136,0.009885061878441567,0.02597143426565944,0.9919747358780111,0.01320462394505739,-0.2452216595411301,-0.9693771004676819,0,0,0,-1,-1,4004.803703375,unknown,2,2022-06-02T11:08:40.666+02:00,2022-06-02T10:17:13.754+02:00,757,1.541467,0,0,607.4087,0,0,2022-06-02T11:08:40.666+02:00,675853720.6658913,0,4.703125,101.3248,1,0.74
2022-06-02T11:08:42.742+02:00,1654160922.00024,53.22912066769875,10.39856500788329,37.13083,0.03524953,0.7171914,59.2043256124807,180,2.400000095367432,7.999579855010837,-9999,4006.879039916667,0.013519287109375,-0.2471771240234375,-0.9746856689453125,4006.869045916667,0.0500878873164908,0.01405430803186569,0.247409584036752,-0.04286084696650505,0.02585037238895893,-0.05590867251157761,0.003326619043946266,0.005192920565605164,-0.008847713470458984,XArbitraryZVertical,0.1231731744940782,0.01006097285938528,0.0257161545676241,0.9920008464644502,0.01362590678036213,-0.2448932528495789,-0.969454288482666,0,0,0,-1,-1,4004.803703375,unknown,2,2022-06-02T11:08:40.666+02:00,2022-06-02T10:17:13.754+02:00,757,1.541467,0,0,607.4087,0,0,2022-06-02T11:08:40.666+02:00,675853720.6658913,0,4.703125,101.3248,1,0.74
2022-06-02T11:08:42.754+02:00,1654160922.00024,53.22912066769875,10.39856500788329,37.13083,0.03524953,0.7171914,59.2043256124807,180,2.400000095367432,7.999579855010837,-9999,4006.889034916667,0.013031005859375,-0.251739501953125,-0.9751129150390625,4006.879039916667,0.04948502273247207,0.01459927661559531,0.247183761586663,-0.04324923828244209,0.03128062561154366,-0.05534494668245316,0.0009359186515212059,0.0008235722780227661,-0.005107343196868896,XArbitraryZVertical,0.1230572437932567,0.01029147829397773,0.02545021886679446,0.9920198319899634,0.01415503397583961,-0.2446742951869965,-0.9695019721984863,0,0,0,-1,-1,4004.803703375,unknown,2,2022-06-02T11:08:40.666+02:00,2022-06-02T10:17:13.754+02:00,757,1.541467,0,0,607.4087,0,0,2022-06-02T11:08:40.666+02:00,675853720.6658913,0,4.703125,101.3248,1,0.74
2022-06-02T11:08:42.762+02:00,1654160922.00024,53.22912066769875,10.39856500788329,37.13083,0.03524953,0.7171914,59.2043256124807,180,2.400000095367432,7.999579855010837,-9999,4006.899028916667,0.01416015625,-0.254669189453125,-0.9719696044921875,4006.889034916667,0.04891665358984193,0.01508134769199311,0.2470739039932895,-0.0496610626578331,0.03460265323519707,-0.05802461877465248,-0.002873528748750687,-0.004516720771789551,-0.006216585636138916,XArbitraryZVertical,0.1229996109681173,0.01049433981308749,0.02519771931750538,0.9920312129977712,0.01462280564010143,-0.2445677667856216,-0.9695219397544861,0,0,0,-1,-1,4004.803703375,unknown,2,2022-06-02T11:08:40.666+02:00,2022-06-02T10:17:13.754+02:00,757,1.541467,0,0,607.4087,0,0,2022-06-02T11:08:40.666+02:00,675853720.6658913,0,4.703125,101.3248,1,0.74
2022-06-02T11:08:42.772+02:00,1654160922.00024,53.22912066769875,10.39856500788329,37.13083,0.03524953,0.7171914,59.2043256124807,180,2.400000095367432,7.999579855010837,-9999,4006.909023916667,0.0129547119140625,-0.2568817138671875,-0.967376708984375,4006.899028916667,0.04832614919144766,0.01553690087841667,0.2468955699817098,-0.06683072447776794,0.03942883014678955,-0.06286332011222839,-0.001820512115955353,-0.009358838200569153,-0.004119813442230225,XArbitraryZVertical,0.122908564358527,0.0106819334946235,0.02493241294101766,0.9920472166556362,0.0150651503354311,-0.2443948537111282,-0.9695587754249573,0,0,0,-1,-1,4004.803703375,unknown,2,2022-06-02T11:08:40.666+02:00,2022-06-02T10:17:13.754+02:00,757,1.541467,0,0,607.4087,0,0,2022-06-02T11:08:40.666+02:00,675853720.6658913,0,4.703125,101.3248,1,0.74
2022-06-02T11:08:42.782+02:00,1654160922.00024,53.22912066769875,10.39856500788329,37.13083,0.03524953,0.7171914,59.2043256124807,180,2.400000095367432,7.999579855010837,-9999,4006.919017916667,0.013824462890625,-0.2547607421875,-0.961181640625,4006.909023916667,0.04766215004127916,0.01607195439796331,0.2464081482008477,-0.08353646844625473,0.03900698572397232,-0.06917181611061096,-0.001685058698058128,-0.01150995492935181,0.0001871585845947266,XArbitraryZVertical,0.122663737910959,0.01090100742019093,0.02463470710392581,0.9920824967541589,0.01558582670986652,-0.2439221739768982,-0.9696695804595947,0,0,0,-1,-1,4004.803703375,unknown,2,2022-06-02T11:08:40.666+02:00,2022-06-02T10:17:13.754+02:00,757,1.541467,0,0,607.4087,0,0,2022-06-02T11:08:40.666+02:00,675853720.6658913,0,4.703125,101.3248,1,0.74
2022-06-02T11:08:42.792+02:00,1654160922.00024,53.22912066769875,10.39856500788329,37.13083,0.03524953,0.7171914,59.2043256124807,180,2.400000095367432,7.999579855010837,-9999,4006.929011916667,0.01519775390625,-0.252349853515625,-0.95361328125,4006.919017916667,0.046920965215185,0.01662209566299253,0.2458221797603095,-0.0987105667591095,0.04182900488376617,-0.08070902526378632,-0.002541318535804749,-0.01297853887081146,0.005890607833862305,XArbitraryZVertical,0.1223703883757982,0.01112191925930634,0.02429921283563685,0.9921246694026391,0.01612165197730064,-0.2433538734912872,-0.9698035717010498,0,0,0,-1,-1,4004.803703375,unknown,2,2022-06-02T11:08:40.666+02:00,2022-06-02T10:17:13.754+02:00,757,1.541467,0,0,607.4087,0,0,2022-06-02T11:08:40.666+02:00,675853720.6658913,0,4.703125,101.3248,1,0.74
2022-06-02T11:08:42.802+02:00,1654160922.00024,53.22912066769875,10.39856500788329,37.13083,0.03524953,0.7171914,59.2043256124807,180,2.400000095367432,7.999579855010837,-9999,4006.939006916667,0.017974853515625,-0.2555084228515625,-0.947265625,4006.929011916667,0.04606357001213696,0.01721842936985652,0.2450848218813886,-0.1078547909855843,0.04604345932602882,-0.09103782474994659,-0.002756519243121147,-0.01018428802490234,0.01179730892181396,XArbitraryZVertical,0.1220022124492251,0.01135724102980276,0.02390826542406472,0.9921768796763447,0.01670306175947189,-0.2426386177539825,-0.9699729681015015,0,0,0,-1,-1,4004.803703375,unknown,2,2022-06-02T11:08:40.666+02:00,2022-06-02T10:17:13.754+02:00,757,1.541467,0,0,607.4087,0,0,2022-06-02T11:08:40.666+02:00,675853720.6658913,0,4.703125,101.3248,1,0.74
2022-06-02T11:08:42.812+02:00,1654160922.00024,53.22912066769875,10.39856500788329,37.13083,0.03524953,0.7171914,59.2043256124807,180,2.400000095367432,7.999579855010837,-9999,4006.949000916667,0.0157623291015625,-0.2535247802734375,-0.94036865234375,4006.939006916667,0.04513406334123916,0.01783726625612372,0.2440101410341599,-0.124640665948391,0.04656630381941795,-0.09814267605543137,-0.001774497330188751,-0.01375995576381683,0.0199815034866333,XArbitraryZVertical,0.1214670444468334,0.01159609150339775,0.02348162180388772,0.9922498650267888,0.0173079539090395,-0.2415959089994431,-0.9702225923538208,0,0,0,-1,-1,4004.803703375,unknown,2,2022-06-02T11:08:40.666+02:00,2022-06-02T10:17:13.754+02:00,757,1.541467,0,0,607.4087,0,0,2022-06-02T11:08:40.666+02:00,675853720.6658913,0,4.703125,101.3248,1,0.74
2022-06-02T11:08:42.822+02:00,1654160922.00024,53.22912066769875,10.39856500788329,37.13083,0.03524953,0.7171914,59.2043256124807,180,2.400000095367432,7.999579855010837,-9999,4006.958995916667,0.0171661376953125,-0.2502593994140625,-0.9355621337890625,4006.949000916667,0.0440907195799595,0.01853921008604485,0.2425965559637392,-0.1367415487766266,0.04750347137451172,-0.1107862964272499,-0.00102752260863781,-0.0154217928647995,0.02720659971237183,XArbitraryZVertical,0.1207636278201211,0.01186631034652988,0.02300201174212439,0.9923437296628906,0.01799530535936356,-0.2402239590883255,-0.9705506563186646,0,0,0,-1,-1,4004.803703375,unknown,2,2022-06-02T11:08:40.666+02:00,2022-06-02T10:17:13.754+02:00,757,1.541467,0,0,607.4087,0,0,2022-06-02T11:08:40.666+02:00,675853720.6658913,0,4.703125,101.3248,1,0.74
2022-06-02T11:08:42.832+02:00,1654160922.00024,53.22912066769875,10.39856500788329,37.13083,0.03524953,0.7171914,59.2043256124807,180,2.400000095367432,7.999579855010837,-9999,4006.968989916667,0.01812744140625,-0.251800537109375,-0.9314117431640625,4006.958995916667,0.04291627228811081,0.01920203755931981,0.2412465266242674,-0.1487475633621216,0.04513252526521683,-0.1275736093521118,-0.001905918121337891,-0.01317723095417023,0.03262948989868164,XArbitraryZVertical,0.1200932170872224,0.0121106770170175,0.02245461798838029,0.992434729518146,0.01864481903612614,-0.2389132380485535,-0.9708619117736816,0,0,0,-1,-1,4004.803703375,unknown,2,2022-06-02T11:08:40.666+02:00,2022-06-02T10:17:13.754+02:00,757,1.541467,0,0,607.4087,0,0,2022-06-02T11:08:40.666+02:00,675853720.6658913,0,4.703125,101.3248,1,0.74
2022-06-02T11:08:42.842+02:00,1654160922.00024,53.22912066769875,10.39856500788329,37.13083,0.03524953,0.7171914,59.2043256124807,180,2.400000095367432,7.999579855010837,-9999,4006.978983916667,0.0107879638671875,-0.261505126953125,-0.925567626953125,4006.968989916667,0.04164235729904345,0.01974556844650861,0.2399233932371992,-0.1658879369497299,0.04159105196595192,-0.1407815515995026,-0.0008986927568912506,-0.01183775067329407,0.03606247901916504,XArbitraryZVertical,0.1194383349035242,0.01229100207117092,0.02185028136202226,0.9925251015782953,0.01917873322963715,-0.2376282215118408,-0.9711668491363525,0,0,0,-1,-1,4004.803703375,unknown,2,2022-06-02T11:08:40.666+02:00,2022-06-02T10:17:13.754+02:00,757,1.541467,0,0,607.4087,0,0,2022-06-02T11:08:40.666+02:00,675853720.6658913,0,4.703125,101.3248,1,0.74
2022-06-02T11:08:42.852+02:00,1654160922.00024,53.22912066769875,10.39856500788329,37.13083,0.03524953,0.7171914,59.2043256124807,180,2.400000095367432,7.999579855010837,-9999,4006.988978916667,0.006317138671875,-0.270477294921875,-0.9133758544921875,4006.978983916667,0.04017428421910977,0.02034505038325315,0.2385417647928105,-0.1957978010177612,0.04515855759382248,-0.1598217636346817,-0.005241211503744125,-0.01894783973693848,0.04364132881164551,XArbitraryZVertical,0.1187552764433014,0.01248789528232484,0.02115221014519043,0.9926196496489863,0.01976758800446987,-0.2362859398126602,-0.9714824557304382,0,0,0,-1,-1,4004.803703375,unknown,2,2022-06-02T11:08:40.666+02:00,2022-06-02T10:17:13.754+02:00,757,1.541467,0,0,607.4087,0,0,2022-06-02T11:08:40.666+02:00,675853720.6658913,0,4.703125,101.3248,1,0.74
2022-06-02T11:08:42.862+02:00,1654160922.00024,53.22912066769875,10.39856500788329,37.13083,0.03524953,0.7171914,59.2043256124807,180,2.400000095367432,7.999579855010837,-9999,4006.998972916667,0.0014190673828125,-0.27191162109375,-0.9077911376953125,4006.988978916667,0.03851827182884503,0.021024500311339,0.2369150763139408,-0.2374624162912369,0.04593539983034134,-0.1773640066385269,-0.01262319833040237,-0.03265951573848724,0.05151796340942383,XArbitraryZVertical,0.1179512311985046,0.01271224535666658,0.0203640233699369,0.9927291528613424,0.02043570950627327,-0.234705001115799,-0.9718518257141113,0,0,0,-1,-1,4004.803703375,unknown,2,2022-06-02T11:08:40.666+02:00,2022-06-02T10:17:13.754+02:00,757,1.541467,0,0,607.4087,0,0,2022-06-02T11:08:40.666+02:00,675853720.6658913,0,4.703125,101.3248,1,0.74
2022-06-02T11:08:42.872+02:00,1654160922.00024,53.22912066769875,10.39856500788329,37.13083,0.03524953,0.7171914,59.2043256124807,180,2.400000095367432,7.999579855010837,-9999,4007.008967916667,-0.006134033203125,-0.26031494140625,-0.906707763671875,4006.998972916667,0.03660974283286113,0.021785784861159,0.2348855726395063,-0.2689463496208191,0.04614519327878952,-0.2137810587882996,-0.01782894879579544,-0.03889001905918121,0.06203186511993408,XArbitraryZVertical,0.1169484167786324,0.01296042133216685,0.019452800096307,0.9928628157833806,0.02118589170277119,-0.2327316999435425,-0.9723101854324341,0,0,0,-1,-1,4004.803703375,unknown,2,2022-06-02T11:08:40.666+02:00,2022-06-02T10:17:13.754+02:00,757,1.541467,0,0,607.4087,0,0,2022-06-02T11:08:40.666+02:00,675853720.6658913,0,4.703125,101.3248,1,0.74
2022-06-02T11:08:42.882+02:00,1654160922.00024,53.22912066769875,10.39856500788329,37.13083,0.03524953,0.7171914,59.2043256124807,180,2.400000095367432,7.999579855010837,-9999,4007.018961916667,-0.0160980224609375,-0.259246826171875,-0.900665283203125,4007.008967916667,0.03431884639314812,0.022677398152855,0.2323526554319056,-0.3094442486763,0.05320256948471069,-0.2492141425609589,-0.02403447777032852,-0.03641028702259064,0.0646740198135376,XArbitraryZVertical,0.115697422194207,0.01324918052911282,0.01835592915177628,0.9930264029784384,0.02206610515713692,-0.2302675992250443,-0.9728771448135376,0,0,0,-1,-1,4004.803703375,unknown,2,2022-06-02T11:08:40.666+02:00,2022-06-02T10:17:13.754+02:00,757,1.541467,0,0,607.4087,0,0,2022-06-02T11:08:40.666+02:00,675853720.6658913,0,4.703125,101.3248,1,0.74
2022-06-02T11:08:42.892+02:00,1654160922.00024,53.22912066769875,10.39856500788329,37.13083,0.03524953,0.7171914,59.2043256124807,180,2.400000095367432,7.999579855010837,-9999,4007.028955916667,-0.0182342529296875,-0.2525787353515625,-0.88958740234375,4007.018961916667,0.03162548479290806,0.0238563646915932,0.2293286424585568,-0.3626716434955597,0.07642000168561935,-0.2993113994598389,-0.03413960710167885,-0.03117537498474121,0.06939786672592163,XArbitraryZVertical,0.1142034239037809,0.01365707500828602,0.01707167276489272,0.9932167002726381,0.02322958223521709,-0.2273238003253937,-0.9735421538352966,0,0,0,-1,-1,4004.803703375,unknown,2,2022-06-02T11:08:40.666+02:00,2022-06-02T10:17:13.754+02:00,757,1.541467,0,0,607.4087,0,0,2022-06-02T11:08:40.666+02:00,675853720.6658913,0,4.703125,101.3248,1,0.74
2022-06-02T11:08:42.902+02:00,1654160922.00024,53.22912066769875,10.39856500788329,37.13083,0.03524953,0.7171914,59.2043256124807,180,2.400000095367432,7.999579855010837,-9999,4007.038950916667,-0.0045318603515625,-0.246734619140625,-0.8866424560546875,4007.028955916667,0.02843672969065163,0.02539425643916676,0.2257138833149601,-0.4159681499004364,0.09834447503089905,-0.3423150777816772,-0.04484327509999275,-0.03243868052959442,0.07841581106185913,XArbitraryZVertical,0.1124176950594163,0.01421579486921937,0.01555603563797787,0.9934375167946226,0.02474746108055115,-0.2238021939992905,-0.9743203520774841,0,0,0,-1,-1,4004.803703375,unknown,2,2022-06-02T11:08:40.666+02:00,2022-06-02T10:17:13.754+02:00,757,1.541467,0,0,607.4087,0,0,2022-06-02T11:08:40.666+02:00,675853720.6658913,0,4.703125,101.3248,1,0.74
2022-06-02T11:08:42.912+02:00,1654160922.00024,53.22912066769875,10.39856500788329,37.13083,0.03524953,0.7171914,59.2043256124807,180,2.400000095367432,7.999579855010837,-9999,4007.048944916667,0.003631591796875,-0.234466552734375,-0.8834381103515625,4007.038950916667,0.02473000672092609,0.02722055425508718,0.2215524994139807,-0.4544519186019897,0.112579807639122,-0.4035317599773407,-0.03808756917715073,-0.03132370114326477,0.08866041898727417,XArbitraryZVertical,0.110363887542205,0.01489219012610355,0.01379221423501316,0.9936839487412102,0.02655193582177162,-0.2197444438934326,-0.9751960635185242,0,0,0,-1,-1,4004.803703375,unknown,2,2022-06-02T11:08:40.666+02:00,2022-06-02T10:17:13.754+02:00,757,1.541467,0,0,607.4087,0,0,2022-06-02T11:08:40.666+02:00,675853720.6658913,0,4.703125,101.3248,1,0.74
2022-06-02T11:08:42.922+02:00,1654160922.00024,53.22912066769875,10.39856500788329,37.13083,0.03524953,0.7171914,59.2043256124807,180,2.400000095367432,7.999579855010837,-9999,4007.058938916667,0.003631591796875,-0.2353973388671875,-0.8820953369140625,4007.048944916667,0.02043852180301256,0.0294003452928878,0.2166861266450768,-0.5005179643630981,0.136283814907074,-0.4648001790046692,-0.0282814335078001,-0.02368356287479401,0.09071046113967896,XArbitraryZVertical,0.1079645682959419,0.01571757405720544,0.0117474752118749,0.9939610278567873,0.028708690777421,-0.2149944305419922,-0.9761932492256165,0,0,0,-1,-1,4004.803703375,unknown,2,2022-06-02T11:08:40.666+02:00,2022-06-02T10:17:13.754+02:00,757,1.541467,0,0,607.4087,0,0,2022-06-02T11:08:40.666+02:00,675853720.6658913,0,4.703125,101.3248,1,0.74
2022-06-02T11:08:42.932+02:00,1654160922.00024,53.22912066769875,10.39856500788329,37.13083,0.03524953,0.7171914,59.2043256124807,180,2.400000095367432,7.999579855010837,-9999,4007.068933916667,0.0094451904296875,-0.2357177734375,-0.875701904296875,4007.058938916667,0.01553366657340237,0.0319747819345803,0.2112987653949008,-0.5462151169776917,0.1705850511789322,-0.5249399542808533,-0.02860327437520027,-0.02435515820980072,0.09488958120346069,XArbitraryZVertical,0.1053128300694244,0.0167160169247713,0.009408258717990971,0.9942540667648628,0.03125831484794617,-0.2097299546003342,-0.9772595763206482,0,0,0,-1,-1,4004.803703375,unknown,2,2022-06-02T11:08:40.666+02:00,2022-06-02T10:17:13.754+02:00,757,1.541467,0,0,607.4087,0,0,2022-06-02T11:08:40.666+02:00,675853720.6658913,0,4.703125,101.3248,1,0.74
2022-06-02T11:08:42.942+02:00,1654160922.00024,53.22912066769875,10.39856500788329,37.13083,0.03524953,0.7171914,59.2043256124807,180,2.400000095367432,7.999579855010837,-9999,4007.078927916667,0.010711669921875,-0.238739013671875,-0.8669281005859375,4007.068933916667,0.01006989029340002,0.03494669720121883,0.2053517853142054,-0.6137691140174866,0.1953798830509186,-0.5830381512641907,-0.02669814601540565,-0.03069233894348145,0.09875291585922241,XArbitraryZVertical,0.1023911340688707,0.01789619995169205,0.006798470703346521,0.9945599042715367,0.03420548141002655,-0.2039115726947784,-0.9783915877342224,0,0,0,-1,-1,4004.803703375,unknown,2,2022-06-02T11:08:40.666+02:00,2022-06-02T10:17:13.754+02:00,757,1.541467,0,0,607.4087,0,0,2022-06-02T11:08:40.666+02:00,675853720.6658913,0,4.703125,101.3248,1,0.74
2022-06-02T11:08:42.952+02:00,1654160922.00024,53.22912066769875,10.39856500788329,37.13083,0.03524953,0.7171914,59.2043256124807,180,2.400000095367432,7.999579855010837,-9999,4007.088922916667,0.010650634765625,-0.2304840087890625,-0.8656768798828125,4007.078927916667,0.003999653399570349,0.03825670058102087,0.1985346853589987,-0.7118299603462219,0.221925750374794,-0.6562165021896362,-0.02654024586081505,-0.04027004539966583,0.1090796589851379,XArbitraryZVertical,0.09904801212449715,0.01923114072853512,0.003885201219227408,0.9948891158294663,0.03749606385827065,-0.1972330063581467,-0.9796392917633057,0,0,0,-1,-1,4004.803703375,unknown,2,2022-06-02T11:08:40.666+02:00,2022-06-02T10:17:13.754+02:00,757,1.541467,0,0,607.4087,0,0,2022-06-02T11:08:40.666+02:00,675853720.6658913,0,4.703125,101.3248,1,0.74
2022-06-02T11:08:42.962+02:00,1654160922.00024,53.22912066769875,10.39856500788329,37.13083,0.03524953,0.7171914,59.2043256124807,180,2.400000095367432,7.999579855010837,-9999,4007.098916916667,0.0083770751953125,-0.18798828125,-0.8645477294921875,4007.088922916667,-0.002777406012186926,0.04192834330914383,0.1905744786562772,-0.8242574334144592,0.2483738660812378,-0.7368527054786682,-0.03120845183730125,-0.04991112649440765,0.1151421070098877,XArbitraryZVertical,0.09515108891751473,0.0207354246549985,0.0006123493435032925,0.9952466743266063,0.04115719348192215,-0.1894230097532272,-0.9810326099395752,0,0,0,-1,-1,4004.803703375,unknown,2,2022-06-02T11:08:40.666+02:00,2022-06-02T10:17:13.754+02:00,757,1.541467,0,0,607.4087,0,0,2022-06-02T11:08:40.666+02:00,675853720.6658913,0,4.703125,101.3248,1,0.74
2022-06-02T11:08:42.972+02:00,1654160922.00024,53.22912066769875,10.39856500788329,37.13083,0.03524953,0.7171914,59.2043256124807,180,2.400000095367432,7.999579855010837,-9999,4007.108910916667,0.0089111328125,-0.1502227783203125,-0.8629608154296875,4007.098916916667,-0.01026767791025273,0.04594271887746772,0.1815620083553348,-0.9137746095657349,0.2766343355178833,-0.8124309182167053,-0.03546706214547157,-0.02925749123096466,0.1187097430229187,XArbitraryZVertical,0.09074868877898092,0.02240916536365459,-0.00302903829557242,0.9956170460225161,0.04517165571451187,-0.180566132068634,-0.9825249910354614,0,0,0,-1,-1,4004.803703375,unknown,2,2022-06-02T11:08:40.666+02:00,2022-06-02T10:17:13.754+02:00,757,1.541467,0,0,607.4087,0,0,2022-06-02T11:08:40.666+02:00,675853720.6658913,0,4.703125,101.3248,1,0.74
2022-06-02T11:08:42.982+02:00,1654160922.00024,53.22912066769875,10.39856500788329,37.13083,0.03524953,0.7171914,59.2043256124807,180,2.400000095367432,7.999579855010837,-9999,4007.118905916667,0.0145416259765625,-0.1272125244140625,-0.8612518310546875,4007.108910916667,-0.01840741567310285,0.05035623936844003,0.1716646032463656,-0.9841926097869873,0.3180797696113586,-0.8833543658256531,-0.04086709022521973,0.004211992025375366,0.1196271777153015,XArbitraryZVertical,0.08592700717751986,0.02429297520328216,-0.007008666386249487,0.9959804830731511,0.04959512501955032,-0.1708227246999741,-0.9840527772903442,0,0,0,-1,-1,4004.803703375,unknown,2,2022-06-02T11:08:40.666+02:00,2022-06-02T10:17:13.754+02:00,757,1.541467,0,0,607.4087,0,0,2022-06-02T11:08:40.666+02:00,675853720.6658913,0,4.703125,101.3248,1,0.74
2022-06-02T11:08:42.992+02:00,1654160922.00024,53.22912066769875,10.39856500788329,37.13083,0.03524953,0.7171914,59.2043256124807,180,2.400000095367432,7.999579855010837,-9999,4007.128899916667,0.0138092041015625,-0.111846923828125,-0.8668060302734375,4007.118905916667,-0.02710590203899839,0.05523233988574917,0.161139468362232,-1.028811454772949,0.3697271049022675,-0.9408379793167114,-0.04328913241624832,0.02256457507610321,0.1251426339149475,XArbitraryZVertical,0.08081753211807904,0.02643023219057051,-0.01128128738001304,0.9963144571933227,0.05448909476399422,-0.1604430228471756,-0.9855399131774902,0,0,0,-1,-1,4004.803703375,unknown,2,2022-06-02T11:08:40.666+02:00,2022-06-02T10:17:13.754+02:00,757,1.541467,0,0,607.4087,0,0,2022-06-02T11:08:40.666+02:00,675853720.6658913,0,4.703125,101.3248,1,0.74
2022-06-02T11:08:43.002+02:00,1654160922.00024,53.22912066769875,10.39856500788329,37.13083,0.03524953,0.7171914,59.2043256124807,180,2.400000095367432,7.999579855010837,-9999,4007.138894916667,0.0146331787109375,-0.1292266845703125,-0.8610687255859375,4007.128899916667,-0.03630756600381534,0.06057446476701468,0.1501321397641702,-1.066647291183472,0.408767968416214,-1.003952860832214,-0.04507068544626236,0.03192348778247833,0.1215814352035522,XArbitraryZVertical,0.07549701456232293,0.02883159333841153,-0.01582267655167482,0.9966034681617516,0.05985646322369576,-0.1495687812566757,-0.9869378805160522,0,0,0,-1,-1,4004.803703375,unknown,2,2022-06-02T11:08:40.666+02:00,2022-06-02T10:17:13.754+02:00,757,1.541467,0,0,607.4087,0,0,2022-06-02T11:08:40.666+02:00,675853720.6658913,0,4.703125,101.3248,1,0.74
2022-06-02T11:08:43.012+02:00,1654160922.00024,53.22912066769875,10.39856500788329,37.13083,0.03524953,0.7171914,59.2043256124807,180,2.400000095367432,7.999579855010837,-9999,4007.148888916667,0.013153076171875,-0.160614013671875,-0.8373260498046875,4007.138894916667,-0.0460188057231613,0.06625209898240891,0.1385231614631617,-1.144880652427673,0.4465640485286713,-1.066435575485229,-0.05035645514726639,0.02182383835315704,0.1229832768440247,XArbitraryZVertical,0.06991012348603656,0.03144045878191312,-0.02064811630768879,0.9968438003452134,0.06556947529315948,-0.1380805671215057,-0.9882481694221497,0,0,0,-1,-1,4004.803703375,unknown,2,2022-06-02T11:08:40.666+02:00,2022-06-02T10:17:13.754+02:00,757,1.541467,0,0,607.4087,0,0,2022-06-02T11:08:40.666+02:00,675853720.6658913,0,4.703125,101.3248,1,0.74
2022-06-02T11:08:43.023+02:00,1654160922.00024,53.22912066769875,10.39856500788329,37.13083,0.03524953,0.7171914,59.2043256124807,180,2.400000095367432,7.999579855010837,-9999,4007.158882916667,0.016998291015625,-0.1638336181640625,-0.819580078125,4007.148888916667,-0.05625533950202068,0.07235700509459246,0.1255743187512917,-1.304298758506775,0.4954317212104797,-1.141540169715881,-0.05706092715263367,-0.01914939284324646,0.1379979252815247,XArbitraryZVertical,0.06369530758135722,0.03432154946693671,-0.02578151600691051,0.9970457675346827,0.07172463089227676,-0.1252445578575134,-0.9895299077033997,0,0,0,-1,-1,4004.803703375,unknown,2,2022-06-02T11:08:40.666+02:00,2022-06-02T10:17:13.754+02:00,757,1.541467,0,0,607.4087,0,0,2022-06-02T11:08:40.666+02:00,675853720.6658913,0,4.703125,101.3248,1,0.74
2022-06-02T11:08:43.032+02:00,1654160922.00024,53.22912066769875,10.39856500788329,37.13083,0.03524953,0.7171914,59.2043256124807,180,2.400000095367432,7.999579855010837,-9999,4007.168877916667,0.0310821533203125,-0.128631591796875,-0.8184967041015625,4007.158882916667,-0.06715383971563552,0.07874109883237948,0.1108331932003217,-1.475605607032776,0.521240770816803,-1.237657189369202,-0.06413903087377548,-0.05946807563304901,0.1640788912773132,XArbitraryZVertical,0.05663344140979844,0.03741982808067271,-0.03131422783342969,0.9972020358577071,0.07817712426185608,-0.1106064170598984,-0.9907848238945007,0,0,0,-1,-1,4004.803703375,unknown,2,2022-06-02T11:08:40.666+02:00,2022-06-02T10:17:13.754+02:00,757,1.541467,0,0,607.4087,0,0,2022-06-02T11:08:40.666+02:00,675853720.6658913,0,4.703125,101.3248,1,0.74
2022-06-02T11:08:43.042+02:00,1654160922.00024,53.22912066769875,10.39856500788329,37.13083,0.03524953,0.7171914,59.2043256124807,180,2.400000095367432,7.999579855010837,-9999,4007.178871916667,0.039703369140625,-0.0862884521484375,-0.85223388671875,4007.168877916667,-0.0786670269055451,0.08518127839086427,0.09434357502535073,-1.614362716674805,0.5243566632270813,-1.313490390777588,-0.06114037334918976,-0.0533793568611145,0.1780853271484375,XArbitraryZVertical,0.04874753487750123,0.04064492233116237,-0.03723783820524421,0.9972888012528689,0.08469995856285095,-0.09420368075370789,-0.991943359375,0,0,0,-1,-1,4004.803703375,unknown,2,2022-06-02T11:08:40.666+02:00,2022-06-02T10:17:13.754+02:00,757,1.541467,0,0,607.4087,0,0,2022-06-02T11:08:40.666+02:00,675853720.6658913,0,4.703125,101.3248,1,0.74
2022-06-02T11:08:43.052+02:00,1654160922.00024,53.22912066769875,10.39856500788329,37.13083,0.03524953,0.7171914,59.2043256124807,180,2.400000095367432,7.999579855010837,-9999,4007.188865916667,0.0400848388671875,-0.0474853515625,-0.8742523193359375,4007.178871916667,-0.09069749634920764,0.09145014139997172,0.07675534775611387,-1.67609179019928,0.5261008739471436,-1.382403254508972,-0.05301368236541748,-0.03341219574213028,0.15966796875,XArbitraryZVertical,0.04035936241923069,0.04389098550724413,-0.04350050125406092,0.9972724914948204,0.09105385094881058,-0.07668000459671021,-0.992889404296875,0,0,0,-1,-1,4004.803703375,unknown,2,2022-06-02T11:08:40.666+02:00,2022-06-02T10:17:13.754+02:00,757,1.541467,0,0,607.4087,0,0,2022-06-02T11:08:40.666+02:00,675853720.6658913,0,4.703125,101.3248,1,0.74
2022-06-02T11:08:43.062+02:00,1654160922.00024,53.22912066769875,10.39856500788329,37.13083,0.03524953,0.7171914,59.2043256124807,180,2.400000095367432,7.999579855010837,-9999,4007.198860916667,0.0533447265625,-0.0524749755859375,-0.873565673828125,4007.188865916667,-0.1030983378218231,0.09773894199022944,0.05856908157444671,-1.716920495033264,0.5610652565956116,-1.427903175354004,-0.05699553340673447,-0.002530109137296677,0.1247769594192505,XArbitraryZVertical,0.0317225320752628,0.04725730371724658,-0.05001431178812556,0.9971254017110625,0.09741608053445816,-0.05853560194373131,-0.9935208559036255,0,0,0,-1,-1,4004.803703375,unknown,2,2022-06-02T11:08:40.666+02:00,2022-06-02T10:17:13.754+02:00,757,1.541467,0,0,607.4087,0,0,2022-06-02T11:08:40.666+02:00,675853720.6658913,0,4.703125,101.3248,1,0.74
2022-06-02T11:08:43.073+02:00,1654160922.00024,53.22912066769875,10.39856500788329,37.13083,0.03524953,0.7171914,59.2043256124807,180,2.400000095367432,7.999579855010837,-9999,4007.208854916667,0.073638916015625,-0.03875732421875,-0.8748016357421875,4007.198860916667,-0.1158358114785647,0.1042013214197391,0.0397407704335876,-1.780981779098511,0.6011049151420593,-1.482547879219055,-0.05955816805362701,-0.009143628180027008,0.1176157593727112,XArbitraryZVertical,0.02282276156243112,0.05083093764757988,-0.0567625842571045,0.9968316339193966,0.1039307340979576,-0.03973031044006348,-0.9937906861305237,0,0,0,-1,-1,4004.803703375,unknown,2,2022-06-02T11:08:40.666+02:00,2022-06-02T10:17:13.754+02:00,757,1.541467,0,0,607.4087,0,0,2022-06-02T11:08:40.666+02:00,675853720.6658913,0,4.703125,101.3248,1,0.74
2022-06-02T11:08:43.082+02:00,1654160922.00024,53.22912066769875,10.39856500788329,37.13083,0.03524953,0.7171914,59.2043256124807,180,2.400000095367432,7.999579855010837,-9999,4007.218849916667,0.0854339599609375,-0.0210418701171875,-0.87493896484375,4007.208854916667,-0.1288766294718928,0.1108839211303248,0.01995806381132174,-1.882556080818176,0.6478367447853088,-1.539759993553162,-0.04639528691768646,-0.02926815301179886,0.1198051571846008,XArbitraryZVertical,0.01351096484329341,0.05465421656922689,-0.06373977436940313,0.996377166665585,0.1106347963213921,-0.01995673961937428,-0.9936607480049133,0,0,0,-1,-1,4004.803703375,unknown,2,2022-06-02T11:08:40.666+02:00,2022-06-02T10:17:13.754+02:00,757,1.541467,0,0,607.4087,0,0,2022-06-02T11:08:40.666+02:00,675853720.6658913,0,4.703125,101.3248,1,0.74
2022-06-02T11:08:43.092+02:00,1654160923.000239,53.22912030712209,10.39856407153219,37.09593,0.02195892,0.7088531,60.03478099290587,45.40900303953047,2.400000095367432,7.999579855010837,-9999,4007.228843916667,0.0929412841796875,-0.003326416015625,-0.9039306640625,4007.218849916667,-0.1423425787213156,0.1176306923535932,-0.001155286247573298,-2.008629322052002,0.6669270396232605,-1.613133788108826,-0.03784596920013428,-0.03007072955369949,0.119446873664856,XArbitraryZVertical,0.003604835292199004,0.0586736287779839,-0.07102211870358163,0.9957410371331985,0.1173595264554024,0.001155285979621112,-0.9930888414382935,0,0,0,-1,-1,4004.803703375,unknown,2,2022-06-02T11:08:40.666+02:00,2022-06-02T10:17:13.754+02:00,757,1.541467,0,0,607.4087,0,0,2022-06-02T11:08:40.666+02:00,675853720.6658913,0,4.703125,101.3248,1,0.74
2022-06-02T11:08:43.102+02:00,1654160923.000239,53.22912030712209,10.39856407153219,37.09593,0.02195892,0.7088531,60.03478099290587,45.40900303953047,2.400000095367432,7.999579855010837,-9999,4007.238837916667,0.0885162353515625,0.010467529296875,-0.9178314208984375,4007.228843916667,-0.1560711018976727,0.1243214024989533,-0.0237834937633921,-2.162282705307007,0.7050094604492188,-1.663290500640869,-0.03377161175012589,-0.03704117983579636,0.1073578596115112,XArbitraryZVertical,-0.006990020889796173,0.06285247839346153,-0.0785367719800785,0.9949033279827967,0.1239663287997246,0.02378125116229057,-0.9920014142990112,0,0,0,-1,-1,4004.803703375,unknown,2,2022-06-02T11:08:40.666+02:00,2022-06-02T10:17:13.754+02:00,757,1.541467,0,0,607.4087,0,0,2022-06-02T11:08:40.666+02:00,675853720.6658913,0,4.703125,101.3248,1,0.74
2022-06-02T11:08:43.112+02:00,1654160923.000239,53.22912030712209,10.39856407153219,37.09593,0.02195892,0.7088531,60.03478099290587,45.40900303953047,2.400000095367432,7.999579855010837,-9999,4007.248832916667,0.095794677734375,0.01409912109375,-0.9066619873046875,4007.238837916667,-0.1700278208491825,0.1312350184351063,-0.04829995429676589,-2.363003015518188,0.7701912522315979,-1.734842300415039,-0.04000777006149292,-0.0432915948331356,0.07303905487060547,XArbitraryZVertical,-0.01844257869882899,0.06736057905226268,-0.0862817624174721,0.993819747727213,0.1307060271501541,0.04828117787837982,-0.9902448654174805,0,0,0,-1,-1,4004.803703375,unknown,2,2022-06-02T11:08:40.666+02:00,2022-06-02T10:17:13.754+02:00,757,1.541467,0,0,607.4087,0,0,2022-06-02T11:08:40.666+02:00,675853720.6658913,0,4.703125,101.3248,1,0.74
2022-06-02T11:08:43.122+02:00,1654160923.000239,53.22912030712209,10.39856407153219,37.09593,0.02195892,0.7088531,60.03478099290587,45.40900303953047,2.400000095367432,7.999579855010837,-9999,4007.258826916667,0.0987701416015625,0.040435791015625,-0.8879852294921875,4007.248832916667,-0.1840859462574867,0.1383208677257924,-0.07534569875162715,-2.626116037368774,0.8178412914276123,-1.773373126983643,-0.04614990949630737,-0.06143475323915482,0.07496494054794312,XArbitraryZVertical,-0.03106767487876178,0.07221749874729183,-0.09422003504895246,0.9924424571923585,0.1374890357255936,0.07527443021535873,-0.9876388907432556,0,0,0,-1,-1,4004.803703375,unknown,2,2022-06-02T11:08:40.666+02:00,2022-06-02T10:17:13.754+02:00,757,1.541467,0,0,607.4087,0,0,2022-06-02T11:08:40.666+02:00,675853720.6658913,0,4.703125,101.3248,1,0.74
2022-06-02T11:08:43.132+02:00,1654160923.000239,53.22912030712209,10.39856407153219,37.09593,0.02195892,0.7088531,60.03478099290587,45.40900303953047,2.400000095367432,7.999579855010837,-9999,4007.268821916667,0.114532470703125,0.0767974853515625,-0.8753204345703125,4007.258826916667,-0.1979892279888164,0.1456856333890653,-0.1051201469478802,-2.877225399017334,0.9076589941978455,-1.809476375579834,-0.04671323299407959,-0.083289735019207,0.08361542224884033,XArbitraryZVertical,-0.04495705295499701,0.07750059858017701,-0.1022395551663672,0.9907166285952882,0.1443694829940796,0.1049266532063484,-0.9839450120925903,0,0,0,-1,-1,4004.803703375,unknown,2,2022-06-02T11:08:40.666+02:00,2022-06-02T10:17:13.754+02:00,757,1.541467,0,0,607.4087,0,0,2022-06-02T11:08:40.666+02:00,675853720.6658913,0,4.703125,101.3248,1,0.74
2022-06-02T11:08:43.142+02:00,1654160923.000239,53.22912030712209,10.39856407153219,37.09593,0.02195892,0.7088531,60.03478099290587,45.40900303953047,2.400000095367432,7.999579855010837,-9999,4007.278815916667,0.12713623046875,0.092132568359375,-0.86651611328125,4007.268821916667,-0.2115825751831764,0.1538412412085382,-0.1375584913670421,-3.147889375686646,1.036268591880798,-1.829906344413757,-0.04720386862754822,-0.07197010517120361,0.1035651564598083,XArbitraryZVertical,-0.06004356562656954,0.08347000358543022,-0.1102845481590354,0.9885670157826417,0.1517876237630844,0.1371250748634338,-0.9788550734519958,0,0,0,-1,-1,4004.803703375,unknown,2,2022-06-02T11:08:40.666+02:00,2022-06-02T10:17:13.754+02:00,757,1.541467,0,0,607.4087,0,0,2022-06-02T11:08:40.666+02:00,675853720.6658913,0,4.703125,101.3248,1,0.74
2022-06-02T11:08:43.152+02:00,1654160923.000239,53.22912030712209,10.39856407153219,37.09593,0.02195892,0.7088531,60.03478099290587,45.40900303953047,2.400000095367432,7.999579855010837,-9999,4007.288809916667,0.1194915771484375,0.135711669921875,-0.8550262451171875,4007.278815916667,-0.2246610286685828,0.1626919505769061,-0.1729824473985499,-3.45987343788147,1.124017477035522,-1.845299124717712,-0.03564120829105377,-0.09160046279430389,0.09909713268280029,XArbitraryZVertical,-0.0764808262195614,0.09009344333146548,-0.11828110128955,0.9859225577055608,0.1595578491687775,0.1721210479736328,-0.9720677137374878,0,0,0,-1,-1,4004.803703375,unknown,2,2022-06-02T11:08:40.666+02:00,2022-06-02T10:17:13.754+02:00,757,1.541467,0,0,607.4087,0,0,2022-06-02T11:08:40.666+02:00,675853720.6658913,0,4.703125,101.3248,1,0.74
2022-06-02T11:08:43.162+02:00,1654160923.000239,53.22912030712209,10.39856407153219,37.09593,0.02195892,0.7088531,60.03478099290587,45.40900303953047,2.400000095367432,7.999579855010837,-9999,4007.298804916667,0.124725341796875,0.1958465576171875,-0.85211181640625,4007.288809916667,-0.2372211781773694,0.171982808935101,-0.2118147806000404,-3.790713787078857,1.203905820846558,-1.886744618415833,-0.04194529354572296,-0.09651076793670654,0.1043718457221985,XArbitraryZVertical,-0.09447284300062792,0.09726687966387784,-0.126250002970561,0.9826875826848953,0.1673115193843842,0.2102344632148743,-0.9632280468940735,0,0,0,-1,-1,4004.803703375,unknown,2,2022-06-02T11:08:40.666+02:00,2022-06-02T10:17:13.754+02:00,757,1.541467,0,0,607.4087,0,0,2022-06-02T11:08:40.666+02:00,675853720.6658913,0,4.703125,101.3248,1,0.74
2022-06-02T11:08:43.172+02:00,1654160923.000239,53.22912030712209,10.39856407153219,37.09593,0.02195892,0.7088531,60.03478099290587,45.40900303953047,2.400000095367432,7.999579855010837,-9999,4007.308798916667,0.1238861083984375,0.2748565673828125,-0.9011993408203125,4007.298804916667,-0.2491163178712288,0.1816983395793454,-0.2539638699859368,-4.095433235168457,1.282746076583862,-1.882360458374023,-0.05580924451351166,-0.08792787790298462,0.1040136814117432,XArbitraryZVertical,-0.1139611120372631,0.1049651018203984,-0.1341282241891916,0.9787772294538724,0.1749040931463242,0.2512426376342773,-0.9519903659820557,0,0,0,-1,-1,4004.803703375,unknown,2,2022-06-02T11:08:40.666+02:00,2022-06-02T10:17:13.754+02:00,757,1.541467,0,0,607.4087,0,0,2022-06-02T11:08:40.666+02:00,675853720.6658913,0,4.703125,101.3248,1,0.74
2022-06-02T11:08:43.182+02:00,1654160923.000239,53.22912030712209,10.39856407153219,37.09593,0.02195892,0.7088531,60.03478099290587,45.40900303953047,2.400000095367432,7.999579855010837,-9999,4007.318792916667,0.1086273193359375,0.3249359130859375,-0.934783935546875,4007.308798916667,-0.2601790138491954,0.1919162631746964,-0.2991677370775558,-4.405447483062744,1.357263207435608,-1.891847968101501,-0.05526912212371826,-0.06240999698638916,0.06511330604553223,XArbitraryZVertical,-0.1347975561654485,0.1131837387553192,-0.1418419261305613,0.974114893897905,0.182268038392067,0.2947250008583069,-0.9380381107330322,0,0,0,-1,-1,4004.803703375,unknown,2,2022-06-02T11:08:40.666+02:00,2022-06-02T10:17:13.754+02:00,757,1.541467,0,0,607.4087,0,0,2022-06-02T11:08:40.666+02:00,675853720.6658913,0,4.703125,101.3248,1,0.74
2022-06-02T11:08:43.192+02:00,1654160923.000239,53.22912030712209,10.39856407153219,37.09593,0.02195892,0.7088531,60.03478099290587,45.40900303953047,2.400000095367432,7.999579855010837,-9999,4007.328787916667,0.1014862060546875,0.343841552734375,-0.9534912109375,4007.318792916667,-0.2703469148984468,0.2027245042988741,-0.3476332380962521,-4.737956523895264,1.439876556396484,-1.904323816299438,-0.07299251854419708,-0.03400251269340515,-0.002243757247924805,XArbitraryZVertical,-0.1570546136299367,0.121941438509612,-0.1493905421301323,0.9685795767273944,0.1892950236797333,0.340673565864563,-0.9209282398223877,0,0,0,-1,-1,4004.803703375,unknown,2,2022-06-02T11:08:40.666+02:00,2022-06-02T10:17:13.754+02:00,757,1.541467,0,0,607.4087,0,0,2022-06-02T11:08:40.666+02:00,675853720.6658913,0,4.703125,101.3248,1,0.74
2022-06-02T11:08:43.202+02:00,1654160923.000239,53.22912030712209,10.39856407153219,37.09593,0.02195892,0.7088531,60.03478099290587,45.40900303953047,2.400000095367432,7.999579855010837,-9999,4007.338781916667,0.099090576171875,0.40655517578125,-0.959503173828125,4007.328787916667,-0.2794356344001905,0.2142457096759965,-0.399556958822412,-5.085373878479004,1.515817165374756,-1.905313491821289,-0.09060871601104736,-0.05629241466522217,-0.04463768005371094,XArbitraryZVertical,-0.1807982356962154,0.1312491619515027,-0.1567227749693678,0.9620413857180083,0.1958638429641724,0.3890102505683899,-0.9001713395118713,0,0,0,-1,-1,4004.803703375,unknown,2,2022-06-02T11:08:40.666+02:00,2022-06-02T10:17:13.754+02:00,757,1.541467,0,0,607.4087,0,0,2022-06-02T11:08:40.666+02:00,675853720.6658913,0,4.703125,101.3248,1,0.74
2022-06-02T11:08:43.212+02:00,1654160923.000239,53.22912030712209,10.39856407153219,37.09593,0.02195892,0.7088531,60.03478099290587,45.40900303953047,2.400000095367432,7.999579855010837,-9999,4007.348776916667,0.0948028564453125,0.4440460205078125,-0.9420166015625,4007.338781916667,-0.2870164845482895,0.2266571957217351,-0.4546856409273267,-5.381155490875244,1.591678380966187,-1.857858061790466,-0.1045690029859543,-0.06758269667625427,-0.08255648612976074,XArbitraryZVertical,-0.2058846380871291,0.1410713238116356,-0.1636688021755874,0.9544227535980889,0.2018895745277405,0.439179927110672,-0.8754208087921143,0,0,0,-1,-1,4004.803703375,unknown,2,2022-06-02T11:08:40.666+02:00,2022-06-02T10:17:13.754+02:00,757,1.541467,0,0,607.4087,0,0,2022-06-02T11:08:40.666+02:00,675853720.6658913,0,4.703125,101.3248,1,0.74
2022-06-02T11:08:43.222+02:00,1654160923.000239,53.22912030712209,10.39856407153219,37.09593,0.02195892,0.7088531,60.03478099290587,45.40900303953047,2.400000095367432,7.999579855010837,-9999,4007.358770916667,0.090118408203125,0.470458984375,-0.9046783447265625,4007.348776916667,-0.2925368596522459,0.240616323984983,-0.512697011186368,-5.693816661834717,1.706616401672363,-1.786500811576843,-0.1082658320665359,-0.0555776059627533,-0.1078730225563049,XArbitraryZVertical,-0.2321087433827423,0.1515436971289823,-0.1700713331384839,0.9456403637902967,0.2076615840196609,0.4905292689800262,-0.8463200926780701,0,0,0,-1,-1,4004.803703375,unknown,2,2022-06-02T11:08:40.666+02:00,2022-06-02T10:17:13.754+02:00,757,1.541467,0,0,607.4087,0,0,2022-06-02T11:08:40.666+02:00,675853720.6658913,0,4.703125,101.3248,1,0.74
2022-06-02T11:08:43.232+02:00,1654160923.000239,53.22912030712209,10.39856407153219,37.09593,0.02195892,0.7088531,60.03478099290587,45.40900303953047,2.400000095367432,7.999579855010837,-9999,4007.368764916667,0.116607666015625,0.57708740234375,-0.884918212890625,4007.358770916667,-0.2955064481557664,0.2569661139440763,-0.5736281134994825,-5.99161434173584,1.855147838592529,-1.718119859695435,-0.1239904314279556,-0.09250301122665405,-0.1112101078033447,XArbitraryZVertical,-0.2594168726891886,0.1628606131117667,-0.1758912990316599,0.9355433747450698,0.213468000292778,0.5426830053329468,-0.8123586177825928,0,0,0,-1,-1,4007.360595916667,unknown,2,2022-06-02T11:08:43.223+02:00,2022-06-02T10:17:13.754+02:00,757,1.541467,0,0,607.4087,0,0,2022-06-02T11:08:43.223+02:00,675853723.2228109,0,5.121094,101.322,1,0.74
2022-06-02T11:08:43.242+02:00,1654160923.000239,53.22912030712209,10.39856407153219,37.09593,0.02195892,0.7088531,60.03478099290587,45.40900303953047,2.400000095367432,7.999579855010837,-9999,4007.378759916667,0.1606597900390625,0.684539794921875,-0.877960205078125,4007.368764916667,-0.2955387735709119,0.2761251419038528,-0.6369796200890669,-6.233386039733887,1.959366798400879,-1.636138081550598,-0.120945006608963,-0.07812285423278809,-0.1177918910980225,XArbitraryZVertical,-0.2875292907102432,0.1749432813804624,-0.1811223172616383,0.9240759798414155,0.2191658318042755,0.594770073890686,-0.7734435200691223,0,0,0,-1,-1,4007.360595916667,unknown,2,2022-06-02T11:08:43.223+02:00,2022-06-02T10:17:13.754+02:00,757,1.541467,0,0,607.4087,0,0,2022-06-02T11:08:43.223+02:00,675853723.2228109,0,5.121094,101.322,1,0.74
2022-06-02T11:08:43.256+02:00,1654160923.000239,53.22912030712209,10.39856407153219,37.09593,0.02195892,0.7088531,60.03478099290587,45.40900303953047,2.400000095367432,7.999579855010837,-9999,4007.388753916667,0.1831207275390625,0.764556884765625,-0.8831329345703125,4007.378759916667,-0.2922171234281328,0.2980063441362251,-0.7020556326496901,-6.390459537506104,1.98988926410675,-1.55063807964325,-0.08656080067157745,-0.01009225845336914,-0.1520794034004211,XArbitraryZVertical,-0.3161346518264743,0.1874225537063324,-0.1856998095291517,0.9112887360072743,0.2241798341274261,0.6457885503768921,-0.7298633456230164,0,0,0,-1,-1,4007.360595916667,unknown,2,2022-06-02T11:08:43.223+02:00,2022-06-02T10:17:13.754+02:00,757,1.541467,0,0,607.4087,0,0,2022-06-02T11:08:43.223+02:00,675853723.2228109,0,5.121094,101.322,1,0.74
2022-06-02T11:08:43.265+02:00,1654160923.000239,53.22912030712209,10.39856407153219,37.09593,0.02195892,0.7088531,60.03478099290587,45.40900303953047,2.400000095367432,7.999579855010837,-9999,4007.398748916667,0.18353271484375,0.8232269287109375,-0.88507080078125,4007.388753916667,-0.2850111985668841,0.3228711373863897,-0.7678528402300442,-6.469346046447754,2.008145809173584,-1.464760661125183,-0.05159376561641693,0.03079527616500854,-0.1953326463699341,XArbitraryZVertical,-0.3447798581810628,0.2000285174984527,-0.1895677381726621,0.8973178743817474,0.2282600551843643,0.6945921778678894,-0.6822308897972107,0,0,0,-1,-1,4007.360595916667,unknown,2,2022-06-02T11:08:43.223+02:00,2022-06-02T10:17:13.754+02:00,757,1.541467,0,0,607.4087,0,0,2022-06-02T11:08:43.223+02:00,675853723.2228109,0,5.121094,101.322,1,0.74
2022-06-02T11:08:43.272+02:00,1654160923.000239,53.22912030712209,10.39856407153219,37.09593,0.02195892,0.7088531,60.03478099290587,45.40900303953047,2.400000095367432,7.999579855010837,-9999,4007.408742916667,0.1931610107421875,0.863861083984375,-0.8770294189453125,4007.398748916667,-0.2734308899629124,0.3516258875697836,-0.833625061736865,-6.469680786132812,2.076782703399658,-1.376664876937866,-0.04637081921100616,0.05856186151504517,-0.2573758363723755,XArbitraryZVertical,-0.373090339348928,0.2127674450027214,-0.1928509343203813,0.8822369717110863,0.2315209656953812,0.7403729557991028,-0.6310672163963318,0,0,0,-1,-1,4007.360595916667,unknown,2,2022-06-02T11:08:43.223+02:00,2022-06-02T10:17:13.754+02:00,757,1.541467,0,0,607.4087,0,0,2022-06-02T11:08:43.223+02:00,675853723.2228109,0,5.121094,101.322,1,0.74
2022-06-02T11:08:43.282+02:00,1654160923.000239,53.22912030712209,10.39856407153219,37.09593,0.02195892,0.7088531,60.03478099290587,45.40900303953047,2.400000095367432,7.999579855010837,-9999,4007.418736916667,0.2274932861328125,0.9519195556640625,-0.88409423828125,4007.408742916667,-0.2570991045624176,0.3851845118565517,-0.8981526568820243,-6.311083793640137,2.131672859191895,-1.300521850585938,-0.04892018437385559,0.0560031533241272,-0.3021736741065979,XArbitraryZVertical,-0.4004870059463761,0.2256283595397723,-0.1957591106843494,0.8662448749197453,0.2341008633375168,0.7821772694587708,-0.5774040222167969,0,0,0,-1,-1,4007.360595916667,unknown,2,2022-06-02T11:08:43.223+02:00,2022-06-02T10:17:13.754+02:00,757,1.541467,0,0,607.4087,0,0,2022-06-02T11:08:43.223+02:00,675853723.2228109,0,5.121094,101.322,1,0.74
2022-06-02T11:08:43.292+02:00,1654160923.000239,53.22912030712209,10.39856407153219,37.09593,0.02195892,0.7088531,60.03478099290587,45.40900303953047,2.400000095367432,7.999579855010837,-9999,4007.428731916667,0.2441864013671875,1.04803466796875,-0.859832763671875,4007.418736916667,-0.2366702194306508,0.422710835782219,-0.9596504972026326,-5.967312812805176,2.050698518753052,-1.337391257286072,-0.02522037923336029,0.08767080307006836,-0.3631289601325989,XArbitraryZVertical,-0.4262250948748131,0.2380802279492547,-0.1985616528797306,0.8498371787402331,0.2353949397802353,0.8189910650253296,-0.5232999324798584,0,0,0,-1,-1,4007.360595916667,unknown,2,2022-06-02T11:08:43.223+02:00,2022-06-02T10:17:13.754+02:00,757,1.541467,0,0,607.4087,0,0,2022-06-02T11:08:43.223+02:00,675853723.2228109,0,5.121094,101.322,1,0.74
2022-06-02T11:08:43.302+02:00,1654160923.000239,53.22912030712209,10.39856407153219,37.09593,0.02195892,0.7088531,60.03478099290587,45.40900303953047,2.400000095367432,7.999579855010837,-9999,4007.438725916667,0.2581024169921875,1.066802978515625,-0.833770751953125,4007.428731916667,-0.2120506521879293,0.4643304671658065,-1.016678604256589,-5.490106105804443,2.230137586593628,-1.094741106033325,0.002562865614891052,0.1483684182167053,-0.3800442218780518,XArbitraryZVertical,-0.4497383741684288,0.2499900143326409,-0.2013250077611693,0.8334918471818736,0.2356421202421188,0.8503650426864624,-0.4704807698726654,0,0,0,-1,-1,4007.360595916667,unknown,2,2022-06-02T11:08:43.223+02:00,2022-06-02T10:17:13.754+02:00,757,1.541467,0,0,607.4087,0,0,2022-06-02T11:08:43.223+02:00,675853723.2228109,0,5.121094,101.322,1,0.74
2022-06-02T11:08:43.312+02:00,1654160923.000239,53.22912030712209,10.39856407153219,37.09593,0.02195892,0.7088531,60.03478099290587,45.40900303953047,2.400000095367432,7.999579855010837,-9999,4007.448720916667,0.2776641845703125,1.126220703125,-0.8355865478515625,4007.438725916667,-0.181275672045365,0.5136168779163608,-1.067796375639471,-4.992972373962402,2.296752452850342,-0.9929540753364563,0.01052664220333099,0.1906930208206177,-0.4364960491657257,XArbitraryZVertical,-0.4703931454085281,0.2623002326785442,-0.2040874362031459,0.817482148029175,0.236848846077919,0.8761403560638428,-0.4198577404022217,0,0,0,-1,-1,4007.360595916667,unknown,2,2022-06-02T11:08:43.223+02:00,2022-06-02T10:17:13.754+02:00,757,1.541467,0,0,607.4087,0,0,2022-06-02T11:08:43.223+02:00,675853723.2228109,0,5.121094,101.322,1,0.74
2022-06-02T11:08:43.322+02:00,1654160923.000239,53.22912030712209,10.39856407153219,37.09593,0.02195892,0.7088531,60.03478099290587,45.40900303953047,2.400000095367432,7.999579855010837,-9999,4007.458714916667,0.2809600830078125,1.174163818359375,-0.810699462890625,4007.448720916667,-0.1457487883622026,0.5686999606999833,-1.113360574984045,-4.527649879455566,2.432823419570923,-0.8845344185829163,0.03478451073169708,0.1898938417434692,-0.4575473070144653,XArbitraryZVertical,-0.4884658014292689,0.2744705516205698,-0.2071666421090218,0.801965722169902,0.2378443032503128,0.8971879482269287,-0.3721341490745544,0,0,0,-1,-1,4007.360595916667,unknown,2,2022-06-02T11:08:43.223+02:00,2022-06-02T10:17:13.754+02:00,757,1.541467,0,0,607.4087,0,0,2022-06-02T11:08:43.223+02:00,675853723.2228109,0,5.121094,101.322,1,0.74
2022-06-02T11:08:43.332+02:00,1654160923.000239,53.22912030712209,10.39856407153219,37.09593,0.02195892,0.7088531,60.03478099290587,45.40900303953047,2.400000095367432,7.999579855010837,-9999,4007.468708916667,0.2997894287109375,1.244064331054688,-0.7633819580078125,4007.458714916667,-0.1042674453296698,0.6314377580339267,-1.153454681894591,-4.084160804748535,2.592621088027954,-0.7479240894317627,0.03953889012336731,0.2414547204971313,-0.5026737451553345,XArbitraryZVertical,-0.5040647188918679,0.2869337502253785,-0.2106027824257937,0.7869144206229709,0.2392697483301163,0.9141696691513062,-0.3271755576133728,0,0,0,-1,-1,4007.360595916667,unknown,2,2022-06-02T11:08:43.223+02:00,2022-06-02T10:17:13.754+02:00,757,1.541467,0,0,607.4087,0,0,2022-06-02T11:08:43.223+02:00,675853723.2228109,0,5.121094,101.322,1,0.74
2022-06-02T11:08:43.342+02:00,1654160923.000239,53.22912030712209,10.39856407153219,37.09593,0.02195892,0.7088531,60.03478099290587,45.40900303953047,2.400000095367432,7.999579855010837,-9999,4007.478703916667,0.3262939453125,1.33392333984375,-0.7242889404296875,4007.468708916667,-0.05676288179469953,0.7017986803471707,-1.187921590933982,-3.629151582717896,2.729852437973022,-0.6001316905021667,0.04715943336486816,0.2744775414466858,-0.498953104019165,XArbitraryZVertical,-0.5172495379949915,0.2996689021722781,-0.2143816331092209,0.7724583836259402,0.2411859035491943,0.9275944828987122,-0.2853029370307922,0,0,0,-1,-1,4007.360595916667,unknown,2,2022-06-02T11:08:43.223+02:00,2022-06-02T10:17:13.754+02:00,757,1.541467,0,0,607.4087,0,0,2022-06-02T11:08:43.223+02:00,675853723.2228109,0,5.121094,101.322,1,0.74
2022-06-02T11:08:43.353+02:00,1654160923.000239,53.22912030712209,10.39856407153219,37.09593,0.02195892,0.7088531,60.03478099290587,45.40900303953047,2.400000095367432,7.999579855010837,-9999,4007.488697916667,0.3438720703125,1.366928100585938,-0.693939208984375,4007.478703916667,-0.003175447975094329,0.7799397636805112,-1.216697714063571,-3.229708194732666,2.896336078643799,-0.4382959306240082,0.0700601190328598,0.3573437929153442,-0.4977576732635498,XArbitraryZVertical,-0.5281084557592928,0.3127959132295749,-0.2184716505949034,0.7586371073259917,0.2438437193632126,0.9379594326019287,-0.2465203553438187,0,0,0,-1,-1,4007.360595916667,unknown,2,2022-06-02T11:08:43.223+02:00,2022-06-02T10:17:13.754+02:00,757,1.541467,0,0,607.4087,0,0,2022-06-02T11:08:43.223+02:00,675853723.2228109,0,5.121094,101.322,1,0.74
2022-06-02T11:08:43.363+02:00,1654160923.000239,53.22912030712209,10.39856407153219,37.09593,0.02195892,0.7088531,60.03478099290587,45.40900303953047,2.400000095367432,7.999579855010837,-9999,4007.498691916667,0.3436126708984375,1.4027099609375,-0.635223388671875,4007.488697916667,0.0556547943187418,0.865144305935577,-1.240039183716093,-2.841578960418701,3.066372394561768,-0.2923427224159241,0.09032124280929565,0.40790194272995,-0.4968576431274414,XArbitraryZVertical,-0.5368194137138453,0.326369100673156,-0.222927520730453,0.7453935123174207,0.2472031712532043,0.9457967281341553,-0.210616260766983,0,0,0,-1,-1,4007.360595916667,unknown,2,2022-06-02T11:08:43.223+02:00,2022-06-02T10:17:13.754+02:00,757,1.541467,0,0,607.4087,0,0,2022-06-02T11:08:43.223+02:00,675853723.2228109,0,5.121094,101.322,1,0.74
2022-06-02T11:08:43.372+02:00,1654160923.000239,53.22912030712209,10.39856407153219,37.09593,0.02195892,0.7088531,60.03478099290587,45.40900303953047,2.400000095367432,7.999579855010837,-9999,4007.508686916667,0.3712921142578125,1.372756958007812,-0.5005950927734375,4007.498691916667,0.116731500359734,0.9544633781000418,-1.257900785552142,-2.407081604003906,3.185665845870972,-0.1547370553016663,0.09493726491928101,0.4339905977249146,-0.5004287958145142,XArbitraryZVertical,-0.5433425214080851,0.340313495234637,-0.2278573137850903,0.7328346299859799,0.2511779069900513,0.9514462947845459,-0.1779312640428543,0,0,0,-1,-1,4007.360595916667,unknown,2,2022-06-02T11:08:43.223+02:00,2022-06-02T10:17:13.754+02:00,757,1.541467,0,0,607.4087,0,0,2022-06-02T11:08:43.223+02:00,675853723.2228109,0,5.121094,101.322,1,0.74
2022-06-02T11:08:43.382+02:00,1654160923.000239,53.22912030712209,10.39856407153219,37.09593,0.02195892,0.7088531,60.03478099290587,45.40900303953047,2.400000095367432,7.999579855010837,-9999,4007.518680916667,0.3936920166015625,1.279800415039062,-0.4058380126953125,4007.508686916667,0.1771228084575568,1.043973580869003,-1.27057546760425,-2.053994655609131,3.201584339141846,-0.002845521084964275,0.09747141599655151,0.4450429677963257,-0.4200354218482971,XArbitraryZVertical,-0.5478648151186292,0.3542584081789166,-0.2330067956786382,0.7211468437130165,0.255632221698761,0.9552711844444275,-0.14869025349617,0,0,0,-1,-1,4007.360595916667,unknown,2,2022-06-02T11:08:43.223+02:00,2022-06-02T10:17:13.754+02:00,757,1.541467,0,0,607.4087,0,0,2022-06-02T11:08:43.223+02:00,675853723.2228109,0,5.121094,101.322,1,0.74
2022-06-02T11:08:43.392+02:00,1654160923.000239,53.22912030712209,10.39856407153219,37.09593,0.02195892,0.7088531,60.03478099290587,45.40900303953047,2.400000095367432,7.999579855010837,-9999,4007.528675916667,0.41839599609375,1.209182739257812,-0.284271240234375,4007.518680916667,0.2376446529951547,1.134049148453748,-1.279042634027542,-1.894978642463684,3.225260257720947,0.133296325802803,0.1246977746486664,0.3674846887588501,-0.3271098136901855,XArbitraryZVertical,-0.5509521600295034,0.368264098837174,-0.238070886010845,0.710038970785569,0.2606323957443237,0.9577409029006958,-0.1216665431857109,0,0,0,-1,-1,4007.360595916667,unknown,2,2022-06-02T11:08:43.223+02:00,2022-06-02T10:17:13.754+02:00,757,1.541467,0,0,607.4087,0,0,2022-06-02T11:08:43.223+02:00,675853723.2228109,0,5.121094,101.322,1,0.74
2022-06-02T11:08:43.402+02:00,1654160923.000239,53.22912030712209,10.39856407153219,37.09593,0.02195892,0.7088531,60.03478099290587,45.40900303953047,2.400000095367432,7.999579855010837,-9999,4007.538669916667,0.4407501220703125,1.275299072265625,-0.2164459228515625,4007.528675916667,0.3015897320272995,1.227592541962501,-1.284540795925633,-1.871169447898865,3.271233797073364,0.2583253383636475,0.1366777718067169,0.2767912149429321,-0.2473909258842468,XArbitraryZVertical,-0.5534024533175645,0.3824101650842512,-0.2427692671816169,0.6989786716588866,0.265894889831543,0.9593079090118408,-0.09501638263463974,0,0,0,-1,-1,4007.360595916667,unknown,2,2022-06-02T11:08:43.223+02:00,2022-06-02T10:17:13.754+02:00,757,1.541467,0,0,607.4087,0,0,2022-06-02T11:08:43.223+02:00,675853723.2228109,0,5.121094,101.322,1,0.74
2022-06-02T11:08:43.412+02:00,1654160923.000239,53.22912030712209,10.39856407153219,37.09593,0.02195892,0.7088531,60.03478099290587,45.40900303953047,2.400000095367432,7.999579855010837,-9999,4007.548663916667,0.4449005126953125,1.3145751953125,-0.1536407470703125,4007.538669916667,0.365314442225523,1.3218474956529,-1.286269126721628,-1.642600774765015,3.327281713485718,0.4490369260311127,0.1611011028289795,0.2703384757041931,-0.1870033740997314,XArbitraryZVertical,-0.5547734956464094,0.3970462585087538,-0.2472572163273656,0.688073040024971,0.272050142288208,0.9597944617271423,-0.06916127353906631,0,0,0,-1,-1,4007.360595916667,unknown,2,2022-06-02T11:08:43.223+02:00,2022-06-02T10:17:13.754+02:00,757,1.541467,0,0,607.4087,0,0,2022-06-02T11:08:43.223+02:00,675853723.2228109,0,5.121094,101.322,1,0.74
2022-06-02T11:08:43.422+02:00,1654160923.000239,53.22912030712209,10.39856407153219,37.09593,0.02195892,0.7088531,60.03478099290587,45.40900303953047,2.400000095367432,7.999579855010837,-9999,4007.558658916667,0.4238433837890625,1.275192260742188,-0.0812530517578125,4007.548663916667,0.4194791435553857,1.407177139443639,-1.284026749296273,-1.256435751914978,3.337544679641724,0.6164852976799011,0.1658992171287537,0.3483172655105591,-0.1357799768447876,XArbitraryZVertical,-0.5544808865659173,0.4117205042410105,-0.2517635496959979,0.6779766511605309,0.2790776193141937,0.9591625928878784,-0.04607434570789337,0,0,0,-1,-1,4007.360595916667,unknown,2,2022-06-02T11:08:43.223+02:00,2022-06-02T10:17:13.754+02:00,757,1.541467,0,0,607.4087,0,0,2022-06-02T11:08:43.223+02:00,675853723.2228109,0,5.121094,101.322,1,0.74
2022-06-02T11:08:43.432+02:00,1654160923.000239,53.22912030712209,10.39856407153219,37.09593,0.02195892,0.7088531,60.03478099290587,45.40900303953047,2.400000095367432,7.999579855010837,-9999,4007.568652916667,0.4110107421875,1.276153564453125,-0.043731689453125,4007.558658916667,0.4594499945003225,1.478561400102765,-1.278591453210235,-0.8601852059364319,3.277522325515747,0.7549182772636414,0.1470285654067993,0.3404998779296875,-0.09036576747894287,XArbitraryZVertical,-0.5524224449094567,0.4261026573468519,-0.2563862566694396,0.6689783647858148,0.2868398725986481,0.957611083984375,-0.02653193473815918,0,0,0,-1,-1,4007.360595916667,unknown,2,2022-06-02T11:08:43.223+02:00,2022-06-02T10:17:13.754+02:00,757,1.541467,0,0,607.4087,0,0,2022-06-02T11:08:43.223+02:00,675853723.2228109,0,5.121094,101.322,1,0.74
2022-06-02T11:08:43.442+02:00,1654160923.000239,53.22912030712209,10.39856407153219,37.09593,0.02195892,0.7088531,60.03478099290587,45.40900303953047,2.400000095367432,7.999579855010837,-9999,4007.578647916667,0.3861236572265625,1.280502319335938,-0.022552490234375,4007.568652916667,0.4831864188330849,1.533467337168675,-1.270895589642547,-0.425291508436203,3.157934427261353,0.8709583282470703,0.1234662532806396,0.3122581243515015,-0.04675972461700439,XArbitraryZVertical,-0.5486288323159493,0.4398792065809705,-0.2611588757275152,0.6612932621860681,0.2952197194099426,0.9553658366203308,-0.0110253756865859,0,0,0,-1,-1,4007.360595916667,unknown,2,2022-06-02T11:08:43.223+02:00,2022-06-02T10:17:13.754+02:00,757,1.541467,0,0,607.4087,0,0,2022-06-02T11:08:43.223+02:00,675853723.2228109,0,5.121094,101.322,1,0.74
2022-06-02T11:08:43.452+02:00,1654160923.000239,53.22912030712209,10.39856407153219,37.09593,0.02195892,0.7088531,60.03478099290587,45.40900303953047,2.400000095367432,7.999579855010837,-9999,4007.588641916667,0.339569091796875,1.251510620117188,-0.0140533447265625,4007.578647916667,0.491360978652375,1.571929995373776,-1.261562891429244,-0.03967537358403206,2.974635124206543,1.004352927207947,0.09644410014152527,0.3326347470283508,-0.03249537944793701,XArbitraryZVertical,-0.5432466461854236,0.452830636122392,-0.2659346840903198,0.6550619298705982,0.3043279647827148,0.9525671601295471,0.0003450071963015944,0,0,0,-1,-1,4007.360595916667,unknown,2,2022-06-02T11:08:43.223+02:00,2022-06-02T10:17:13.754+02:00,757,1.541467,0,0,607.4087,0,0,2022-06-02T11:08:43.223+02:00,675853723.2228109,0,5.121094,101.322,1,0.74
2022-06-02T11:08:43.465+02:00,1654160923.000239,53.22912030712209,10.39856407153219,37.09593,0.02195892,0.7088531,60.03478099290587,45.40900303953047,2.400000095367432,7.999579855010837,-9999,4007.598635916667,0.2905731201171875,1.215728759765625,0.0328826904296875,4007.588641916667,0.4872739041243135,1.596869817605419,-1.25079264579202,0.2606213390827179,2.796338319778442,1.151592373847961,0.05226662755012512,0.3177640438079834,-0.02661848068237305,XArbitraryZVertical,-0.5365409987888403,0.464999206541356,-0.270452811092718,0.6501959557616207,0.3144631683826447,0.9492342472076416,0.008201010525226593,0,0,0,-1,-1,4007.360595916667,unknown,2,2022-06-02T11:08:43.223+02:00,2022-06-02T10:17:13.754+02:00,757,1.541467,0,0,607.4087,0,0,2022-06-02T11:08:43.223+02:00,675853723.2228109,0,5.121094,101.322,1,0.74
2022-06-02T11:08:43.475+02:00,1654160923.000239,53.22912030712209,10.39856407153219,37.09593,0.02195892,0.7088531,60.03478099290587,45.40900303953047,2.400000095367432,7.999579855010837,-9999,4007.608630916667,0.2580108642578125,1.146896362304688,0.1134033203125,4007.598635916667,0.4743337430305344,1.611639319136254,-1.238534739112163,0.4687666594982147,2.614071130752563,1.329080700874329,-0.01589629054069519,0.2930349707603455,-0.01101446431130171,XArbitraryZVertical,-0.528731905936751,0.4765520180104458,-0.2745133582183361,0.64651600905659,0.3259090781211853,0.9453070759773254,0.0133185088634491,0,0,0,-1,-1,4007.360595916667,unknown,2,2022-06-02T11:08:43.223+02:00,2022-06-02T10:17:13.754+02:00,757,1.541467,0,0,607.4087,0,0,2022-06-02T11:08:43.223+02:00,675853723.2228109,0,5.121094,101.322,1,0.74
2022-06-02T11:08:43.494+02:00,1654160923.000239,53.22912030712209,10.39856407153219,37.09593,0.02195892,0.7088531,60.03478099290587,45.40900303953047,2.400000095367432,7.999579855010837,-9999,4007.618624916667,0.251983642578125,1.10589599609375,0.2303314208984375,4007.608630916667,0.4553975422432657,1.619198545963705,-1.224613248597152,0.6631004214286804,2.466980457305908,1.501944899559021,-0.06405508518218994,0.2392261624336243,0.05064534768462181,XArbitraryZVertical,-0.5199706205116243,0.4876874024211272,-0.2779677335078674,0.6438363349294716,0.3389116227626801,0.9406746625900269,0.01641689799726009,0,0,0,-1,-1,4007.360595916667,unknown,2,2022-06-02T11:08:43.223+02:00,2022-06-02T10:17:13.754+02:00,757,1.541467,0,0,607.4087,0,0,2022-06-02T11:08:43.223+02:00,675853723.2228109,0,5.121094,101.322,1,0.74
2022-06-02T11:08:43.498+02:00,1654160923.000239,53.22912030712209,10.39856407153219,37.09593,0.02195892,0.7088531,60.03478099290587,45.40900303953047,2.400000095367432,7.999579855010837,-9999,4007.628619916667,0.249420166015625,1.048355102539062,0.313568115234375,4007.618624916667,0.431250729940582,1.620260909488837,-1.209244188441661,0.8590457439422607,2.290202617645264,1.647652983665466,-0.1064061224460602,0.1922448873519897,0.1566587686538696,XArbitraryZVertical,-0.5103274629421019,0.4983079030558518,-0.2808838992674401,0.6421519828939154,0.3532932698726654,0.9353489279747009,0.01748977228999138,0,0,0,-1,-1,4007.360595916667,unknown,2,2022-06-02T11:08:43.223+02:00,2022-06-02T10:17:13.754+02:00,757,1.541467,0,0,607.4087,0,0,2022-06-02T11:08:43.223+02:00,675853723.2228109,0,5.121094,101.322,1,0.74
2022-06-02T11:08:43.502+02:00,1654160923.000239,53.22912030712209,10.39856407153219,37.09593,0.02195892,0.7088531,60.03478099290587,45.40900303953047,2.400000095367432,7.999579855010837,-9999,4007.638613916667,0.239959716796875,1.035720825195312,0.3726043701171875,4007.628619916667,0.4022014185595609,1.615353770615046,-1.19276782468197,1.098229289054871,2.148784637451172,1.74614679813385,-0.1142212748527527,0.1477543115615845,0.2595149278640747,XArbitraryZVertical,-0.4998153144344244,0.5083352850988895,-0.2834899376935408,0.6414151428930691,0.368722677230835,0.9293941259384155,0.01644022203981876,0,0,0,-1,-1,4007.360595916667,unknown,2,2022-06-02T11:08:43.223+02:00,2022-06-02T10:17:13.754+02:00,757,1.541467,0,0,607.4087,0,0,2022-06-02T11:08:43.223+02:00,675853723.2228109,0,5.121094,101.322,1,0.74
2022-06-02T11:08:43.512+02:00,1654160923.000239,53.22912030712209,10.39856407153219,37.09593,0.02195892,0.7088531,60.03478099290587,45.40900303953047,2.400000095367432,7.999579855010837,-9999,4007.648607916667,0.244598388671875,1.016067504882812,0.406646728515625,4007.638613916667,0.3673581841242703,1.603862865745844,-1.175304012064578,1.39213490486145,2.010006666183472,1.842507362365723,-0.1431236863136292,0.1144701242446899,0.3321268558502197,XArbitraryZVertical,-0.4882547297070259,0.5176637961872413,-0.286056900266233,0.6417187236642365,0.3850518465042114,0.922806978225708,0.01273697428405285,0,0,0,-1,-1,4007.360595916667,unknown,2,2022-06-02T11:08:43.223+02:00,2022-06-02T10:17:13.754+02:00,757,1.541467,0,0,607.4087,0,0,2022-06-02T11:08:43.223+02:00,675853723.2228109,0,5.121094,101.322,1,0.74
2022-06-02T11:08:43.522+02:00,1654160923.000239,53.22912030712209,10.39856407153219,37.09593,0.02195892,0.7088531,60.03478099290587,45.40900303953047,2.400000095367432,7.999579855010837,-9999,4007.658602916667,0.2572479248046875,0.9772796630859375,0.416534423828125,4007.648607916667,0.3273570314821547,1.586555468261645,-1.156988691663219,1.656025648117065,1.886154055595398,1.891726493835449,-0.1604256629943848,0.1119457483291626,0.3869282007217407,XArbitraryZVertical,-0.4756667133345298,0.5262218264629297,-0.2887361080490202,0.6430110810025745,0.4020486176013947,0.9155964255332947,0.00633646547794342,0,0,0,-1,-1,4007.360595916667,unknown,2,2022-06-02T11:08:43.223+02:00,2022-06-02T10:17:13.754+02:00,757,1.541467,0,0,607.4087,0,0,2022-06-02T11:08:43.223+02:00,675853723.2228109,0,5.121094,101.322,1,0.74
2022-06-02T11:08:43.532+02:00,1654160923.000239,53.22912030712209,10.39856407153219,37.09593,0.02195892,0.7088531,60.03478099290587,45.40900303953047,2.400000095367432,7.999579855010837,-9999,4007.668596916667,0.2797393798828125,0.9051971435546875,0.4348602294921875,4007.658602916667,0.2844369558538171,1.565656252742156,-1.138091953333737,1.839415311813354,1.759936809539795,1.897176027297974,-0.1700693070888519,0.09428578615188599,0.4140357375144958,XArbitraryZVertical,-0.4623445955058982,0.5340035519222418,-0.2915444491907255,0.6450421566183597,0.419321596622467,0.907835066318512,-0.002155363094061613,0,0,0,-1,-1,4007.360595916667,unknown,2,2022-06-02T11:08:43.223+02:00,2022-06-02T10:17:13.754+02:00,757,1.541467,0,0,607.4087,0,0,2022-06-02T11:08:43.223+02:00,675853723.2228109,0,5.121094,101.322,1,0.74
2022-06-02T11:08:43.542+02:00,1654160923.000239,53.22912030712209,10.39856407153219,37.09593,0.02195892,0.7088531,60.03478099290587,45.40900303953047,2.400000095367432,7.999579855010837,-9999,4007.678590916667,0.3124847412109375,0.837188720703125,0.448822021484375,4007.668596916667,0.2412343603759802,1.543523610092517,-1.118997299935169,1.912688970565796,1.62217116355896,1.857093334197998,-0.1702937185764313,0.04279589653015137,0.4377933740615845,XArbitraryZVertical,-0.4487433364192421,0.5409960553708557,-0.2943773012872618,0.6475296302022308,0.4364222586154938,0.8996631503105164,-0.01190537214279175,0,0,0,-1,-1,4007.360595916667,unknown,2,2022-06-02T11:08:43.223+02:00,2022-06-02T10:17:13.754+02:00,757,1.541467,0,0,607.4087,0,0,2022-06-02T11:08:43.223+02:00,675853723.2228109,0,5.121094,101.322,1,0.74
2022-06-02T11:08:43.552+02:00,1654160923.000239,53.22912030712209,10.39856407153219,37.09593,0.02195892,0.7088531,60.03478099290587,45.40900303953047,2.400000095367432,7.999579855010837,-9999,4007.688585916667,0.3415374755859375,0.7754364013671875,0.4662933349609375,4007.678590916667,0.2001848490791125,1.522272925487285,-1.100048064174832,1.865755558013916,1.477123379707336,1.783533811569214,-0.1558390259742737,-0.02214968204498291,0.4595450162887573,XArbitraryZVertical,-0.4353313329845734,0.5472540364041943,-0.2970502069525024,0.6502005120275095,0.4530191719532013,0.8912291526794434,-0.0219992995262146,0,0,0,-1,-1,4007.360595916667,unknown,2,2022-06-02T11:08:43.223+02:00,2022-06-02T10:17:13.754+02:00,757,1.541467,0,0,607.4087,0,0,2022-06-02T11:08:43.223+02:00,675853723.2228109,0,5.121094,101.322,1,0.74
2022-06-02T11:08:43.562+02:00,1654160923.000239,53.22912030712209,10.39856407153219,37.09593,0.02195892,0.7088531,60.03478099290587,45.40900303953047,2.400000095367432,7.999579855010837,-9999,4007.698579916667,0.3823394775390625,0.7468719482421875,0.50042724609375,4007.688585916667,0.1634773768944647,1.503734913874459,-1.081689634008496,1.716871500015259,1.323415875434875,1.685920119285583,-0.1426398456096649,-0.08046114444732666,0.4900566339492798,XArbitraryZVertical,-0.4226125241882546,0.5528620840568795,-0.2993527392107906,0.6527863348685369,0.4687812030315399,0.8827528953552246,-0.03148433938622475,0,0,0,-1,-1,4007.360595916667,unknown,2,2022-06-02T11:08:43.223+02:00,2022-06-02T10:17:13.754+02:00,757,1.541467,0,0,607.4087,0,0,2022-06-02T11:08:43.223+02:00,675853723.2228109,0,5.121094,101.322,1,0.74
2022-06-02T11:08:43.572+02:00,1654160923.000239,53.22912030712209,10.39856407153219,37.09593,0.02195892,0.7088531,60.03478099290587,45.40900303953047,2.400000095367432,7.999579855010837,-9999,4007.708574916667,0.4201202392578125,0.728302001953125,0.5394134521484375,4007.698579916667,0.132260498518309,1.488667262704945,-1.064170296970192,1.512989282608032,1.145373582839966,1.585135340690613,-0.1221287846565247,-0.1156281232833862,0.5205347537994385,XArbitraryZVertical,-0.4109266468053616,0.5578852438317345,-0.3010702112663752,0.6551794343557388,0.4835943281650543,0.8743866086006165,-0.03980669006705284,0,0,0,-1,-1,4007.360595916667,unknown,2,2022-06-02T11:08:43.223+02:00,2022-06-02T10:17:13.754+02:00,757,1.541467,0,0,607.4087,0,0,2022-06-02T11:08:43.223+02:00,675853723.2228109,0,5.121094,101.322,1,0.74
2022-06-02T11:08:43.582+02:00,1654160923.000239,53.22912030712209,10.39856407153219,37.09593,0.02195892,0.7088531,60.03478099290587,45.40900303953047,2.400000095367432,7.999579855010837,-9999,4007.718568916667,0.442901611328125,0.7264251708984375,0.573760986328125,4007.708574916667,0.106682448464038,1.476982235820295,-1.047727367640135,1.29020631313324,0.9756540656089783,1.468407869338989,-0.09284904599189758,-0.1294739246368408,0.5700495839118958,XArbitraryZVertical,-0.4004637153084408,0.5623443635051724,-0.3021230182754162,0.6573577299188921,0.4973442256450653,0.8662902116775513,-0.04679526016116142,0,0,0,-1,-1,4007.360595916667,unknown,2,2022-06-02T11:08:43.223+02:00,2022-06-02T10:17:13.754+02:00,757,1.541467,0,0,607.4087,0,0,2022-06-02T11:08:43.223+02:00,675853723.2228109,0,5.121094,101.322,1,0.74
2022-06-02T11:08:43.592+02:00,1654160923.000239,53.22912030712209,10.39856407153219,37.09593,0.02195892,0.7088531,60.03478099290587,45.40900303953047,2.400000095367432,7.999579855010837,-9999,4007.728562916667,0.4642333984375,0.7407684326171875,0.601654052734375,4007.718568916667,0.08615431929317381,1.468146264908422,-1.032551254328939,1.083989381790161,0.7942327857017517,1.353180170059204,-0.07897758483886719,-0.133908748626709,0.6084372401237488,XArbitraryZVertical,-0.391255859080978,0.5662634404531212,-0.3025797842858559,0.659325451924656,0.5099315643310547,0.8586096167564392,-0.05252913758158684,0,0,0,-1,-1,4007.360595916667,unknown,2,2022-06-02T11:08:43.223+02:00,2022-06-02T10:17:13.754+02:00,757,1.541467,0,0,607.4087,0,0,2022-06-02T11:08:43.223+02:00,675853723.2228109,0,5.121094,101.322,1,0.74
