loggingTime(txt),locationTimestamp_since1970(s),locationLatitude(WGS84),locationLongitude(WGS84),locationAltitude(m),locationSpeed(m/s),locationSpeedAccuracy(m/s),locationCourse(°),locationCourseAccuracy(°),locationVerticalAccuracy(m),locationHorizontalAccuracy(m),locationFloor(Z),accelerometerTimestamp_sinceReboot(s),accelerometerAccelerationX(G),accelerometerAccelerationY(G),accelerometerAccelerationZ(G),motionTimestamp_sinceReboot(s),motionYaw(rad),motionRoll(rad),motionPitch(rad),motionRotationRateX(rad/s),motionRotationRateY(rad/s),motionRotationRateZ(rad/s),motionUserAccelerationX(G),motionUserAccelerationY(G),motionUserAccelerationZ(G),motionAttitudeReferenceFrame(txt),motionQuaternionX(R),motionQuaternionY(R),motionQuaternionZ(R),motionQuaternionW(R),motionGravityX(G),motionGravityY(G),motionGravityZ(G),motionMagneticFieldX(µT),motionMagneticFieldY(µT),motionMagneticFieldZ(µT),motionHeading(°),motionMagneticFieldCalibrationAccuracy(Z),activityTimestamp_sinceReboot(s),activity(txt),activityActivityConfidence(Z),activityActivityStartDate(txt),pedometerStartDate(txt),pedometerNumberofSteps(N),pedometerAverageActivePace(s/m),pedometerCurrentPace(s/m),pedometerCurrentCadence(steps/s),pedometerDistance(m),pedometerFloorAscended(N),pedometerFloorDescended(N),pedometerEndDate(txt),altimeterTimestamp_sinceReboot(s),altimeterReset(bool),altimeterRelativeAltitude(m),altimeterPressure(kPa),batteryState(N),batteryLevel(R)
2022-06-02T10:45:12.755+02:00,1654159511.14246,53.22907412977236,10.39845990821668,36.71472,0,20,-1,-1,2.400000095367432,11.99936978251625,-9999,2657.001171541667,-0.16552734375,-0.3010406494140625,-0.9876708984375,2656.991176541667,0.1499519663737286,0.02433093909797726,0.3288003813153485,0.147619292140007,0.07491418719291687,0.05208317562937737,-0.3121030330657959,-0.01866009831428528,-0.02923727035522461,XArbitraryZVertical,0.1622898192501231,0.02422564323359263,0.07587567755307902,0.9835232817395032,0.02302526868879795,-0.3229078948497772,-0.9461502432823181,0,0,0,-1,-1,2653.347029125,unknown,2,2022-06-02T10:45:09.069+02:00,2022-06-02T10:17:13.754+02:00,448,1.401249,0,0,345.1212,0,0,2022-06-02T10:45:11.626+02:00,675852311.6256452,0,7.441406,101.2925,1,0.82
2022-06-02T10:45:12.760+02:00,1654159511.14246,53.22907412977236,10.39845990821668,36.71472,0,20,-1,-1,2.400000095367432,11.99936978251625,-9999,2657.011166541667,0.01971435546875,-0.3088531494140625,-0.965362548828125,2657.001171541667,0.150676044528159,0.02557888086829446,0.3298281808797526,0.06510047614574432,0.2419229447841644,0.05702220275998116,-0.2468232214450836,0.02795153856277466,-0.04301148653030396,XArbitraryZVertical,0.1627390017290203,0.02493514726917658,0.07633312109260053,0.9833958572216108,0.02419748902320862,-0.3238804638385773,-0.9457885026931763,0,0,0,-1,-1,2653.347029125,unknown,2,2022-06-02T10:45:09.069+02:00,2022-06-02T10:17:13.754+02:00,448,1.401249,0,0,345.1212,0,0,2022-06-02T10:45:11.626+02:00,675852311.6256452,0,7.441406,101.2925,1,0.82
2022-06-02T10:45:12.762+02:00,1654159511.14246,53.22907412977236,10.39845990821668,36.71472,0,20,-1,-1,2.400000095367432,11.99936978251625,-9999,2657.021160541667,0.148406982421875,-0.2948455810546875,-0.9568634033203125,2657.011166541667,0.1509174512308386,0.02791877319429035,0.3304037269220595,0.05159345269203186,0.2259474396705627,0.002516887150704861,-0.09937278181314468,0.01786062121391296,-0.02802890539169312,XArbitraryZVertical,0.162929507655087,0.0261260206065345,0.07664254483159894,0.9833093462920008,0.02640525624155998,-0.3244249522686005,-0.9455428123474121,0,0,0,-1,-1,2653.347029125,unknown,2,2022-06-02T10:45:09.069+02:00,2022-06-02T10:17:13.754+02:00,448,1.401249,0,0,345.1212,0,0,2022-06-02T10:45:11.626+02:00,675852311.6256452,0,7.441406,101.2925,1,0.82
2022-06-02T10:45:12.769+02:00,1654159511.14246,53.22907412977236,10.39845990821668,36.71472,0,20,-1,-1,2.400000095367432,11.99936978251625,-9999,2657.031155541667,0.11895751953125,-0.2875823974609375,-0.938385009765625,2657.021160541667,0.1509288564286408,0.02923577989328185,0.3308786318758687,0.03457355871796608,0.05055878311395645,0.003598995506763458,0.07837206125259399,0.02163618803024292,-0.01573699712753296,XArbitraryZVertical,0.1631124296800822,0.02679154709399612,0.07675589974515433,0.9832521905008426,0.0276460126042366,-0.3248741328716278,-0.945353090763092,0,0,0,-1,-1,2653.347029125,unknown,2,2022-06-02T10:45:09.069+02:00,2022-06-02T10:17:13.754+02:00,448,1.401249,0,0,345.1212,0,0,2022-06-02T10:45:11.626+02:00,675852311.6256452,0,7.441406,101.2925,1,0.82
2022-06-02T10:45:12.771+02:00,1654159511.14246,53.22907412977236,10.39845990821668,36.71472,0,20,-1,-1,2.400000095367432,11.99936978251625,-9999,2657.041149541667,0.039154052734375,-0.302947998046875,-0.9230499267578125,2657.031155541667,0.1506834858086745,0.02924442785793539,0.3310317594990867,0.0006118612363934517,-0.04032132029533386,-0.05216439813375473,0.1257896572351456,0.03894713521003723,5.900859832763672e-06,XArbitraryZVertical,0.1631906875377084,0.02678128483996737,0.07663612267527641,0.9832488639550784,0.02765273302793503,-0.3250189423561096,-0.9453031420707703,0,0,0,-1,-1,2653.347029125,unknown,2,2022-06-02T10:45:09.069+02:00,2022-06-02T10:17:13.754+02:00,448,1.401249,0,0,345.1212,0,0,2022-06-02T10:45:11.626+02:00,675852311.6256452,0,7.441406,101.2925,1,0.82
2022-06-02T10:45:12.773+02:00,1654159511.14246,53.22907412977236,10.39845990821668,36.71472,0,20,-1,-1,2.400000095367432,11.99936978251625,-9999,2657.051144541667,-0.009979248046875,-0.3116302490234375,-0.910736083984375,2657.041149541667,0.1499242818358874,0.02897681905152485,0.3309170921482716,-0.02231735736131668,-0.05216187238693237,-0.07957139611244202,0.05305875837802887,0.03201806545257568,0.01494312286376953,XArbitraryZVertical,0.163154645254818,0.02658366876836515,0.07624092461743813,0.9832909523801233,0.02740084007382393,-0.3249104917049408,-0.9453477263450623,0,0,0,-1,-1,2653.347029125,unknown,2,2022-06-02T10:45:09.069+02:00,2022-06-02T10:17:13.754+02:00,448,1.401249,0,0,345.1212,0,0,2022-06-02T10:45:11.626+02:00,675852311.6256452,0,7.441406,101.2925,1,0.82
2022-06-02T10:45:12.784+02:00,1654159511.14246,53.22907412977236,10.39845990821668,36.71472,0,20,-1,-1,2.400000095367432,11.99936978251625,-9999,2657.061138541667,-0.013824462890625,-0.3212738037109375,-0.9101104736328125,2657.051144541667,0.1493159242990443,0.02881428328726631,0.3304122523557749,-0.08526808768510818,-0.01963934674859047,-0.02576115727424622,-0.01579255238175392,0.01481691002845764,0.03267425298690796,XArbitraryZVertical,0.1629205855047103,0.02643615323149951,0.07592808291026136,0.983357981348157,0.02725190855562687,-0.3244329988956451,-0.945516049861908,0,0,0,-1,-1,2653.347029125,unknown,2,2022-06-02T10:45:09.069+02:00,2022-06-02T10:17:13.754+02:00,448,1.401249,0,0,345.1212,0,0,2022-06-02T10:45:11.626+02:00,675852311.6256452,0,7.441406,101.2925,1,0.82
2022-06-02T10:45:12.794+02:00,1654159511.14246,53.22907412977236,10.39845990821668,36.71472,0,20,-1,-1,2.400000095367432,11.99936978251625,-9999,2657.071133541667,0.0116424560546875,-0.329071044921875,-0.93389892578125,2657.061138541667,0.1492902278782748,0.02885238559753708,0.3291221493634493,-0.1702101826667786,0.02423962578177452,0.01256712432950735,-0.04234515130519867,0.01144483685493469,0.03620356321334839,XArbitraryZVertical,0.1622849010017689,0.02640686968988354,0.0759172943950432,0.9834647018908232,0.02729998715221882,-0.3232124149799347,-0.9459325671195984,0,0,0,-1,-1,2653.347029125,unknown,2,2022-06-02T10:45:09.069+02:00,2022-06-02T10:17:13.754+02:00,448,1.401249,0,0,345.1212,0,0,2022-06-02T10:45:11.626+02:00,675852311.6256452,0,7.441406,101.2925,1,0.82
2022-06-02T10:45:12.803+02:00,1654159511.14246,53.22907412977236,10.39845990821668,36.71472,0,20,-1,-1,2.400000095367432,11.99936978251625,-9999,2657.081128541667,0.0446014404296875,-0.2911529541015625,-0.9540252685546875,2657.071133541667,0.1495574273332173,0.02917191212619411,0.3273483880445751,-0.1692423820495605,0.04869863018393517,0.03492223098874092,-0.03057911805808544,-0.008056461811065674,0.0279010534286499,XArbitraryZVertical,0.1613966394557599,0.02652241804946729,0.07607270970613317,0.983595729188201,0.02761891484260559,-0.3215333521366119,-0.9464953541755676,0,0,0,-1,-1,2653.347029125,unknown,2,2022-06-02T10:45:09.069+02:00,2022-06-02T10:17:13.754+02:00,448,1.401249,0,0,345.1212,0,0,2022-06-02T10:45:11.626+02:00,675852311.6256452,0,7.441406,101.2925,1,0.82
2022-06-02T10:45:12.814+02:00,1654159511.14246,53.22907412977236,10.39845990821668,36.71472,0,20,-1,-1,2.400000095367432,11.99936978251625,-9999,2657.091122541667,0.0487213134765625,-0.2503814697265625,-0.96710205078125,2657.081128541667,0.1501335556845549,0.02936170582879269,0.3260735608849768,-0.08901841938495636,0.02579910680651665,0.06546369940042496,0.004690662026405334,0.007063001394271851,-0.002411246299743652,XArbitraryZVertical,0.1607545414758765,0.02661660240395439,0.07636992616806439,0.9836753088986029,0.02781056426465511,-0.3203259706497192,-0.9468990564346313,0,0,0,-1,-1,2653.347029125,unknown,2,2022-06-02T10:45:09.069+02:00,2022-06-02T10:17:13.754+02:00,448,1.401249,0,0,345.1212,0,0,2022-06-02T10:45:11.626+02:00,675852311.6256452,0,7.441406,101.2925,1,0.82
2022-06-02T10:45:12.823+02:00,1654159511.14246,53.22907412977236,10.39845990821668,36.71472,0,20,-1,-1,2.400000095367432,11.99936978251625,-9999,2657.101117541667,0.0488739013671875,-0.25830078125,-0.971527099609375,2657.091122541667,0.1508977074210924,0.02934411179931806,0.3256859970416611,0.001568735111504793,0.02582920156419277,0.07799679785966873,0.02206818014383316,0.05416595935821533,-0.01104521751403809,XArbitraryZVertical,0.1605543477840876,0.02665541523309209,0.07674391588305586,0.9836778596759584,0.02779754437506199,-0.3199588060379028,-0.9470235705375671,0,0,0,-1,-1,2653.347029125,unknown,2,2022-06-02T10:45:09.069+02:00,2022-06-02T10:17:13.754+02:00,448,1.401249,0,0,345.1212,0,0,2022-06-02T10:45:11.626+02:00,675852311.6256452,0,7.441406,101.2925,1,0.82
2022-06-02T10:45:12.833+02:00,1654159511.14246,53.22907412977236,10.39845990821668,36.71472,0,20,-1,-1,2.400000095367432,11.99936978251625,-9999,2657.111111541667,0.05322265625,-0.3021240234375,-0.970794677734375,2657.101117541667,0.1517005074408579,0.02938390887448564,0.326070460767343,0.0611037015914917,0.02973472513258457,0.07395943999290466,0.02131694555282593,0.07253554463386536,-0.02595514059066772,XArbitraryZVertical,0.1607312553401523,0.02675334839479744,0.07714236872061447,0.9836151395674623,0.02783161774277687,-0.3203230202198029,-0.9468994140625,0,0,0,-1,-1,2653.347029125,unknown,2,2022-06-02T10:45:09.069+02:00,2022-06-02T10:17:13.754+02:00,448,1.401249,0,0,345.1212,0,0,2022-06-02T10:45:11.626+02:00,675852311.6256452,0,7.441406,101.2925,1,0.82
2022-06-02T10:45:12.843+02:00,1654159511.14246,53.22907412977236,10.39845990821668,36.71472,0,20,-1,-1,2.400000095367432,11.99936978251625,-9999,2657.121106541667,0.0621337890625,-0.3373565673828125,-0.9710845947265625,2657.111111541667,0.1524085071481144,0.02946947490210502,0.326725224643914,0.05380131304264069,0.03105219267308712,0.0662195011973381,0.02174564823508263,0.0434773862361908,-0.02404642105102539,XArbitraryZVertical,0.1610405704722793,0.0268761322950549,0.07749813230579516,0.983533277346933,0.02790645323693752,-0.3209432065486908,-0.9466872215270996,0,0,0,-1,-1,2653.347029125,unknown,2,2022-06-02T10:45:09.069+02:00,2022-06-02T10:17:13.754+02:00,448,1.401249,0,0,345.1212,0,0,2022-06-02T10:45:11.626+02:00,675852311.6256452,0,7.441406,101.2925,1,0.82
2022-06-02T10:45:12.853+02:00,1654159511.14246,53.22907412977236,10.39845990821668,36.71472,0,20,-1,-1,2.400000095367432,11.99936978251625,-9999,2657.131101541667,0.0629425048828125,-0.34332275390625,-0.96612548828125,2657.121106541667,0.1530837191552975,0.02952070356584287,0.3271562690419847,0.02339623495936394,0.0228879377245903,0.06047113239765167,0.02969684451818466,-0.0005174875259399414,-0.02507126331329346,XArbitraryZVertical,0.1612415502686219,0.02697143796153595,0.07783475390719892,0.9834710745600097,0.02795086614787579,-0.3213514387607574,-0.9465473890304565,0,0,0,-1,-1,2653.347029125,unknown,2,2022-06-02T10:45:09.069+02:00,2022-06-02T10:17:13.754+02:00,448,1.401249,0,0,345.1212,0,0,2022-06-02T10:45:11.626+02:00,675852311.6256452,0,7.441406,101.2925,1,0.82
2022-06-02T10:45:12.863+02:00,1654159511.14246,53.22907412977236,10.39845990821668,36.71472,0,20,-1,-1,2.400000095367432,11.99936978251625,-9999,2657.141095541667,0.0576934814453125,-0.364898681640625,-0.9500732421875,2657.131101541667,0.1535875695140161,0.0295733066726143,0.3271639204080788,-0.03291710093617439,0.0189382042735815,0.03329597413539886,0.03555227816104889,-0.02127742767333984,-0.02341192960739136,XArbitraryZVertical,0.1612364604307666,0.02703820458438353,0.07808676115550262,0.9834500984437231,0.02800058387219906,-0.3213586807250977,-0.9465434551239014,0,0,0,-1,-1,2653.347029125,unknown,2,2022-06-02T10:45:09.069+02:00,2022-06-02T10:17:13.754+02:00,448,1.401249,0,0,345.1212,0,0,2022-06-02T10:45:11.626+02:00,675852311.6256452,0,7.441406,101.2925,1,0.82
2022-06-02T10:45:12.873+02:00,1654159511.14246,53.22907412977236,10.39845990821668,36.71472,0,20,-1,-1,2.400000095367432,11.99936978251625,-9999,2657.151090541667,0.0457000732421875,-0.3806304931640625,-0.961181640625,2657.141095541667,0.1537788998384331,0.02966603491410424,0.326559465601738,-0.08606468141078949,0.00852804072201252,-0.002259226515889168,0.03352088108658791,-0.02769401669502258,-0.01405000686645508,XArbitraryZVertical,0.1609328969668358,0.02707704660540888,0.07818768038205788,0.9834907863290805,0.02809411101043224,-0.3207862377166748,-0.9467348456382751,0,0,0,-1,-1,2653.347029125,unknown,2,2022-06-02T10:45:09.069+02:00,2022-06-02T10:17:13.754+02:00,448,1.401249,0,0,345.1212,0,0,2022-06-02T10:45:11.626+02:00,675852311.6256452,0,7.441406,101.2925,1,0.82
2022-06-02T10:45:12.883+02:00,1654159511.14246,53.22907412977236,10.39845990821668,36.71472,0,20,-1,-1,2.400000095367432,11.99936978251625,-9999,2657.161084541667,0.017486572265625,-0.3305816650390625,-0.977630615234375,2657.151090541667,0.1538227828118893,0.02950818776520097,0.3257732482382284,-0.09614421427249908,0.0005071323830634356,-0.00109835434705019,0.02522477693855762,-0.06216070055961609,-0.002075016498565674,XArbitraryZVertical,0.1605516918857214,0.02697409307632861,0.07819575214085445,0.9835553175334505,0.02795210480690002,-0.3200414478778839,-0.9469910860061646,0,0,0,-1,-1,2653.347029125,unknown,2,2022-06-02T10:45:09.069+02:00,2022-06-02T10:17:13.754+02:00,448,1.401249,0,0,345.1212,0,0,2022-06-02T10:45:11.626+02:00,675852311.6256452,0,7.441406,101.2925,1,0.82
2022-06-02T10:45:12.893+02:00,1654159511.14246,53.22907412977236,10.39845990821668,36.71472,0,20,-1,-1,2.400000095367432,11.99936978251625,-9999,2657.171079541667,-0.0060577392578125,-0.2982177734375,-0.9962310791015625,2657.161084541667,0.1540230227657711,0.02961262087779555,0.3245345663688864,-0.1209615468978882,0.02247474901378155,0.03318504989147186,0.006223786622285843,-0.04151439666748047,-0.02388399839401245,XArbitraryZVertical,0.1599355000882617,0.02699599151688383,0.07830130235523387,0.9836466575797592,0.0280627179890871,-0.3188676834106445,-0.9473837018013,0,0,0,-1,-1,2653.347029125,unknown,2,2022-06-02T10:45:09.069+02:00,2022-06-02T10:17:13.754+02:00,448,1.401249,0,0,345.1212,0,0,2022-06-02T10:45:11.626+02:00,675852311.6256452,0,7.441406,101.2925,1,0.82
2022-06-02T10:45:12.903+02:00,1654159511.14246,53.22907412977236,10.39845990821668,36.71472,0,20,-1,-1,2.400000095367432,11.99936978251625,-9999,2657.181074541667,0.0045318603515625,-0.293792724609375,-0.990936279296875,2657.171079541667,0.1542473454507315,0.03051555716980209,0.3223048758436003,-0.02282751724123955,0.06328742206096649,0.03743439167737961,-0.0269408468157053,0.008251398801803589,-0.04039806127548218,XArbitraryZVertical,0.1587999405546685,0.02737597321538117,0.0784809153864737,0.9838058154742614,0.02893975377082825,-0.3167535960674286,-0.9480662941932678,0,0,0,-1,-1,2653.347029125,unknown,2,2022-06-02T10:45:09.069+02:00,2022-06-02T10:17:13.754+02:00,448,1.401249,0,0,345.1212,0,0,2022-06-02T10:45:11.626+02:00,675852311.6256452,0,7.441406,101.2925,1,0.82
2022-06-02T10:45:12.913+02:00,1654159511.14246,53.22907412977236,10.39845990821668,36.71472,0,20,-1,-1,2.400000095367432,11.99936978251625,-9999,2657.191068541667,0.034210205078125,-0.3162841796875,-0.9730377197265625,2657.181074541667,0.1544655489471361,0.03170748997234452,0.3208603934485871,0.1213661432266235,0.0876028835773468,0.04093911126255989,-0.03531799837946892,0.02139204740524292,-0.04693490266799927,XArbitraryZVertical,0.158039242602274,0.02792643365706745,0.07868052872123706,0.983896852976056,0.03008423745632172,-0.3153831660747528,-0.948487401008606,0,0,0,-1,-1,2653.347029125,unknown,2,2022-06-02T10:45:09.069+02:00,2022-06-02T10:17:13.754+02:00,448,1.401249,0,0,345.1212,0,0,2022-06-02T10:45:11.626+02:00,675852311.6256452,0,7.441406,101.2925,1,0.82
2022-06-02T10:45:12.923+02:00,1654159511.14246,53.22907412977236,10.39845990821668,36.71472,0,20,-1,-1,2.400000095367432,11.99936978251625,-9999,2657.201063541667,0.0594024658203125,-0.353271484375,-0.9615020751953125,2657.191068541667,0.1546214732958248,0.0331946243733435,0.3207718702736524,0.1659613102674484,0.08836135268211365,0.04043284431099892,-0.01269682869315147,0.01462474465370178,-0.03416591882705688,XArbitraryZVertical,0.1579348987980867,0.02866708027632358,0.07887455015846566,0.983876741876661,0.03149566054344177,-0.3152991533279419,-0.9484695196151733,0,0,0,-1,-1,2653.347029125,unknown,2,2022-06-02T10:45:09.069+02:00,2022-06-02T10:17:13.754+02:00,448,1.401249,0,0,345.1212,0,0,2022-06-02T10:45:11.626+02:00,675852311.6256452,0,7.441406,101.2925,1,0.82
2022-06-02T10:45:12.933+02:00,1654159511.14246,53.22907412977236,10.39845990821668,36.71472,0,20,-1,-1,2.400000095367432,11.99936978251625,-9999,2657.211057541667,0.0675506591796875,-0.3783416748046875,-0.9508514404296875,2657.201063541667,0.1546212684012274,0.0348997922888998,0.3220645055778394,0.09380409121513367,0.07758180797100067,0.02568172663450241,0.01527170091867447,-0.01927459239959717,-0.01827174425125122,XArbitraryZVertical,0.1585037135777681,0.02955335529042988,0.07901218067120118,0.9837480571743742,0.03309866413474083,-0.3165255784988403,-0.9480063319206238,0,0,0,-1,-1,2653.347029125,unknown,2,2022-06-02T10:45:09.069+02:00,2022-06-02T10:17:13.754+02:00,448,1.401249,0,0,345.1212,0,0,2022-06-02T10:45:11.626+02:00,675852311.6256452,0,7.441406,101.2925,1,0.82
2022-06-02T10:45:12.943+02:00,1654159511.14246,53.22907412977236,10.39845990821668,36.71472,0,20,-1,-1,2.400000095367432,11.99936978251625,-9999,2657.221052541667,0.059600830078125,-0.38214111328125,-0.9497222900390625,2657.211057541667,0.1544533202485256,0.03650226034948748,0.3229264773266922,-0.02526877261698246,0.06286677718162537,0.002240050584077835,0.03129491209983826,-0.05077517032623291,-0.009031713008880615,XArbitraryZVertical,0.1588670531149686,0.03035980655572199,0.07905894719923631,0.9836611517277032,0.03460780158638954,-0.3173431158065796,-0.9476791024208069,0,0,0,-1,-1,2653.347029125,unknown,2,2022-06-02T10:45:09.069+02:00,2022-06-02T10:17:13.754+02:00,448,1.401249,0,0,345.1212,0,0,2022-06-02T10:45:11.626+02:00,675852311.6256452,0,7.441406,101.2925,1,0.82
2022-06-02T10:45:12.953+02:00,1654159511.14246,53.22907412977236,10.39845990821668,36.71472,0,20,-1,-1,2.400000095367432,11.99936978251625,-9999,2657.231046541667,0.043975830078125,-0.3494720458984375,-0.953857421875,2657.221052541667,0.1541449252506224,0.0378123147192223,0.322888183850233,-0.1068677976727486,0.049317616969347,-0.02067585103213787,0.03025133535265923,-0.06607028841972351,0.0001658201217651367,XArbitraryZVertical,0.1588011720515117,0.03097823965947956,0.07901119872659788,0.9836563278441601,0.03584974259138107,-0.3173068165779114,-0.9476450681686401,0,0,0,-1,-1,2653.347029125,unknown,2,2022-06-02T10:45:09.069+02:00,2022-06-02T10:17:13.754+02:00,448,1.401249,0,0,345.1212,0,0,2022-06-02T10:45:11.626+02:00,675852311.6256452,0,7.441406,101.2925,1,0.82
2022-06-02T10:45:12.963+02:00,1654159511.14246,53.22907412977236,10.39845990821668,36.71472,0,20,-1,-1,2.400000095367432,11.99936978251625,-9999,2657.241041541667,0.0251617431640625,-0.32257080078125,-0.9652862548828125,2657.231046541667,0.1538399786528346,0.03876743682077548,0.3228899357414239,-0.170056626200676,0.04415800794959068,-0.01958635076880455,0.01437738537788391,-0.0527324378490448,-0.005240499973297119,XArbitraryZVertical,0.1587690713581527,0.0314238463651331,0.07893705009993671,0.983653360290635,0.03675482049584389,-0.3173084855079651,-0.9476098418235779,0,0,0,-1,-1,2653.347029125,unknown,2,2022-06-02T10:45:09.069+02:00,2022-06-02T10:17:13.754+02:00,448,1.401249,0,0,345.1212,0,0,2022-06-02T10:45:11.626+02:00,675852311.6256452,0,7.441406,101.2925,1,0.82
2022-06-02T10:45:12.973+02:00,1654159511.14246,53.22907412977236,10.39845990821668,36.71472,0,20,-1,-1,2.400000095367432,11.99936978251625,-9999,2657.251036541667,0.0205230712890625,-0.2818756103515625,-0.96917724609375,2657.241041541667,0.1537412057585914,0.03923690436888035,0.3219950052293474,-0.1366534531116486,0.05757088586688042,-0.01420157309621572,-0.002573356032371521,-0.01711273193359375,-0.006057858467102051,XArbitraryZVertical,0.1583117379002313,0.03161440279779324,0.0789226242053824,0.9837220027290002,0.03721081092953682,-0.3164596557617188,-0.9478758573532104,0,0,0,-1,-1,2653.347029125,unknown,2,2022-06-02T10:45:09.069+02:00,2022-06-02T10:17:13.754+02:00,448,1.401249,0,0,345.1212,0,0,2022-06-02T10:45:11.626+02:00,675852311.6256452,0,7.441406,101.2925,1,0.82
2022-06-02T10:45:12.983+02:00,1654159511.14246,53.22907412977236,10.39845990821668,36.71472,0,20,-1,-1,2.400000095367432,11.99936978251625,-9999,2657.261030541667,0.026947021484375,-0.254486083984375,-0.9362335205078125,2657.251036541667,0.1539733555782182,0.03877781764488796,0.3208019739385191,0.001797900069504976,0.04573739320039749,-0.0074030552059412,-0.01599252596497536,0.009083807468414307,-0.03178733587265015,XArbitraryZVertical,0.1577390766601499,0.03136353525327405,0.07899641977731608,0.9838161666124283,0.03679026290774345,-0.3153277337551117,-0.9482694268226624,0,0,0,-1,-1,2653.347029125,unknown,2,2022-06-02T10:45:09.069+02:00,2022-06-02T10:17:13.754+02:00,448,1.401249,0,0,345.1212,0,0,2022-06-02T10:45:11.626+02:00,675852311.6256452,0,7.441406,101.2925,1,0.82
2022-06-02T10:45:12.993+02:00,1654159511.14246,53.22907412977236,10.39845990821668,36.71472,0,20,-1,-1,2.400000095367432,11.99936978251625,-9999,2657.271025541667,0.0357818603515625,-0.267547607421875,-0.930816650390625,2657.261030541667,0.1542765998329762,0.03794881957253278,0.3207409382904588,0.1836975961923599,0.0396822988986969,-0.004781040363013744,-0.01223166659474373,0.05248290300369263,0.0009158849716186523,XArbitraryZVertical,0.1577370787052907,0.03097743600789659,0.0790800081978333,0.9838219708182456,0.03600486367940903,-0.31526979804039,-0.9483188390731812,0,0,0,-1,-1,2653.347029125,unknown,2,2022-06-02T10:45:09.069+02:00,2022-06-02T10:17:13.754+02:00,448,1.401249,0,0,345.1212,0,0,2022-06-02T10:45:11.626+02:00,675852311.6256452,0,7.441406,101.2925,1,0.82
2022-06-02T10:45:13.003+02:00,1654159511.14246,53.22907412977236,10.39845990821668,36.71472,0,20,-1,-1,2.400000095367432,11.99936978251625,-9999,2657.281019541667,0.0399322509765625,-0.313720703125,-0.939239501953125,2657.271025541667,0.1544120449109131,0.03780250829447012,0.322649597438672,0.3020103871822357,0.02545329555869102,0.01680468022823334,-0.003906659781932831,0.05937486886978149,0.01551586389541626,XArbitraryZVertical,0.1586800351999794,0.03098591197987861,0.07914106311031688,0.983665111983464,0.03584330901503563,-0.317080557346344,-0.9477210640907288,0,0,0,-1,-1,2653.347029125,unknown,2,2022-06-02T10:45:09.069+02:00,2022-06-02T10:17:13.754+02:00,448,1.401249,0,0,345.1212,0,0,2022-06-02T10:45:11.626+02:00,675852311.6256452,0,7.441406,101.2925,1,0.82
2022-06-02T10:45:13.017+02:00,1654159511.14246,53.22907412977236,10.39845990821668,36.71472,0,20,-1,-1,2.400000095367432,11.99936978251625,-9999,2657.291014541667,0.0422821044921875,-0.378814697265625,-0.9497222900390625,2657.281019541667,0.1544278108541875,0.03825846987990483,0.3257229980299982,0.2484160661697388,0.01920352317392826,0.0188788827508688,0.00232098251581192,0.03408992290496826,0.01403284072875977,XArbitraryZVertical,0.1601738586187462,0.03132364662775707,0.07919478106802069,0.9834080167416488,0.03623798489570618,-0.3199938535690308,-0.9467263221740723,0,0,0,-1,-1,2653.347029125,unknown,2,2022-06-02T10:45:09.069+02:00,2022-06-02T10:17:13.754+02:00,448,1.401249,0,0,345.1212,0,0,2022-06-02T10:45:11.626+02:00,675852311.6256452,0,7.441406,101.2925,1,0.82
2022-06-02T10:45:13.023+02:00,1654159511.14246,53.22907412977236,10.39845990821668,36.71472,0,20,-1,-1,2.400000095367432,11.99936978251625,-9999,2657.301009541667,0.0475921630859375,-0.3965911865234375,-0.95330810546875,2657.291014541667,0.1542764898211608,0.03920263862858302,0.3282394450601571,0.06751792132854462,0.04037804901599884,0.005038700997829437,0.003366153687238693,-0.02634739875793457,-0.001061081886291504,XArbitraryZVertical,0.1613766805922383,0.03186742497136114,0.07920446317392582,0.9831931162547067,0.03710015863180161,-0.3223769664764404,-0.9458840489387512,0,0,0,-1,-1,2653.347029125,unknown,2,2022-06-02T10:45:09.069+02:00,2022-06-02T10:17:13.754+02:00,448,1.401249,0,0,345.1212,0,0,2022-06-02T10:45:11.626+02:00,675852311.6256452,0,7.441406,101.2925,1,0.82
2022-06-02T10:45:13.033+02:00,1654159511.14246,53.22907412977236,10.39845990821668,36.71472,0,20,-1,-1,2.400000095367432,11.99936978251625,-9999,2657.311003541667,0.042572021484375,-0.3549652099609375,-0.9766845703125,2657.301009541667,0.1541028285020242,0.04019114279524798,0.3288736213458721,-0.1365548819303513,0.04562028124928474,-0.005304284393787384,0.006254076957702637,-0.072683185338974,-0.004995346069335938,XArbitraryZVertical,0.1616522369048108,0.03236239490047023,0.07920112369684294,0.9831319106987764,0.03802692890167236,-0.322977215051651,-0.9456424713134766,0,0,0,-1,-1,2653.347029125,unknown,2,2022-06-02T10:45:09.069+02:00,2022-06-02T10:17:13.754+02:00,448,1.401249,0,0,345.1212,0,0,2022-06-02T10:45:11.626+02:00,675852311.6256452,0,7.441406,101.2925,1,0.82
2022-06-02T10:45:13.043+02:00,1654159511.14246,53.22907412977236,10.39845990821668,36.71472,0,20,-1,-1,2.400000095367432,11.99936978251625,-9999,2657.320998541667,0.0244140625,-0.2735137939453125,-0.979400634765625,2657.311003541667,0.1540224053771953,0.04090129219171819,0.3278077536708482,-0.2120973020792007,0.04722004011273384,-0.006285392679274082,0.0079946368932724,-0.06198862195014954,-0.01604694128036499,XArbitraryZVertical,0.1611011800786218,0.03266631237287566,0.07921496311991358,0.9832112090081963,0.0387125201523304,-0.321968287229538,-0.9459586143493652,0,0,0,-1,-1,2653.347029125,unknown,2,2022-06-02T10:45:09.069+02:00,2022-06-02T10:17:13.754+02:00,448,1.401249,0,0,345.1212,0,0,2022-06-02T10:45:11.626+02:00,675852311.6256452,0,7.441406,101.2925,1,0.82
2022-06-02T10:45:13.053+02:00,1654159511.14246,53.22907412977236,10.39845990821668,36.71472,0,20,-1,-1,2.400000095367432,11.99936978251625,-9999,2657.330992541667,0.0113983154296875,-0.2307281494140625,-0.9560699462890625,2657.320998541667,0.1540921890011464,0.04128181181603328,0.3261431425638639,-0.1413940191268921,0.04828524217009544,-0.005089567042887211,-0.003633115440607071,0.00706791877746582,-0.04006367921829224,XArbitraryZVertical,0.1602661471497055,0.03279859070689676,0.07927344399512117,0.9833385527397233,0.03909453749656677,-0.3203918635845184,-0.946478009223938,0,0,0,-1,-1,2653.347029125,unknown,2,2022-06-02T10:45:09.069+02:00,2022-06-02T10:17:13.754+02:00,448,1.401249,0,0,345.1212,0,0,2022-06-02T10:45:11.626+02:00,675852311.6256452,0,7.441406,101.2925,1,0.82
2022-06-02T10:45:13.063+02:00,1654159511.14246,53.22907412977236,10.39845990821668,36.71472,0,20,-1,-1,2.400000095367432,11.99936978251625,-9999,2657.340987541667,0.0175933837890625,-0.249664306640625,-0.9404296875,2657.330992541667,0.1541230933985961,0.04145209858168759,0.3252489680053241,0.0428386777639389,0.03925712779164314,-0.01161164883524179,-0.02457335591316223,0.07607546448707581,-0.01646906137466431,XArbitraryZVertical,0.1598190018467876,0.03285233191267199,0.07929874553686264,0.9834075098077013,0.03926756605505943,-0.3195447027683258,-0.9467571973800659,0,0,0,-1,-1,2653.347029125,unknown,2,2022-06-02T10:45:09.069+02:00,2022-06-02T10:17:13.754+02:00,448,1.401249,0,0,345.1212,0,0,2022-06-02T10:45:11.626+02:00,675852311.6256452,0,7.441406,101.2925,1,0.82
2022-06-02T10:45:13.073+02:00,1654159511.14246,53.22907412977236,10.39845990821668,36.71472,0,20,-1,-1,2.400000095367432,11.99936978251625,-9999,2657.350982541667,0.03564453125,-0.2972869873046875,-0.9196319580078125,2657.340987541667,0.1541020871157893,0.04159973717576277,0.3258853759508288,0.2053770571947098,0.02796865068376064,0.00703966710716486,-0.02725287526845932,0.08587947487831116,-0.007385671138763428,XArbitraryZVertical,0.1601265882292157,0.03294634829437892,0.07930276455293619,0.9833539146685444,0.03939887881278992,-0.320147693157196,-0.9465480446815491,0,0,0,-1,-1,2653.347029125,unknown,2,2022-06-02T10:45:09.069+02:00,2022-06-02T10:17:13.754+02:00,448,1.401249,0,0,345.1212,0,0,2022-06-02T10:45:11.626+02:00,675852311.6256452,0,7.441406,101.2925,1,0.82
2022-06-02T10:45:13.083+02:00,1654159511.14246,53.22907412977236,10.39845990821668,36.71472,0,20,-1,-1,2.400000095367432,11.99936978251625,-9999,2657.360976541667,0.0462188720703125,-0.3574371337890625,-0.91876220703125,2657.350982541667,0.1541910267931976,0.04168554622986936,0.3274595258399982,0.2216084897518158,0.009489242918789387,0.02141328155994415,-0.01293927431106567,0.051298588514328,0.01835137605667114,XArbitraryZVertical,0.1608960502080563,0.03305280053470257,0.07935964712862818,0.9832201336861819,0.03945904970169067,-0.3216385841369629,-0.9460399746894836,0,0,0,-1,-1,2653.347029125,unknown,2,2022-06-02T10:45:09.069+02:00,2022-06-02T10:17:13.754+02:00,448,1.401249,0,0,345.1212,0,0,2022-06-02T10:45:11.626+02:00,675852311.6256452,0,7.441406,101.2925,1,0.82
2022-06-02T10:45:13.093+02:00,1654159511.14246,53.22907412977236,10.39845990821668,36.71472,0,20,-1,-1,2.400000095367432,11.99936978251625,-9999,2657.370971541667,0.039276123046875,-0.3757171630859375,-0.9336700439453125,2657.360976541667,0.1543349969252931,0.04163124802963394,0.3289846099835644,0.1492154449224472,-0.008949819020926952,0.01746208034455776,0.004313953220844269,-0.005271613597869873,0.02938270568847656,XArbitraryZVertical,0.1616459091825251,0.03309308175029181,0.07943205875445919,0.9830900080975757,0.03938722237944603,-0.3230822682380676,-0.9455509185791016,0,0,0,-1,-1,2653.347029125,unknown,2,2022-06-02T10:45:09.069+02:00,2022-06-02T10:17:13.754+02:00,448,1.401249,0,0,345.1212,0,0,2022-06-02T10:45:11.626+02:00,675852311.6256452,0,7.441406,101.2925,1,0.82
2022-06-02T10:45:13.103+02:00,1654159511.14246,53.22907412977236,10.39845990821668,36.71472,0,20,-1,-1,2.400000095367432,11.99936978251625,-9999,2657.380965541667,0.021087646484375,-0.3472747802734375,-0.955352783203125,2657.370971541667,0.1544700701300207,0.04143270071608306,0.3302338558137333,0.04453803971409798,-0.01985732838511467,0.01907169632613659,0.005830693989992142,-0.05160549283027649,0.02208954095840454,XArbitraryZVertical,0.1622659209977538,0.03305181973636121,0.07948722693294975,0.9829847822660104,0.03918273374438286,-0.324264258146286,-0.9451546669006348,0,0,0,-1,-1,2653.347029125,unknown,2,2022-06-02T10:45:09.069+02:00,2022-06-02T10:17:13.754+02:00,448,1.401249,0,0,345.1212,0,0,2022-06-02T10:45:11.626+02:00,675852311.6256452,0,7.441406,101.2925,1,0.82
2022-06-02T10:45:13.113+02:00,1654159511.14246,53.22907412977236,10.39845990821668,36.71472,0,20,-1,-1,2.400000095367432,11.99936978251625,-9999,2657.390960541667,0.006134033203125,-0.306365966796875,-0.9689483642578125,2657.380965541667,0.154654831349326,0.04132205102597717,0.3309152418864087,-0.05195274576544762,0.004314720630645752,0.02167107537388802,-0.007315471768379211,-0.03919649124145508,-0.001000046730041504,XArbitraryZVertical,0.1626023386026606,0.03303722860229415,0.07957165360251434,0.9829228135930045,0.03906901925802231,-0.3249087631702423,-0.944938063621521,0,0,0,-1,-1,2653.347029125,unknown,2,2022-06-02T10:45:09.069+02:00,2022-06-02T10:17:13.754+02:00,448,1.401249,0,0,345.1212,0,0,2022-06-02T10:45:11.626+02:00,675852311.6256452,0,7.441406,101.2925,1,0.82
2022-06-02T10:45:13.123+02:00,1654159511.14246,53.22907412977236,10.39845990821668,36.71472,0,20,-1,-1,2.400000095367432,11.99936978251625,-9999,2657.400954541667,0.0141143798828125,-0.2822723388671875,-0.9649658203125,2657.390960541667,0.1549243564662225,0.04150560410634625,0.3308334663945441,-0.07583330571651459,0.02827597968280315,0.02989784628152847,-0.02869973331689835,-0.001645654439926147,-0.018451988697052,XArbitraryZVertical,0.1625503495349478,0.0331463649007479,0.0797187180864426,0.98291587723387,0.03924356400966644,-0.3248313963413239,-0.9449573755264282,0,0,0,-1,-1,2653.347029125,unknown,2,2022-06-02T10:45:09.069+02:00,2022-06-02T10:17:13.754+02:00,448,1.401249,0,0,345.1212,0,0,2022-06-02T10:45:11.626+02:00,675852311.6256452,0,7.441406,101.2925,1,0.82
2022-06-02T10:45:13.133+02:00,1654159511.14246,53.22907412977236,10.39845990821668,36.71472,0,20,-1,-1,2.400000095367432,11.99936978251625,-9999,2657.410949541667,0.03375244140625,-0.2725830078125,-0.9600677490234375,2657.400954541667,0.1553084304379579,0.04163572898290713,0.3300424563725415,-0.01676533184945583,0.0356697142124176,0.03218762949109077,-0.03020668029785156,0.03221306204795837,-0.02282410860061646,XArbitraryZVertical,0.1621498126995409,0.03321262056129048,0.07991499417223474,0.9829638886554339,0.03937720879912376,-0.3240831792354584,-0.945208728313446,0,0,0,-1,-1,2653.347029125,unknown,2,2022-06-02T10:45:09.069+02:00,2022-06-02T10:17:13.754+02:00,448,1.401249,0,0,345.1212,0,0,2022-06-02T10:45:11.626+02:00,675852311.6256452,0,7.441406,101.2925,1,0.82
2022-06-02T10:45:13.143+02:00,1654159511.14246,53.22907412977236,10.39845990821668,36.71472,0,20,-1,-1,2.400000095367432,11.99936978251625,-9999,2657.420944541667,0.049285888671875,-0.2700653076171875,-0.9464111328125,2657.410949541667,0.1557376187160905,0.04147977896357753,0.3294674019009267,0.09799666702747345,0.02170116640627384,0.03662978112697601,-0.01619675010442734,0.04866728186607361,-0.0215638279914856,XArbitraryZVertical,0.1618661518809667,0.03314969028822032,0.08011109704333673,0.9829967608931875,0.03923752531409264,-0.3235391080379486,-0.9454008936882019,0,0,0,-1,-1,2653.347029125,unknown,2,2022-06-02T10:45:09.069+02:00,2022-06-02T10:17:13.754+02:00,448,1.401249,0,0,345.1212,0,0,2022-06-02T10:45:11.626+02:00,675852311.6256452,0,7.441406,101.2925,1,0.82
2022-06-02T10:45:13.153+02:00,1654159511.14246,53.22907412977236,10.39845990821668,36.71472,0,20,-1,-1,2.400000095367432,11.99936978251625,-9999,2657.430938541667,0.057525634765625,-0.3038177490234375,-0.9377593994140625,2657.420944541667,0.1562955829122652,0.04110719336384683,0.3297813918406372,0.1686852127313614,0.002384461462497711,0.05694491043686867,0.003187380731105804,0.05383190512657166,-0.006269931793212891,XArbitraryZVertical,0.1620262789252851,0.03302328709674949,0.08035634398333444,0.9829545829113782,0.03888110443949699,-0.3238362073898315,-0.9453138709068298,0,0,0,-1,-1,2653.347029125,unknown,2,2022-06-02T10:45:09.069+02:00,2022-06-02T10:17:13.754+02:00,448,1.401249,0,0,345.1212,0,0,2022-06-02T10:45:11.626+02:00,675852311.6256452,0,7.441406,101.2925,1,0.82
2022-06-02T10:45:13.163+02:00,1654159511.14246,53.22907412977236,10.39845990821668,36.71472,0,20,-1,-1,2.400000095367432,11.99936978251625,-9999,2657.440933041667,0.0567626953125,-0.3624725341796875,-0.9207305908203125,2657.430938541667,0.1568625317100626,0.04068914712326417,0.331024400959221,0.1918805539608002,-0.02278560772538185,0.05046357586979866,0.01653842255473137,0.0439755916595459,0.0036429762840271,XArbitraryZVertical,0.1626449575885427,0.03290970978739018,0.08060554306459586,0.9828358024918982,0.03846951201558113,-0.3250119984149933,-0.9449271559715271,0,0,0,-1,-1,2653.347029125,unknown,2,2022-06-02T10:45:09.069+02:00,2022-06-02T10:17:13.754+02:00,448,1.401249,0,0,345.1212,0,0,2022-06-02T10:45:11.626+02:00,675852311.6256452,0,7.441406,101.2925,1,0.82
2022-06-02T10:45:13.173+02:00,1654159511.14246,53.22907412977236,10.39845990821668,36.71472,0,20,-1,-1,2.400000095367432,11.99936978251625,-9999,2657.450927041667,0.046966552734375,-0.4016571044921875,-0.924957275390625,2657.440933041667,0.1571789111724521,0.04030930973413403,0.3329720620865548,0.158254474401474,-0.04735766351222992,0.02835494093596935,0.02029511705040932,-0.005986660718917847,0.01368916034698486,XArbitraryZVertical,0.1636126330319803,0.03282093910901081,0.08073679735363787,0.9826673182221748,0.03808500990271568,-0.3268532752990723,-0.9443073868751526,0,0,0,-1,-1,2653.347029125,unknown,2,2022-06-02T10:45:09.069+02:00,2022-06-02T10:17:13.754+02:00,448,1.401249,0,0,345.1212,0,0,2022-06-02T10:45:11.626+02:00,675852311.6256452,0,7.441406,101.2925,1,0.82
2022-06-02T10:45:13.183+02:00,1654159511.14246,53.22907412977236,10.39845990821668,36.71472,0,20,-1,-1,2.400000095367432,11.99936978251625,-9999,2657.460922041667,0.028350830078125,-0.3879547119140625,-0.9438018798828125,2657.450927041667,0.1574095291432347,0.03976616809750367,0.3347749315364703,0.07560861110687256,-0.06199333071708679,0.03267325460910797,0.01669637858867645,-0.0586046576499939,0.02294600009918213,XArbitraryZVertical,0.1645170081518971,0.03263984840972091,0.08081151661238992,0.9825162057678358,0.03754862397909164,-0.3285565972328186,-0.9437375664710999,0,0,0,-1,-1,2653.347029125,unknown,2,2022-06-02T10:45:09.069+02:00,2022-06-02T10:17:13.754+02:00,448,1.401249,0,0,345.1212,0,0,2022-06-02T10:45:11.626+02:00,675852311.6256452,0,7.441406,101.2925,1,0.82
2022-06-02T10:45:13.193+02:00,1654159511.14246,53.22907412977236,10.39845990821668,36.71472,0,20,-1,-1,2.400000095367432,11.99936978251625,-9999,2657.470917041667,0.0033111572265625,-0.327392578125,-0.962005615234375,2657.460922041667,0.1577867530460426,0.03898003544249993,0.3354441571484759,-0.01227480825036764,-0.05521298572421074,0.03668218106031418,0.002691611647605896,-0.07344505190849304,0.01100605726242065,XArbitraryZVertical,0.1648715860318901,0.03230959596107185,0.0809341662567211,0.9824576550628419,0.03679813072085381,-0.3291886150836945,-0.9435468912124634,0,0,0,-1,-1,2653.347029125,unknown,2,2022-06-02T10:45:09.069+02:00,2022-06-02T10:17:13.754+02:00,448,1.401249,0,0,345.1212,0,0,2022-06-02T10:45:11.626+02:00,675852311.6256452,0,7.441406,101.2925,1,0.82
2022-06-02T10:45:13.203+02:00,1654159511.14246,53.22907412977236,10.39845990821668,36.71472,0,20,-1,-1,2.400000095367432,11.99936978251625,-9999,2657.480911041667,-0.0110931396484375,-0.2930145263671875,-0.9557952880859375,2657.470917041667,0.1583484594766091,0.03808902819217352,0.3350639117424452,-0.03332017362117767,-0.02403642609715462,0.04671484231948853,-0.02027613297104836,-0.02996563911437988,-0.01268601417541504,XArbitraryZVertical,0.1647117750286781,0.03190399322489283,0.08113557954872282,0.9824811556249651,0.03596217185258865,-0.3288295269012451,-0.9437043070793152,0,0,0,-1,-1,2653.347029125,unknown,2,2022-06-02T10:45:09.069+02:00,2022-06-02T10:17:13.754+02:00,448,1.401249,0,0,345.1212,0,0,2022-06-02T10:45:11.626+02:00,675852311.6256452,0,7.441406,101.2925,1,0.82
2022-06-02T10:45:13.213+02:00,1654159511.14246,53.22907412977236,10.39845990821668,36.71472,0,20,-1,-1,2.400000095367432,11.99936978251625,-9999,2657.490906041667,-0.011199951171875,-0.2974853515625,-0.95556640625,2657.480911041667,0.1588845497867957,0.03743773752834211,0.3344758185479298,0.02046226523816586,-0.009153816848993301,0.03019838221371174,-0.04139725118875504,0.02454787492752075,-0.01515531539916992,XArbitraryZVertical,0.1644406866698242,0.03160612196327591,0.08134377238847999,0.9825188842359787,0.03535477072000504,-0.3282740712165833,-0.9439206123352051,0,0,0,-1,-1,2653.347029125,unknown,2,2022-06-02T10:45:09.069+02:00,2022-06-02T10:17:13.754+02:00,448,1.401249,0,0,345.1212,0,0,2022-06-02T10:45:11.626+02:00,675852311.6256452,0,7.441406,101.2925,1,0.82
2022-06-02T10:45:13.223+02:00,1654159511.14246,53.22907412977236,10.39845990821668,36.71472,0,20,-1,-1,2.400000095367432,11.99936978251625,-9999,2657.500900041667,-0.0040283203125,-0.303497314453125,-0.946319580078125,2657.490906041667,0.1591510967253013,0.03715522308902879,0.3342459922384431,0.07623738050460815,0.003942010924220085,0.01331181079149246,-0.04755732789635658,0.03565281629562378,-0.01301002502441406,XArbitraryZVertical,0.1643350185538255,0.03148059878927451,0.08145090798824368,0.982531720602395,0.03509090095758438,-0.3280569911003113,-0.9440059661865234,0,0,0,-1,-1,2653.347029125,unknown,2,2022-06-02T10:45:09.069+02:00,2022-06-02T10:17:13.754+02:00,448,1.401249,0,0,345.1212,0,0,2022-06-02T10:45:11.626+02:00,675852311.6256452,0,7.441406,101.2925,1,0.82
2022-06-02T10:45:13.233+02:00,1654159511.14246,53.22907412977236,10.39845990821668,36.71472,0,20,-1,-1,2.400000095367432,11.99936978251625,-9999,2657.510895041667,0.00299072265625,-0.305755615234375,-0.9404449462890625,2657.500900041667,0.1592903439579377,0.03726137945214084,0.3340413447614647,0.06285399198532104,0.0051584099419415,0.02585623040795326,-0.04320447519421577,0.0254649817943573,-0.006827890872955322,XArbitraryZVertical,0.1642279133386194,0.03153648110078984,0.08152751795777152,0.9825414767502998,0.03519361466169357,-0.3278636634349823,-0.9440692663192749,0,0,0,-1,-1,2653.347029125,unknown,2,2022-06-02T10:45:09.069+02:00,2022-06-02T10:17:13.754+02:00,448,1.401249,0,0,345.1212,0,0,2022-06-02T10:45:11.626+02:00,675852311.6256452,0,7.441406,101.2925,1,0.82
2022-06-02T10:45:13.243+02:00,1654159511.14246,53.22907412977236,10.39845990821668,36.71472,0,20,-1,-1,2.400000095367432,11.99936978251625,-9999,2657.520890041667,0.016998291015625,-0.3217620849609375,-0.93255615234375,2657.510895041667,0.1594611125039231,0.03765665734539134,0.3337133338433723,0.02755885757505894,0.01479852106422186,0.02847545221447945,-0.03706618398427963,0.02388858795166016,0.001642584800720215,XArbitraryZVertical,0.164047862852182,0.03173232275932811,0.08164300172743801,0.9825556624663936,0.03557082638144493,-0.3275537490844727,-0.9441627264022827,0,0,0,-1,-1,2653.347029125,unknown,2,2022-06-02T10:45:09.069+02:00,2022-06-02T10:17:13.754+02:00,448,1.401249,0,0,345.1212,0,0,2022-06-02T10:45:11.626+02:00,675852311.6256452,0,7.441406,101.2925,1,0.82
2022-06-02T10:45:13.253+02:00,1654159511.14246,53.22907412977236,10.39845990821668,36.71472,0,20,-1,-1,2.400000095367432,11.99936978251625,-9999,2657.530884041667,0.0384368896484375,-0.3244781494140625,-0.9302215576171875,2657.520890041667,0.159418655284423,0.03827518349003084,0.3341514467011192,0.03105522133409977,0.02387410774827003,-0.005812016781419516,-0.02618532627820969,0.01684096455574036,0.007260024547576904,XArbitraryZVertical,0.1642386143905127,0.0320492053640824,0.08167408951037455,0.9825109977479918,0.03614931553602219,-0.3279676735401154,-0.9439970254898071,0,0,0,-1,-1,2653.347029125,unknown,2,2022-06-02T10:45:09.069+02:00,2022-06-02T10:17:13.754+02:00,448,1.401249,0,0,345.1212,0,0,2022-06-02T10:45:11.626+02:00,675852311.6256452,0,7.441406,101.2925,1,0.82
2022-06-02T10:45:13.263+02:00,1654159511.14246,53.22907412977236,10.39845990821668,36.71472,0,20,-1,-1,2.400000095367432,11.99936978251625,-9999,2657.540879041667,0.0528564453125,-0.3175201416015625,-0.93878173828125,2657.530884041667,0.1591409499592688,0.03889664706120671,0.3357092401808087,0.02869752421975136,0.008803012780845165,-0.01303930301219225,-0.01106602698564529,0.002336233854293823,0.01157796382904053,XArbitraryZVertical,0.1649833455068969,0.03239021701537624,0.08159326680027915,0.9823817447581416,0.03671605512499809,-0.3294388949871063,-0.9434627294540405,0,0,0,-1,-1,2653.347029125,unknown,2,2022-06-02T10:45:09.069+02:00,2022-06-02T10:17:13.754+02:00,448,1.401249,0,0,345.1212,0,0,2022-06-02T10:45:11.626+02:00,675852311.6256452,0,7.441406,101.2925,1,0.82
2022-06-02T10:45:13.273+02:00,1654159511.14246,53.22907412977236,10.39845990821668,36.71472,0,20,-1,-1,2.400000095367432,11.99936978251625,-9999,2657.550873041667,0.0538787841796875,-0.317352294921875,-0.96142578125,2657.540879041667,0.1590082191104559,0.03903568930917774,0.3373962035418966,0.01034777890890837,-0.002663027960807085,-0.01152682676911354,0.01197211444377899,0.012015700340271,0.01148921251296997,XArbitraryZVertical,0.1658088292203509,0.03251084716129386,0.08154450139216357,0.9822428125935481,0.03682549670338631,-0.3310312330722809,-0.9429009556770325,0,0,0,-1,-1,2653.347029125,unknown,2,2022-06-02T10:45:09.069+02:00,2022-06-02T10:17:13.754+02:00,448,1.401249,0,0,345.1212,0,0,2022-06-02T10:45:11.626+02:00,675852311.6256452,0,7.441406,101.2925,1,0.82
2022-06-02T10:45:13.283+02:00,1654159511.14246,53.22907412977236,10.39845990821668,36.71472,0,20,-1,-1,2.400000095367432,11.99936978251625,-9999,2657.560868041667,0.05133056640625,-0.3101959228515625,-0.970733642578125,2657.550873041667,0.1590084727128966,0.03858006831106748,0.3378864090050437,-0.001946437638252974,-0.005601559765636921,-0.02006731927394867,0.01707717776298523,0.01343956589698792,-0.005990326404571533,XArbitraryZVertical,0.1660682830026487,0.03230550057661997,0.08150823312632764,0.9822086930817049,0.03638962283730507,-0.3314937651157379,-0.9427553415298462,0,0,0,-1,-1,2653.347029125,unknown,2,2022-06-02T10:45:09.069+02:00,2022-06-02T10:17:13.754+02:00,448,1.401249,0,0,345.1212,0,0,2022-06-02T10:45:11.626+02:00,675852311.6256452,0,7.441406,101.2925,1,0.82
2022-06-02T10:45:13.293+02:00,1654159511.14246,53.22907412977236,10.39845990821668,36.71472,0,20,-1,-1,2.400000095367432,11.99936978251625,-9999,2657.570862041667,0.041839599609375,-0.316802978515625,-0.960479736328125,2657.560868041667,0.1590891260794651,0.0376007045133225,0.3369736217431922,-0.04641756787896156,-0.008383364416658878,-0.02640124782919884,0.017836544662714,0.01741528511047363,-0.02719855308532715,XArbitraryZVertical,0.1656583678330056,0.03179691783441606,0.08146417032533278,0.9822981545524975,0.035477664321661,-0.3306324481964111,-0.9430925250053406,0,0,0,-1,-1,2653.347029125,unknown,2,2022-06-02T10:45:09.069+02:00,2022-06-02T10:17:13.754+02:00,448,1.401249,0,0,345.1212,0,0,2022-06-02T10:45:11.626+02:00,675852311.6256452,0,7.441406,101.2925,1,0.82
2022-06-02T10:45:13.303+02:00,1654159511.14246,53.22907412977236,10.39845990821668,36.71472,0,20,-1,-1,2.400000095367432,11.99936978251625,-9999,2657.580857041667,0.03582763671875,-0.3209686279296875,-0.9472808837890625,2657.570862041667,0.159177776847169,0.03647889428748041,0.3353753886079069,-0.08405309170484543,0.00546374125406146,-0.03585946559906006,0.01312274485826492,0.01592177152633667,-0.02297037839889526,XArbitraryZVertical,0.16491722125359,0.03119308230911008,0.08141108084274062,0.9824466481369013,0.03443890064954758,-0.3291236758232117,-0.9436585903167725,0,0,0,-1,-1,2653.347029125,unknown,2,2022-06-02T10:45:09.069+02:00,2022-06-02T10:17:13.754+02:00,448,1.401249,0,0,345.1212,0,0,2022-06-02T10:45:11.626+02:00,675852311.6256452,0,7.441406,101.2925,1,0.82
2022-06-02T10:45:13.313+02:00,1654159511.14246,53.22907412977236,10.39845990821668,36.71472,0,20,-1,-1,2.400000095367432,11.99936978251625,-9999,2657.590852041667,0.035186767578125,-0.32012939453125,-0.9425506591796875,2657.580857041667,0.1591852293226777,0.03553965169808228,0.3335216496441446,-0.1407808810472488,0.02649245969951153,-0.04701264947652817,0.003870889544487,0.007350057363510132,-0.008811116218566895,XArbitraryZVertical,0.1640441888702954,0.03066238961566774,0.08133335394753444,0.9826160074447101,0.0335741825401783,-0.3273726403713226,-0.9442986249923706,0,0,0,-1,-1,2653.347029125,unknown,2,2022-06-02T10:45:09.069+02:00,2022-06-02T10:17:13.754+02:00,448,1.401249,0,0,345.1212,0,0,2022-06-02T10:45:11.626+02:00,675852311.6256452,0,7.441406,101.2925,1,0.82
2022-06-02T10:45:13.323+02:00,1654159511.14246,53.22907412977236,10.39845990821668,36.71472,0,20,-1,-1,2.400000095367432,11.99936978251625,-9999,2657.600846041667,0.0315704345703125,-0.3105621337890625,-0.927825927734375,2657.590852041667,0.1590842955564944,0.03489031376624041,0.3313281124084905,-0.1620938926935196,0.04227009043097496,-0.05082975700497627,0.002155017107725143,0.003857553005218506,0.002973318099975586,XArbitraryZVertical,0.1629938037043271,0.03025230747794374,0.08122611032814883,0.982812324772247,0.03298597410321236,-0.3252992033958435,-0.9450356364250183,0,0,0,-1,-1,2653.347029125,unknown,2,2022-06-02T10:45:09.069+02:00,2022-06-02T10:17:13.754+02:00,448,1.401249,0,0,345.1212,0,0,2022-06-02T10:45:11.626+02:00,675852311.6256452,0,7.441406,101.2925,1,0.82
2022-06-02T10:45:13.333+02:00,1654159511.14246,53.22907412977236,10.39845990821668,36.71472,0,20,-1,-1,2.400000095367432,11.99936978251625,-9999,2657.610841041667,0.0257568359375,-0.3233184814453125,-0.9075469970703125,2657.600846041667,0.1588299521721305,0.03476546203270075,0.329512025186828,-0.1399792730808258,0.04720040038228035,-0.05759791284799576,0.001016560941934586,0.008823037147521973,0.003551006317138672,XArbitraryZVertical,0.1621097907716268,0.03010177031698774,0.08108727755592773,0.9829745701066838,0.03288846462965012,-0.323581337928772,-0.9456285834312439,0,0,0,-1,-1,2653.347029125,unknown,2,2022-06-02T10:45:09.069+02:00,2022-06-02T10:17:13.754+02:00,448,1.401249,0,0,345.1212,0,0,2022-06-02T10:45:11.626+02:00,675852311.6256452,0,7.441406,101.2925,1,0.82
2022-06-02T10:45:13.343+02:00,1654159511.14246,53.22907412977236,10.39845990821668,36.71472,0,20,-1,-1,2.400000095367432,11.99936978251625,-9999,2657.620835041667,0.0237579345703125,-0.3364410400390625,-0.8871612548828125,2657.610841041667,0.1582366348450057,0.03518114576404333,0.328627547950959,-0.1034945026040077,0.05304950103163719,-0.08248675614595413,-0.004513517022132874,0.009420335292816162,0.02957969903945923,XArbitraryZVertical,0.1616669816330252,0.03022477982797559,0.08082743316706578,0.9830651253216716,0.03329160064458847,-0.3227443397045135,-0.9459004998207092,0,0,0,-1,-1,2653.347029125,unknown,2,2022-06-02T10:45:09.069+02:00,2022-06-02T10:17:13.754+02:00,448,1.401249,0,0,345.1212,0,0,2022-06-02T10:45:11.626+02:00,675852311.6256452,0,7.441406,101.2925,1,0.82
2022-06-02T10:45:13.353+02:00,1654159511.14246,53.22907412977236,10.39845990821668,36.71472,0,20,-1,-1,2.400000095367432,11.99936978251625,-9999,2657.630830041667,0.0214080810546875,-0.3523712158203125,-0.8613128662109375,2657.620835041667,0.1570278447311475,0.03690447870671091,0.3275608510612976,-0.1332498639822006,0.05188224092125893,-0.09808116406202316,-0.01142053678631783,-0.009991556406021118,0.04802238941192627,XArbitraryZVertical,0.1610914073166711,0.03093450197799297,0.08036969138783649,0.983175145989182,0.03493433445692062,-0.3217345178127289,-0.9461852312088013,0,0,0,-1,-1,2653.347029125,unknown,2,2022-06-02T10:45:09.069+02:00,2022-06-02T10:17:13.754+02:00,448,1.401249,0,0,345.1212,0,0,2022-06-02T10:45:11.626+02:00,675852311.6256452,0,7.441406,101.2925,1,0.82
2022-06-02T10:45:13.363+02:00,1654159511.14246,53.22907412977236,10.39845990821668,36.71472,0,20,-1,-1,2.400000095367432,11.99936978251625,-9999,2657.640825041667,0.02069091796875,-0.357421875,-0.83905029296875,2657.630830041667,0.1556121817591698,0.0385834464128389,0.3255498934813828,-0.237455353140831,0.0537714883685112,-0.1430859267711639,-0.01300346851348877,-0.02298936247825623,0.0732041597366333,XArbitraryZVertical,0.1600571667947589,0.03157191232077091,0.07980259987753205,0.9833699091466611,0.03654778003692627,-0.3198298513889313,-0.9467698335647583,0,0,0,-1,-1,2653.347029125,unknown,2,2022-06-02T10:45:09.069+02:00,2022-06-02T10:17:13.754+02:00,448,1.401249,0,0,345.1212,0,0,2022-06-02T10:45:11.626+02:00,675852311.6256452,0,7.441406,101.2925,1,0.82
2022-06-02T10:45:13.373+02:00,1654159511.14246,53.22907412977236,10.39845990821668,36.71472,0,20,-1,-1,2.400000095367432,11.99936978251625,-9999,2657.650819041667,0.021514892578125,-0.330291748046875,-0.7967529296875,2657.640825041667,0.1539004500410806,0.04004507470068518,0.3222138002301548,-0.3704213798046112,0.05615614727139473,-0.1766655147075653,-0.01658124476671219,-0.04420319199562073,0.09461158514022827,XArbitraryZVertical,0.1583849407194576,0.03203245532107812,0.07906571508343094,0.9836852742073504,0.03797407075762749,-0.3166671991348267,-0.9477762579917908,0,0,0,-1,-1,2653.347029125,unknown,2,2022-06-02T10:45:09.069+02:00,2022-06-02T10:17:13.754+02:00,448,1.401249,0,0,345.1212,0,0,2022-06-02T10:45:11.626+02:00,675852311.6256452,0,7.441406,101.2925,1,0.82
2022-06-02T10:45:13.383+02:00,1654159511.14246,53.22907412977236,10.39845990821668,36.71472,0,20,-1,-1,2.400000095367432,11.99936978251625,-9999,2657.660814041667,-0.0159912109375,-0.370819091796875,-0.745452880859375,2657.650819041667,0.1518953340255676,0.04120205593518751,0.3174330893214182,-0.5514444708824158,0.0181600283831358,-0.2645514309406281,-0.01744977012276649,-0.02464783191680908,0.1312097907066345,XArbitraryZVertical,0.156018636873881,0.03227154697407333,0.07815150837323918,0.9841285324077053,0.03913251683115959,-0.3121289312839508,-0.9492334723472595,0,0,0,-1,-1,2653.347029125,unknown,2,2022-06-02T10:45:09.069+02:00,2022-06-02T10:17:13.754+02:00,448,1.401249,0,0,345.1212,0,0,2022-06-02T10:45:11.626+02:00,675852311.6256452,0,7.441406,101.2925,1,0.82
2022-06-02T10:45:13.393+02:00,1654159511.14246,53.22907412977236,10.39845990821668,36.71472,0,20,-1,-1,2.400000095367432,11.99936978251625,-9999,2657.670808041667,-0.038543701171875,-0.3934478759765625,-0.68048095703125,2657.660814041667,0.1484759198929114,0.04226757092350226,0.3106562776672332,-0.8078907132148743,-0.01172703038901091,-0.4215831458568573,-0.03359479457139969,-0.04796940088272095,0.175892174243927,XArbitraryZVertical,0.1526952264343492,0.03229211405351311,0.07652071871203626,0.9847771322927059,0.04023237526416779,-0.3056835532188416,-0.951282799243927,0,0,0,-1,-1,2653.347029125,unknown,2,2022-06-02T10:45:09.069+02:00,2022-06-02T10:17:13.754+02:00,448,1.401249,0,0,345.1212,0,0,2022-06-02T10:45:11.626+02:00,675852311.6256452,0,7.441406,101.2925,1,0.82
2022-06-02T10:45:13.403+02:00,1654159511.14246,53.22907412977236,10.39845990821668,36.71472,0,20,-1,-1,2.400000095367432,11.99936978251625,-9999,2657.680803041667,-0.0567626953125,-0.4461669921875,-0.5956573486328125,2657.670808041667,0.1441013531653658,0.04325335628207203,0.3002809160725881,-1.283648729324341,-0.05384119227528572,-0.5085150599479675,-0.07369944453239441,-0.08456727862358093,0.2395925521850586,XArbitraryZVertical,0.1476148043432524,0.03209152065043559,0.07438805224750349,0.9857212975252223,0.04130503535270691,-0.2957885563373566,-0.9543600082397461,0,0,0,-1,-1,2653.347029125,unknown,2,2022-06-02T10:45:09.069+02:00,2022-06-02T10:17:13.754+02:00,448,1.401249,0,0,345.1212,0,0,2022-06-02T10:45:11.626+02:00,675852311.6256452,0,7.441406,101.2925,1,0.82
2022-06-02T10:45:13.413+02:00,1654159511.14246,53.22907412977236,10.39845990821668,36.71472,0,20,-1,-1,2.400000095367432,11.99936978251625,-9999,2657.690798041667,-0.096954345703125,-0.5763397216796875,-0.55548095703125,2657.680803041667,0.1386683166033877,0.04386113790960783,0.2837970866638196,-1.999253392219543,-0.1380405724048615,-0.6907828450202942,-0.08464991301298141,-0.1323049068450928,0.3128814697265625,XArbitraryZVertical,0.1395451870641044,0.03145147609451392,0.07165961324796823,0.9871184486049401,0.04209315776824951,-0.2800028622150421,-0.9590758681297302,0,0,0,-1,-1,2653.347029125,unknown,2,2022-06-02T10:45:09.069+02:00,2022-06-02T10:17:13.754+02:00,448,1.401249,0,0,345.1212,0,0,2022-06-02T10:45:11.626+02:00,675852311.6256452,0,7.441406,101.2925,1,0.82
2022-06-02T10:45:13.423+02:00,1654159511.14246,53.22907412977236,10.39845990821668,36.71472,0,20,-1,-1,2.400000095367432,11.99936978251625,-9999,2657.700792041667,-0.123077392578125,-0.6085052490234375,-0.556549072265625,2657.690798041667,0.1311129137450537,0.04422089921236552,0.2594800907610786,-2.802136182785034,-0.1813749969005585,-0.9678384065628052,-0.1213398873806,-0.2546676695346832,0.4132410287857056,XArbitraryZVertical,0.1276307615994724,0.03034905790298762,0.06779725552450928,0.9890363156208296,0.04272660985589027,-0.2565780878067017,-0.9655786752700806,0,0,0,-1,-1,2653.347029125,unknown,2,2022-06-02T10:45:09.069+02:00,2022-06-02T10:17:13.754+02:00,448,1.401249,0,0,345.1212,0,0,2022-06-02T10:45:11.626+02:00,675852311.6256452,0,7.441406,101.2925,1,0.82
2022-06-02T10:45:13.433+02:00,1654159511.14246,53.22907412977236,10.39845990821668,36.71472,0,20,-1,-1,2.400000095367432,11.99936978251625,-9999,2657.710787041667,-0.179412841796875,-0.580078125,-0.5966796875,2657.700792041667,0.1214007858075399,0.04467442674027282,0.2269341793027108,-3.617641687393188,-0.186702698469162,-1.211561441421509,-0.1522333920001984,-0.3801874816417694,0.4135436415672302,XArbitraryZVertical,0.1116408281393933,0.02901765090781064,0.06278222848770991,0.9913388691514355,0.04351453110575676,-0.2249913662672043,-0.9733886122703552,0,0,0,-1,-1,2653.347029125,unknown,2,2022-06-02T10:45:09.069+02:00,2022-06-02T10:17:13.754+02:00,448,1.401249,0,0,345.1212,0,0,2022-06-02T10:45:11.626+02:00,675852311.6256452,0,7.441406,101.2925,1,0.82
2022-06-02T10:45:13.443+02:00,1654159511.14246,53.22907412977236,10.39845990821668,36.71472,0,20,-1,-1,2.400000095367432,11.99936978251625,-9999,2657.720781041667,-0.25079345703125,-0.4861907958984375,-0.657928466796875,2657.710787041667,0.1096765890945313,0.04537164415570911,0.1869738546622659,-4.229339122772217,-0.1536321043968201,-1.442122220993042,-0.1920265108346939,-0.4157677292823792,0.4146503210067749,XArbitraryZVertical,0.09194860666539631,0.02766618963400577,0.0566718041072709,0.9937647132514001,0.04456558078527451,-0.1858863532543182,-0.9815600514411926,0,0,0,-1,-1,2653.347029125,unknown,2,2022-06-02T10:45:09.069+02:00,2022-06-02T10:17:13.754+02:00,448,1.401249,0,0,345.1212,0,0,2022-06-02T10:45:11.626+02:00,675852311.6256452,0,7.441406,101.2925,1,0.82
2022-06-02T10:45:13.453+02:00,1654159511.14246,53.22907412977236,10.39845990821668,36.71472,0,20,-1,-1,2.400000095367432,11.99936978251625,-9999,2657.730776041667,-0.3361968994140625,-0.349517822265625,-0.6817626953125,2657.720781041667,0.09593033457492765,0.04621898046776903,0.1423161471846732,-4.548820018768311,-0.1308262646198273,-1.676825404167175,-0.2588854432106018,-0.4011935591697693,0.3543726205825806,XArbitraryZVertical,0.06989218063475604,0.02643045831474484,0.04945367289344498,0.9959773507512971,0.0457354262471199,-0.1418362259864807,-0.9888330101966858,0,0,0,-1,-1,2653.347029125,unknown,2,2022-06-02T10:45:09.069+02:00,2022-06-02T10:17:13.754+02:00,448,1.401249,0,0,345.1212,0,0,2022-06-02T10:45:11.626+02:00,675852311.6256452,0,7.441406,101.2925,1,0.82
2022-06-02T10:45:13.463+02:00,1654159511.14246,53.22907412977236,10.39845990821668,36.71472,0,20,-1,-1,2.400000095367432,11.99936978251625,-9999,2657.740770041667,-0.4177398681640625,-0.247772216796875,-0.737884521484375,2657.730776041667,0.08016891293374596,0.04691090202406754,0.09539264734783982,-4.656524658203125,-0.09825526177883148,-1.889070272445679,-0.3400154411792755,-0.3221104145050049,0.3279156088829041,XArbitraryZVertical,0.04668804692346425,0.0253179294879769,0.04113445303693103,0.997741027386416,0.04668049886822701,-0.0952480360865593,-0.9943584799766541,0,0,0,-1,-1,2653.347029125,unknown,2,2022-06-02T10:45:09.069+02:00,2022-06-02T10:17:13.754+02:00,448,1.401249,0,0,345.1212,0,0,2022-06-02T10:45:11.626+02:00,675852311.6256452,0,7.441406,101.2925,1,0.82
2022-06-02T10:45:13.473+02:00,1654159511.14246,53.22907412977236,10.39845990821668,36.71472,0,20,-1,-1,2.400000095367432,11.99936978251625,-9999,2657.750765041667,-0.47869873046875,-0.199066162109375,-0.716064453125,2657.740770041667,0.06235522842011476,0.04744241913530619,0.048244513804916,-4.600567817687988,-0.05259896069765091,-2.109511137008667,-0.4253143668174744,-0.2448803186416626,0.2829909324645996,XArbitraryZVertical,0.02336224806966419,0.02445223047531798,0.03172655097531193,0.9989242228128328,0.04736944288015366,-0.04822580143809319,-0.9977126121520996,0,0,0,-1,-1,2653.347029125,unknown,2,2022-06-02T10:45:09.069+02:00,2022-06-02T10:17:13.754+02:00,448,1.401249,0,0,345.1212,0,0,2022-06-02T10:45:11.626+02:00,675852311.6256452,0,7.441406,101.2925,1,0.82
2022-06-02T10:45:13.483+02:00,1654159511.14246,53.22907412977236,10.39845990821668,36.71472,0,20,-1,-1,2.400000095367432,11.99936978251625,-9999,2657.760760041667,-0.5200347900390625,-0.2393035888671875,-0.6454010009765625,2657.750765041667,0.04229877796716191,0.04745255882480927,0.001137851876899241,-4.64879846572876,-0.04315805435180664,-2.344606399536133,-0.4986371099948883,-0.2136601656675339,0.2604093551635742,XArbitraryZVertical,6.692683835919973e-05,0.02373077195662372,0.02115535086791918,0.9994945258921279,0.0474347211420536,-0.001137851621024311,-0.9988737106323242,0,0,0,-1,-1,2653.347029125,unknown,2,2022-06-02T10:45:09.069+02:00,2022-06-02T10:17:13.754+02:00,448,1.401249,0,0,345.1212,0,0,2022-06-02T10:45:11.626+02:00,675852311.6256452,0,7.441406,101.2925,1,0.82
2022-06-02T10:45:13.493+02:00,1654159511.14246,53.22907412977236,10.39845990821668,36.71472,0,20,-1,-1,2.400000095367432,11.99936978251625,-9999,2657.770754041667,-0.5648651123046875,-0.326751708984375,-0.5889892578125,2657.760760041667,0.01990965142322104,0.04637012273072501,-0.04795426873912277,-4.990508079528809,-0.06286205351352692,-2.590901851654053,-0.5468495488166809,-0.2538227736949921,0.3145034313201904,XArbitraryZVertical,-0.0241979177390478,0.02293657445500694,0.009393344365644821,0.9993999130618034,0.04630022123456001,0.04793589189648628,-0.9977767467498779,0,0,0,-1,-1,2653.347029125,unknown,2,2022-06-02T10:45:09.069+02:00,2022-06-02T10:17:13.754+02:00,448,1.401249,0,0,345.1212,0,0,2022-06-02T10:45:11.626+02:00,675852311.6256452,0,7.441406,101.2925,1,0.82
2022-06-02T10:45:13.511+02:00,1654159511.14246,53.22907412977236,10.39845990821668,36.71472,0,20,-1,-1,2.400000095367432,11.99936978251625,-9999,2657.780749041667,-0.6238250732421875,-0.31109619140625,-0.5325164794921875,2657.770754041667,-0.004657425534752174,0.04418025621257211,-0.1014758236040179,-5.514927387237549,-0.002101500285789371,-2.778066873550415,-0.5821467041969299,-0.3888231515884399,0.3789710402488708,XArbitraryZVertical,-0.05065226567238917,0.02217792207121757,-0.003445378737427361,0.9984640765881526,0.04393868520855904,0.1013017594814301,-0.9938849806785583,0,0,0,-1,-1,2653.347029125,unknown,2,2022-06-02T10:45:09.069+02:00,2022-06-02T10:17:13.754+02:00,448,1.401249,0,0,345.1212,0,0,2022-06-02T10:45:11.626+02:00,675852311.6256452,0,7.441406,101.2925,1,0.82
2022-06-02T10:45:13.526+02:00,1654159511.14246,53.22907412977236,10.39845990821668,36.71472,0,20,-1,-1,2.400000095367432,11.99936978251625,-9999,2657.790743041667,-0.7124481201171875,-0.245941162109375,-0.5636749267578125,2657.780749041667,-0.03036279415914937,0.04130595802180392,-0.1620841873505487,-6.438986301422119,0.1283236891031265,-2.81403112411499,-0.6343351006507874,-0.495939701795578,0.4277627468109131,XArbitraryZVertical,-0.08061434517721017,0.02181003573707817,-0.01679938022501527,0.9963650712255693,0.04075297340750694,0.161375418305397,-0.9860513210296631,0,0,0,-1,-1,2653.347029125,unknown,2,2022-06-02T10:45:09.069+02:00,2022-06-02T10:17:13.754+02:00,448,1.401249,0,0,345.1212,0,0,2022-06-02T10:45:11.626+02:00,675852311.6256452,0,7.441406,101.2925,1,0.82
2022-06-02T10:45:13.530+02:00,1654159511.14246,53.22907412977236,10.39845990821668,36.71472,0,20,-1,-1,2.400000095367432,11.99936978251625,-9999,2657.800738041667,-0.8023834228515625,-0.1547393798828125,-0.663818359375,2657.790743041667,-0.05623708434293263,0.0391510003793714,-0.2330955726072693,-7.556412220001221,0.4770438373088837,-2.853014230728149,-0.699459433555603,-0.5058318376541138,0.4357572197914124,XArbitraryZVertical,-0.1156692886965997,0.02270245708642245,-0.03019403212423036,0.9925691019127154,0.03808246925473213,0.2309904843568802,-0.9722104072570801,0,0,0,-1,-1,2653.347029125,unknown,2,2022-06-02T10:45:09.069+02:00,2022-06-02T10:17:13.754+02:00,448,1.401249,0,0,345.1212,0,0,2022-06-02T10:45:11.626+02:00,675852311.6256452,0,7.441406,101.2925,1,0.82
2022-06-02T10:45:13.533+02:00,1654159511.14246,53.22907412977236,10.39845990821668,36.71472,0,20,-1,-1,2.400000095367432,11.99936978251625,-9999,2657.810733041667,-0.8537139892578125,0.0973358154296875,-0.7624053955078125,2657.800738041667,-0.0832732325372629,0.03931120167351786,-0.3144277309231122,-8.454283714294434,1.032625913619995,-2.974300861358643,-0.7994439601898193,-0.5259014368057251,0.3424659967422485,XArbitraryZVertical,-0.1555931121222864,0.0259108988261052,-0.04417785551295837,0.9864926830105154,0.03737428411841393,0.3092723190784454,-0.950238823890686,0,0,0,-1,-1,2653.347029125,unknown,2,2022-06-02T10:45:09.069+02:00,2022-06-02T10:17:13.754+02:00,448,1.401249,0,0,345.1212,0,0,2022-06-02T10:45:11.626+02:00,675852311.6256452,0,7.441406,101.2925,1,0.82
2022-06-02T10:45:13.543+02:00,1654159511.14246,53.22907412977236,10.39845990821668,36.71472,0,20,-1,-1,2.400000095367432,11.99936978251625,-9999,2657.820727041667,-0.85986328125,0.397979736328125,-0.7749481201171875,2657.810733041667,-0.1115623281834401,0.04266268534172901,-0.4023978626643642,-8.863485336303711,1.609994173049927,-3.040652751922607,-0.8722661137580872,-0.4354033172130585,0.1976534128189087,XArbitraryZVertical,-0.1983228164546469,0.03200618072994688,-0.05887115801439399,0.9778434058191509,0.03924307599663734,0.3916257917881012,-0.9192873239517212,0,0,0,-1,-1,2653.347029125,unknown,2,2022-06-02T10:45:09.069+02:00,2022-06-02T10:17:13.754+02:00,448,1.401249,0,0,345.1212,0,0,2022-06-02T10:45:11.626+02:00,675852311.6256452,0,7.441406,101.2925,1,0.82
2022-06-02T10:45:13.553+02:00,1654159511.14246,53.22907412977236,10.39845990821668,36.71472,0,20,-1,-1,2.400000095367432,11.99936978251625,-9999,2657.830722041667,-0.8369903564453125,0.6685638427734375,-0.844512939453125,2657.820727041667,-0.1410943936321042,0.0483952081409294,-0.492839050429658,-8.960417747497559,2.085937023162842,-3.090269088745117,-0.9075636267662048,-0.2275693416595459,0.1103999018669128,XArbitraryZVertical,-0.2416012619814932,0.04059549332594451,-0.07422671014549743,0.9666804551308097,0.04261920601129532,0.4731289744377136,-0.8799616694450378,0,0,0,-1,-1,2653.347029125,unknown,2,2022-06-02T10:45:09.069+02:00,2022-06-02T10:17:13.754+02:00,448,1.401249,0,0,345.1212,0,0,2022-06-02T10:45:11.626+02:00,675852311.6256452,0,7.441406,101.2925,1,0.82
2022-06-02T10:45:13.563+02:00,1654159511.14246,53.22907412977236,10.39845990821668,36.71472,0,20,-1,-1,2.400000095367432,11.99936978251625,-9999,2657.840716041667,-0.813568115234375,0.7937164306640625,-0.8708953857421875,2657.830722041667,-0.1719724326465845,0.05548144648584723,-0.5839186653215733,-8.934422492980957,2.502966642379761,-3.163926839828491,-0.8946993350982666,-0.003598690032958984,0.03282350301742554,XArbitraryZVertical,-0.2843742268682199,0.05117459598894174,-0.09016843291000644,0.953090717108938,0.04626490920782089,0.5512975454330444,-0.8330249190330505,0,0,0,-1,-1,2653.347029125,unknown,2,2022-06-02T10:45:09.069+02:00,2022-06-02T10:17:13.754+02:00,448,1.401249,0,0,345.1212,0,0,2022-06-02T10:45:11.626+02:00,675852311.6256452,0,7.441406,101.2925,1,0.82
2022-06-02T10:45:13.573+02:00,1654159511.14246,53.22907412977236,10.39845990821668,36.71472,0,20,-1,-1,2.400000095367432,11.99936978251625,-9999,2657.850711041667,-0.7599639892578125,0.9135894775390625,-0.9151458740234375,2657.840716041667,-0.2054653522422038,0.06305105171100682,-0.6733997210669539,-8.575870513916016,2.968835353851318,-3.296459436416626,-0.8774712681770325,0.1222329139709473,-0.09316891431808472,XArbitraryZVertical,-0.3254179551263329,0.06345729765180058,-0.107104270073027,0.9373392947823297,0.04925473034381866,0.623647153377533,-0.7801526784896851,0,0,0,-1,-1,2653.347029125,unknown,2,2022-06-02T10:45:09.069+02:00,2022-06-02T10:17:13.754+02:00,448,1.401249,0,0,345.1212,0,0,2022-06-02T10:45:11.626+02:00,675852311.6256452,0,7.441406,101.2925,1,0.82
2022-06-02T10:45:13.583+02:00,1654159511.14246,53.22907412977236,10.39845990821668,36.71472,0,20,-1,-1,2.400000095367432,11.99936978251625,-9999,2657.860706041667,-0.6761474609375,1.072219848632812,-0.9105224609375,2657.850711041667,-0.2413125385841114,0.07172554264905202,-0.7577464136980971,-7.878612518310547,3.469116926193237,-3.195275783538818,-0.8437580466270447,0.1553192734718323,-0.1526020169258118,XArbitraryZVertical,-0.3629391208436271,0.07756090920937578,-0.1249213243682578,0.9201380551721008,0.05205581709742546,0.6872861981391907,-0.7245190143585205,0,0,0,-1,-1,2653.347029125,unknown,2,2022-06-02T10:45:09.069+02:00,2022-06-02T10:17:13.754+02:00,448,1.401249,0,0,345.1212,0,0,2022-06-02T10:45:11.626+02:00,675852311.6256452,0,7.441406,101.2925,1,0.82
2022-06-02T10:45:13.593+02:00,1654159511.14246,53.22907412977236,10.39845990821668,36.71472,0,20,-1,-1,2.400000095367432,11.99936978251625,-9999,2657.870700041667,-0.583892822265625,1.15789794921875,-0.9617767333984375,2657.860706041667,-0.2768277166998728,0.08327138193962155,-0.8347410943951844,-7.107603073120117,3.919435501098633,-2.948104619979858,-0.7769563794136047,0.2552913427352905,-0.2619871497154236,XArbitraryZVertical,-0.3958834938014377,0.09356644811841359,-0.1427303316441686,0.9023023011375559,0.05584127828478813,0.7411227226257324,-0.6690431833267212,0,0,0,-1,-1,2653.347029125,unknown,2,2022-06-02T10:45:09.069+02:00,2022-06-02T10:17:13.754+02:00,448,1.401249,0,0,345.1212,0,0,2022-06-02T10:45:11.626+02:00,675852311.6256452,0,7.441406,101.2925,1,0.82
2022-06-02T10:45:13.603+02:00,1654159511.14246,53.22907412977236,10.39845990821668,36.71472,0,20,-1,-1,2.400000095367432,11.99936978251625,-9999,2657.880695041667,-0.45477294921875,1.111129760742188,-1.106170654296875,2657.870700041667,-0.311797087753753,0.09775732229049608,-0.9047291596962784,-6.449408531188965,4.337142467498779,-2.826276540756226,-0.694997251033783,0.3435028195381165,-0.2973288297653198,XArbitraryZVertical,-0.4244537014944647,0.1111973014271432,-0.1605806169598214,0.8841312571704097,0.06030794605612755,0.786257803440094,-0.6149484515190125,0,0,0,-1,-1,2653.347029125,unknown,2,2022-06-02T10:45:09.069+02:00,2022-06-02T10:17:13.754+02:00,448,1.401249,0,0,345.1212,0,0,2022-06-02T10:45:11.626+02:00,675852311.6256452,0,7.441406,101.2925,1,0.82
2022-06-02T10:45:13.613+02:00,1654159511.14246,53.22907412977236,10.39845990821668,36.71472,0,20,-1,-1,2.400000095367432,11.99936978251625,-9999,2657.890689041667,-0.314788818359375,1.046890258789062,-1.13226318359375,2657.880695041667,-0.3486087489338206,0.1133322396509984,-0.9688594871157684,-5.887557506561279,4.717154026031494,-2.864181995391846,-0.5859628319740295,0.3258295655250549,-0.4869075417518616,XArbitraryZVertical,-0.4492192142132345,0.1299940841739059,-0.1791986967946164,0.8655583733193984,0.06403593719005585,0.8242404460906982,-0.5626072883605957,0,0,0,-1,-1,2653.347029125,unknown,2,2022-06-02T10:45:09.069+02:00,2022-06-02T10:17:13.754+02:00,448,1.401249,0,0,345.1212,0,0,2022-06-02T10:45:11.626+02:00,675852311.6256452,0,7.441406,101.2925,1,0.82
2022-06-02T10:45:13.623+02:00,1654159511.14246,53.22907412977236,10.39845990821668,36.71472,0,20,-1,-1,2.400000095367432,11.99936978251625,-9999,2657.900684041667,-0.206817626953125,1.035354614257812,-1.202285766601562,2657.890689041667,-0.3876300039059377,0.129530498377758,-1.029917533011973,-5.794313430786133,5.08848237991333,-2.779473781585693,-0.4493200182914734,0.2149479389190674,-0.6070692539215088,XArbitraryZVertical,-0.4714158105199193,0.1499303811437137,-0.1985519657327977,0.8460880703554119,0.06650754064321518,0.8572565317153931,-0.5105760097503662,0,0,0,-1,-1,2653.347029125,unknown,2,2022-06-02T10:45:09.069+02:00,2022-06-02T10:17:13.754+02:00,448,1.401249,0,0,345.1212,0,0,2022-06-02T10:45:11.626+02:00,675852311.6256452,0,7.441406,101.2925,1,0.82
2022-06-02T10:45:13.633+02:00,1654159511.14246,53.22907412977236,10.39845990821668,36.71472,0,20,-1,-1,2.400000095367432,11.99936978251625,-9999,2657.910678041667,-0.1399078369140625,1.193557739257812,-1.000335693359375,2657.900684041667,-0.4246945150323223,0.149622555397038,-1.09168760334212,-5.962777614593506,5.384115219116211,-2.505690336227417,-0.3241340517997742,0.1470633745193481,-0.7236207723617554,XArbitraryZVertical,-0.4925964120450512,0.1715512017327716,-0.2175560434952948,0.82497773236435,0.06871718913316727,0.8874061703681946,-0.4558379054069519,0,0,0,-1,-1,2653.347029125,unknown,2,2022-06-02T10:45:09.069+02:00,2022-06-02T10:17:13.754+02:00,448,1.401249,0,0,345.1212,0,0,2022-06-02T10:45:11.626+02:00,675852311.6256452,0,7.441406,101.2925,1,0.82
2022-06-02T10:45:13.643+02:00,1654159511.14246,53.22907412977236,10.39845990821668,36.71472,0,20,-1,-1,2.400000095367432,11.99936978251625,-9999,2657.920673041667,-0.1343841552734375,1.410171508789062,-0.7560272216796875,2657.910678041667,-0.4537694797312566,0.1781816787691885,-1.156519590816963,-6.485002517700195,5.575058937072754,-2.087166547775269,-0.23801589012146,0.1677067875862122,-0.7412353754043579,XArbitraryZVertical,-0.5136880341235616,0.1950569869628117,-0.2350072817307238,0.8017785256710107,0.07134415209293365,0.9154077172279358,-0.3961547613143921,0,0,0,-1,-1,2653.347029125,unknown,2,2022-06-02T10:45:09.069+02:00,2022-06-02T10:17:13.754+02:00,448,1.401249,0,0,345.1212,0,0,2022-06-02T10:45:11.626+02:00,675852311.6256452,0,7.441406,101.2925,1,0.82
2022-06-02T10:45:13.653+02:00,1654159511.14246,53.22907412977236,10.39845990821668,36.71472,0,20,-1,-1,2.400000095367432,11.99936978251625,-9999,2657.930668041667,-0.118743896484375,1.628372192382812,-0.533050537109375,2657.920673041667,-0.4681182422340718,0.2217271845506184,-1.225297938169682,-6.689980983734131,5.802033424377441,-1.694379925727844,-0.2054131925106049,0.3730732202529907,-0.5311824083328247,XArbitraryZVertical,-0.5349303411503371,0.2205951613597834,-0.2504671680743055,0.7761787168960483,0.07447756081819534,0.9409067630767822,-0.3303745985031128,0,0,0,-1,-1,2653.347029125,unknown,2,2022-06-02T10:45:09.069+02:00,2022-06-02T10:17:13.754+02:00,448,1.401249,0,0,345.1212,0,0,2022-06-02T10:45:11.626+02:00,675852311.6256452,0,7.441406,101.2925,1,0.82
2022-06-02T10:45:13.663+02:00,1654159511.14246,53.22907412977236,10.39845990821668,36.71472,0,20,-1,-1,2.400000095367432,11.99936978251625,-9999,2657.940662041667,-0.047027587890625,1.832489013671875,-0.2923431396484375,2657.930668041667,-0.4622621495962717,0.2865561565226629,-1.291570986178584,-6.188925266265869,6.038018226623535,-1.28219747543335,-0.2113090455532074,0.5485267639160156,-0.3955706059932709,XArbitraryZVertical,-0.5536965604365079,0.2474552096199687,-0.26472253977051,0.749738527929297,0.07790149003267288,0.9612692594528198,-0.2643720805644989,0,0,0,-1,-1,2653.347029125,unknown,2,2022-06-02T10:45:09.069+02:00,2022-06-02T10:17:13.754+02:00,448,1.401249,0,0,345.1212,0,0,2022-06-02T10:45:11.626+02:00,675852311.6256452,0,7.441406,101.2925,1,0.82
2022-06-02T10:45:13.673+02:00,1654159511.14246,53.22907412977236,10.39845990821668,36.71472,0,20,-1,-1,2.400000095367432,11.99936978251625,-9999,2657.950657041667,0.074676513671875,1.878585815429688,-0.1200714111328125,2657.940662041667,-0.4265679876596924,0.3820352865085432,-1.349881856267755,-5.388968944549561,6.108474254608154,-0.8681750893592834,-0.1704968810081482,0.7701215147972107,-0.1922287940979004,XArbitraryZVertical,-0.5682091350764128,0.274728829856604,-0.2781997025120141,0.724063085648876,0.08169078081846237,0.9756974577903748,-0.2033248990774155,0,0,0,-1,-1,2653.347029125,unknown,2,2022-06-02T10:45:09.069+02:00,2022-06-02T10:17:13.754+02:00,448,1.401249,0,0,345.1212,0,0,2022-06-02T10:45:11.626+02:00,675852311.6256452,0,7.441406,101.2925,1,0.82
2022-06-02T10:45:13.683+02:00,1654159511.14246,53.22907412977236,10.39845990821668,36.71472,0,20,-1,-1,2.400000095367432,11.99936978251625,-9999,2657.960651041667,0.180450439453125,1.866500854492188,0.1597137451171875,2657.950657041667,-0.3481520863121079,0.5193347412928252,-1.396210014266637,-4.25813627243042,5.958524227142334,-0.3683404922485352,-0.07763219624757767,0.888629674911499,-0.06688456237316132,XArbitraryZVertical,-0.5777634933094009,0.3013148840091738,-0.2907748882924472,0.7006057728587083,0.08620766550302505,0.9847984910011292,-0.1507973670959473,0,0,0,-1,-1,2653.347029125,unknown,2,2022-06-02T10:45:09.069+02:00,2022-06-02T10:17:13.754+02:00,448,1.401249,0,0,345.1212,0,0,2022-06-02T10:45:11.626+02:00,675852311.6256452,0,7.441406,101.2925,1,0.82
2022-06-02T10:45:13.694+02:00,1654159511.14246,53.22907412977236,10.39845990821668,36.71472,0,20,-1,-1,2.400000095367432,11.99936978251625,-9999,2657.970646041667,0.2617645263671875,1.859268188476562,0.319244384765625,2657.960651041667,-0.2228498718974244,0.7015812323518815,-1.426794163951052,-3.044352769851685,5.736730098724365,0.1093682944774628,0.04215943813323975,0.8834734559059143,0.1314623951911926,XArbitraryZVertical,-0.581849889135323,0.3265651001602174,-0.3024447498468172,0.6806856956459751,0.09262149780988693,0.9896495938301086,-0.1096118837594986,0,0,0,-1,-1,2653.347029125,unknown,2,2022-06-02T10:45:09.069+02:00,2022-06-02T10:17:13.754+02:00,448,1.401249,0,0,345.1212,0,0,2022-06-02T10:45:11.626+02:00,675852311.6256452,0,7.441406,101.2925,1,0.82
2022-06-02T10:45:13.703+02:00,1654159511.14246,53.22907412977236,10.39845990821668,36.71472,0,20,-1,-1,2.400000095367432,11.99936978251625,-9999,2657.980641041667,0.3486328125,1.871292114257812,0.37896728515625,2657.970646041667,-0.07951081929313411,0.8997661898345775,-1.441797749239629,-1.847182154655457,5.503593921661377,0.4499551653862,0.1193899512290955,0.8693468570709229,0.3349618911743164,XArbitraryZVertical,-0.580929776240565,0.3500382835768229,-0.3136936055940964,0.6645223778120442,0.100748635828495,0.9916912317276001,-0.07998759299516678,0,0,0,-1,-1,2653.347029125,unknown,2,2022-06-02T10:45:09.069+02:00,2022-06-02T10:17:13.754+02:00,448,1.401249,0,0,345.1212,0,0,2022-06-02T10:45:11.626+02:00,675852311.6256452,0,7.441406,101.2925,1,0.82
2022-06-02T10:45:13.714+02:00,1654159511.14246,53.22907412977236,10.39845990821668,36.71472,0,20,-1,-1,2.400000095367432,11.99936978251625,-9999,2657.990635041667,0.4240264892578125,1.831390380859375,0.2966461181640625,2657.980641041667,0.03282742505688364,1.065035367086474,-1.444350049433981,-0.8682965040206909,5.266176223754883,0.7109968662261963,0.1952362656593323,0.8717073202133179,0.4276125431060791,XArbitraryZVertical,-0.5756642775475791,0.3715674723463561,-0.3249461915819033,0.6518881529674895,0.1103210374712944,0.9920163154602051,-0.06109650433063507,0,0,0,-1,-1,2653.347029125,unknown,2,2022-06-02T10:45:09.069+02:00,2022-06-02T10:17:13.754+02:00,448,1.401249,0,0,345.1212,0,0,2022-06-02T10:45:11.626+02:00,675852311.6256452,0,7.441406,101.2925,1,0.82
2022-06-02T10:45:13.723+02:00,1654159511.14246,53.22907412977236,10.39845990821668,36.71472,0,20,-1,-1,2.400000095367432,11.99936978251625,-9999,2658.000630041667,0.440521240234375,1.722976684570312,0.3414764404296875,2657.990635041667,0.09418445592979115,1.177185915240609,-1.438864421922091,-0.09008808434009552,4.997560501098633,0.9736319780349731,0.2696544229984283,0.8729786276817322,0.3904180526733398,XArbitraryZVertical,-0.5671211626167286,0.3913405547904228,-0.3359920219008448,0.6421334999962492,0.1214893907308578,0.9913095831871033,-0.05045231431722641,0,0,0,-1,-1,2653.347029125,unknown,2,2022-06-02T10:45:09.069+02:00,2022-06-02T10:17:13.754+02:00,448,1.401249,0,0,345.1212,0,0,2022-06-02T10:45:11.626+02:00,675852311.6256452,0,7.441406,101.2925,1,0.82
2022-06-02T10:45:13.733+02:00,1654159511.14246,53.22907412977236,10.39845990821668,36.71472,0,20,-1,-1,2.400000095367432,11.99936978251625,-9999,2658.010624041667,0.3973388671875,1.609344482421875,0.503662109375,2658.000630041667,0.1070494077694577,1.238513109399394,-1.427813025438145,0.4876630306243896,4.721258163452148,1.21616804599762,0.3070257306098938,0.7896081805229187,0.3407174944877625,XArbitraryZVertical,-0.5559095884805089,0.4095404346005206,-0.3465899594049483,0.6349144722342916,0.1347009390592575,0.9897952675819397,-0.04648232460021973,0,0,0,-1,-1,2653.347029125,unknown,2,2022-06-02T10:45:09.069+02:00,2022-06-02T10:17:13.754+02:00,448,1.401249,0,0,345.1212,0,0,2022-06-02T10:45:11.626+02:00,675852311.6256452,0,7.441406,101.2925,1,0.82
2022-06-02T10:45:13.743+02:00,1654159511.14246,53.22907412977236,10.39845990821668,36.71472,0,20,-1,-1,2.400000095367432,11.99936978251625,-9999,2658.020619041667,0.3358917236328125,1.458999633789062,0.6467742919921875,2658.010624041667,0.09958969124569454,1.276902372340519,-1.413567534804759,0.5274083018302917,4.446066379547119,1.42562460899353,0.2729533016681671,0.6814481019973755,0.4633731842041016,XArbitraryZVertical,-0.5433851534646628,0.4266769275122798,-0.3561316269607147,0.629165790441804,0.1498677730560303,0.9876649975776672,-0.04535874724388123,0,0,0,-1,-1,2653.347029125,unknown,2,2022-06-02T10:45:09.069+02:00,2022-06-02T10:17:13.754+02:00,448,1.401249,0,0,345.1212,0,0,2022-06-02T10:45:11.626+02:00,675852311.6256452,0,7.441406,101.2925,1,0.82
2022-06-02T10:45:13.753+02:00,1654159511.14246,53.22907412977236,10.39845990821668,36.71472,0,20,-1,-1,2.400000095367432,11.99936978251625,-9999,2658.030614041667,0.2923736572265625,1.342788696289062,0.715606689453125,2658.020619041667,0.1038767295796847,1.324664687394605,-1.397904061984175,0.1430760622024536,4.284566879272461,1.632154226303101,0.1991962343454361,0.5520026683807373,0.6260682940483093,XArbitraryZVertical,-0.5311274375744138,0.4437854921108831,-0.3638014625960617,0.6233830678580001,0.1668468415737152,0.9850913286209106,-0.04191616550087929,0,0,0,-1,-1,2653.347029125,unknown,2,2022-06-02T10:45:09.069+02:00,2022-06-02T10:17:13.754+02:00,448,1.401249,0,0,345.1212,0,0,2022-06-02T10:45:11.626+02:00,675852311.6256452,0,7.441406,101.2925,1,0.82
2022-06-02T10:45:13.763+02:00,1654159511.14246,53.22907412977236,10.39845990821668,36.71472,0,20,-1,-1,2.400000095367432,11.99936978251625,-9999,2658.040608041667,0.2901611328125,1.342178344726562,0.8011627197265625,2658.030614041667,0.1286847365729258,1.391444938010986,-1.381091817142519,-0.3012654185295105,4.196876525878906,1.84179949760437,0.1234016865491867,0.4066269397735596,0.7181328535079956,XArbitraryZVertical,-0.5196812026710398,0.4616405678306263,-0.3693603592815311,0.6167594122559001,0.1855430603027344,0.9820600152015686,-0.03363886848092079,0,0,0,-1,-1,2653.347029125,unknown,2,2022-06-02T10:45:09.069+02:00,2022-06-02T10:17:13.754+02:00,448,1.401249,0,0,345.1212,0,0,2022-06-02T10:45:11.626+02:00,675852311.6256452,0,7.441406,101.2925,1,0.82
2022-06-02T10:45:13.774+02:00,1654159511.14246,53.22907412977236,10.39845990821668,36.71472,0,20,-1,-1,2.400000095367432,11.99936978251625,-9999,2658.050603041667,0.3076629638671875,1.366470336914062,0.91485595703125,2658.040608041667,0.1637711731818041,1.467263556136736,-1.362287740491994,-0.4978529810905457,4.087069988250732,2.079126834869385,0.08207209408283234,0.3522712588310242,0.7736665010452271,XArbitraryZVertical,-0.508673649319256,0.4801610118468178,-0.373009132344712,0.6095576631845556,0.2058918178081512,0.978340744972229,-0.02139304205775261,0,0,0,-1,-1,2653.347029125,unknown,2,2022-06-02T10:45:09.069+02:00,2022-06-02T10:17:13.754+02:00,448,1.401249,0,0,345.1212,0,0,2022-06-02T10:45:11.626+02:00,675852311.6256452,0,7.441406,101.2925,1,0.82
2022-06-02T10:45:13.783+02:00,1654159511.14246,53.22907412977236,10.39845990821668,36.71472,0,20,-1,-1,2.400000095367432,11.99936978251625,-9999,2658.060597041667,0.34478759765625,1.34466552734375,1.053329467773438,2658.050603041667,0.1905292534776049,1.533400954226438,-1.340774089084981,-0.3102143704891205,3.911309480667114,2.295933246612549,0.06897471845149994,0.3832873702049255,0.8655644655227661,XArbitraryZVertical,-0.4971354125213643,0.4985923462997208,-0.3753930123294159,0.6027785834278604,0.2278392612934113,0.9736613035202026,-0.008524107746779919,0,0,0,-1,-1,2653.347029125,unknown,2,2022-06-02T10:45:09.069+02:00,2022-06-02T10:17:13.754+02:00,448,1.401249,0,0,345.1212,0,0,2022-06-02T10:45:11.626+02:00,675852311.6256452,0,7.441406,101.2925,1,0.82
2022-06-02T10:45:13.793+02:00,1654159511.14246,53.22907412977236,10.39845990821668,36.71472,0,20,-1,-1,2.400000095367432,11.99936978251625,-9999,2658.070592041667,0.3837738037109375,1.294143676757812,1.247024536132812,2658.060597041667,0.1939015730550409,1.574607284935074,-1.316853889010469,0.2491939812898636,3.669007778167725,2.487613201141357,0.07393011450767517,0.3939782381057739,0.9745674133300781,XArbitraryZVertical,-0.4840485091665844,0.5159222193482896,-0.3774126339217281,0.5975624150837404,0.2512194216251373,0.9679295420646667,0.0009573912830092013,0,0,0,-1,-1,2653.347029125,unknown,2,2022-06-02T10:45:09.069+02:00,2022-06-02T10:17:13.754+02:00,448,1.401249,0,0,345.1212,0,0,2022-06-02T10:45:11.626+02:00,675852311.6256452,0,7.441406,101.2925,1,0.82
2022-06-02T10:45:13.803+02:00,1654159511.14246,53.22907412977236,10.39845990821668,36.71472,0,20,-1,-1,2.400000095367432,11.99936978251625,-9999,2658.080586041667,0.4155426025390625,1.216156005859375,1.383651733398438,2658.070592041667,0.1714547146620076,1.588073345222778,-1.291342745222405,0.868323028087616,3.345295429229736,2.617387771606445,0.08889621496200562,0.3609676361083984,1.144099354743958,XArbitraryZVertical,-0.469022650507094,0.5314135820718182,-0.3796377677558372,0.5945522758237659,0.2757888734340668,0.961206316947937,0.004765283782035112,0,0,0,-1,-1,2653.347029125,unknown,2,2022-06-02T10:45:09.069+02:00,2022-06-02T10:17:13.754+02:00,448,1.401249,0,0,345.1212,0,0,2022-06-02T10:45:11.626+02:00,675852311.6256452,0,7.441406,101.2925,1,0.82
2022-06-02T10:45:13.816+02:00,1654159511.14246,53.22907412977236,10.39845990821668,36.71472,0,20,-1,-1,2.400000095367432,11.99936978251625,-9999,2658.090581041667,0.421600341796875,1.117523193359375,1.393997192382812,2658.080586041667,0.1316969208756749,1.581417048942092,-1.265070262631438,1.320941090583801,2.936216592788696,2.665127038955688,0.09916272759437561,0.3043668270111084,1.325798034667969,XArbitraryZVertical,-0.4526336810487636,0.5447210868931254,-0.3820119976179449,0.5936905608878766,0.3009685277938843,0.9536286592483521,0.003196623409166932,0,0,0,-1,-1,2653.347029125,unknown,2,2022-06-02T10:45:09.069+02:00,2022-06-02T10:17:13.754+02:00,448,1.401249,0,0,345.1212,0,0,2022-06-02T10:45:11.626+02:00,675852311.6256452,0,7.441406,101.2925,1,0.82
2022-06-02T10:45:13.837+02:00,1654159511.14246,53.22907412977236,10.39845990821668,36.71472,0,20,-1,-1,2.400000095367432,11.99936978251625,-9999,2658.100576041667,0.3787841796875,1.012054443359375,1.242919921875,2658.090581041667,0.08606743166787047,1.565218378391008,-1.238426224867408,1.47031569480896,2.482935667037964,2.666083097457886,0.09794551134109497,0.2219494581222534,1.408771872520447,XArbitraryZVertical,-0.4358658407950095,0.5559774947677899,-0.3840346896212127,0.5944975888417936,0.32627934217453,0.9452716708183289,-0.001819988247007132,0,0,0,-1,-1,2653.347029125,unknown,2,2022-06-02T10:45:09.069+02:00,2022-06-02T10:17:13.754+02:00,448,1.401249,0,0,345.1212,0,0,2022-06-02T10:45:11.626+02:00,675852311.6256452,0,7.441406,101.2925,1,0.82
2022-06-02T10:45:13.846+02:00,1654159511.14246,53.22907412977236,10.39845990821668,36.71472,0,20,-1,-1,2.400000095367432,11.99936978251625,-9999,2658.110570041667,0.2636871337890625,0.915283203125,1.093338012695312,2658.100576041667,0.04539411074129066,1.549545364703591,-1.21151243115535,1.352094531059265,2.051689147949219,2.687100648880005,0.0568310022354126,0.1307457089424133,1.342462778091431,XArbitraryZVertical,-0.4198171679331078,0.5657012140803527,-0.3848799952627991,0.5963246930546886,0.3515247404575348,0.9361488223075867,-0.007471363991498947,0,0,0,-1,-1,2653.347029125,unknown,2,2022-06-02T10:45:09.069+02:00,2022-06-02T10:17:13.754+02:00,448,1.401249,0,0,345.1212,0,0,2022-06-02T10:45:11.626+02:00,675852311.6256452,0,7.441406,101.2925,1,0.82
2022-06-02T10:45:13.850+02:00,1654159511.14246,53.22907412977236,10.39845990821668,36.71472,0,20,-1,-1,2.400000095367432,11.99936978251625,-9999,2658.120565041667,0.143890380859375,0.888519287109375,1.071548461914062,2658.110570041667,0.01198984415730357,1.537292761123717,-1.184261195178348,1.225659966468811,1.738843441009521,2.69041919708252,-0.04952985048294067,0.03097820281982422,1.167138338088989,XArbitraryZVertical,-0.4046638794452929,0.5743981328306424,-0.384408602906104,0.5987853935626375,0.3767698705196381,0.9262208342552185,-0.01262785959988832,0,0,0,-1,-1,2653.347029125,unknown,2,2022-06-02T10:45:09.069+02:00,2022-06-02T10:17:13.754+02:00,448,1.401249,0,0,345.1212,0,0,2022-06-02T10:45:11.626+02:00,675852311.6256452,0,7.441406,101.2925,1,0.82
2022-06-02T10:45:13.853+02:00,1654159511.14246,53.22907412977236,10.39845990821668,36.71472,0,20,-1,-1,2.400000095367432,11.99936978251625,-9999,2658.130559041667,0.0914154052734375,0.8773345947265625,1.182388305664062,2658.120565041667,-0.01512650204578029,1.528660310726884,-1.157019306726562,1.090292930603027,1.545423865318298,2.67395544052124,-0.2031202018260956,-0.02126073837280273,1.082518815994263,XArbitraryZVertical,-0.3902949204372265,0.5824101331915829,-0.3829591667347185,0.6015068426575488,0.4017133116722107,0.9156087040901184,-0.01693662442266941,0,0,0,-1,-1,2653.347029125,unknown,2,2022-06-02T10:45:09.069+02:00,2022-06-02T10:17:13.754+02:00,448,1.401249,0,0,345.1212,0,0,2022-06-02T10:45:11.626+02:00,675852311.6256452,0,7.441406,101.2925,1,0.82
2022-06-02T10:45:13.864+02:00,1654159511.14246,53.22907412977236,10.39845990821668,36.71472,0,20,-1,-1,2.400000095367432,11.99936978251625,-9999,2658.140554041667,0.121795654296875,0.832672119140625,1.344253540039062,2658.140554041667,-0.05282385015446047,1.522543678859245,-1.103508190278171,0.7410256266593933,1.243314027786255,2.581808805465698,-0.3501956164836884,-0.03509676456451416,1.285460591316223,XArbitraryZVertical,-0.3638393900477299,0.5972913959534389,-0.3777588063554191,0.6067636113597361,0.4499422907829285,0.8927931785583496,-0.02172777242958546,0,0,0,-1,-1,2653.347029125,unknown,2,2022-06-02T10:45:09.069+02:00,2022-06-02T10:17:13.754+02:00,448,1.401249,0,0,345.1212,0,0,2022-06-02T10:45:11.626+02:00,675852311.6256452,0,7.441406,101.2925,1,0.82
2022-06-02T10:45:13.873+02:00,1654159511.14246,53.22907412977236,10.39845990821668,36.71472,0,20,-1,-1,2.400000095367432,11.99936978251625,-9999,2658.150549041667,0.176544189453125,0.7795562744140625,1.466339111328125,2658.150549041667,-0.064299896600737,1.523637620889836,-1.077888172292454,0.5758830308914185,0.9898276925086975,2.477748394012451,-0.3207014203071594,-0.07128334045410156,1.433897256851196,XArbitraryZVertical,-0.3521297182106328,0.6040292099302752,-0.3740303032081795,0.6093067375124505,0.4726637601852417,0.8809604644775391,-0.02230674959719181,0,0,0,-1,-1,2653.347029125,unknown,2,2022-06-02T10:45:09.069+02:00,2022-06-02T10:17:13.754+02:00,448,1.401249,0,0,345.1212,0,0,2022-06-02T10:45:11.626+02:00,675852311.6256452,0,7.441406,101.2925,1,0.82
2022-06-02T10:45:13.883+02:00,1654159511.14246,53.22907412977236,10.39845990821668,36.71472,0,20,-1,-1,2.400000095367432,11.99936978251625,-9999,2658.160543041667,0.2159423828125,0.7201080322265625,1.585922241210938,2658.150549041667,-0.064299896600737,1.523637620889836,-1.077888172292454,0.5758830308914185,0.9898276925086975,2.477748394012451,-0.3207014203071594,-0.07128334045410156,1.433897256851196,XArbitraryZVertical,-0.3521297182106328,0.6040292099302752,-0.3740303032081795,0.6093067375124505,0.4726637601852417,0.8809604644775391,-0.02230674959719181,0,0,0,-1,-1,2653.347029125,unknown,2,2022-06-02T10:45:09.069+02:00,2022-06-02T10:17:13.754+02:00,448,1.401249,0,0,345.1212,0,0,2022-06-02T10:45:11.626+02:00,675852311.6256452,0,7.441406,101.2925,1,0.82
2022-06-02T10:45:13.893+02:00,1654159511.14246,53.22907412977236,10.39845990821668,36.71472,0,20,-1,-1,2.400000095367432,11.99936978251625,-9999,2658.170538041667,0.2447509765625,0.72381591796875,1.702346801757812,2658.170538041667,-0.08218076489293157,1.518325420923597,-1.030392019486342,0.51675945520401,-0.06691824644804001,2.242289066314697,-0.2794147133827209,-0.1410244703292847,1.672277092933655,XArbitraryZVertical,-0.3325081021590265,0.6131450680781866,-0.3647810848575339,0.6167869195480066,0.5137743949890137,0.8575007319450378,-0.02698297426104546,0,0,0,-1,-1,2653.347029125,unknown,2,2022-06-02T10:45:09.069+02:00,2022-06-02T10:17:13.754+02:00,448,1.401249,0,0,345.1212,0,0,2022-06-02T10:45:11.626+02:00,675852311.6256452,0,7.441406,101.2925,1,0.82
2022-06-02T10:45:13.903+02:00,1654159511.14246,53.22907412977236,10.39845990821668,36.71472,0,20,-1,-1,2.400000095367432,11.99936978251625,-9999,2658.180532041667,0.2196502685546875,0.684967041015625,1.758438110351562,2658.170538041667,-0.08218076489293157,1.518325420923597,-1.030392019486342,0.51675945520401,-0.06691824644804001,2.242289066314697,-0.2794147133827209,-0.1410244703292847,1.672277092933655,XArbitraryZVertical,-0.3325081021590265,0.6131450680781866,-0.3647810848575339,0.6167869195480066,0.5137743949890137,0.8575007319450378,-0.02698297426104546,0,0,0,-1,-1,2653.347029125,unknown,2,2022-06-02T10:45:09.069+02:00,2022-06-02T10:17:13.754+02:00,448,1.401249,0,0,345.1212,0,0,2022-06-02T10:45:11.626+02:00,675852311.6256452,0,7.441406,101.2925,1,0.82
2022-06-02T10:45:13.913+02:00,1654159511.14246,53.22907412977236,10.39845990821668,36.71472,0,20,-1,-1,2.400000095367432,11.99936978251625,-9999,2658.190527041667,0.1078643798828125,0.6048736572265625,1.687713623046875,2658.180532041667,-0.08802498544267424,1.509142018578358,-1.008236079716189,0.3371896147727966,-0.7762214541435242,2.146665811538696,-0.2905034422874451,-0.1265321969985962,1.77649974822998,XArbitraryZVertical,-0.3251934274716771,0.6146689224088017,-0.3586153702601491,0.6227569304255193,0.5323399305343628,0.8458923697471619,-0.03286270052194595,0,0,0,-1,-1,2653.347029125,unknown,2,2022-06-02T10:45:09.069+02:00,2022-06-02T10:17:13.754+02:00,448,1.401249,0,0,345.1212,0,0,2022-06-02T10:45:11.626+02:00,675852311.6256452,0,7.441406,101.2925,1,0.82
2022-06-02T10:45:13.923+02:00,1654159511.14246,53.22907412977236,10.39845990821668,36.71472,0,20,-1,-1,2.400000095367432,11.99936978251625,-9999,2658.200521041667,-0.0399169921875,0.6237640380859375,1.5400390625,2658.190527041667,-0.08850909867728049,1.497522341688118,-0.9873646148031804,-0.04723235964775085,-1.455668687820435,2.012266159057617,-0.3763781785964966,-0.1970343589782715,1.776520609855652,XArbitraryZVertical,-0.3202670259475002,0.6142182777975029,-0.3508014237488316,0.6301613068828116,0.5494129061698914,0.8345770835876465,-0.04032987728714943,0,0,0,-1,-1,2653.347029125,unknown,2,2022-06-02T10:45:09.069+02:00,2022-06-02T10:17:13.754+02:00,448,1.401249,0,0,345.1212,0,0,2022-06-02T10:45:11.626+02:00,675852311.6256452,0,7.441406,101.2925,1,0.82
2022-06-02T10:45:13.933+02:00,1654159511.14246,53.22907412977236,10.39845990821668,36.71472,0,20,-1,-1,2.400000095367432,11.99936978251625,-9999,2658.210516041667,-0.1744232177734375,0.6693572998046875,1.3759765625,2658.200521041667,-0.07931214571368686,1.487921266979725,-0.9682378281761317,-0.7020120024681091,-1.967198967933655,1.880554556846619,-0.5310391783714294,-0.2219902276992798,1.667734861373901,XArbitraryZVertical,-0.3184264703153974,0.6124921663110774,-0.3407628566652243,0.6382307307137898,0.5648068189620972,0.8238883018493652,-0.04691585898399353,0,0,0,-1,-1,2653.347029125,unknown,2,2022-06-02T10:45:09.069+02:00,2022-06-02T10:17:13.754+02:00,448,1.401249,0,0,345.1212,0,0,2022-06-02T10:45:11.626+02:00,675852311.6256452,0,7.441406,101.2925,1,0.82
2022-06-02T10:45:13.943+02:00,1654159511.14246,53.22907412977236,10.39845990821668,36.71472,0,20,-1,-1,2.400000095367432,11.99936978251625,-9999,2658.220511041667,-0.28692626953125,0.71710205078125,1.299819946289062,2658.210516041667,-0.05888137306376595,1.483149380863174,-0.951092340179154,-1.312644243240356,-2.31158185005188,1.73214066028595,-0.6894808411598206,-0.1658267378807068,1.50567364692688,XArbitraryZVertical,-0.3197791647737341,0.6101814882842762,-0.3284013943199683,0.6461983106333702,0.5785646438598633,0.8140504360198975,-0.05083967372775078,0,0,0,-1,-1,2653.347029125,unknown,2,2022-06-02T10:45:09.069+02:00,2022-06-02T10:17:13.754+02:00,448,1.401249,0,0,345.1212,0,0,2022-06-02T10:45:11.626+02:00,675852311.6256452,0,7.441406,101.2925,1,0.82
2022-06-02T10:45:13.953+02:00,1654159511.14246,53.22907412977236,10.39845990821668,36.71472,0,20,-1,-1,2.400000095367432,11.99936978251625,-9999,2658.230505041667,-0.3131103515625,0.8488311767578125,1.318359375,2658.220511041667,-0.0314701928103862,1.48114797624025,-0.9361160788855897,-1.619013428688049,-2.53201699256897,1.526491284370422,-0.8240441679954529,-0.118402361869812,1.371228814125061,XArbitraryZVertical,-0.3234727881761968,0.6073086510875926,-0.3147255379796768,0.6538266226089112,0.5905388593673706,0.8052613139152527,-0.05308311432600021,0,0,0,-1,-1,2653.347029125,unknown,2,2022-06-02T10:45:09.069+02:00,2022-06-02T10:17:13.754+02:00,448,1.401249,0,0,345.1212,0,0,2022-06-02T10:45:11.626+02:00,675852311.6256452,0,7.441406,101.2925,1,0.82
2022-06-02T10:45:13.963+02:00,1654159511.14246,53.22907412977236,10.39845990821668,36.71472,0,20,-1,-1,2.400000095367432,11.99936978251625,-9999,2658.240500041667,-0.2751922607421875,0.9322967529296875,1.449783325195312,2658.230505041667,-0.0008630207510912009,1.479029235008809,-0.9234981951940893,-1.75453507900238,-2.803717851638794,1.324173927307129,-0.9151168465614319,-0.02003657817840576,1.361001253128052,XArbitraryZVertical,-0.3288839956539413,0.6034938532881452,-0.3005308459450565,0.6612954629736399,0.6004959344863892,0.7977160215377808,-0.05526097118854523,0,0,0,-1,-1,2653.347029125,unknown,2,2022-06-02T10:45:09.069+02:00,2022-06-02T10:17:13.754+02:00,448,1.401249,0,0,345.1212,0,0,2022-06-02T10:45:11.626+02:00,675852311.6256452,0,7.441406,101.2925,1,0.82
2022-06-02T10:45:13.973+02:00,1654159511.14246,53.22907412977236,10.39845990821668,36.71472,0,20,-1,-1,2.400000095367432,11.99936978251625,-9999,2658.250494041667,-0.204254150390625,0.9887542724609375,1.84033203125,2658.250494041667,0.04800438099757437,1.45174795943162,-0.904828232435801,-0.9951304793357849,-3.964646577835083,0.7932825088500977,-0.8561388254165649,0.1771209239959717,1.697903752326965,XArbitraryZVertical,-0.3411780616706767,0.5889898664513911,-0.2739398789499026,0.6794449462799802,0.6134478449821472,0.7863190174102783,-0.07337693125009537,0,0,0,-1,-1,2653.347029125,unknown,2,2022-06-02T10:45:09.069+02:00,2022-06-02T10:17:13.754+02:00,448,1.401249,0,0,345.1212,0,0,2022-06-02T10:45:11.626+02:00,675852311.6256452,0,7.441406,101.2925,1,0.82
2022-06-02T10:45:13.983+02:00,1654159511.14246,53.22907412977236,10.39845990821668,36.71472,0,20,-1,-1,2.400000095367432,11.99936978251625,-9999,2658.260489041667,-0.1307525634765625,0.906982421875,2.2347412109375,2658.250494041667,0.04800438099757437,1.45174795943162,-0.904828232435801,-0.9951304793357849,-3.964646577835083,0.7932825088500977,-0.8561388254165649,0.1771209239959717,1.697903752326965,XArbitraryZVertical,-0.3411780616706767,0.5889898664513911,-0.2739398789499026,0.6794449462799802,0.6134478449821472,0.7863190174102783,-0.07337693125009537,0,0,0,-1,-1,2653.347029125,unknown,2,2022-06-02T10:45:09.069+02:00,2022-06-02T10:17:13.754+02:00,448,1.401249,0,0,345.1212,0,0,2022-06-02T10:45:11.626+02:00,675852311.6256452,0,7.441406,101.2925,1,0.82
2022-06-02T10:45:13.993+02:00,1654159511.14246,53.22907412977236,10.39845990821668,36.71472,0,20,-1,-1,2.400000095367432,11.99936978251625,-9999,2658.270484041667,-0.1027374267578125,0.594573974609375,2.587753295898438,2658.260489041667,0.06469645277427316,1.420485425226445,-0.8996664724881979,-0.9465205073356628,-4.953135967254639,0.5083589553833008,-0.7802492380142212,0.2013927102088928,2.140729904174805,XArbitraryZVertical,-0.3484962337974907,0.576185011780917,-0.2612763105888569,0.6915893302409364,0.6148591637611389,0.7831195592880249,-0.09312241524457932,0,0,0,-1,-1,2653.347029125,unknown,2,2022-06-02T10:45:09.069+02:00,2022-06-02T10:17:13.754+02:00,448,1.401249,0,0,345.1212,0,0,2022-06-02T10:45:11.626+02:00,675852311.6256452,0,7.441406,101.2925,1,0.82
2022-06-02T10:45:14.003+02:00,1654159511.14246,53.22907412977236,10.39845990821668,36.71472,0,20,-1,-1,2.400000095367432,11.99936978251625,-9999,2658.280478041667,-0.181610107421875,0.3441009521484375,2.6932373046875,2658.270484041667,0.08343453942219224,1.378963242754858,-0.8976386962352091,-1.398920774459839,-6.342849254608154,0.2967109084129333,-0.7210301756858826,-0.02036720514297485,2.540239095687866,XArbitraryZVertical,-0.3583997983197884,0.5586732207795431,-0.2467894872065068,0.7060656343040097,0.6120213270187378,0.781856894493103,-0.1188676357269287,0,0,0,-1,-1,2653.347029125,unknown,2,2022-06-02T10:45:09.069+02:00,2022-06-02T10:17:13.754+02:00,448,1.401249,0,0,345.1212,0,0,2022-06-02T10:45:11.626+02:00,675852311.6256452,0,7.441406,101.2925,1,0.82
2022-06-02T10:45:14.013+02:00,1654159511.14246,53.22907412977236,10.39845990821668,36.71472,0,20,-1,-1,2.400000095367432,11.99936978251625,-9999,2658.290473041667,-0.4128570556640625,0.44085693359375,2.535629272460938,2658.280478041667,0.1133618782882716,1.330435299307703,-0.8996503175497188,-2.324707269668579,-8.071317672729492,0.1207451224327087,-0.7280141115188599,-0.3393229246139526,2.833603382110596,XArbitraryZVertical,-0.3730381136777437,0.535557492187326,-0.2278079593146607,0.7225816305291886,0.6040059328079224,0.7831094861030579,-0.1480414718389511,0,0,0,-1,-1,2653.347029125,unknown,2,2022-06-02T10:45:09.069+02:00,2022-06-02T10:17:13.754+02:00,448,1.401249,0,0,345.1212,0,0,2022-06-02T10:45:11.626+02:00,675852311.6256452,0,7.441406,101.2925,1,0.82
2022-06-02T10:45:14.023+02:00,1654159511.14246,53.22907412977236,10.39845990821668,36.71472,0,20,-1,-1,2.400000095367432,11.99936978251625,-9999,2658.300467041667,-0.734405517578125,0.7976226806640625,2.101531982421875,2658.290473041667,0.1570034860346675,1.274319602735711,-0.9070612350686944,-3.277336835861206,-10.0530481338501,-0.1299821734428406,-0.8666359782218933,-0.4497451782226562,2.819998979568481,XArbitraryZVertical,-0.3930264427861236,0.5055077046206077,-0.2031928544898189,0.7407460520055578,0.589185357093811,0.7876966595649719,-0.1799843460321426,0,0,0,-1,-1,2653.347029125,unknown,2,2022-06-02T10:45:09.069+02:00,2022-06-02T10:17:13.754+02:00,448,1.401249,0,0,345.1212,0,0,2022-06-02T10:45:11.626+02:00,675852311.6256452,0,7.441406,101.2925,1,0.82
2022-06-02T10:45:14.051+02:00,1654159511.14246,53.22907412977236,10.39845990821668,36.71472,0,20,-1,-1,2.400000095367432,11.99936978251625,-9999,2658.310462041667,-1.027618408203125,0.888916015625,1.16845703125,2658.300467041667,0.2120132545148858,1.206831207287415,-0.9215800109638755,-3.981726169586182,-12.14635848999023,-0.458697110414505,-1.137896060943604,-0.1794925332069397,2.586276769638062,XArbitraryZVertical,-0.4178548436171721,0.4666803754796007,-0.1728713049322442,0.7600803816879046,0.5649589896202087,0.7965578436851501,-0.2152135074138641,0,0,0,-1,-1,2653.347029125,unknown,2,2022-06-02T10:45:09.069+02:00,2022-06-02T10:17:13.754+02:00,448,1.401249,0,0,345.1212,0,0,2022-06-02T10:45:11.626+02:00,675852311.6256452,0,7.441406,101.2925,1,0.82
2022-06-02T10:45:14.055+02:00,1654159511.14246,53.22907412977236,10.39845990821668,36.71472,0,20,-1,-1,2.400000095367432,11.99936978251625,-9999,2658.320457041667,-1.332504272460938,0.369964599609375,0.4547576904296875,2658.310462041667,0.2699781820497997,1.122907072624171,-0.9446995548439683,-4.137105941772461,-13.94357681274414,-1.151683568954468,-1.412036538124084,0.09663081169128418,1.937958240509033,XArbitraryZVertical,-0.445435464884573,0.4179742736566861,-0.138590338121813,0.7795366293459091,0.5281863808631897,0.8103209137916565,-0.2537695169448853,0,0,0,-1,-1,2653.347029125,unknown,2,2022-06-02T10:45:09.069+02:00,2022-06-02T10:17:13.754+02:00,448,1.401249,0,0,345.1212,0,0,2022-06-02T10:45:11.626+02:00,675852311.6256452,0,7.441406,101.2925,1,0.82
2022-06-02T10:45:14.058+02:00,1654159511.14246,53.22907412977236,10.39845990821668,36.71472,0,20,-1,-1,2.400000095367432,11.99936978251625,-9999,2658.330451041667,-1.383758544921875,-0.440399169921875,2.171585083007812,2658.320457041667,0.3139196463563657,1.010660552512855,-0.9783149144777257,-3.245885133743286,-15.63937664031982,-2.37529468536377,-1.657365322113037,-0.1118605732917786,0.9958169460296631,XArbitraryZVertical,-0.4728976038413147,0.3578029502004607,-0.1039334497215756,0.798462674793779,0.4730848371982574,0.8295575380325317,-0.2966898083686829,0,0,0,-1,-1,2653.347029125,unknown,2,2022-06-02T10:45:09.069+02:00,2022-06-02T10:17:13.754+02:00,448,1.401249,0,0,345.1212,0,0,2022-06-02T10:45:11.626+02:00,675852311.6256452,0,7.441406,101.2925,1,0.82
2022-06-02T10:45:14.063+02:00,1654159511.14246,53.22907412977236,10.39845990821668,36.71472,0,20,-1,-1,2.400000095367432,11.99936978251625,-9999,2658.340446041667,-1.442047119140625,-0.4040985107421875,3.338851928710938,2658.340446041667,0.2663038345370664,0.608507590748016,-1.031411784865107,1.924991846084595,-20.96222305297852,-2.883785247802734,-1.529120087623596,-1.448448657989502,3.640761375427246,XArbitraryZVertical,-0.5009339869282029,0.1958494230965927,-0.03624222676474989,0.8422555981988793,0.2936006188392639,0.8580249547958374,-0.4214162826538086,0,0,0,-1,-1,2653.347029125,unknown,2,2022-06-02T10:45:09.069+02:00,2022-06-02T10:17:13.754+02:00,448,1.401249,0,0,345.1212,0,0,2022-06-02T10:45:11.626+02:00,675852311.6256452,0,7.441406,101.2925,1,0.82
2022-06-02T10:45:14.073+02:00,1654159511.14246,53.22907412977236,10.39845990821668,36.71472,0,20,-1,-1,2.400000095367432,11.99936978251625,-9999,2658.350440041667,-13.61714172363281,2.199737548828125,-10.19190979003906,2658.340446041667,0.2663038345370664,0.608507590748016,-1.031411784865107,1.924991846084595,-20.96222305297852,-2.883785247802734,-1.529120087623596,-1.448448657989502,3.640761375427246,XArbitraryZVertical,-0.5009339869282029,0.1958494230965927,-0.03624222676474989,0.8422555981988793,0.2936006188392639,0.8580249547958374,-0.4214162826538086,0,0,0,-1,-1,2653.347029125,unknown,2,2022-06-02T10:45:09.069+02:00,2022-06-02T10:17:13.754+02:00,448,1.401249,0,0,345.1212,0,0,2022-06-02T10:45:11.626+02:00,675852311.6256452,0,7.441406,101.2925,1,0.82
2022-06-02T10:45:14.083+02:00,1654159511.14246,53.22907412977236,10.39845990821668,36.71472,0,20,-1,-1,2.400000095367432,11.99936978251625,-9999,2658.360435041667,-12.92367553710938,2.028060913085938,-27.41424560546875,2658.350440041667,0.2119062423776566,0.4983302602740208,-1.019848065873624,1.899708032608032,17.14426040649414,1.693754911422729,-2.720470190048218,-0.8122489452362061,3.671071529388428,XArbitraryZVertical,-0.4931456920821448,0.1639905444571141,-0.03024008702250821,0.8538149392931255,0.250209629535675,0.852028489112854,-0.4598288536071777,0,0,0,-1,-1,2653.347029125,unknown,2,2022-06-02T10:45:09.069+02:00,2022-06-02T10:17:13.754+02:00,448,1.401249,0,0,345.1212,0,0,2022-06-02T10:45:11.626+02:00,675852311.6256452,0,7.441406,101.2925,1,0.82
2022-06-02T10:45:14.093+02:00,1654159511.14246,53.22907412977236,10.39845990821668,36.71472,0,20,-1,-1,2.400000095367432,11.99936978251625,-9999,2658.370429041667,0.933990478515625,0.9339599609375,-8.312957763671875,2658.360435041667,0.1889338936790945,0.5428730005524546,-1.058850667511332,0.753612220287323,0.2362078726291656,-4.59333610534668,-24.18315315246582,4.304918766021729,-25.36888694763184,XArbitraryZVertical,-0.5062051128072049,0.1844839037382688,-0.0563725188419428,0.8405618231791101,0.2530681490898132,0.8717930316925049,-0.4194441437721252,0,0,0,-1,-1,2653.347029125,unknown,2,2022-06-02T10:45:09.069+02:00,2022-06-02T10:17:13.754+02:00,448,1.401249,0,0,345.1212,0,0,2022-06-02T10:45:11.626+02:00,675852311.6256452,0,7.441406,101.2925,1,0.82
2022-06-02T10:45:14.103+02:00,1654159511.14246,53.22907412977236,10.39845990821668,36.71472,0,20,-1,-1,2.400000095367432,11.99936978251625,-9999,2658.380424041667,-1.793197631835938,0.2700958251953125,3.870361328125,2658.370429041667,0.1868390464345348,0.503572508962296,-1.074883679880023,-2.611273050308228,-5.681129455566406,2.065762996673584,-0.9950289130210876,-0.7554962635040283,-18.26157760620117,XArbitraryZVertical,-0.5136001053922118,0.1668285514530668,-0.04937974357291041,0.8402051479427278,0.2296175360679626,0.8795347809791565,-0.416766345500946,0,0,0,-1,-1,2653.347029125,unknown,2,2022-06-02T10:45:09.069+02:00,2022-06-02T10:17:13.754+02:00,448,1.401249,0,0,345.1212,0,0,2022-06-02T10:45:11.626+02:00,675852311.6256452,0,7.441406,101.2925,1,0.82
2022-06-02T10:45:14.113+02:00,1654159511.14246,53.22907412977236,10.39845990821668,36.71472,0,20,-1,-1,2.400000095367432,11.99936978251625,-9999,2658.390419041667,-0.7070465087890625,2.221832275390625,6.347335815429688,2658.380424041667,0.2496395518728564,0.5454703129799268,-1.071835164584977,0.2575010061264038,7.694425582885742,2.02253794670105,-1.133241653442383,0.1546803712844849,-0.6818234920501709,XArbitraryZVertical,-0.5167638589921861,0.1685779777623854,-0.03339148237029251,0.8387022248197891,0.248262420296669,0.8780801296234131,-0.409073144197464,0,0,0,-1,-1,2653.347029125,unknown,2,2022-06-02T10:45:09.069+02:00,2022-06-02T10:17:13.754+02:00,448,1.401249,0,0,345.1212,0,0,2022-06-02T10:45:11.626+02:00,675852311.6256452,0,7.441406,101.2925,1,0.82
2022-06-02T10:45:14.123+02:00,1654159511.14246,53.22907412977236,10.39845990821668,36.71472,0,20,-1,-1,2.400000095367432,11.99936978251625,-9999,2658.400413041667,1.615859985351562,3.417953491210938,-3.914520263671875,2658.390419041667,0.3075466422762325,0.7135790745487222,-1.099938651669491,-9.219929695129395,12.0155086517334,-0.7374891638755798,-1.559629678726196,-0.37851482629776,6.704070091247559,XArbitraryZVertical,-0.5295745575531929,0.2192380192212748,-0.05803632642488145,0.8173844269662609,0.2969343662261963,0.8911795020103455,-0.3429709672927856,0,0,0,-1,-1,2653.347029125,unknown,2,2022-06-02T10:45:09.069+02:00,2022-06-02T10:17:13.754+02:00,448,1.401249,0,0,345.1212,0,0,2022-06-02T10:45:11.626+02:00,675852311.6256452,0,7.441406,101.2925,1,0.82
2022-06-02T10:45:14.133+02:00,1654159511.14246,53.22907412977236,10.39845990821668,36.71472,0,20,-1,-1,2.400000095367432,11.99936978251625,-9999,2658.410408041667,0.1447601318359375,0.34246826171875,-4.64776611328125,2658.400413041667,0.4715677893717614,0.9253729023428288,-1.162617674800464,-7.715709209442139,2.724095344543457,1.6459721326828,0.3542792797088623,2.768052577972412,1.33778715133667,XArbitraryZVertical,-0.5649298916374925,0.2479268886723549,-0.0636126485435186,0.7844360411674753,0.3170922100543976,0.9178453087806702,-0.2387729436159134,0,0,0,-1,-1,2653.347029125,unknown,2,2022-06-02T10:45:09.069+02:00,2022-06-02T10:17:13.754+02:00,448,1.401249,0,0,345.1212,0,0,2022-06-02T10:45:11.626+02:00,675852311.6256452,0,7.441406,101.2925,1,0.82
2022-06-02T10:45:14.143+02:00,1654159511.14246,53.22907412977236,10.39845990821668,36.71472,0,20,-1,-1,2.400000095367432,11.99936978251625,-9999,2658.420402041667,-1.37408447265625,0.6103363037109375,-0.9223175048828125,2658.410408041667,0.5511036466313675,1.009651271818833,-1.166577185093288,2.346262693405151,0.009084508754312992,1.102952837944031,1.058858871459961,0.8400048017501831,-4.816673278808594,XArbitraryZVertical,-0.5737158233918527,0.2572963700824508,-0.05757032572263893,0.7754575364684939,0.3329868018627167,0.9194098114967346,-0.2092974632978439,0,0,0,-1,-1,2653.347029125,unknown,2,2022-06-02T10:45:09.069+02:00,2022-06-02T10:17:13.754+02:00,448,1.401249,0,0,345.1212,0,0,2022-06-02T10:45:11.626+02:00,675852311.6256452,0,7.441406,101.2925,1,0.82
2022-06-02T10:45:14.153+02:00,1654159511.14246,53.22907412977236,10.39845990821668,36.71472,0,20,-1,-1,2.400000095367432,11.99936978251625,-9999,2658.430397041667,-2.101577758789062,0.934051513671875,-0.3791046142578125,2658.420402041667,0.4587464204083713,0.9324214246225115,-1.134216854572089,6.180208683013916,2.120895862579346,-0.170520007610321,-1.032334089279175,-0.7315512895584106,-2.520920276641846,XArbitraryZVertical,-0.5535003406815462,0.2601027124005835,-0.06383941142104267,0.7886117072137542,0.3395698070526123,0.9062033295631409,-0.2519679069519043,0,0,0,-1,-1,2653.347029125,unknown,2,2022-06-02T10:45:09.069+02:00,2022-06-02T10:17:13.754+02:00,448,1.401249,0,0,345.1212,0,0,2022-06-02T10:45:11.626+02:00,675852311.6256452,0,7.441406,101.2925,1,0.82
2022-06-02T10:45:14.163+02:00,1654159511.14246,53.22907412977236,10.39845990821668,36.71472,0,20,-1,-1,2.400000095367432,11.99936978251625,-9999,2658.440392041667,-1.455886840820312,0.1253662109375,-0.87249755859375,2658.430397041667,0.3563092467912435,0.8787455670734468,-1.10666808120855,4.25225830078125,5.326587200164795,-0.8074656128883362,-2.146415710449219,0.07650607824325562,-0.02473017573356628,XArbitraryZVertical,-0.5322167921708165,0.2718838619949089,-0.08355712866542243,0.7973973043406071,0.3446578979492188,0.8942121267318726,-0.285648912191391,0,0,0,-1,-1,2653.347029125,unknown,2,2022-06-02T10:45:09.069+02:00,2022-06-02T10:17:13.754+02:00,448,1.401249,0,0,345.1212,0,0,2022-06-02T10:45:11.626+02:00,675852311.6256452,0,7.441406,101.2925,1,0.82
2022-06-02T10:45:14.173+02:00,1654159511.14246,53.22907412977236,10.39845990821668,36.71472,0,20,-1,-1,2.400000095367432,11.99936978251625,-9999,2658.450385625,-0.596221923828125,-0.1914825439453125,-0.6017913818359375,2658.440392041667,0.2785670055454981,0.865869552998169,-1.088779784047643,3.665785312652588,5.717044830322266,-0.9586580395698547,-2.245139122009277,-0.3233636617660522,-0.331454873085022,XArbitraryZVertical,-0.5153876239856164,0.290146590359426,-0.1073654221683767,0.7991640290139513,0.3530798256397247,0.8860619068145752,-0.3003810942173004,0,0,0,-1,-1,2653.347029125,unknown,2,2022-06-02T10:45:09.069+02:00,2022-06-02T10:17:13.754+02:00,448,1.401249,0,0,345.1212,0,0,2022-06-02T10:45:11.626+02:00,675852311.6256452,0,7.441406,101.2925,1,0.82
2022-06-02T10:45:14.183+02:00,1654159511.14246,53.22907412977236,10.39845990821668,36.71472,0,20,-1,-1,2.400000095367432,11.99936978251625,-9999,2658.460380625,-0.2196807861328125,0.04937744140625,0.1344757080078125,2658.450385625,0.2066030639828504,0.8596769750738303,-1.074245145076678,3.245647430419922,5.780858516693115,-1.244592785835266,-1.273576259613037,-1.007801413536072,-0.5481498241424561,XArbitraryZVertical,-0.4995623031663257,0.3081717935758418,-0.1315488686030048,0.7988507984136238,0.360932856798172,0.879230797290802,-0.3109352886676788,0,0,0,-1,-1,2653.347029125,unknown,2,2022-06-02T10:45:09.069+02:00,2022-06-02T10:17:13.754+02:00,448,1.401249,0,0,345.1212,0,0,2022-06-02T10:45:11.626+02:00,675852311.6256452,0,7.441406,101.2925,1,0.82
2022-06-02T10:45:14.195+02:00,1654159511.14246,53.22907412977236,10.39845990821668,36.71472,0,20,-1,-1,2.400000095367432,11.99936978251625,-9999,2658.470374625,0.173431396484375,0.444915771484375,0.6034393310546875,2658.460380625,0.1480764635761944,0.8665413100348195,-1.071659387526204,1.142424464225769,5.828176975250244,-1.986078143119812,-0.7276285290718079,-0.9878748059272766,0.08694440126419067,XArbitraryZVertical,-0.4888120016546272,0.3257334258086012,-0.1560387320474502,0.7941109713198857,0.364789754152298,0.877996027469635,-0.3099211156368256,0,0,0,-1,-1,2653.347029125,unknown,2,2022-06-02T10:45:09.069+02:00,2022-06-02T10:17:13.754+02:00,448,1.401249,0,0,345.1212,0,0,2022-06-02T10:45:14.184+02:00,675852311.6256452,0,7.441406,101.2925,1,0.82
2022-06-02T10:45:14.203+02:00,1654159511.14246,53.22907412977236,10.39845990821668,36.71472,0,20,-1,-1,2.400000095367432,11.99936978251625,-9999,2658.480369625,0.2612457275390625,0.713653564453125,0.6652984619140625,2658.470374625,0.1188832911938796,0.8958737049077024,-1.087851781840488,-0.8802928924560547,5.091439247131348,-2.140578985214233,-0.3614448308944702,-0.6305808424949646,0.7188780307769775,XArbitraryZVertical,-0.4876366636229023,0.3422380620186737,-0.1779185397975663,0.7832167004625001,0.3625739216804504,0.8856313228607178,-0.2901671826839447,0,0,0,-1,-1,2658.462588625,unknown,2,2022-06-02T10:45:14.184+02:00,2022-06-02T10:17:13.754+02:00,448,1.401249,0,0,345.1212,0,0,2022-06-02T10:45:14.184+02:00,675852314.184041,0,7.621094,101.2923,1,0.82
2022-06-02T10:45:14.213+02:00,1654159511.14246,53.22907412977236,10.39845990821668,36.71472,0,20,-1,-1,2.400000095367432,11.99936978251625,-9999,2658.490364625,-0.0491790771484375,0.818878173828125,0.6575164794921875,2658.480369625,0.114138557375101,0.9380437121825288,-1.112019890729478,-1.601844310760498,4.242145538330078,-1.963025808334351,-0.06051596999168396,-0.2904551029205322,0.9325263500213623,XArbitraryZVertical,-0.4919366582617444,0.35644724115291,-0.1949705365793999,0.7700194659978236,0.357116311788559,0.8965950012207031,-0.2618873715400696,0,0,0,-1,-1,2658.462588625,unknown,2,2022-06-02T10:45:14.184+02:00,2022-06-02T10:17:13.754+02:00,448,1.401249,0,0,345.1212,0,0,2022-06-02T10:45:14.184+02:00,675852314.184041,0,7.621094,101.2923,1,0.82
2022-06-02T10:45:14.223+02:00,1654159511.14246,53.22907412977236,10.39845990821668,36.71472,0,20,-1,-1,2.400000095367432,11.99936978251625,-9999,2658.500358625,-0.4170379638671875,0.8287811279296875,0.8449249267578125,2658.490364625,0.1229654172067816,0.9862821307988748,-1.138529280040948,-2.092529535293579,3.837831258773804,-1.935556888580322,-0.203353077173233,-0.1302168965339661,0.8819507360458374,XArbitraryZVertical,-0.4983925974384505,0.3688131155524223,-0.2090962235988398,0.7562145722001704,0.349379688501358,0.9080183506011963,-0.2311634123325348,0,0,0,-1,-1,2658.462588625,unknown,2,2022-06-02T10:45:14.184+02:00,2022-06-02T10:17:13.754+02:00,448,1.401249,0,0,345.1212,0,0,2022-06-02T10:45:14.184+02:00,675852314.184041,0,7.621094,101.2923,1,0.82
2022-06-02T10:45:14.233+02:00,1654159511.14246,53.22907412977236,10.39845990821668,36.71472,0,20,-1,-1,2.400000095367432,11.99936978251625,-9999,2658.510353625,-0.517730712890625,0.9891815185546875,1.004684448242188,2658.500358625,0.1419982057235188,1.040931049124136,-1.166440055154169,-2.053380727767944,3.617733478546143,-1.990870475769043,-0.5764318704605103,-0.08431875705718994,0.9239574670791626,XArbitraryZVertical,-0.5060350585487124,0.3801397549020604,-0.2217995060855112,0.7417729417387481,0.3394781053066254,0.9193558692932129,-0.1988445669412613,0,0,0,-1,-1,2658.462588625,unknown,2,2022-06-02T10:45:14.184+02:00,2022-06-02T10:17:13.754+02:00,448,1.401249,0,0,345.1212,0,0,2022-06-02T10:45:14.184+02:00,675852314.184041,0,7.621094,101.2923,1,0.82
2022-06-02T10:45:14.243+02:00,1654159511.14246,53.22907412977236,10.39845990821668,36.71472,0,20,-1,-1,2.400000095367432,11.99936978251625,-9999,2658.520347625,-0.2852020263671875,1.219924926757812,1.028823852539062,2658.510353625,0.1532129601837824,1.087240300086735,-1.1925548901991,-1.092156052589417,3.552794933319092,-2.142668485641479,-0.8372772336006165,-0.05326271057128906,1.140839338302612,XArbitraryZVertical,-0.5119561875139841,0.3899417076067364,-0.2354154208055832,0.7283034390938081,0.3269470036029816,0.9293155074119568,-0.1716926544904709,0,0,0,-1,-1,2658.462588625,unknown,2,2022-06-02T10:45:14.184+02:00,2022-06-02T10:17:13.754+02:00,448,1.401249,0,0,345.1212,0,0,2022-06-02T10:45:14.184+02:00,675852314.184041,0,7.621094,101.2923,1,0.82
