loggingTime(txt),locationTimestamp_since1970(s),locationLatitude(WGS84),locationLongitude(WGS84),locationAltitude(m),locationSpeed(m/s),locationSpeedAccuracy(m/s),locationCourse(°),locationCourseAccuracy(°),locationVerticalAccuracy(m),locationHorizontalAccuracy(m),locationFloor(Z),accelerometerTimestamp_sinceReboot(s),accelerometerAccelerationX(G),accelerometerAccelerationY(G),accelerometerAccelerationZ(G),motionTimestamp_sinceReboot(s),motionYaw(rad),motionRoll(rad),motionPitch(rad),motionRotationRateX(rad/s),motionRotationRateY(rad/s),motionRotationRateZ(rad/s),motionUserAccelerationX(G),motionUserAccelerationY(G),motionUserAccelerationZ(G),motionAttitudeReferenceFrame(txt),motionQuaternionX(R),motionQuaternionY(R),motionQuaternionZ(R),motionQuaternionW(R),motionGravityX(G),motionGravityY(G),motionGravityZ(G),motionMagneticFieldX(µT),motionMagneticFieldY(µT),motionMagneticFieldZ(µT),motionHeading(°),motionMagneticFieldCalibrationAccuracy(Z),activityTimestamp_sinceReboot(s),activity(txt),activityActivityConfidence(Z),activityActivityStartDate(txt),pedometerStartDate(txt),pedometerNumberofSteps(N),pedometerAverageActivePace(s/m),pedometerCurrentPace(s/m),pedometerCurrentCadence(steps/s),pedometerDistance(m),pedometerFloorAscended(N),pedometerFloorDescended(N),pedometerEndDate(txt),altimeterTimestamp_sinceReboot(s),altimeterReset(bool),altimeterRelativeAltitude(m),altimeterPressure(kPa),batteryState(N),batteryLevel(R)
2022-06-02T10:51:32.984+02:00,1654159891.007419,53.22895481256138,10.39874564857259,39.6105,0,0.95,55.546875,97.82255668919125,4,5,-9999,3037.219434041667,-0.145050048828125,-0.6193695068359375,-0.7437591552734375,3037.214437041667,0.04824856475638854,-0.195001155744352,0.6331812991660165,-0.05253098532557487,-0.09149716049432755,-0.07085393369197845,0.0316481739282608,-0.0167165994644165,0.0533369779586792,XArbitraryZVertical,0.3119911847111896,-0.08500720666107449,-0.007483554650645752,0.9462447440173652,-0.1562056392431259,-0.5917123556137085,-0.7908705472946167,0,0,0,-1,-1,3037.026882041667,unknown,2,2022-06-02T10:51:32.749+02:00,2022-06-02T10:17:13.754+02:00,512,1.445976,0,0,397.4887,0,0,2022-06-02T10:51:32.748+02:00,675852692.7483444,0,5.351562,101.3188,1,0.79
2022-06-02T10:51:32.989+02:00,1654159891.007419,53.22895481256138,10.39874564857259,39.6105,0,0.95,55.546875,97.82255668919125,4,5,-9999,3037.229428041667,-0.151763916015625,-0.61529541015625,-0.7440643310546875,3037.224431041667,0.04723350977404539,-0.1954451616793405,0.6325867634921604,-0.1196509078145027,-0.103950098156929,-0.07551553100347519,0.01157505810260773,-0.0281364917755127,0.04738694429397583,XArbitraryZVertical,0.3116653632949345,-0.08539127003183525,-0.008003323763127752,0.9463132611027028,-0.1566250622272491,-0.59123295545578,-0.7911460399627686,0,0,0,-1,-1,3037.026882041667,unknown,2,2022-06-02T10:51:32.749+02:00,2022-06-02T10:17:13.754+02:00,512,1.445976,0,0,397.4887,0,0,2022-06-02T10:51:32.748+02:00,675852692.7483444,0,5.351562,101.3188,1,0.79
2022-06-02T10:51:33.002+02:00,1654159891.007419,53.22895481256138,10.39874564857259,39.6105,0,0.95,55.546875,97.82255668919125,4,5,-9999,3037.239423041667,-0.1476593017578125,-0.610382080078125,-0.7489471435546875,3037.234426041667,0.04603739586003779,-0.195968376754598,0.6310324113215439,-0.2151897996664047,-0.1286479979753494,-0.06604772806167603,0.005453869700431824,-0.02531671524047852,0.04790019989013672,XArbitraryZVertical,0.3108775398342771,-0.08586574017019105,-0.008573011238097464,0.9465244819034619,-0.1572177410125732,-0.5899786353111267,-0.7919644713401794,0,0,0,-1,-1,3037.026882041667,unknown,2,2022-06-02T10:51:32.749+02:00,2022-06-02T10:17:13.754+02:00,512,1.445976,0,0,397.4887,0,0,2022-06-02T10:51:32.748+02:00,675852692.7483444,0,5.351562,101.3188,1,0.79
2022-06-02T10:51:33.005+02:00,1654159891.007419,53.22895481256138,10.39874564857259,39.6105,0,0.95,55.546875,97.82255668919125,4,5,-9999,3037.249417041667,-0.16644287109375,-0.5992279052734375,-0.7606658935546875,3037.244420041667,0.0446579932618491,-0.196640836980967,0.6286239832195023,-0.2937626540660858,-0.1384340524673462,-0.08075422793626785,0.01036815345287323,-0.02234971523284912,0.04430264234542847,XArbitraryZVertical,0.3096767566770556,-0.08646041949392563,-0.009209678719239093,0.946857946419007,-0.1580274254083633,-0.5880323648452759,-0.793249785900116,0,0,0,-1,-1,3037.026882041667,unknown,2,2022-06-02T10:51:32.749+02:00,2022-06-02T10:17:13.754+02:00,512,1.445976,0,0,397.4887,0,0,2022-06-02T10:51:32.748+02:00,675852692.7483444,0,5.351562,101.3188,1,0.79
2022-06-02T10:51:33.006+02:00,1654159891.007419,53.22895481256138,10.39874564857259,39.6105,0,0.95,55.546875,97.82255668919125,4,5,-9999,3037.259411041667,-0.1641845703125,-0.576904296875,-0.76739501953125,3037.254414041667,0.0429033406060274,-0.1969953572219357,0.6256650925717656,-0.337697446346283,-0.1354967802762985,-0.08796613663434982,-0.007794350385665894,-0.01359134912490845,0.03423064947128296,XArbitraryZVertical,0.308199795759943,-0.08697481657736668,-0.009947155614213988,0.9472851912982746,-0.1586484909057617,-0.5856364965438843,-0.7948965430259705,0,0,0,-1,-1,3037.026882041667,unknown,2,2022-06-02T10:51:32.749+02:00,2022-06-02T10:17:13.754+02:00,512,1.445976,0,0,397.4887,0,0,2022-06-02T10:51:32.748+02:00,675852692.7483444,0,5.351562,101.3188,1,0.79
2022-06-02T10:51:33.008+02:00,1654159891.007419,53.22895481256138,10.39874564857259,39.6105,0,0.95,55.546875,97.82255668919125,4,5,-9999,3037.269405041667,-0.1694183349609375,-0.5706329345703125,-0.78564453125,3037.264408041667,0.04103925960512186,-0.1974317516340564,0.6224448615165288,-0.3472651243209839,-0.1479124426841736,-0.08202116191387177,-0.004820093512535095,0.006118953227996826,0.02927732467651367,XArbitraryZVertical,0.3065926625531532,-0.08754872256459331,-0.01073621076264756,0.9477450540314218,-0.1593644469976425,-0.5830232501029968,-0.7966723442077637,0,0,0,-1,-1,3037.026882041667,unknown,2,2022-06-02T10:51:32.749+02:00,2022-06-02T10:17:13.754+02:00,512,1.445976,0,0,397.4887,0,0,2022-06-02T10:51:32.748+02:00,675852692.7483444,0,5.351562,101.3188,1,0.79
2022-06-02T10:51:33.011+02:00,1654159891.007419,53.22895481256138,10.39874564857259,39.6105,0,0.95,55.546875,97.82255668919125,4,5,-9999,3037.279400041667,-0.174041748046875,-0.562774658203125,-0.7993927001953125,3037.274403041667,0.03942995166531865,-0.1979035205655433,0.6187057184119612,-0.3237850666046143,-0.1168833449482918,-0.07008920609951019,-0.009250521659851074,0.009348392486572266,0.01308441162109375,XArbitraryZVertical,0.3047492535969561,-0.08811025238447968,-0.01138407422166717,0.9482798926293805,-0.160167783498764,-0.57998126745224,-0.7987289428710938,0,0,0,-1,-1,3037.026882041667,unknown,2,2022-06-02T10:51:32.749+02:00,2022-06-02T10:17:13.754+02:00,512,1.445976,0,0,397.4887,0,0,2022-06-02T10:51:32.748+02:00,675852692.7483444,0,5.351562,101.3188,1,0.79
2022-06-02T10:51:33.015+02:00,1654159891.007419,53.22895481256138,10.39874564857259,39.6105,0,0.95,55.546875,97.82255668919125,4,5,-9999,3037.289394041667,-0.169403076171875,-0.561859130859375,-0.8140869140625,3037.284397041667,0.03796767723412175,-0.1981951620566991,0.6164400345788967,-0.2662546634674072,-0.08975665271282196,-0.068441241979599,-0.0133826732635498,0.01535946130752563,0.0005757808685302734,XArbitraryZVertical,0.3036098477046613,-0.08852575749840375,-0.01200855895726711,0.9485989609110643,-0.1606590449810028,-0.5781341195106506,-0.7999684810638428,0,0,0,-1,-1,3037.026882041667,unknown,2,2022-06-02T10:51:32.749+02:00,2022-06-02T10:17:13.754+02:00,512,1.445976,0,0,397.4887,0,0,2022-06-02T10:51:32.748+02:00,675852692.7483444,0,5.351562,101.3188,1,0.79
2022-06-02T10:51:33.021+02:00,1654159891.007419,53.22895481256138,10.39874564857259,39.6105,0,0.95,55.546875,97.82255668919125,4,5,-9999,3037.299388041667,-0.1656494140625,-0.5603179931640625,-0.8277740478515625,3037.294391041667,0.03651782959635914,-0.1979112570634483,0.6152456806240679,-0.1716825664043427,-0.06377984583377838,-0.04602015763521194,-0.008835464715957642,0.01530003547668457,-0.01339638233184814,XArbitraryZVertical,0.3029815187360976,-0.08863939268289049,-0.01259362934673639,0.9487816111121603,-0.160567581653595,-0.5771591663360596,-0.8006905317306519,0,0,0,-1,-1,3037.026882041667,unknown,2,2022-06-02T10:51:32.749+02:00,2022-06-02T10:17:13.754+02:00,512,1.445976,0,0,397.4887,0,0,2022-06-02T10:51:32.748+02:00,675852692.7483444,0,5.351562,101.3188,1,0.79
2022-06-02T10:51:33.032+02:00,1654159891.007419,53.22895481256138,10.39874564857259,39.6105,0,0.95,55.546875,97.82255668919125,4,5,-9999,3037.309382041667,-0.1579742431640625,-0.57672119140625,-0.8286590576171875,3037.304385041667,0.03576650114189156,-0.1979237002298534,0.6147913267782958,-0.1042007356882095,-0.03877542540431023,-0.01780210062861443,-0.005020290613174438,0.01647007465362549,-0.02682846784591675,XArbitraryZVertical,0.3027327965837597,-0.08876975009159126,-0.01292932010626927,0.9488443479397718,-0.1606290936470032,-0.576788067817688,-0.8009455800056458,0,0,0,-1,-1,3037.026882041667,unknown,2,2022-06-02T10:51:32.749+02:00,2022-06-02T10:17:13.754+02:00,512,1.445976,0,0,397.4887,0,0,2022-06-02T10:51:32.748+02:00,675852692.7483444,0,5.351562,101.3188,1,0.79
2022-06-02T10:51:33.041+02:00,1654159891.007419,53.22895481256138,10.39874564857259,39.6105,0,0.95,55.546875,97.82255668919125,4,5,-9999,3037.319377041667,-0.150054931640625,-0.5885162353515625,-0.8271026611328125,3037.314379041667,0.03540243920977192,-0.1980785089394984,0.6145846888360573,-0.08864990621805191,-0.03433813527226448,-0.01451515965163708,0.002802327275276184,-0.000101923942565918,-0.02762150764465332,XArbitraryZVertical,0.3026176864702,-0.08890312264359157,-0.01311518274008919,0.9488660472983426,-0.1607765406370163,-0.5766192674636841,-0.8010375499725342,0,0,0,-1,-1,3037.026882041667,unknown,2,2022-06-02T10:51:32.749+02:00,2022-06-02T10:17:13.754+02:00,512,1.445976,0,0,397.4887,0,0,2022-06-02T10:51:32.748+02:00,675852692.7483444,0,5.351562,101.3188,1,0.79
2022-06-02T10:51:33.051+02:00,1654159891.007419,53.22895481256138,10.39874564857259,39.6105,0,0.95,55.546875,97.82255668919125,4,5,-9999,3037.329371041667,-0.1523590087890625,-0.5911865234375,-0.8309173583984375,3037.324374041667,0.03493746182833506,-0.198153774967766,0.6143455838010777,-0.08789464086294174,-0.0398854985833168,-0.02257361821830273,0.01080904901027679,-0.01209229230880737,-0.02594208717346191,XArbitraryZVertical,0.3024832082126458,-0.0890147447467671,-0.01333527618001,0.9488953452758625,-0.1608639657497406,-0.5764238834381104,-0.8011605739593506,0,0,0,-1,-1,3037.026882041667,unknown,2,2022-06-02T10:51:32.749+02:00,2022-06-02T10:17:13.754+02:00,512,1.445976,0,0,397.4887,0,0,2022-06-02T10:51:32.748+02:00,675852692.7483444,0,5.351562,101.3188,1,0.79
2022-06-02T10:51:33.061+02:00,1654159891.007419,53.22895481256138,10.39874564857259,39.6105,0,0.95,55.546875,97.82255668919125,4,5,-9999,3037.339365041667,-0.1619415283203125,-0.5959320068359375,-0.8356781005859375,3037.334368041667,0.03463570659884508,-0.198466959337254,0.6140171559273124,-0.06619606167078018,-0.03794578462839127,-0.01206811424344778,0.00879320502281189,-0.01503098011016846,-0.02962160110473633,XArbitraryZVertical,0.3023119781390732,-0.08921657683979305,-0.01350943951769081,0.9489285777591825,-0.161152184009552,-0.5761554837226868,-0.8012957572937012,0,0,0,-1,-1,3037.026882041667,unknown,2,2022-06-02T10:51:32.749+02:00,2022-06-02T10:17:13.754+02:00,512,1.445976,0,0,397.4887,0,0,2022-06-02T10:51:32.748+02:00,675852692.7483444,0,5.351562,101.3188,1,0.79
2022-06-02T10:51:33.073+02:00,1654159891.007419,53.22895481256138,10.39874564857259,39.6105,0,0.95,55.546875,97.82255668919125,4,5,-9999,3037.349359041667,-0.16827392578125,-0.59765625,-0.836883544921875,3037.344362041667,0.03440052037996221,-0.1987953860051093,0.6135571070467278,-0.06850688904523849,-0.04040068760514259,-0.01227956917136908,-0.0004738122224807739,-0.02015256881713867,-0.0341755747795105,XArbitraryZVertical,0.3020812331447541,-0.08941860734766433,-0.01364773086121118,0.9489809699599556,-0.1614676713943481,-0.5757793784141541,-0.8015024662017822,0,0,0,-1,-1,3037.026882041667,unknown,2,2022-06-02T10:51:32.749+02:00,2022-06-02T10:17:13.754+02:00,512,1.445976,0,0,397.4887,0,0,2022-06-02T10:51:32.748+02:00,675852692.7483444,0,5.351562,101.3188,1,0.79
2022-06-02T10:51:33.084+02:00,1654159891.007419,53.22895481256138,10.39874564857259,39.6105,0,0.95,55.546875,97.82255668919125,4,5,-9999,3037.359353041667,-0.1712493896484375,-0.5959625244140625,-0.836700439453125,3037.354356041667,0.03404967556229288,-0.1991005900438534,0.6129836253098636,-0.0650428831577301,-0.04606782644987106,-0.02840720675885677,-0.006496325135231018,-0.02234578132629395,-0.03510677814483643,XArbitraryZVertical,0.3017915920184275,-0.08962964128582071,-0.01383166482916262,0.9490505866336966,-0.1617775708436966,-0.5753104090690613,-0.8017767071723938,0,0,0,-1,-1,3037.026882041667,unknown,2,2022-06-02T10:51:32.749+02:00,2022-06-02T10:17:13.754+02:00,512,1.445976,0,0,397.4887,0,0,2022-06-02T10:51:32.748+02:00,675852692.7483444,0,5.351562,101.3188,1,0.79
2022-06-02T10:51:33.091+02:00,1654159891.007419,53.22895481256138,10.39874564857259,39.6105,0,0.95,55.546875,97.82255668919125,4,5,-9999,3037.369348041667,-0.1702728271484375,-0.591766357421875,-0.8300323486328125,3037.364351041667,0.03349899018463204,-0.199308096797572,0.6123685154818991,-0.06078954413533211,-0.04527100920677185,-0.04710446298122406,-0.009235367178916931,-0.02115523815155029,-0.0346105694770813,XArbitraryZVertical,0.3014738671493918,-0.08982531755161531,-0.01409357603204548,0.9491291666132171,-0.1620139628648758,-0.5748072266578674,-0.8020898103713989,0,0,0,-1,-1,3037.026882041667,unknown,2,2022-06-02T10:51:32.749+02:00,2022-06-02T10:17:13.754+02:00,512,1.445976,0,0,397.4887,0,0,2022-06-02T10:51:32.748+02:00,675852692.7483444,0,5.351562,101.3188,1,0.79
2022-06-02T10:51:33.101+02:00,1654159891.007419,53.22895481256138,10.39874564857259,39.6105,0,0.95,55.546875,97.82255668919125,4,5,-9999,3037.379342041667,-0.1730499267578125,-0.576202392578125,-0.8262786865234375,3037.374345041667,0.03279485856995779,-0.1993816196931859,0.6117705012434534,-0.04877150058746338,-0.03873827308416367,-0.05253278464078903,-0.008131787180900574,-0.01744860410690308,-0.02761757373809814,XArbitraryZVertical,0.3011581522488419,-0.08997995069199792,-0.01440896348782529,0.9492100900859294,-0.1621409952640533,-0.5743177533149719,-0.8024147748947144,0,0,0,-1,-1,3037.026882041667,unknown,2,2022-06-02T10:51:32.749+02:00,2022-06-02T10:17:13.754+02:00,512,1.445976,0,0,397.4887,0,0,2022-06-02T10:51:32.748+02:00,675852692.7483444,0,5.351562,101.3188,1,0.79
2022-06-02T10:51:33.111+02:00,1654159891.007419,53.22895481256138,10.39874564857259,39.6105,0,0.95,55.546875,97.82255668919125,4,5,-9999,3037.389336041667,-0.1748046875,-0.56524658203125,-0.8224029541015625,3037.384339041667,0.03207194000837754,-0.1992370837833916,0.611223641286489,-0.02699616178870201,-0.01715308800339699,-0.05110293254256248,-0.01096275448799133,-0.002332389354705811,-0.02353280782699585,XArbitraryZVertical,0.3008674164935805,-0.0900325577872703,-0.01470306769102303,0.9492926871290588,-0.1620871424674988,-0.5738700032234192,-0.8027458786964417,0,0,0,-1,-1,3037.026882041667,unknown,2,2022-06-02T10:51:32.749+02:00,2022-06-02T10:17:13.754+02:00,512,1.445976,0,0,397.4887,0,0,2022-06-02T10:51:32.748+02:00,675852692.7483444,0,5.351562,101.3188,1,0.79
2022-06-02T10:51:33.121+02:00,1654159891.007419,53.22895481256138,10.39874564857259,39.6105,0,0.95,55.546875,97.82255668919125,4,5,-9999,3037.399330041667,-0.1692657470703125,-0.57122802734375,-0.8220977783203125,3037.394333041667,0.03128124726699499,-0.1987323049320092,0.6110144133240553,-0.005822702310979366,0.004927180707454681,-0.05980827286839485,-0.01309901475906372,0.008452117443084717,-0.01945763826370239,XArbitraryZVertical,0.3007363737282959,-0.08991657738083386,-0.0149920513771966,0.9493407001350193,-0.1617056280374527,-0.5736986398696899,-0.8029452562332153,0,0,0,-1,-1,3037.026882041667,unknown,2,2022-06-02T10:51:32.749+02:00,2022-06-02T10:17:13.754+02:00,512,1.445976,0,0,397.4887,0,0,2022-06-02T10:51:32.748+02:00,675852692.7483444,0,5.351562,101.3188,1,0.79
2022-06-02T10:51:33.131+02:00,1654159891.007419,53.22895481256138,10.39874564857259,39.6105,0,0.95,55.546875,97.82255668919125,4,5,-9999,3037.409325041667,-0.1677703857421875,-0.5800018310546875,-0.822784423828125,3037.404328041667,0.03031288717874715,-0.1978300475590571,0.6111499249547541,0.006735167466104031,0.017044298350811,-0.06834237277507782,-0.008299887180328369,0.002581596374511719,-0.01908314228057861,XArbitraryZVertical,0.300763978007732,-0.08963090203294524,-0.01532272948031105,0.9493537731751411,-0.1609658151865005,-0.5738096237182617,-0.8030146360397339,0,0,0,-1,-1,3037.026882041667,unknown,2,2022-06-02T10:51:32.749+02:00,2022-06-02T10:17:13.754+02:00,512,1.445976,0,0,397.4887,0,0,2022-06-02T10:51:32.748+02:00,675852692.7483444,0,5.351562,101.3188,1,0.79
2022-06-02T10:51:33.141+02:00,1654159891.007419,53.22895481256138,10.39874564857259,39.6105,0,0.95,55.546875,97.82255668919125,4,5,-9999,3037.419319041667,-0.1686859130859375,-0.5816192626953125,-0.8261260986328125,3037.414322041667,0.02938076198551008,-0.1969383835599738,0.6113986199175924,0.01726680435240269,0.01764277741312981,-0.06891102343797684,-0.007548555731773376,-0.005988538265228271,-0.01976656913757324,XArbitraryZVertical,0.3008471267008456,-0.08934240101165473,-0.01564331993330369,0.949349355942039,-0.1602218002080917,-0.5740132927894592,-0.8030178546905518,0,0,0,-1,-1,3037.026882041667,unknown,2,2022-06-02T10:51:32.749+02:00,2022-06-02T10:17:13.754+02:00,512,1.445976,0,0,397.4887,0,0,2022-06-02T10:51:32.748+02:00,675852692.7483444,0,5.351562,101.3188,1,0.79
2022-06-02T10:51:33.151+02:00,1654159891.007419,53.22895481256138,10.39874564857259,39.6105,0,0.95,55.546875,97.82255668919125,4,5,-9999,3037.429313041667,-0.171539306640625,-0.5819244384765625,-0.830169677734375,3037.424316041667,0.02854223840968396,-0.1962183335031653,0.6116532429949755,0.0063912533223629,0.02061033807694912,-0.07127564400434494,-0.009070828557014465,-0.007397472858428955,-0.02313637733459473,XArbitraryZVertical,0.3009361714324755,-0.08912126058521884,-0.01594548359460718,0.9493368444644115,-0.1596150398254395,-0.5742217302322388,-0.802989661693573,0,0,0,-1,-1,3037.026882041667,unknown,2,2022-06-02T10:51:32.749+02:00,2022-06-02T10:17:13.754+02:00,512,1.445976,0,0,397.4887,0,0,2022-06-02T10:51:32.748+02:00,675852692.7483444,0,5.351562,101.3188,1,0.79
2022-06-02T10:51:33.161+02:00,1654159891.007419,53.22895481256138,10.39874564857259,39.6105,0,0.95,55.546875,97.82255668919125,4,5,-9999,3037.439307041667,-0.1695709228515625,-0.5829925537109375,-0.8361968994140625,3037.434310041667,0.02769094749659836,-0.1955358834966812,0.6117780790950678,-0.004145476035773754,0.02477219142019749,-0.06896974891424179,-0.01248618960380554,-0.007600486278533936,-0.02714157104492188,XArbitraryZVertical,0.3009629577355623,-0.08892274452936974,-0.01625295164980374,0.9493418109064519,-0.1590530872344971,-0.5743239521980286,-0.8030281066894531,0,0,0,-1,-1,3037.026882041667,unknown,2,2022-06-02T10:51:32.749+02:00,2022-06-02T10:17:13.754+02:00,512,1.445976,0,0,397.4887,0,0,2022-06-02T10:51:32.748+02:00,675852692.7483444,0,5.351562,101.3188,1,0.79
2022-06-02T10:51:33.171+02:00,1654159891.007419,53.22895481256138,10.39874564857259,39.6105,0,0.95,55.546875,97.82255668919125,4,5,-9999,3037.449302041667,-0.1611480712890625,-0.58447265625,-0.833984375,3037.444305041667,0.02697352001305409,-0.1948608417991433,0.6118909485540868,0.005434446968138218,0.03779824450612068,-0.0579591728746891,-0.01107247173786163,-0.008576154708862305,-0.03312522172927856,XArbitraryZVertical,0.3009901787138607,-0.0887079030763067,-0.01649738929853693,0.9493489987518841,-0.1584984064102173,-0.5744163393974304,-0.8030716180801392,0,0,0,-1,-1,3037.026882041667,unknown,2,2022-06-02T10:51:32.749+02:00,2022-06-02T10:17:13.754+02:00,512,1.445976,0,0,397.4887,0,0,2022-06-02T10:51:32.748+02:00,675852692.7483444,0,5.351562,101.3188,1,0.79
2022-06-02T10:51:33.181+02:00,1654159891.007419,53.22895481256138,10.39874564857259,39.6105,0,0.95,55.546875,97.82255668919125,4,5,-9999,3037.459296041667,-0.1482696533203125,-0.584442138671875,-0.8212432861328125,3037.454299041667,0.02633314143598862,-0.19411567552168,0.6120293820753138,0.002913331612944603,0.04448670893907547,-0.05714444816112518,-0.003263413906097412,-0.009942948818206787,-0.03087282180786133,XArbitraryZVertical,0.3010336439817364,-0.08844766783620929,-0.01669589054688614,0.9493560679556359,-0.1578846126794815,-0.5745296478271484,-0.8031114935874939,0,0,0,-1,-1,3037.026882041667,unknown,2,2022-06-02T10:51:32.749+02:00,2022-06-02T10:17:13.754+02:00,512,1.445976,0,0,397.4887,0,0,2022-06-02T10:51:32.748+02:00,675852692.7483444,0,5.351562,101.3188,1,0.79
2022-06-02T10:51:33.191+02:00,1654159891.007419,53.22895481256138,10.39874564857259,39.6105,0,0.95,55.546875,97.82255668919125,4,5,-9999,3037.469290041667,-0.1476898193359375,-0.5767669677734375,-0.814361572265625,3037.464293041667,0.02558887930392341,-0.1933451550242964,0.612034274977546,-0.002230830490589142,0.04038197919726372,-0.07596846669912338,0.008995592594146729,-0.009908437728881836,-0.0180131196975708,XArbitraryZVertical,0.3010095636807158,-0.0881938283020075,-0.01693344089328,0.9493831460307908,-0.1572652161121368,-0.5745336413383484,-0.8032301664352417,0,0,0,-1,-1,3037.026882041667,unknown,2,2022-06-02T10:51:32.749+02:00,2022-06-02T10:17:13.754+02:00,512,1.445976,0,0,397.4887,0,0,2022-06-02T10:51:32.748+02:00,675852692.7483444,0,5.351562,101.3188,1,0.79
2022-06-02T10:51:33.201+02:00,1654159891.007419,53.22895481256138,10.39874564857259,39.6105,0,0.95,55.546875,97.82255668919125,4,5,-9999,3037.479284041667,-0.1483306884765625,-0.5684814453125,-0.807403564453125,3037.474287041667,0.02472981145279079,-0.1925724279769739,0.611956729331088,-0.006317317485809326,0.03445830941200256,-0.07783401012420654,0.008963227272033691,-0.002296745777130127,-0.01096636056900024,XArbitraryZVertical,0.3009415412134182,-0.08795787940102749,-0.01722124640522029,0.9494214404026333,-0.1566530168056488,-0.5744701623916626,-0.8033952116966248,0,0,0,-1,-1,3037.026882041667,unknown,2,2022-06-02T10:51:32.749+02:00,2022-06-02T10:17:13.754+02:00,512,1.445976,0,0,397.4887,0,0,2022-06-02T10:51:32.748+02:00,675852692.7483444,0,5.351562,101.3188,1,0.79
2022-06-02T10:51:33.211+02:00,1654159891.007419,53.22895481256138,10.39874564857259,39.6105,0,0.95,55.546875,97.82255668919125,4,5,-9999,3037.489279041667,-0.148406982421875,-0.5711212158203125,-0.8018798828125,3037.484281041667,0.0238038036519243,-0.1917866016367279,0.6119433823043873,0.002389887813478708,0.02908218465745449,-0.08609913289546967,0.007692456245422363,0.005977869033813477,-0.003877997398376465,XArbitraryZVertical,0.3009013606595519,-0.08772442905023319,-0.01754196608609027,0.9494499253785028,-0.1560231000185013,-0.5744592547416687,-0.8035255670547485,0,0,0,-1,-1,3037.026882041667,unknown,2,2022-06-02T10:51:32.749+02:00,2022-06-02T10:17:13.754+02:00,512,1.445976,0,0,397.4887,0,0,2022-06-02T10:51:32.748+02:00,675852692.7483444,0,5.351562,101.3188,1,0.79
2022-06-02T10:51:33.221+02:00,1654159891.007419,53.22895481256138,10.39874564857259,39.6105,0,0.95,55.546875,97.82255668919125,4,5,-9999,3037.499273041667,-0.1515350341796875,-0.5711212158203125,-0.80108642578125,3037.494276041667,0.02276731934297968,-0.1910603404169278,0.6120879924425189,0.004067478701472282,0.01118773967027664,-0.09699691832065582,0.007016763091087341,0.003456473350524902,0.001677215099334717,XArbitraryZVertical,0.3009309957801549,-0.08753272293870439,-0.01793158170316992,0.9494509316461184,-0.15542371571064,-0.5745776295661926,-0.8035570979118347,0,0,0,-1,-1,3037.026882041667,unknown,2,2022-06-02T10:51:32.749+02:00,2022-06-02T10:17:13.754+02:00,512,1.445976,0,0,397.4887,0,0,2022-06-02T10:51:32.748+02:00,675852692.7483444,0,5.351562,101.3188,1,0.79
2022-06-02T10:51:33.231+02:00,1654159891.007419,53.22895481256138,10.39874564857259,39.6105,0,0.95,55.546875,97.82255668919125,4,5,-9999,3037.509267041667,-0.1581573486328125,-0.5734405517578125,-0.8039703369140625,3037.504270041667,0.02176253894596887,-0.1904969781584491,0.6122486920810952,0.01516886614263058,0.009944576770067215,-0.08398737758398056,0.003418505191802979,0.003587961196899414,0.00246739387512207,XArbitraryZVertical,0.3009684172754315,-0.08741332719164899,-0.01833137348821453,0.9494423678168797,-0.1549535095691681,-0.5747091174125671,-0.8035538196563721,0,0,0,-1,-1,3037.026882041667,unknown,2,2022-06-02T10:51:32.749+02:00,2022-06-02T10:17:13.754+02:00,512,1.445976,0,0,397.4887,0,0,2022-06-02T10:51:32.748+02:00,675852692.7483444,0,5.351562,101.3188,1,0.79
2022-06-02T10:51:33.241+02:00,1654159891.007419,53.22895481256138,10.39874564857259,39.6105,0,0.95,55.546875,97.82255668919125,4,5,-9999,3037.519261041667,-0.168609619140625,-0.5812530517578125,-0.8094940185546875,3037.514264041667,0.02094928578805719,-0.1901534728869864,0.6123762619270916,0.01706117577850819,-0.0006745121208950877,-0.08140570670366287,-0.003493696451187134,0.001372992992401123,-0.0004352927207946777,XArbitraryZVertical,0.3009965584983911,-0.08737016765417369,-0.01867172266555106,0.9494308490369818,-0.154663622379303,-0.5748135447502136,-0.8035350441932678,0,0,0,-1,-1,3037.026882041667,unknown,2,2022-06-02T10:51:32.749+02:00,2022-06-02T10:17:13.754+02:00,512,1.445976,0,0,397.4887,0,0,2022-06-02T10:51:32.748+02:00,675852692.7483444,0,5.351562,101.3188,1,0.79
2022-06-02T10:51:33.251+02:00,1654159891.007419,53.22895481256138,10.39874564857259,39.6105,0,0.95,55.546875,97.82255668919125,4,5,-9999,3037.529255041667,-0.1635284423828125,-0.580322265625,-0.806610107421875,3037.524258041667,0.02015547984853807,-0.1897846605237075,0.6124183963637282,0.01349040865898132,0.004442485980689526,-0.07179941982030869,-0.01424691081047058,-0.006404995918273926,-0.005925774574279785,XArbitraryZVertical,0.3009853560698068,-0.08731374334512605,-0.01899502076791715,0.9494331741475658,-0.154362678527832,-0.5748479962348938,-0.8035682439804077,0,0,0,-1,-1,3037.026882041667,unknown,2,2022-06-02T10:51:32.749+02:00,2022-06-02T10:17:13.754+02:00,512,1.445976,0,0,397.4887,0,0,2022-06-02T10:51:32.748+02:00,675852692.7483444,0,5.351562,101.3188,1,0.79
2022-06-02T10:51:33.261+02:00,1654159891.007419,53.22895481256138,10.39874564857259,39.6105,0,0.95,55.546875,97.82255668919125,4,5,-9999,3037.539250041667,-0.1546783447265625,-0.578582763671875,-0.8016204833984375,3037.534253041667,0.01935638779444778,-0.1893237762906393,0.6124181835101112,0.001994108781218529,-0.002570349955931306,-0.06663215160369873,-0.009536072611808777,-0.005474388599395752,-0.002970635890960693,XArbitraryZVertical,0.3009548223331411,-0.0872152134398473,-0.01930500463354697,0.9494455976942532,-0.1539923250675201,-0.5748478174209595,-0.8036394119262695,0,0,0,-1,-1,3037.026882041667,unknown,2,2022-06-02T10:51:32.749+02:00,2022-06-02T10:17:13.754+02:00,512,1.445976,0,0,397.4887,0,0,2022-06-02T10:51:32.748+02:00,675852692.7483444,0,5.351562,101.3188,1,0.79
2022-06-02T10:51:33.271+02:00,1654159891.007419,53.22895481256138,10.39874564857259,39.6105,0,0.95,55.546875,97.82255668919125,4,5,-9999,3037.549244041667,-0.1587677001953125,-0.5699920654296875,-0.7961273193359375,3037.544247041667,0.01842878675238385,-0.1886953463579831,0.6124617965827565,-0.0113091804087162,-0.01123121567070484,-0.0640997588634491,-0.001195743680000305,-0.003699243068695068,0.002090930938720703,XArbitraryZVertical,0.3009412077290642,-0.08705564173208347,-0.01965281852399327,0.9494574632914291,-0.1534825712442398,-0.5748835206031799,-0.8037114143371582,0,0,0,-1,-1,3037.026882041667,unknown,2,2022-06-02T10:51:32.749+02:00,2022-06-02T10:17:13.754+02:00,512,1.445976,0,0,397.4887,0,0,2022-06-02T10:51:32.748+02:00,675852692.7483444,0,5.351562,101.3188,1,0.79
2022-06-02T10:51:33.281+02:00,1654159891.007419,53.22895481256138,10.39874564857259,39.6105,0,0.95,55.546875,97.82255668919125,4,5,-9999,3037.559238041667,-0.1623382568359375,-0.560516357421875,-0.785980224609375,3037.554241041667,0.01746571109372568,-0.1881044312573627,0.6123293195043681,-0.02412967197597027,-0.01215939410030842,-0.06576550006866455,-0.005745828151702881,0.004783093929290771,0.007749438285827637,XArbitraryZVertical,0.3008423369257153,-0.08692244929171238,-0.02001501141492676,0.9494933867784975,-0.1530218571424484,-0.5747750997543335,-0.8038767576217651,0,0,0,-1,-1,3037.026882041667,unknown,2,2022-06-02T10:51:32.749+02:00,2022-06-02T10:17:13.754+02:00,512,1.445976,0,0,397.4887,0,0,2022-06-02T10:51:32.748+02:00,675852692.7483444,0,5.351562,101.3188,1,0.79
2022-06-02T10:51:33.291+02:00,1654159891.007419,53.22895481256138,10.39874564857259,39.6105,0,0.95,55.546875,97.82255668919125,4,5,-9999,3037.569232041667,-0.1634368896484375,-0.55926513671875,-0.77288818359375,3037.564235041667,0.01642558100035428,-0.1875030350322837,0.6119193861084355,-0.04905232787132263,-0.01411814987659454,-0.07708046585321426,-0.009755924344062805,0.0139232873916626,0.01821982860565186,XArbitraryZVertical,0.3006086994804256,-0.08680075847150615,-0.02039955250465714,0.9495703761183324,-0.1525822877883911,-0.5744396448135376,-0.8042000532150269,0,0,0,-1,-1,3037.026882041667,unknown,2,2022-06-02T10:51:32.749+02:00,2022-06-02T10:17:13.754+02:00,512,1.445976,0,0,397.4887,0,0,2022-06-02T10:51:32.748+02:00,675852692.7483444,0,5.351562,101.3188,1,0.79
2022-06-02T10:51:33.301+02:00,1654159891.007419,53.22895481256138,10.39874564857259,39.6105,0,0.95,55.546875,97.82255668919125,4,5,-9999,3037.579227041667,-0.163970947265625,-0.5637969970703125,-0.761444091796875,3037.574230041667,0.01512550792068593,-0.186872244817133,0.6113782027772613,-0.09396964311599731,-0.02910941652953625,-0.1075845137238503,-0.01130414009094238,0.01473140716552734,0.03171330690383911,XArbitraryZVertical,0.3003019969834836,-0.08670620519446841,-0.0208973265804437,0.949665181732676,-0.1521327048540115,-0.5739965438842773,-0.8046014904975891,0,0,0,-1,-1,3037.026882041667,unknown,2,2022-06-02T10:51:32.749+02:00,2022-06-02T10:17:13.754+02:00,512,1.445976,0,0,397.4887,0,0,2022-06-02T10:51:32.748+02:00,675852692.7483444,0,5.351562,101.3188,1,0.79
2022-06-02T10:51:33.311+02:00,1654159891.007419,53.22895481256138,10.39874564857259,39.6105,0,0.95,55.546875,97.82255668919125,4,5,-9999,3037.589221041667,-0.1473541259765625,-0.5610504150390625,-0.753631591796875,3037.584224041667,0.01344945460187329,-0.1862819467456371,0.6104472162860083,-0.1382798552513123,-0.0454375259578228,-0.125022366642952,-0.01221427321434021,0.009436964988708496,0.04377186298370361,XArbitraryZVertical,0.2997936839713239,-0.08669353322599817,-0.02156232156524915,0.9498120966344035,-0.1517566442489624,-0.573233962059021,-0.8052159547805786,0,0,0,-1,-1,3037.026882041667,unknown,2,2022-06-02T10:51:32.749+02:00,2022-06-02T10:17:13.754+02:00,512,1.445976,0,0,397.4887,0,0,2022-06-02T10:51:32.748+02:00,675852692.7483444,0,5.351562,101.3188,1,0.79
2022-06-02T10:51:33.321+02:00,1654159891.007419,53.22895481256138,10.39874564857259,39.6105,0,0.95,55.546875,97.82255668919125,4,5,-9999,3037.599215041667,-0.14373779296875,-0.54443359375,-0.73248291015625,3037.594218041667,0.01144454458706089,-0.186033873057756,0.6092335167066263,-0.1706349551677704,-0.1054962649941444,-0.1746067553758621,0.00433136522769928,0.01118868589401245,0.05230516195297241,XArbitraryZVertical,0.2991331903209992,-0.08689643522086948,-0.02242248215810861,0.9499818078101809,-0.1516854465007782,-0.5722390413284302,-0.8059366941452026,0,0,0,-1,-1,3037.026882041667,unknown,2,2022-06-02T10:51:32.749+02:00,2022-06-02T10:17:13.754+02:00,512,1.445976,0,0,397.4887,0,0,2022-06-02T10:51:32.748+02:00,675852692.7483444,0,5.351562,101.3188,1,0.79
2022-06-02T10:51:33.331+02:00,1654159891.007419,53.22895481256138,10.39874564857259,39.6105,0,0.95,55.546875,97.82255668919125,4,5,-9999,3037.609209041667,-0.1361083984375,-0.492767333984375,-0.7058258056640625,3037.604212041667,0.008649253834413497,-0.1860401436876043,0.6078086815640409,-0.2226001471281052,-0.1751696169376373,-0.2508639991283417,0.008103400468826294,0.02663642168045044,0.07425332069396973,XArbitraryZVertical,0.2983347075937356,-0.08734016187579566,-0.02368708237891114,0.9501615042724763,-0.1518411636352539,-0.5710699558258057,-0.806736171245575,0,0,0,-1,-1,3037.026882041667,unknown,2,2022-06-02T10:51:32.749+02:00,2022-06-02T10:17:13.754+02:00,512,1.445976,0,0,397.4887,0,0,2022-06-02T10:51:32.748+02:00,675852692.7483444,0,5.351562,101.3188,1,0.79
2022-06-02T10:51:33.341+02:00,1654159891.007419,53.22895481256138,10.39874564857259,39.6105,0,0.95,55.546875,97.82255668919125,4,5,-9999,3037.619204041667,-0.1910552978515625,-0.5363922119140625,-0.619293212890625,3037.614206041667,0.004599905212726712,-0.1862986545973081,0.6054072221765783,-0.4453288912773132,-0.368204653263092,-0.3494610488414764,0.01619492471218109,0.07632970809936523,0.1022164821624756,XArbitraryZVertical,0.2970130921868898,-0.08810280676773166,-0.02554193528407645,0.9504569876878136,-0.1523032784461975,-0.5690969824790955,-0.8080422282218933,0,0,0,-1,-1,3037.026882041667,unknown,2,2022-06-02T10:51:32.749+02:00,2022-06-02T10:17:13.754+02:00,512,1.445976,0,0,397.4887,0,0,2022-06-02T10:51:32.748+02:00,675852692.7483444,0,5.351562,101.3188,1,0.79
2022-06-02T10:51:33.351+02:00,1654159891.007419,53.22895481256138,10.39874564857259,39.6105,0,0.95,55.546875,97.82255668919125,4,5,-9999,3037.629198041667,-0.165130615234375,-0.53631591796875,-0.646575927734375,3037.624201041667,-0.001552847518568616,-0.1870381964185328,0.6001975049155303,-0.6830530166625977,-0.4160201251506805,-0.3675556480884552,-0.03760521113872528,0.02841329574584961,0.191538393497467,XArbitraryZVertical,0.2942534683113713,-0.0894378107016631,-0.0283438081452365,0.951111055953346,-0.1534500569105148,-0.5648054480552673,-0.8108315467834473,0,0,0,-1,-1,3037.026882041667,unknown,2,2022-06-02T10:51:32.749+02:00,2022-06-02T10:17:13.754+02:00,512,1.445976,0,0,397.4887,0,0,2022-06-02T10:51:32.748+02:00,675852692.7483444,0,5.351562,101.3188,1,0.79
2022-06-02T10:51:33.361+02:00,1654159891.007419,53.22895481256138,10.39874564857259,39.6105,0,0.95,55.546875,97.82255668919125,4,5,-9999,3037.639192041667,-0.7276153564453125,-0.879058837890625,-0.4931640625,3037.634195041667,-0.009980404438608301,-0.1871044606665331,0.5922760272713816,-1.271073341369629,-0.5211156606674194,-0.9176451563835144,-0.01079936325550079,0.02193498611450195,0.168615996837616,XArbitraryZVertical,0.2901029418960494,-0.09079830426071948,-0.03201316228381566,0.9521401929934437,-0.1543312072753906,-0.5582508444786072,-0.815191924571991,0,0,0,-1,-1,3037.026882041667,unknown,2,2022-06-02T10:51:32.749+02:00,2022-06-02T10:17:13.754+02:00,512,1.445976,0,0,397.4887,0,0,2022-06-02T10:51:32.748+02:00,675852692.7483444,0,5.351562,101.3188,1,0.79
2022-06-02T10:51:33.371+02:00,1654159891.007419,53.22895481256138,10.39874564857259,39.6105,0,0.95,55.546875,97.82255668919125,4,5,-9999,3037.649186041667,-0.3280029296875,-0.623199462890625,-0.5124969482421875,3037.644189041667,-0.03072444102482222,-0.1750918663089439,0.577201824715476,-2.067403316497803,0.3435914516448975,-1.446243166923523,-0.5816381573677063,-0.3333775997161865,0.3320162892341614,XArbitraryZVertical,0.2822002838648839,-0.08816359447346953,-0.03955172219055578,0.9544766821451738,-0.1459771692752838,-0.5456812381744385,-0.8251803517341614,0,0,0,-1,-1,3037.026882041667,unknown,2,2022-06-02T10:51:32.749+02:00,2022-06-02T10:17:13.754+02:00,512,1.445976,0,0,397.4887,0,0,2022-06-02T10:51:32.748+02:00,675852692.7483444,0,5.351562,101.3188,1,0.79
2022-06-02T10:51:33.381+02:00,1654159891.007419,53.22895481256138,10.39874564857259,39.6105,0,0.95,55.546875,97.82255668919125,4,5,-9999,3037.659181041667,-0.268402099609375,-0.5597991943359375,-0.49395751953125,3037.654183041667,-0.04643581856488824,-0.1660410771273563,0.5574621276381917,-2.340448617935181,-0.1011501923203468,-0.4622325003147125,-0.1877469122409821,-0.09416520595550537,0.3244325518608093,XArbitraryZVertical,0.2722635148738936,-0.08606875644345531,-0.04505249787793809,0.9573060855707091,-0.1402559876441956,-0.5290342569351196,-0.8369295001029968,0,0,0,-1,-1,3037.026882041667,unknown,2,2022-06-02T10:51:32.749+02:00,2022-06-02T10:17:13.754+02:00,512,1.445976,0,0,397.4887,0,0,2022-06-02T10:51:32.748+02:00,675852692.7483444,0,5.351562,101.3188,1,0.79
2022-06-02T10:51:33.391+02:00,1654159891.007419,53.22895481256138,10.39874564857259,39.6105,0,0.95,55.546875,97.82255668919125,4,5,-9999,3037.669175041667,-0.5173797607421875,-0.746795654296875,-0.4866485595703125,3037.664178041667,-0.05507220098468833,-0.1616953259842205,0.5352028427478782,-2.277307510375977,0.1161493733525276,-0.5781247615814209,-0.1299226582050323,-0.04978370666503906,0.3549875020980835,XArbitraryZVertical,0.2613110088704658,-0.0851120587637061,-0.04781223029296167,0.9603053764404773,-0.1384794116020203,-0.5100155472755432,-0.8489449620246887,0,0,0,-1,-1,3037.026882041667,unknown,2,2022-06-02T10:51:32.749+02:00,2022-06-02T10:17:13.754+02:00,512,1.445976,0,0,397.4887,0,0,2022-06-02T10:51:32.748+02:00,675852692.7483444,0,5.351562,101.3188,1,0.79
2022-06-02T10:51:33.401+02:00,1654159891.007419,53.22895481256138,10.39874564857259,39.6105,0,0.95,55.546875,97.82255668919125,4,5,-9999,3037.679169041667,-0.3969573974609375,-0.657562255859375,-0.4026336669921875,3037.674172041667,-0.06781248345349372,-0.1540339307032639,0.5128886111010201,-2.501271486282349,0.1759402006864548,-0.8479769229888916,-0.3836953639984131,-0.2560994029045105,0.3743658065795898,XArbitraryZVertical,0.2502225431798817,-0.08295489071666513,-0.05219822645905019,0.9632146322412267,-0.1336843818426132,-0.4906962215900421,-0.8610143065452576,0,0,0,-1,-1,3037.026882041667,unknown,2,2022-06-02T10:51:32.749+02:00,2022-06-02T10:17:13.754+02:00,512,1.445976,0,0,397.4887,0,0,2022-06-02T10:51:32.748+02:00,675852692.7483444,0,5.351562,101.3188,1,0.79
2022-06-02T10:51:33.411+02:00,1654159891.007419,53.22895481256138,10.39874564857259,39.6105,0,0.95,55.546875,97.82255668919125,4,5,-9999,3037.689163041667,-0.451995849609375,-0.7192230224609375,-0.377655029296875,3037.684166041667,-0.08173150346231423,-0.1457809038005085,0.4880781553571395,-2.777766227722168,0.1835477948188782,-0.8826017379760742,-0.2686540484428406,-0.1886329352855682,0.4712333679199219,XArbitraryZVertical,0.2378941250489993,-0.08045428570824983,-0.0571204026825637,0.9662662979243209,-0.1283033192157745,-0.4689293205738068,-0.8738669753074646,0,0,0,-1,-1,3037.026882041667,unknown,2,2022-06-02T10:51:32.749+02:00,2022-06-02T10:17:13.754+02:00,512,1.445976,0,0,397.4887,0,0,2022-06-02T10:51:32.748+02:00,675852692.7483444,0,5.351562,101.3188,1,0.79
2022-06-02T10:51:33.421+02:00,1654159891.007419,53.22895481256138,10.39874564857259,39.6105,0,0.95,55.546875,97.82255668919125,4,5,-9999,3037.699157041667,-0.50653076171875,-0.711029052734375,-0.3474273681640625,3037.694160041667,-0.09690709475112901,-0.1372745974659394,0.4601925581274858,-3.135744094848633,0.1674721539020538,-1.030717968940735,-0.3293882310390472,-0.2751023471355438,0.5098832845687866,XArbitraryZVertical,0.2240329707704468,-0.07771803530946238,-0.06267059266332706,0.9694541137499522,-0.1226075813174248,-0.4441206455230713,-0.8875382542610168,0,0,0,-1,-1,3037.026882041667,unknown,2,2022-06-02T10:51:32.749+02:00,2022-06-02T10:17:13.754+02:00,512,1.445976,0,0,397.4887,0,0,2022-06-02T10:51:32.748+02:00,675852692.7483444,0,5.351562,101.3188,1,0.79
2022-06-02T10:51:33.431+02:00,1654159891.007419,53.22895481256138,10.39874564857259,39.6105,0,0.95,55.546875,97.82255668919125,4,5,-9999,3037.709152041667,-0.547149658203125,-0.6829681396484375,-0.33612060546875,3037.704155041667,-0.1136151373005295,-0.1284613240759967,0.428579849890488,-3.531918048858643,0.189970538020134,-1.134110927581787,-0.390008956193924,-0.2954495251178741,0.5546349287033081,XArbitraryZVertical,0.2083118667966296,-0.0746661902575564,-0.0689914802924327,0.9727646795191314,-0.1165217757225037,-0.4155795276165009,-0.9020622372627258,0,0,0,-1,-1,3037.026882041667,unknown,2,2022-06-02T10:51:32.749+02:00,2022-06-02T10:17:13.754+02:00,512,1.445976,0,0,397.4887,0,0,2022-06-02T10:51:32.748+02:00,675852692.7483444,0,5.351562,101.3188,1,0.79
2022-06-02T10:51:33.441+02:00,1654159891.007419,53.22895481256138,10.39874564857259,39.6105,0,0.95,55.546875,97.82255668919125,4,5,-9999,3037.719146041667,-0.562408447265625,-0.6551666259765625,-0.3536834716796875,3037.714149041667,-0.1313523975809594,-0.1192667221735048,0.3933444179171961,-3.854329347610474,0.2517287731170654,-1.236159324645996,-0.4372519850730896,-0.2996885776519775,0.5809504389762878,XArbitraryZVertical,0.1908029621947727,-0.07112465964194728,-0.07587016502889045,0.9761040445798806,-0.1098976284265518,-0.38327956199646,-0.9170710444450378,0,0,0,-1,-1,3037.026882041667,unknown,2,2022-06-02T10:51:32.749+02:00,2022-06-02T10:17:13.754+02:00,512,1.445976,0,0,397.4887,0,0,2022-06-02T10:51:32.748+02:00,675852692.7483444,0,5.351562,101.3188,1,0.79
2022-06-02T10:51:33.451+02:00,1654159891.007419,53.22895481256138,10.39874564857259,39.6105,0,0.95,55.546875,97.82255668919125,4,5,-9999,3037.729140041667,-0.58953857421875,-0.6315155029296875,-0.3873443603515625,3037.724143041667,-0.150064606426513,-0.1096816672090414,0.3553179195717122,-4.095890998840332,0.3172353506088257,-1.366712808609009,-0.4597839713096619,-0.30727818608284,0.5782188177108765,XArbitraryZVertical,0.171919458783743,-0.06702659488444604,-0.08333079050592616,0.9792890459979985,-0.1026244536042213,-0.3478884398937225,-0.931902289390564,0,0,0,-1,-1,3037.026882041667,unknown,2,2022-06-02T10:51:32.749+02:00,2022-06-02T10:17:13.754+02:00,512,1.445976,0,0,397.4887,0,0,2022-06-02T10:51:32.748+02:00,675852692.7483444,0,5.351562,101.3188,1,0.79
2022-06-02T10:51:33.461+02:00,1654159891.007419,53.22895481256138,10.39874564857259,39.6105,0,0.95,55.546875,97.82255668919125,4,5,-9999,3037.739134041667,-0.6393890380859375,-0.6391143798828125,-0.4054107666015625,3037.734137041667,-0.1698680423035147,-0.09945382570020248,0.3149078371095546,-4.34809684753418,0.4482954442501068,-1.5120769739151,-0.4951311647891998,-0.321786642074585,0.558782160282135,XArbitraryZVertical,0.1518812419955501,-0.06220013866898891,-0.09144506355568061,0.9821918973728714,-0.09440736472606659,-0.3097288310527802,-0.9461264610290527,0,0,0,-1,-1,3037.026882041667,unknown,2,2022-06-02T10:51:32.749+02:00,2022-06-02T10:17:13.754+02:00,512,1.445976,0,0,397.4887,0,0,2022-06-02T10:51:32.748+02:00,675852692.7483444,0,5.351562,101.3188,1,0.79
2022-06-02T10:51:33.471+02:00,1654159891.007419,53.22895481256138,10.39874564857259,39.6105,0,0.95,55.546875,97.82255668919125,4,5,-9999,3037.749129041667,-0.681182861328125,-0.66058349609375,-0.4323577880859375,3037.744132041667,-0.1906839411154501,-0.08812509623436537,0.2712689890117706,-4.748700618743896,0.628531813621521,-1.636276960372925,-0.5545963644981384,-0.3711601197719574,0.5542823076248169,XArbitraryZVertical,0.1303194788255244,-0.05630556467067591,-0.1001608473692164,0.9847914235459255,-0.08479265868663788,-0.2679542303085327,-0.9596930146217346,0,0,0,-1,-1,3037.026882041667,unknown,2,2022-06-02T10:51:32.749+02:00,2022-06-02T10:17:13.754+02:00,512,1.445976,0,0,397.4887,0,0,2022-06-02T10:51:32.748+02:00,675852692.7483444,0,5.351562,101.3188,1,0.79
2022-06-02T10:51:33.481+02:00,1654159891.007419,53.22895481256138,10.39874564857259,39.6105,0,0.95,55.546875,97.82255668919125,4,5,-9999,3037.759123041667,-0.705810546875,-0.6738433837890625,-0.482025146484375,3037.754126041667,-0.2120946131324599,-0.07557663808237403,0.2223884820025474,-5.358154773712158,0.8284967541694641,-1.699816465377808,-0.6075375080108643,-0.4400236010551453,0.5402314066886902,XArbitraryZVertical,0.1062889123647011,-0.04907223092613225,-0.1092885129831929,0.9870919031629108,-0.07364528626203537,-0.2205599099397659,-0.9725891947746277,0,0,0,-1,-1,3037.026882041667,unknown,2,2022-06-02T10:51:32.749+02:00,2022-06-02T10:17:13.754+02:00,512,1.445976,0,0,397.4887,0,0,2022-06-02T10:51:32.748+02:00,675852692.7483444,0,5.351562,101.3188,1,0.79
2022-06-02T10:51:33.491+02:00,1654159891.007419,53.22895481256138,10.39874564857259,39.6105,0,0.95,55.546875,97.82255668919125,4,5,-9999,3037.769117041667,-0.7326202392578125,-0.6012420654296875,-0.5179443359375,3037.764120041667,-0.2337938636504692,-0.06248941828730387,0.166851550796608,-6.029155254364014,0.9466302990913391,-1.787171840667725,-0.644228994846344,-0.5077649354934692,0.5021626949310303,XArbitraryZVertical,0.07908911783768367,-0.04063251457145274,-0.1187539273814866,0.9889344766870984,-0.06158150359988213,-0.1660784482955933,-0.9841878414154053,0,0,0,-1,-1,3037.026882041667,unknown,2,2022-06-02T10:51:32.749+02:00,2022-06-02T10:17:13.754+02:00,512,1.445976,0,0,397.4887,0,0,2022-06-02T10:51:32.748+02:00,675852692.7483444,0,5.351562,101.3188,1,0.79
2022-06-02T10:51:33.501+02:00,1654159891.007419,53.22895481256138,10.39874564857259,39.6105,0,0.95,55.546875,97.82255668919125,4,5,-9999,3037.779111041667,-0.771209716796875,-0.5099639892578125,-0.53057861328125,3037.774114041667,-0.2559419053510988,-0.04924229857072234,0.1044798703751967,-6.65610408782959,1.117773175239563,-1.903129816055298,-0.6836662292480469,-0.4969522058963776,0.4753970503807068,XArbitraryZVertical,0.04863590815533679,-0.03104595289359739,-0.12868420303815,0.9900055933238203,-0.04895398765802383,-0.1042898893356323,-0.9933413863182068,0,0,0,-1,-1,3037.026882041667,unknown,2,2022-06-02T10:51:32.749+02:00,2022-06-02T10:17:13.754+02:00,512,1.445976,0,0,397.4887,0,0,2022-06-02T10:51:32.748+02:00,675852692.7483444,0,5.351562,101.3188,1,0.79
2022-06-02T10:51:33.511+02:00,1654159891.007419,53.22895481256138,10.39874564857259,39.6105,0,0.95,55.546875,97.82255668919125,4,5,-9999,3037.789106041667,-0.800811767578125,-0.3853759765625,-0.5464019775390625,3037.784108041667,-0.2785875697556863,-0.03532702093855174,0.0363530427617949,-7.15384578704834,1.34774386882782,-2.031703233718872,-0.7359133362770081,-0.4736189842224121,0.4681371450424194,XArbitraryZVertical,0.01554473492619567,-0.02001179406723482,-0.1391171114936267,0.9899515958798355,-0.03529633954167366,-0.03634503483772278,-0.9987157583236694,0,0,0,-1,-1,3037.026882041667,unknown,2,2022-06-02T10:51:32.749+02:00,2022-06-02T10:17:13.754+02:00,512,1.445976,0,0,397.4887,0,0,2022-06-02T10:51:32.748+02:00,675852692.7483444,0,5.351562,101.3188,1,0.79
2022-06-02T10:51:33.521+02:00,1654159891.007419,53.22895481256138,10.39874564857259,39.6105,0,0.95,55.546875,97.82255668919125,4,5,-9999,3037.799100041667,-0.8251495361328125,-0.2332611083984375,-0.5504913330078125,3037.794103041667,-0.3015988577750253,-0.02062773442697093,-0.03669127529088987,-7.56918478012085,1.606261253356934,-2.155316352844238,-0.7801993489265442,-0.4220590591430664,0.4527124166488647,XArbitraryZVertical,-0.01968460590576793,-0.007439184467487268,-0.1500082177846592,0.9884607554716864,-0.02061238884925842,0.03668304160237312,-0.9991143345832825,0,0,0,-1,-1,3037.026882041667,unknown,2,2022-06-02T10:51:32.749+02:00,2022-06-02T10:17:13.754+02:00,512,1.445976,0,0,397.4887,0,0,2022-06-02T10:51:32.748+02:00,675852692.7483444,0,5.351562,101.3188,1,0.79
2022-06-02T10:51:33.531+02:00,1654159891.007419,53.22895481256138,10.39874564857259,39.6105,0,0.95,55.546875,97.82255668919125,4,5,-9999,3037.809094041667,-0.8418731689453125,-0.064971923828125,-0.531280517578125,3037.804097041667,-0.324739511079447,-0.00467845425783576,-0.1135463400037422,-7.854508399963379,1.937968015670776,-2.264459848403931,-0.8205012083053589,-0.3465636670589447,0.4430583715438843,XArbitraryZVertical,-0.0563737313193103,0.006868103207607073,-0.1612653669971872,0.9852756987888162,-0.004648310597985983,0.113302506506443,-0.993549644947052,0,0,0,-1,-1,3037.026882041667,unknown,2,2022-06-02T10:51:32.749+02:00,2022-06-02T10:17:13.754+02:00,512,1.445976,0,0,397.4887,0,0,2022-06-02T10:51:32.748+02:00,675852692.7483444,0,5.351562,101.3188,1,0.79
2022-06-02T10:51:33.541+02:00,1654159891.007419,53.22895481256138,10.39874564857259,39.6105,0,0.95,55.546875,97.82255668919125,4,5,-9999,3037.819088,-0.8218994140625,0.096160888671875,-0.529327392578125,3037.814091041667,-0.3477879879065596,0.01315177705981168,-0.1931233212790933,-8.045296669006348,2.339656352996826,-2.353277444839478,-0.8547800779342651,-0.2568970918655396,0.4500442147254944,XArbitraryZVertical,-0.09382314133196029,0.02312717896713091,-0.1728336205677692,0.9801994091339956,0.01290690805763006,0.1919250786304474,-0.9813247323036194,0,0,0,-1,-1,3037.026882041667,unknown,2,2022-06-02T10:51:32.749+02:00,2022-06-02T10:17:13.754+02:00,512,1.445976,0,0,397.4887,0,0,2022-06-02T10:51:32.748+02:00,675852692.7483444,0,5.351562,101.3188,1,0.79
2022-06-02T10:51:33.551+02:00,1654159891.007419,53.22895481256138,10.39874564857259,39.6105,0,0.95,55.546875,97.82255668919125,4,5,-9999,3037.829082,-0.798675537109375,0.219970703125,-0.576019287109375,3037.824085,-0.370636709244323,0.03321690243924294,-0.2743038713983963,-8.066781044006348,2.732920169830322,-2.470807552337646,-0.8538685441017151,-0.174716055393219,0.4327555894851685,XArbitraryZVertical,-0.1313314322506348,0.04135895629723089,-0.184735743221956,0.9730950925724147,0.03196917474269867,0.2708769142627716,-0.9620829820632935,0,0,0,-1,-1,3037.026882041667,unknown,2,2022-06-02T10:51:32.749+02:00,2022-06-02T10:17:13.754+02:00,512,1.445976,0,0,397.4887,0,0,2022-06-02T10:51:32.748+02:00,675852692.7483444,0,5.351562,101.3188,1,0.79
2022-06-02T10:51:33.561+02:00,1654159891.007419,53.22895481256138,10.39874564857259,39.6105,0,0.95,55.546875,97.82255668919125,4,5,-9999,3037.839077,-0.78057861328125,0.3556365966796875,-0.604949951171875,3037.83408,-0.3935420603503403,0.05539066746121445,-0.3553395641364664,-7.929853916168213,3.132584095001221,-2.594363212585449,-0.8505792617797852,-0.1279380917549133,0.3600712418556213,XArbitraryZVertical,-0.1679309346970033,0.06126930860417207,-0.197152029179859,0.9639379422836182,0.05190377309918404,0.3479087352752686,-0.9360905289649963,0,0,0,-1,-1,3037.026882041667,unknown,2,2022-06-02T10:51:32.749+02:00,2022-06-02T10:17:13.754+02:00,512,1.445976,0,0,397.4887,0,0,2022-06-02T10:51:32.748+02:00,675852692.7483444,0,5.351562,101.3188,1,0.79
2022-06-02T10:51:33.578+02:00,1654159891.007419,53.22895481256138,10.39874564857259,39.6105,0,0.95,55.546875,97.82255668919125,4,5,-9999,3037.849071,-0.7798309326171875,0.477203369140625,-0.6234283447265625,3037.844074,-0.4163852337843553,0.0801129592280484,-0.4352315396642056,-7.728752136230469,3.573666572570801,-2.695333957672119,-0.8531451225280762,-0.06598383188247681,0.2989141345024109,XArbitraryZVertical,-0.2029887115321352,0.08284639430873021,-0.2101144492066082,0.9527769167959578,0.07256653904914856,0.4216203689575195,-0.9038641452789307,0,0,0,-1,-1,3037.026882041667,unknown,2,2022-06-02T10:51:32.749+02:00,2022-06-02T10:17:13.754+02:00,512,1.445976,0,0,397.4887,0,0,2022-06-02T10:51:32.748+02:00,675852692.7483444,0,5.351562,101.3188,1,0.79
2022-06-02T10:51:33.593+02:00,1654159891.007419,53.22895481256138,10.39874564857259,39.6105,0,0.95,55.546875,97.82255668919125,4,5,-9999,3037.859065,-0.762451171875,0.6221160888671875,-0.6198577880859375,3037.854068,-0.4390208922138565,0.1076758873370578,-0.5133098779300651,-7.459739208221436,4.018682479858398,-2.765375852584839,-0.8734487891197205,-0.01385995745658875,0.2426504492759705,XArbitraryZVertical,-0.2360624447390204,0.1059958129622317,-0.2236463251095229,0.9396922448459962,0.09361789375543594,0.4910632371902466,-0.866078794002533,0,0,0,-1,-1,3037.026882041667,unknown,2,2022-06-02T10:51:32.749+02:00,2022-06-02T10:17:13.754+02:00,512,1.445976,0,0,397.4887,0,0,2022-06-02T10:51:32.748+02:00,675852692.7483444,0,5.351562,101.3188,1,0.79
2022-06-02T10:51:33.595+02:00,1654159891.007419,53.22895481256138,10.39874564857259,39.6105,0,0.95,55.546875,97.82255668919125,4,5,-9999,3037.869059,-0.742279052734375,0.7438201904296875,-0.60345458984375,3037.864062,-0.4608389780887434,0.1386378807165275,-0.58960359278037,-7.232940673828125,4.457756519317627,-2.797568082809448,-0.8773127794265747,0.06608438491821289,0.2033284902572632,XArbitraryZVertical,-0.2670554667899441,0.1307220275447405,-0.2376011450372739,0.9247370731793637,0.1148616373538971,0.5560315847396851,-0.8231862783432007,0,0,0,-1,-1,3037.026882041667,unknown,2,2022-06-02T10:51:32.749+02:00,2022-06-02T10:17:13.754+02:00,512,1.445976,0,0,397.4887,0,0,2022-06-02T10:51:32.748+02:00,675852692.7483444,0,5.351562,101.3188,1,0.79
2022-06-02T10:51:33.601+02:00,1654159891.007419,53.22895481256138,10.39874564857259,39.6105,0,0.95,55.546875,97.82255668919125,4,5,-9999,3037.879054,-0.7021484375,0.8525238037109375,-0.581787109375,3037.874057,-0.4816261798442983,0.1729735076247502,-0.6639948538544405,-6.943271636962891,4.854045391082764,-2.829782009124756,-0.8778237104415894,0.1275522708892822,0.172329843044281,XArbitraryZVertical,-0.2958682210346928,0.1567474546675556,-0.2519676038207503,0.9079672223338723,0.1355446875095367,0.6162678599357605,-0.775784432888031,0,0,0,-1,-1,3037.026882041667,unknown,2,2022-06-02T10:51:32.749+02:00,2022-06-02T10:17:13.754+02:00,512,1.445976,0,0,397.4887,0,0,2022-06-02T10:51:32.748+02:00,675852692.7483444,0,5.351562,101.3188,1,0.79
2022-06-02T10:51:33.611+02:00,1654159891.007419,53.22895481256138,10.39874564857259,39.6105,0,0.95,55.546875,97.82255668919125,4,5,-9999,3037.889048,-0.6543121337890625,0.98162841796875,-0.5452117919921875,3037.884051,-0.5013074428024146,0.2106044805218898,-0.7355291227240737,-6.526607036590576,5.205918312072754,-2.850244045257568,-0.8571547269821167,0.1815441250801086,0.1433055400848389,XArbitraryZVertical,-0.3220385775752019,0.1836975911226249,-0.266778373248164,0.8895929433544388,0.1550063043832779,0.6709795594215393,-0.7250927090644836,0,0,0,-1,-1,3037.026882041667,unknown,2,2022-06-02T10:51:32.749+02:00,2022-06-02T10:17:13.754+02:00,512,1.445976,0,0,397.4887,0,0,2022-06-02T10:51:32.748+02:00,675852692.7483444,0,5.351562,101.3188,1,0.79
2022-06-02T10:51:33.621+02:00,1654159891.007419,53.22895481256138,10.39874564857259,39.6105,0,0.95,55.546875,97.82255668919125,4,5,-9999,3037.899042,-0.615997314453125,1.099090576171875,-0.4433441162109375,3037.894045,-0.5199324335383804,0.2514543908483738,-0.803422141717957,-6.102980613708496,5.570918083190918,-2.85015344619751,-0.8270498514175415,0.2618921995162964,0.1272029280662537,XArbitraryZVertical,-0.3452064864348044,0.2112466577872473,-0.2820994855207024,0.8698431105540738,0.1727377623319626,0.7197360992431641,-0.6724146604537964,0,0,0,-1,-1,3037.026882041667,unknown,2,2022-06-02T10:51:32.749+02:00,2022-06-02T10:17:13.754+02:00,512,1.445976,0,0,397.4887,0,0,2022-06-02T10:51:32.748+02:00,675852692.7483444,0,5.351562,101.3188,1,0.79
2022-06-02T10:51:33.631+02:00,1654159891.007419,53.22895481256138,10.39874564857259,39.6105,0,0.95,55.546875,97.82255668919125,4,5,-9999,3037.909036,-0.5732574462890625,1.17181396484375,-0.326202392578125,3037.904039,-0.5367858853782665,0.296481041010226,-0.8678012985322094,-5.690085411071777,5.934885501861572,-2.805547475814819,-0.8048781156539917,0.336181104183197,0.1749545931816101,XArbitraryZVertical,-0.3653784486278239,0.23947701176011,-0.2978409065182199,0.8487873482728525,0.1888808161020279,0.7629092931747437,-0.6182987093925476,0,0,0,-1,-1,3037.026882041667,unknown,2,2022-06-02T10:51:32.749+02:00,2022-06-02T10:17:13.754+02:00,512,1.445976,0,0,397.4887,0,0,2022-06-02T10:51:32.748+02:00,675852692.7483444,0,5.351562,101.3188,1,0.79
2022-06-02T10:51:33.641+02:00,1654159891.007419,53.22895481256138,10.39874564857259,39.6105,0,0.95,55.546875,97.82255668919125,4,5,-9999,3037.919031,-0.502777099609375,1.273880004882812,-0.181365966796875,3037.914034,-0.5510215618903971,0.34621620428635,-0.92854559006024,-5.308803558349609,6.238524436950684,-2.709001779556274,-0.7765223979949951,0.3710641860961914,0.2372541427612305,XArbitraryZVertical,-0.3825483904770199,0.2681948188807862,-0.313824931341068,0.826584521289551,0.2032649219036102,0.8007495999336243,-0.5634565353393555,0,0,0,-1,-1,3037.026882041667,unknown,2,2022-06-02T10:51:32.749+02:00,2022-06-02T10:17:13.754+02:00,512,1.445976,0,0,397.4887,0,0,2022-06-02T10:51:32.748+02:00,675852692.7483444,0,5.351562,101.3188,1,0.79
2022-06-02T10:51:33.651+02:00,1654159891.007419,53.22895481256138,10.39874564857259,39.6105,0,0.95,55.546875,97.82255668919125,4,5,-9999,3037.929025,-0.4329681396484375,1.34912109375,-0.0190582275390625,3037.924028,-0.5607941096787846,0.4019700052302136,-0.9866231838622505,-5.130218505859375,6.514508247375488,-2.581376552581787,-0.7185454368591309,0.4397115111351013,0.326184093952179,XArbitraryZVertical,-0.3972319475493247,0.2973747117447242,-0.3296792488393895,0.8031728711002082,0.2157683372497559,0.8341683745384216,-0.5075501203536987,0,0,0,-1,-1,3037.026882041667,unknown,2,2022-06-02T10:51:32.749+02:00,2022-06-02T10:17:13.754+02:00,512,1.445976,0,0,397.4887,0,0,2022-06-02T10:51:32.748+02:00,675852692.7483444,0,5.351562,101.3188,1,0.79
2022-06-02T10:51:33.661+02:00,1654159891.007419,53.22895481256138,10.39874564857259,39.6105,0,0.95,55.546875,97.82255668919125,4,5,-9999,3037.939019,-0.3413238525390625,1.41168212890625,0.1352081298828125,3037.934022,-0.5638638369681025,0.4658643538617933,-1.04276762400621,-4.917686939239502,6.787649154663086,-2.429238319396973,-0.6592867970466614,0.4853190183639526,0.4310817122459412,XArbitraryZVertical,-0.4098088088003878,0.3270882935095839,-0.3451644210123148,0.7784159994819356,0.2263186872005463,0.8638019561767578,-0.450139969587326,0,0,0,-1,-1,3037.026882041667,unknown,2,2022-06-02T10:51:32.749+02:00,2022-06-02T10:17:13.754+02:00,512,1.445976,0,0,397.4887,0,0,2022-06-02T10:51:32.748+02:00,675852692.7483444,0,5.351562,101.3188,1,0.79
2022-06-02T10:51:33.671+02:00,1654159891.007419,53.22895481256138,10.39874564857259,39.6105,0,0.95,55.546875,97.82255668919125,4,5,-9999,3037.949013,-0.2488555908203125,1.53802490234375,0.306671142578125,3037.944016,-0.5585872893031379,0.5395417672284387,-1.095938581339211,-4.673747539520264,7.029498100280762,-2.254047870635986,-0.5762132406234741,0.5223243832588196,0.5274704098701477,XArbitraryZVertical,-0.4199428371942472,0.3570949731144855,-0.3602624747375093,0.7525571073663364,0.2348894327878952,0.8893577456474304,-0.3922623991966248,0,0,0,-1,-1,3037.026882041667,unknown,2,2022-06-02T10:51:32.749+02:00,2022-06-02T10:17:13.754+02:00,512,1.445976,0,0,397.4887,0,0,2022-06-02T10:51:32.748+02:00,675852692.7483444,0,5.351562,101.3188,1,0.79
2022-06-02T10:51:33.681+02:00,1654159891.007419,53.22895481256138,10.39874564857259,39.6105,0,0.95,55.546875,97.82255668919125,4,5,-9999,3037.959008,-0.1656036376953125,1.639114379882812,0.4392547607421875,3037.95401,-0.5419925380640208,0.6259488270262464,-1.146319095048688,-4.555007934570312,7.267483234405518,-2.091232538223267,-0.4901414811611176,0.6267707347869873,0.6404329538345337,XArbitraryZVertical,-0.427868219942427,0.387360051746453,-0.3748583315125817,0.7255082784260841,0.2412859201431274,0.9112541675567627,-0.3337619602680206,0,0,0,-1,-1,3037.026882041667,unknown,2,2022-06-02T10:51:32.749+02:00,2022-06-02T10:17:13.754+02:00,512,1.445976,0,0,397.4887,0,0,2022-06-02T10:51:32.748+02:00,675852692.7483444,0,5.351562,101.3188,1,0.79
2022-06-02T10:51:33.691+02:00,1654159891.007419,53.22895481256138,10.39874564857259,39.6105,0,0.95,55.546875,97.82255668919125,4,5,-9999,3037.969002,-0.0847930908203125,1.667724609375,0.5251007080078125,3037.964005,-0.5096750782018459,0.7295178072015657,-1.194139892045399,-4.488808155059814,7.486646175384521,-1.94238817691803,-0.4107547402381897,0.7092145681381226,0.7134577035903931,XArbitraryZVertical,-0.4339028004372886,0.4178837515848073,-0.3888390507519166,0.697069246731521,0.2451511174440384,0.9298996329307556,-0.2742030620574951,0,0,0,-1,-1,3037.026882041667,unknown,2,2022-06-02T10:51:32.749+02:00,2022-06-02T10:17:13.754+02:00,512,1.445976,0,0,397.4887,0,0,2022-06-02T10:51:32.748+02:00,675852692.7483444,0,5.351562,101.3188,1,0.79
2022-06-02T10:51:33.701+02:00,1654159891.007419,53.22895481256138,10.39874564857259,39.6105,0,0.95,55.546875,97.82255668919125,4,5,-9999,3037.978996,0.010894775390625,1.66583251953125,0.5809326171875,3037.973999,-0.4574076670181236,0.8543651232162676,-1.238413642420902,-4.321496486663818,7.675451755523682,-1.80348265171051,-0.330870658159256,0.7224569320678711,0.7393784523010254,XArbitraryZVertical,-0.4379881822613037,0.4483608380492547,-0.4022310947333064,0.6673447467292435,0.2460775673389435,0.9452675580978394,-0.2142778187990189,0,0,0,-1,-1,3037.026882041667,unknown,2,2022-06-02T10:51:32.749+02:00,2022-06-02T10:17:13.754+02:00,512,1.445976,0,0,397.4887,0,0,2022-06-02T10:51:32.748+02:00,675852692.7483444,0,5.351562,101.3188,1,0.79
2022-06-02T10:51:33.711+02:00,1654159891.007419,53.22895481256138,10.39874564857259,39.6105,0,0.95,55.546875,97.82255668919125,4,5,-9999,3037.98899,0.1385498046875,1.668472290039062,0.6620025634765625,3037.983993,-0.3792527297915921,1.006065135105799,-1.277844874101754,-4.272954940795898,7.773737907409668,-1.637600660324097,-0.2330461293458939,0.7084366679191589,0.7354837656021118,XArbitraryZVertical,-0.4401507233763839,0.4785307997095486,-0.4148951168800603,0.6365041731152989,0.2439409345388412,0.9573957324028015,-0.1545512229204178,0,0,0,-1,-1,3037.026882041667,unknown,2,2022-06-02T10:51:32.749+02:00,2022-06-02T10:17:13.754+02:00,512,1.445976,0,0,397.4887,0,0,2022-06-02T10:51:32.748+02:00,675852692.7483444,0,5.351562,101.3188,1,0.79
2022-06-02T10:51:33.733+02:00,1654159891.007419,53.22895481256138,10.39874564857259,39.6105,0,0.95,55.546875,97.82255668919125,4,5,-9999,3037.998985,0.2671051025390625,1.612335205078125,0.737274169921875,3037.993987,-0.2653912369562254,1.192729842107836,-1.310966632413599,-4.28257417678833,7.620344161987305,-1.448693513870239,-0.1002225875854492,0.7020384669303894,0.7568362951278687,XArbitraryZVertical,-0.4409829976369352,0.5080522392943717,-0.4261143031423075,0.6048499572853575,0.2387724220752716,0.9664337635040283,-0.09483383595943451,0,0,0,-1,-1,3037.026882041667,unknown,2,2022-06-02T10:51:32.749+02:00,2022-06-02T10:17:13.754+02:00,512,1.445976,0,0,397.4887,0,0,2022-06-02T10:51:32.748+02:00,675852692.7483444,0,5.351562,101.3188,1,0.79
2022-06-02T10:51:33.739+02:00,1654159891.007419,53.22895481256138,10.39874564857259,39.6105,0,0.95,55.546875,97.82255668919125,4,5,-9999,3038.008979,0.3802337646484375,1.52935791015625,0.811370849609375,3038.003982,-0.1097335643111503,1.418657299885069,-1.335558869078006,-4.376639842987061,7.381968975067139,-1.276437878608704,0.03672409057617188,0.6398760080337524,0.7725969552993774,XArbitraryZVertical,-0.4411289462761728,0.5364175677827212,-0.4353958227112202,0.5727929342816829,0.2303809821605682,0.9724590182304382,-0.0353228896856308,0,0,0,-1,-1,3037.026882041667,unknown,2,2022-06-02T10:51:32.749+02:00,2022-06-02T10:17:13.754+02:00,512,1.445976,0,0,397.4887,0,0,2022-06-02T10:51:32.748+02:00,675852692.7483444,0,5.351562,101.3188,1,0.79
2022-06-02T10:51:33.742+02:00,1654159891.007419,53.22895481256138,10.39874564857259,39.6105,0,0.95,55.546875,97.82255668919125,4,5,-9999,3038.018973,0.5096282958984375,1.400787353515625,0.8967132568359375,3038.013976,0.086409100165407,1.682135545552593,-1.347783964685643,-4.619750022888184,7.094341278076172,-0.9795981645584106,0.1604353040456772,0.5541221499443054,0.786797046661377,XArbitraryZVertical,-0.4407888225358761,0.5639079008400327,-0.4421920386800925,0.5405360151069073,0.2197984457015991,0.975235641002655,0.02457381412386894,0,0,0,-1,-1,3037.026882041667,unknown,2,2022-06-02T10:51:32.749+02:00,2022-06-02T10:17:13.754+02:00,512,1.445976,0,0,397.4887,0,0,2022-06-02T10:51:32.748+02:00,675852692.7483444,0,5.351562,101.3188,1,0.79
2022-06-02T10:51:33.751+02:00,1654159891.007419,53.22895481256138,10.39874564857259,39.6105,0,0.95,55.546875,97.82255668919125,4,5,-9999,3038.028967,0.5692596435546875,1.246231079101562,0.908416748046875,3038.02397,0.2996574585804272,1.959477274447177,-1.344235753509943,-4.696689128875732,6.844175338745117,-0.7023460268974304,0.3017562627792358,0.4263425469398499,0.8115867376327515,XArbitraryZVertical,-0.4400631183736854,0.5906840908029207,-0.4461343290680684,0.5083314490782335,0.2078720778226852,0.9744447469711304,0.08512648940086365,0,0,0,-1,-1,3037.026882041667,unknown,2,2022-06-02T10:51:32.749+02:00,2022-06-02T10:17:13.754+02:00,512,1.445976,0,0,397.4887,0,0,2022-06-02T10:51:32.748+02:00,675852692.7483444,0,5.351562,101.3188,1,0.79
2022-06-02T10:51:33.761+02:00,1654159891.007419,53.22895481256138,10.39874564857259,39.6105,0,0.95,55.546875,97.82255668919125,4,5,-9999,3038.038961,0.6278533935546875,1.166702270507812,0.9837799072265625,3038.033964,0.4891050152136948,2.210823289663578,-1.325758795900139,-4.797428607940674,6.59827709197998,-0.4642857015132904,0.3746810257434845,0.2761027812957764,0.7635362148284912,XArbitraryZVertical,-0.4384986218464854,0.6165705202498634,-0.4479332024023979,0.4763565776893987,0.1945786625146866,0.9701282382011414,0.1448804885149002,0,0,0,-1,-1,3037.026882041667,unknown,2,2022-06-02T10:51:32.749+02:00,2022-06-02T10:17:13.754+02:00,512,1.445976,0,0,397.4887,0,0,2022-06-02T10:51:32.748+02:00,675852692.7483444,0,5.351562,101.3188,1,0.79
2022-06-02T10:51:33.771+02:00,1654159891.007419,53.22895481256138,10.39874564857259,39.6105,0,0.95,55.546875,97.82255668919125,4,5,-9999,3038.048956,0.604583740234375,1.102447509765625,0.988800048828125,3038.043959,0.6347406840132327,2.415532694822026,-1.296022724990635,-4.759998321533203,6.180481433868408,-0.2153754979372025,0.4477102756500244,0.2042156457901001,0.7808809280395508,XArbitraryZVertical,-0.4362320098472635,0.6412106376578224,-0.4477287909318056,0.4450724784878304,0.1801431477069855,0.9624866247177124,0.2028988897800446,0,0,0,-1,-1,3037.026882041667,unknown,2,2022-06-02T10:51:32.749+02:00,2022-06-02T10:17:13.754+02:00,512,1.445976,0,0,397.4887,0,0,2022-06-02T10:51:32.748+02:00,675852692.7483444,0,5.351562,101.3188,1,0.79
2022-06-02T10:51:33.781+02:00,1654159891.007419,53.22895481256138,10.39874564857259,39.6105,0,0.95,55.546875,97.82255668919125,4,5,-9999,3038.05895,0.428619384765625,1.03424072265625,1.0374755859375,3038.053953,0.7390613309703237,2.575506355205651,-1.259334017043435,-4.814078330993652,5.946149349212646,-0.1699338406324387,0.4402241706848145,0.1505609750747681,0.7301535606384277,XArbitraryZVertical,-0.4336562785189043,0.6642781048098807,-0.4457501285647928,0.4147090428389162,0.1643595844507217,0.9518864750862122,0.2586463391780853,0,0,0,-1,-1,3037.026882041667,unknown,2,2022-06-02T10:51:32.749+02:00,2022-06-02T10:17:13.754+02:00,512,1.445976,0,0,397.4887,0,0,2022-06-02T10:51:32.748+02:00,675852692.7483444,0,5.351562,101.3188,1,0.79
2022-06-02T10:51:33.791+02:00,1654159891.007419,53.22895481256138,10.39874564857259,39.6105,0,0.95,55.546875,97.82255668919125,4,5,-9999,3038.068944,0.5155029296875,0.783599853515625,1.11181640625,3038.063947,0.8063090574362149,2.697545328409201,-1.21629676111715,-4.776342391967773,5.677358150482178,0.3789710700511932,0.2794971168041229,0.0964202880859375,0.7240184545516968,XArbitraryZVertical,-0.4298046990634075,0.6870199675737866,-0.4417410057966893,0.3848847340611605,0.1491222679615021,0.9378203153610229,0.3134570419788361,0,0,0,-1,-1,3037.026882041667,unknown,2,2022-06-02T10:51:32.749+02:00,2022-06-02T10:17:13.754+02:00,512,1.445976,0,0,397.4887,0,0,2022-06-02T10:51:32.748+02:00,675852692.7483444,0,5.351562,101.3188,1,0.79
2022-06-02T10:51:33.801+02:00,1654159891.007419,53.22895481256138,10.39874564857259,39.6105,0,0.95,55.546875,97.82255668919125,4,5,-9999,3038.078938,0.420928955078125,0.7754364013671875,1.207046508789062,3038.073941,0.8468772490857531,2.788875451284435,-1.172584420585265,-4.432602882385254,4.979490280151367,0.2653736770153046,0.3815478086471558,-0.1381559371948242,0.7479174137115479,XArbitraryZVertical,-0.4254648611038688,0.7077634681542134,-0.4365366683215221,0.3570523124090197,0.1339551359415054,0.921755850315094,0.3638989627361298,0,0,0,-1,-1,3037.026882041667,unknown,2,2022-06-02T10:51:32.749+02:00,2022-06-02T10:17:13.754+02:00,512,1.445976,0,0,397.4887,0,0,2022-06-02T10:51:32.748+02:00,675852692.7483444,0,5.351562,101.3188,1,0.79
2022-06-02T10:51:33.811+02:00,1654159891.007419,53.22895481256138,10.39874564857259,39.6105,0,0.95,55.546875,97.82255668919125,4,5,-9999,3038.088933,0.4199981689453125,0.8077850341796875,1.294082641601562,3038.083935,0.872008050740363,2.859087675113701,-1.132023848676543,-3.887976884841919,4.409370422363281,0.3510907292366028,0.3025029301643372,-0.1298376321792603,0.7990583777427673,XArbitraryZVertical,-0.4213428851619881,0.7255784970659107,-0.4310756085026298,0.331933274573029,0.1184260100126266,0.9052738547325134,0.4079879522323608,0,0,0,-1,-1,3037.026882041667,unknown,2,2022-06-02T10:51:32.749+02:00,2022-06-02T10:17:13.754+02:00,512,1.445976,0,0,397.4887,0,0,2022-06-02T10:51:32.748+02:00,675852692.7483444,0,5.351562,101.3188,1,0.79
2022-06-02T10:51:33.821+02:00,1654159891.007419,53.22895481256138,10.39874564857259,39.6105,0,0.95,55.546875,97.82255668919125,4,5,-9999,3038.098927,0.4074859619140625,0.771240234375,1.3984375,3038.09393,0.8823935454748635,2.909218375607223,-1.097445237484441,-3.009262800216675,3.72918963432312,0.5177052021026611,0.3150162696838379,-0.08226072788238525,0.8504641652107239,XArbitraryZVertical,-0.4165516222236873,0.7404687165070118,-0.4262349171720524,0.3106678316420484,0.104981929063797,0.8900456428527832,0.4436183571815491,0,0,0,-1,-1,3037.026882041667,unknown,2,2022-06-02T10:51:32.749+02:00,2022-06-02T10:17:13.754+02:00,512,1.445976,0,0,397.4887,0,0,2022-06-02T10:51:32.748+02:00,675852692.7483444,0,5.351562,101.3188,1,0.79
2022-06-02T10:51:33.831+02:00,1654159891.007419,53.22895481256138,10.39874564857259,39.6105,0,0.95,55.546875,97.82255668919125,4,5,-9999,3038.108921,0.4113922119140625,0.764495849609375,1.526397705078125,3038.103924,0.8826761484855153,2.942829042144419,-1.071779735555386,-2.006007194519043,2.932863235473633,0.5357621908187866,0.3129904270172119,-0.1068136692047119,0.9292978048324585,XArbitraryZVertical,-0.4112645278192296,0.7519515945607661,-0.4229626773848403,0.2941643066346641,0.09449554979801178,0.878053605556488,0.46913942694664,0,0,0,-1,-1,3037.026882041667,unknown,2,2022-06-02T10:51:32.749+02:00,2022-06-02T10:17:13.754+02:00,512,1.445976,0,0,397.4887,0,0,2022-06-02T10:51:32.748+02:00,675852692.7483444,0,5.351562,101.3188,1,0.79
2022-06-02T10:51:33.841+02:00,1654159891.007419,53.22895481256138,10.39874564857259,39.6105,0,0.95,55.546875,97.82255668919125,4,5,-9999,3038.118915,0.3935546875,0.667327880859375,1.665054321289062,3038.113918,0.8779289192583909,2.963965807864428,-1.056057234181196,-1.034742474555969,2.124457836151123,0.5013333559036255,0.3244043290615082,-0.1059255003929138,1.041836261749268,XArbitraryZVertical,-0.4061223577351847,0.7598324162623077,-0.4217047132432953,0.2826381900145713,0.08698789030313492,0.8704211711883545,0.4845613539218903,0,0,0,-1,-1,3037.026882041667,unknown,2,2022-06-02T10:51:32.749+02:00,2022-06-02T10:17:13.754+02:00,512,1.445976,0,0,397.4887,0,0,2022-06-02T10:51:32.748+02:00,675852692.7483444,0,5.351562,101.3188,1,0.79
2022-06-02T10:51:33.851+02:00,1654159891.007419,53.22895481256138,10.39874564857259,39.6105,0,0.95,55.546875,97.82255668919125,4,5,-9999,3038.12891,0.3793487548828125,0.540283203125,1.813949584960938,3038.123912,0.8712429804763616,2.975632280980933,-1.048640428837976,-0.3536019921302795,1.376923322677612,0.4027793407440186,0.3111614882946014,-0.199418306350708,1.173157572746277,XArbitraryZVertical,-0.4016499941668631,0.7646081224450888,-0.4220317722909211,0.2755733873215979,0.08239318430423737,0.8667459487915039,0.4918965995311737,0,0,0,-1,-1,3037.026882041667,unknown,2,2022-06-02T10:51:32.749+02:00,2022-06-02T10:17:13.754+02:00,512,1.445976,0,0,397.4887,0,0,2022-06-02T10:51:32.748+02:00,675852692.7483444,0,5.351562,101.3188,1,0.79
2022-06-02T10:51:33.861+02:00,1654159891.007419,53.22895481256138,10.39874564857259,39.6105,0,0.95,55.546875,97.82255668919125,4,5,-9999,3038.138904,0.3751373291015625,0.473236083984375,1.965316772460938,3038.133907,0.8647055227224834,2.980333484704703,-1.046553235096134,0.01008256152272224,0.6886166334152222,0.3007670938968658,0.2989786863327026,-0.3254201412200928,1.319886326789856,XArbitraryZVertical,-0.3983052291482737,0.7670622284666847,-0.4230318868142652,0.2720520426422757,0.08037006855010986,0.8657030463218689,0.4940630495548248,0,0,0,-1,-1,3037.026882041667,unknown,2,2022-06-02T10:51:32.749+02:00,2022-06-02T10:17:13.754+02:00,512,1.445976,0,0,397.4887,0,0,2022-06-02T10:51:32.748+02:00,675852692.7483444,0,5.351562,101.3188,1,0.79
2022-06-02T10:51:33.871+02:00,1654159891.007419,53.22895481256138,10.39874564857259,39.6105,0,0.95,55.546875,97.82255668919125,4,5,-9999,3038.148898,0.335052490234375,0.4079742431640625,2.067230224609375,3038.143901,0.8598200770055804,2.979765464635189,-1.047232590168934,0.1768052279949188,0.04673947393894196,0.154608815908432,0.2945814430713654,-0.3928070068359375,1.471879720687866,XArbitraryZVertical,-0.3965017135408308,0.7677921581681005,-0.423854827300811,0.2713457346891234,0.08055592328310013,0.8660429120063782,0.4934368133544922,0,0,0,-1,-1,3037.026882041667,unknown,2,2022-06-02T10:51:32.749+02:00,2022-06-02T10:17:13.754+02:00,512,1.445976,0,0,397.4887,0,0,2022-06-02T10:51:32.748+02:00,675852692.7483444,0,5.351562,101.3188,1,0.79
2022-06-02T10:51:33.881+02:00,1654159891.007419,53.22895481256138,10.39874564857259,39.6105,0,0.95,55.546875,97.82255668919125,4,5,-9999,3038.158892,0.318878173828125,0.3419342041015625,2.100433349609375,3038.153895,0.8575384618976856,2.975406194900676,-1.048854664944514,0.1600251644849777,-0.5025506019592285,0.02211715467274189,0.2525787651538849,-0.4588784575462341,1.575534701347351,XArbitraryZVertical,-0.3964339689553807,0.7672599427048252,-0.4239511579224862,0.2727961096658419,0.08247377723455429,0.8668527603149414,0.4916954338550568,0,0,0,-1,-1,3037.026882041667,unknown,2,2022-06-02T10:51:32.749+02:00,2022-06-02T10:17:13.754+02:00,512,1.445976,0,0,397.4887,0,0,2022-06-02T10:51:32.748+02:00,675852692.7483444,0,5.351562,101.3188,1,0.79
2022-06-02T10:51:33.891+02:00,1654159891.007419,53.22895481256138,10.39874564857259,39.6105,0,0.95,55.546875,97.82255668919125,4,5,-9999,3038.168886,0.2954254150390625,0.2829742431640625,2.0997314453125,3038.163889,0.8580241660952211,2.968508701892981,-1.04972365169455,-0.01648117229342461,-0.9658729434013367,-0.10572150349617,0.2331448048353195,-0.5253517627716064,1.610061049461365,XArbitraryZVertical,-0.3980192019189107,0.7660070078523387,-0.4228631283449322,0.2756819886462829,0.08573338389396667,0.8672856688499451,0.4903720319271088,0,0,0,-1,-1,3037.026882041667,unknown,2,2022-06-02T10:51:32.749+02:00,2022-06-02T10:17:13.754+02:00,512,1.445976,0,0,397.4887,0,0,2022-06-02T10:51:32.748+02:00,675852692.7483444,0,5.351562,101.3188,1,0.79
2022-06-02T10:51:33.901+02:00,1654159891.007419,53.22895481256138,10.39874564857259,39.6105,0,0.95,55.546875,97.82255668919125,4,5,-9999,3038.178881,0.2831268310546875,0.2572784423828125,2.027191162109375,3038.173884,0.8616011255865914,2.959654998464607,-1.04886395832971,-0.2101433873176575,-1.428786635398865,-0.2100286036729813,0.2052188813686371,-0.5838831067085266,1.609403848648071,XArbitraryZVertical,-0.4013131927311554,0.764271867320135,-0.4202523472598069,0.2796859363476054,0.0902065634727478,0.8668574094772339,0.4903275370597839,0,0,0,-1,-1,3037.026882041667,unknown,2,2022-06-02T10:51:32.749+02:00,2022-06-02T10:17:13.754+02:00,512,1.445976,0,0,397.4887,0,0,2022-06-02T10:51:32.748+02:00,675852692.7483444,0,5.351562,101.3188,1,0.79
2022-06-02T10:51:33.910+02:00,1654159891.007419,53.22895481256138,10.39874564857259,39.6105,0,0.95,55.546875,97.82255668919125,4,5,-9999,3038.188875,0.2502593994140625,0.2769622802734375,1.904190063476562,3038.183878,0.8680035943226598,2.948584557550605,-1.046444011071278,-0.3802157640457153,-1.89422869682312,-0.3293667137622833,0.1870956867933273,-0.6083698868751526,1.535834789276123,XArbitraryZVertical,-0.4062344828944375,0.7620050806612534,-0.4161428418743547,0.2848631493021191,0.09603118896484375,0.8656483888626099,0.4913564026355743,0,0,0,-1,-1,3037.026882041667,unknown,2,2022-06-02T10:51:32.749+02:00,2022-06-02T10:17:13.754+02:00,512,1.445976,0,0,397.4887,0,0,2022-06-02T10:51:32.748+02:00,675852692.7483444,0,5.351562,101.3188,1,0.79
2022-06-02T10:51:33.921+02:00,1654159891.007419,53.22895481256138,10.39874564857259,39.6105,0,0.95,55.546875,97.82255668919125,4,5,-9999,3038.198869,0.2014617919921875,0.2749786376953125,1.7625732421875,3038.193872,0.8774743640346149,2.935704601396089,-1.042909694085263,-0.5009021162986755,-2.324999094009399,-0.4613689482212067,0.1472829878330231,-0.5869113206863403,1.411119818687439,XArbitraryZVertical,-0.4127311032061508,0.7590705850393861,-0.4107237424835329,0.2911543323253709,0.1029764488339424,0.8638735413551331,0.4930702447891235,0,0,0,-1,-1,3037.026882041667,unknown,2,2022-06-02T10:51:32.749+02:00,2022-06-02T10:17:13.754+02:00,512,1.445976,0,0,397.4887,0,0,2022-06-02T10:51:32.748+02:00,675852692.7483444,0,5.351562,101.3188,1,0.79
2022-06-02T10:51:33.930+02:00,1654159891.007419,53.22895481256138,10.39874564857259,39.6105,0,0.95,55.546875,97.82255668919125,4,5,-9999,3038.208863,0.1353302001953125,0.2557525634765625,1.633224487304688,3038.203866,0.8900498056844982,2.921136229254956,-1.038867611687819,-0.5579292178153992,-2.747071743011475,-0.611933171749115,0.09055060148239136,-0.5868518352508545,1.267651915550232,XArbitraryZVertical,-0.420718925921577,0.755285491666059,-0.4042123375043288,0.2985829646742391,0.1109111979603767,0.8618304133415222,0.4949211776256561,0,0,0,-1,-1,3037.026882041667,unknown,2,2022-06-02T10:51:32.749+02:00,2022-06-02T10:17:13.754+02:00,512,1.445976,0,0,397.4887,0,0,2022-06-02T10:51:32.748+02:00,675852692.7483444,0,5.351562,101.3188,1,0.79
2022-06-02T10:51:33.941+02:00,1654159891.007419,53.22895481256138,10.39874564857259,39.6105,0,0.95,55.546875,97.82255668919125,4,5,-9999,3038.218858,0.06744384765625,0.260528564453125,1.554779052734375,3038.213861,0.9058941105454562,2.905201306003088,-1.034971411898828,-0.5636308789253235,-3.136582851409912,-0.7895135879516602,0.01576150953769684,-0.6040953993797302,1.136873006820679,XArbitraryZVertical,-0.4301172956241632,0.7504497365908988,-0.3968612964601217,0.307124188052024,0.119568720459938,0.8598477840423584,0.4963513910770416,0,0,0,-1,-1,3037.026882041667,unknown,2,2022-06-02T10:51:32.749+02:00,2022-06-02T10:17:13.754+02:00,512,1.445976,0,0,397.4887,0,0,2022-06-02T10:51:32.748+02:00,675852692.7483444,0,5.351562,101.3188,1,0.79
2022-06-02T10:51:33.950+02:00,1654159891.007419,53.22895481256138,10.39874564857259,39.6105,0,0.95,55.546875,97.82255668919125,4,5,-9999,3038.228852,-0.004669189453125,0.3059234619140625,1.521041870117188,3038.223855,0.9250557136947217,2.888205662567319,-1.031723677320191,-0.5434467792510986,-3.553930521011353,-0.9576210975646973,-0.06124252080917358,-0.5976564288139343,1.057829976081848,XArbitraryZVertical,-0.4408141958826396,0.7444175176595617,-0.388871726661457,0.3167085457785927,0.1286864280700684,0.8581851124763489,0.4969491958618164,0,0,0,-1,-1,3037.026882041667,unknown,2,2022-06-02T10:51:32.749+02:00,2022-06-02T10:17:13.754+02:00,512,1.445976,0,0,397.4887,0,0,2022-06-02T10:51:32.748+02:00,675852692.7483444,0,5.351562,101.3188,1,0.79
2022-06-02T10:51:33.961+02:00,1654159891.007419,53.22895481256138,10.39874564857259,39.6105,0,0.95,55.546875,97.82255668919125,4,5,-9999,3038.238846,-0.1062469482421875,0.37640380859375,1.519851684570312,3038.233849,0.9474976989490719,2.870034241254999,-1.029538261948036,-0.4754976332187653,-3.932543754577637,-1.15978217124939,-0.1428667306900024,-0.5511378049850464,1.024707794189453,XArbitraryZVertical,-0.4527503652413829,0.7370102330116363,-0.3803254402096886,0.3273920094808471,0.1381975561380386,0.8570612072944641,0.4963339567184448,0,0,0,-1,-1,3037.026882041667,unknown,2,2022-06-02T10:51:32.749+02:00,2022-06-02T10:17:13.754+02:00,512,1.445976,0,0,397.4887,0,0,2022-06-02T10:51:32.748+02:00,675852692.7483444,0,5.351562,101.3188,1,0.79
2022-06-02T10:51:33.970+02:00,1654159891.007419,53.22895481256138,10.39874564857259,39.6105,0,0.95,55.546875,97.82255668919125,4,5,-9999,3038.24884,-0.2052764892578125,0.4468231201171875,1.526931762695312,3038.243843,0.9730407877789872,2.850758654264297,-1.028561076982813,-0.4533076584339142,-4.286141872406006,-1.323741793632507,-0.2542253732681274,-0.4801537394523621,1.025471687316895,XArbitraryZVertical,-0.4657860925756021,0.7281712016494962,-0.3712536853590775,0.3390878752132545,0.1479784399271011,0.856557309627533,0.4943799674510956,0,0,0,-1,-1,3037.026882041667,unknown,2,2022-06-02T10:51:32.749+02:00,2022-06-02T10:17:13.754+02:00,512,1.445976,0,0,397.4887,0,0,2022-06-02T10:51:32.748+02:00,675852692.7483444,0,5.351562,101.3188,1,0.79
2022-06-02T10:51:33.981+02:00,1654159891.007419,53.22895481256138,10.39874564857259,39.6105,0,0.95,55.546875,97.82255668919125,4,5,-9999,3038.258835,-0.2761688232421875,0.472564697265625,1.525543212890625,3038.253838,1.001450686517579,2.830773270859733,-1.028459077345316,-0.436607837677002,-4.591896057128906,-1.472450971603394,-0.3631318807601929,-0.4096816182136536,1.035524129867554,XArbitraryZVertical,-0.4797257316107096,0.718029913746064,-0.3615837298401882,0.351501686023016,0.1578554064035416,0.8565046787261963,0.4914074838161469,0,0,0,-1,-1,3037.026882041667,unknown,2,2022-06-02T10:51:32.749+02:00,2022-06-02T10:17:13.754+02:00,512,1.445976,0,0,397.4887,0,0,2022-06-02T10:51:32.748+02:00,675852692.7483444,0,5.351562,101.3188,1,0.79
2022-06-02T10:51:33.990+02:00,1654159891.007419,53.22895481256138,10.39874564857259,39.6105,0,0.95,55.546875,97.82255668919125,4,5,-9999,3038.268829,-0.33203125,0.4925689697265625,1.492950439453125,3038.263832,1.032555778934418,2.810132909320075,-1.029385157434702,-0.4070651233196259,-4.792119026184082,-1.648374915122986,-0.4438744783401489,-0.384417712688446,1.038248658180237,XArbitraryZVertical,-0.4944299028946864,0.7065311775683432,-0.3513534355518895,0.3645592422600235,0.1677056550979614,0.8569822907447815,0.487294465303421,0,0,0,-1,-1,3037.026882041667,unknown,2,2022-06-02T10:51:32.749+02:00,2022-06-02T10:17:13.754+02:00,512,1.445976,0,0,397.4887,0,0,2022-06-02T10:51:32.748+02:00,675852692.7483444,0,5.351562,101.3188,1,0.79
2022-06-02T10:51:34.001+02:00,1654159891.007419,53.22895481256138,10.39874564857259,39.6105,0,0.95,55.546875,97.82255668919125,4,5,-9999,3038.278823,-0.4168853759765625,0.5797576904296875,1.491668701171875,3038.273826,1.066399696126759,2.789507323451636,-1.031225264094813,-0.4326979219913483,-5.097564697265625,-1.760666251182556,-0.5092072486877441,-0.3653600811958313,1.010698914527893,XArbitraryZVertical,-0.5097406409334977,0.6937508608254411,-0.3406137264170968,0.377963783729407,0.1771760880947113,0.8579291105270386,0.4822515547275543,0,0,0,-1,-1,3037.026882041667,unknown,2,2022-06-02T10:51:32.749+02:00,2022-06-02T10:17:13.754+02:00,512,1.445976,0,0,397.4887,0,0,2022-06-02T10:51:32.748+02:00,675852692.7483444,0,5.351562,101.3188,1,0.79
2022-06-02T10:51:34.010+02:00,1654159891.007419,53.22895481256138,10.39874564857259,39.6105,0,0.95,55.546875,97.82255668919125,4,5,-9999,3038.288817,-0.510833740234375,0.6519622802734375,1.4375,3038.28382,1.102890689112549,2.768519681046661,-1.033479162890886,-0.4685025215148926,-5.370580196380615,-1.901164054870605,-0.603437602519989,-0.2793272137641907,1.01504373550415,XArbitraryZVertical,-0.5256539666067374,0.6797060803767769,-0.3290363890758874,0.391691961918991,0.1865522563457489,0.8590849637985229,0.4766249060630798,0,0,0,-1,-1,3037.026882041667,unknown,2,2022-06-02T10:51:32.749+02:00,2022-06-02T10:17:13.754+02:00,512,1.445976,0,0,397.4887,0,0,2022-06-02T10:51:32.748+02:00,675852692.7483444,0,5.351562,101.3188,1,0.79
2022-06-02T10:51:34.020+02:00,1654159891.007419,53.22895481256138,10.39874564857259,39.6105,0,0.95,55.546875,97.82255668919125,4,5,-9999,3038.298812,-0.598663330078125,0.746307373046875,1.413055419921875,3038.293814,1.142014331270174,2.747141441368745,-1.036657723132969,-0.442613959312439,-5.635242462158203,-2.036983489990234,-0.7064815759658813,-0.2087452411651611,0.9674950838088989,XArbitraryZVertical,-0.5420634989291435,0.6642059582527344,-0.3167564365070613,0.4057868323977595,0.1956478655338287,0.8607074618339539,0.4700047969818115,0,0,0,-1,-1,3037.026882041667,unknown,2,2022-06-02T10:51:32.749+02:00,2022-06-02T10:17:13.754+02:00,512,1.445976,0,0,397.4887,0,0,2022-06-02T10:51:32.748+02:00,675852692.7483444,0,5.351562,101.3188,1,0.79
2022-06-02T10:51:34.030+02:00,1654159891.007419,53.22895481256138,10.39874564857259,39.6105,0,0.95,55.546875,97.82255668919125,4,5,-9999,3038.308806,-0.7007598876953125,0.82452392578125,1.39239501953125,3038.303809,1.183211326817013,2.725023920854806,-1.040890759726084,-0.4355179667472839,-5.894434452056885,-2.144672155380249,-0.8031817674636841,-0.1165474057197571,0.9508283734321594,XArbitraryZVertical,-0.5587470547320722,0.6472365843147981,-0.3037812460250949,0.4202421557064633,0.2045184373855591,0.8628547787666321,0.462226927280426,0,0,0,-1,-1,3037.026882041667,unknown,2,2022-06-02T10:51:32.749+02:00,2022-06-02T10:17:13.754+02:00,512,1.445976,0,0,397.4887,0,0,2022-06-02T10:51:32.748+02:00,675852692.7483444,0,5.351562,101.3188,1,0.79
2022-06-02T10:51:34.040+02:00,1654159891.007419,53.22895481256138,10.39874564857259,39.6105,0,0.95,55.546875,97.82255668919125,4,5,-9999,3038.3188,-0.7989501953125,0.845855712890625,1.386978149414062,3038.313803,1.226549594466303,2.702173768379279,-1.046157294798293,-0.4165891408920288,-6.17675256729126,-2.259156703948975,-0.9138497710227966,-0.04098093509674072,0.9390804767608643,XArbitraryZVertical,-0.5756379328821959,0.6287274394899582,-0.2900294557237787,0.4350007394807798,0.2130898833274841,0.8655048012733459,0.4533144533634186,0,0,0,-1,-1,3037.026882041667,unknown,2,2022-06-02T10:51:32.749+02:00,2022-06-02T10:17:13.754+02:00,512,1.445976,0,0,397.4887,0,0,2022-06-02T10:51:32.748+02:00,675852692.7483444,0,5.351562,101.3188,1,0.79
2022-06-02T10:51:34.051+02:00,1654159891.007419,53.22895481256138,10.39874564857259,39.6105,0,0.95,55.546875,97.82255668919125,4,5,-9999,3038.328794,-0.870574951171875,0.8538818359375,1.475021362304688,3038.323797,1.271533637607021,2.677956126815725,-1.05257546263927,-0.3986562192440033,-6.478299140930176,-2.323323249816895,-1.020465731620789,-0.02284640073776245,0.9439345598220825,XArbitraryZVertical,-0.5925661611707636,0.6085942642888916,-0.2754070985324801,0.4501433738082513,0.221515491604805,0.8687018156051636,0.4430432617664337,0,0,0,-1,-1,3037.026882041667,unknown,2,2022-06-02T10:51:32.749+02:00,2022-06-02T10:17:13.754+02:00,512,1.445976,0,0,397.4887,0,0,2022-06-02T10:51:32.748+02:00,675852692.7483444,0,5.351562,101.3188,1,0.79
2022-06-02T10:51:34.061+02:00,1654159891.007419,53.22895481256138,10.39874564857259,39.6105,0,0.95,55.546875,97.82255668919125,4,5,-9999,3038.338789,-0.9376983642578125,0.8850860595703125,1.4971923828125,3038.333791,1.316901688332674,2.651462379208452,-1.059486461316926,-0.42479407787323,-6.716957092285156,-2.27808690071106,-1.100917816162109,-0.0182223916053772,1.043308138847351,XArbitraryZVertical,-0.609216033910035,0.5871221891773908,-0.2596212191555577,0.4655536984684769,0.2303429991006851,0.872104287147522,0.4317132830619812,0,0,0,-1,-1,3037.026882041667,unknown,2,2022-06-02T10:51:32.749+02:00,2022-06-02T10:17:13.754+02:00,512,1.445976,0,0,397.4887,0,0,2022-06-02T10:51:32.748+02:00,675852692.7483444,0,5.351562,101.3188,1,0.79
2022-06-02T10:51:34.071+02:00,1654159891.007419,53.22895481256138,10.39874564857259,39.6105,0,0.95,55.546875,97.82255668919125,4,5,-9999,3038.348783,-0.991668701171875,0.906951904296875,1.525161743164062,3038.343786,1.361674606560961,2.622364751799482,-1.067055186793325,-0.3540858328342438,-6.941833972930908,-2.274348020553589,-1.177221417427063,0.00930321216583252,1.07810640335083,XArbitraryZVertical,-0.625248111320401,0.5644534735201223,-0.2428163835130094,0.4811415768761047,0.2395230978727341,0.87578284740448,0.4190858602523804,0,0,0,-1,-1,3037.026882041667,unknown,2,2022-06-02T10:51:32.749+02:00,2022-06-02T10:17:13.754+02:00,512,1.445976,0,0,397.4887,0,0,2022-06-02T10:51:32.748+02:00,675852692.7483444,0,5.351562,101.3188,1,0.79
2022-06-02T10:51:34.081+02:00,1654159891.007419,53.22895481256138,10.39874564857259,39.6105,0,0.95,55.546875,97.82255668919125,4,5,-9999,3038.358777,-1.040740966796875,0.9006195068359375,1.509262084960938,3038.35378,1.406127835906856,2.5906408190495,-1.075498225284304,-0.3786987960338593,-7.219836235046387,-2.245308876037598,-1.240484237670898,0.02712470293045044,1.120198726654053,XArbitraryZVertical,-0.6406518688934532,0.5404133831042444,-0.2249640887395482,0.4969000212555105,0.2488155215978622,0.879827082157135,0.4049628973007202,0,0,0,-1,-1,3037.026882041667,unknown,2,2022-06-02T10:51:32.749+02:00,2022-06-02T10:17:13.754+02:00,512,1.445976,0,0,397.4887,0,0,2022-06-02T10:51:32.748+02:00,675852692.7483444,0,5.351562,101.3188,1,0.79
2022-06-02T10:51:34.091+02:00,1654159891.007419,53.22895481256138,10.39874564857259,39.6105,0,0.95,55.546875,97.82255668919125,4,5,-9999,3038.368771,-1.1326904296875,0.8262786865234375,1.413238525390625,3038.363774,1.44989612054741,2.555028604644354,-1.085527328844031,-0.08871888369321823,-7.656644344329834,-2.33612585067749,-1.298920154571533,0.01607006788253784,1.12078332901001,XArbitraryZVertical,-0.6553248786914723,0.5145761270688775,-0.2059641178277754,0.5131661361752461,0.2581792771816254,0.8845494985580444,0.3884785771369934,0,0,0,-1,-1,3037.026882041667,unknown,2,2022-06-02T10:51:32.749+02:00,2022-06-02T10:17:13.754+02:00,512,1.445976,0,0,397.4887,0,0,2022-06-02T10:51:32.748+02:00,675852692.7483444,0,5.351562,101.3188,1,0.79
2022-06-02T10:51:34.101+02:00,1654159891.007419,53.22895481256138,10.39874564857259,39.6105,0,0.95,55.546875,97.82255668919125,4,5,-9999,3038.378765,-1.18365478515625,0.955657958984375,1.306015014648438,3038.373768,1.491136399700032,2.512412628678055,-1.100080743238449,0.2771262526512146,-8.164823532104492,-2.417005300521851,-1.399581074714661,-0.06496542692184448,1.046559691429138,XArbitraryZVertical,-0.6687805068739155,0.4858723997200408,-0.1862468529615437,0.5310109698910005,0.2668906152248383,0.8912439942359924,0.3666787147521973,0,0,0,-1,-1,3037.026882041667,unknown,2,2022-06-02T10:51:32.749+02:00,2022-06-02T10:17:13.754+02:00,512,1.445976,0,0,397.4887,0,0,2022-06-02T10:51:32.748+02:00,675852692.7483444,0,5.351562,101.3188,1,0.79
2022-06-02T10:51:34.111+02:00,1654159891.007419,53.22895481256138,10.39874564857259,39.6105,0,0.95,55.546875,97.82255668919125,4,5,-9999,3038.38876,-1.251724243164062,1.137481689453125,1.313613891601562,3038.383763,1.527560847571272,2.461645340755973,-1.118088510154263,0.6384913921356201,-8.518399238586426,-2.375469207763672,-1.458672046661377,0.05639177560806274,0.9658887386322021,XArbitraryZVertical,-0.6805325636366765,0.4549048993935326,-0.1655981205138442,0.5500127716276608,0.2750171720981598,0.8992660045623779,0.3401260673999786,0,0,0,-1,-1,3037.026882041667,unknown,2,2022-06-02T10:51:32.749+02:00,2022-06-02T10:17:13.754+02:00,512,1.445976,0,0,397.4887,0,0,2022-06-02T10:51:32.748+02:00,675852692.7483444,0,5.351562,101.3188,1,0.79
2022-06-02T10:51:34.121+02:00,1654159891.007419,53.22895481256138,10.39874564857259,39.6105,0,0.95,55.546875,97.82255668919125,4,5,-9999,3038.398754,-1.351181030273438,1.41290283203125,1.495254516601562,3038.393757,1.55669040645262,2.400251978233615,-1.140357075052378,1.087699890136719,-9.074416160583496,-2.412328481674194,-1.533496975898743,0.2286989688873291,1.005850791931152,XArbitraryZVertical,-0.6901255309417484,0.421435936170424,-0.1441660935513811,0.5703810178501121,0.2817727029323578,0.9087825417518616,0.3077629804611206,0,0,0,-1,-1,3037.026882041667,unknown,2,2022-06-02T10:51:32.749+02:00,2022-06-02T10:17:13.754+02:00,512,1.445976,0,0,397.4887,0,0,2022-06-02T10:51:32.748+02:00,675852692.7483444,0,5.351562,101.3188,1,0.79
2022-06-02T10:51:34.131+02:00,1654159891.007419,53.22895481256138,10.39874564857259,39.6105,0,0.95,55.546875,97.82255668919125,4,5,-9999,3038.408748,-1.667251586914062,1.667800903320312,1.14080810546875,3038.403751,1.577849817653262,2.325878839072738,-1.165701422107816,1.357129216194153,-9.62071418762207,-2.379919290542603,-1.638174533843994,0.4938375949859619,1.225154757499695,XArbitraryZVertical,-0.6976700594212818,0.3851055686385895,-0.121022255865203,0.5918645198554173,0.2869934439659119,0.919064998626709,0.2700996100902557,0,0,0,-1,-1,3037.026882041667,unknown,2,2022-06-02T10:51:32.749+02:00,2022-06-02T10:17:13.754+02:00,512,1.445976,0,0,397.4887,0,0,2022-06-02T10:51:32.748+02:00,675852692.7483444,0,5.351562,101.3188,1,0.79
2022-06-02T10:51:34.141+02:00,1654159891.007419,53.22895481256138,10.39874564857259,39.6105,0,0.95,55.546875,97.82255668919125,4,5,-9999,3038.418742,-2.25653076171875,1.823196411132812,0.2978973388671875,3038.413745,1.584178382466753,2.234800653113874,-1.19616950065895,2.353970289230347,-9.723553657531738,-2.593907117843628,-1.955428600311279,0.7371564507484436,0.9152976274490356,XArbitraryZVertical,-0.7020504669331173,0.3462373821796793,-0.09784417146442874,0.614549566959337,0.2881769835948944,0.9306442141532898,0.2255103588104248,0,0,0,-1,-1,3037.026882041667,unknown,2,2022-06-02T10:51:32.749+02:00,2022-06-02T10:17:13.754+02:00,512,1.445976,0,0,397.4887,0,0,2022-06-02T10:51:32.748+02:00,675852692.7483444,0,5.351562,101.3188,1,0.79
2022-06-02T10:51:34.151+02:00,1654159891.007419,53.22895481256138,10.39874564857259,39.6105,0,0.95,55.546875,97.82255668919125,4,5,-9999,3038.428737,-2.630752563476562,1.981353759765625,0.0776824951171875,3038.42374,1.551665065362524,2.109289781033078,-1.234945417831379,3.910039663314819,-9.170389175415039,-2.427147388458252,-2.539462566375732,0.8790660500526428,0.1288783401250839,XArbitraryZVertical,-0.7005844473616306,0.3060895889510364,-0.0776470141586057,0.6398916884445125,0.28293177485466,0.9441302418708801,0.1690188050270081,0,0,0,-1,-1,3037.026882041667,unknown,2,2022-06-02T10:51:32.749+02:00,2022-06-02T10:17:13.754+02:00,512,1.445976,0,0,397.4887,0,0,2022-06-02T10:51:32.748+02:00,675852692.7483444,0,5.351562,101.3188,1,0.79
2022-06-02T10:51:34.161+02:00,1654159891.007419,53.22895481256138,10.39874564857259,39.6105,0,0.95,55.546875,97.82255668919125,4,5,-9999,3038.438731,-13.06719970703125,1.521835327148438,-10.53433227539062,3038.433734,1.452754954138293,1.958271493403907,-1.271036782486189,6.596515655517578,10.77074241638184,-0.4635697305202484,-2.904151439666748,1.025946021080017,-0.03389348834753036,XArbitraryZVertical,-0.6911449942563758,0.2794754026720529,-0.07021989302684212,0.6627828190012618,0.2733987271785736,0.9554075002670288,0.1115758046507835,0,0,0,-1,-1,3037.026882041667,unknown,2,2022-06-02T10:51:32.749+02:00,2022-06-02T10:17:13.754+02:00,512,1.445976,0,0,397.4887,0,0,2022-06-02T10:51:32.748+02:00,675852692.7483444,0,5.351562,101.3188,1,0.79
2022-06-02T10:51:34.171+02:00,1654159891.007419,53.22895481256138,10.39874564857259,39.6105,0,0.95,55.546875,97.82255668919125,4,5,-9999,3038.448725,1.41876220703125,4.142791748046875,-15.65457153320312,3038.443728,1.343143735107222,1.94753469184467,-1.256277197498145,1.318876266479492,4.512715816497803,2.970639705657959,-13.35486316680908,0.570889949798584,-10.64814186096191,XArbitraryZVertical,-0.6749816877886177,0.318283958398147,-0.09741614446737928,0.6584869445937419,0.2876634299755096,0.950945258140564,0.1138099133968353,0,0,0,-1,-1,3037.026882041667,unknown,2,2022-06-02T10:51:32.749+02:00,2022-06-02T10:17:13.754+02:00,512,1.445976,0,0,397.4887,0,0,2022-06-02T10:51:32.748+02:00,675852692.7483444,0,5.351562,101.3188,1,0.79
2022-06-02T10:51:34.181+02:00,1654159891.007419,53.22895481256138,10.39874564857259,39.6105,0,0.95,55.546875,97.82255668919125,4,5,-9999,3038.458719,1.393829345703125,3.448043823242188,-8.540924072265625,3038.453722,1.191188769881223,1.810706250098905,-1.223609999270223,5.695387363433838,-1.0113445520401,5.216225624084473,1.08825409412384,3.202457904815674,-15.7354211807251,XArbitraryZVertical,-0.6548079617618983,0.3341424607024601,-0.09047154508567612,0.6718557785585569,0.3305081129074097,0.9403337836265564,0.0808493047952652,0,0,0,-1,-1,3037.026882041667,unknown,2,2022-06-02T10:51:32.749+02:00,2022-06-02T10:17:13.754+02:00,512,1.445976,0,0,397.4887,0,0,2022-06-02T10:51:32.748+02:00,675852692.7483444,0,5.351562,101.3188,1,0.79
2022-06-02T10:51:34.191+02:00,1654159891.007419,53.22895481256138,10.39874564857259,39.6105,0,0.95,55.546875,97.82255668919125,4,5,-9999,3038.468714,-2.135528564453125,2.64764404296875,-2.040481567382812,3038.463717,1.003850457515098,1.644274023287944,-1.198650266960946,5.494394302368164,1.732626676559448,1.68442440032959,1.031195521354675,2.516494512557983,-8.567617416381836,XArbitraryZVertical,-0.627628145343308,0.3455860075669917,-0.09187858881602066,0.6915282942286517,0.3626338243484497,0.9315491318702698,0.0266935545951128,0,0,0,-1,-1,3037.026882041667,unknown,2,2022-06-02T10:51:32.749+02:00,2022-06-02T10:17:13.754+02:00,512,1.445976,0,0,397.4887,0,0,2022-06-02T10:51:32.748+02:00,675852692.7483444,0,5.351562,101.3188,1,0.79
2022-06-02T10:51:34.201+02:00,1654159891.007419,53.22895481256138,10.39874564857259,39.6105,0,0.95,55.546875,97.82255668919125,4,5,-9999,3038.478708,-2.052902221679688,1.257949829101562,1.907943725585938,3038.473711,0.8833813155267543,1.547021211125831,-1.188215057317488,3.399924278259277,1.257022738456726,0.5956539511680603,-2.508738994598389,1.719939708709717,-2.031606912612915,XArbitraryZVertical,-0.6095357276139265,0.3521772278777031,-0.1001196958083505,0.7031452829149555,0.3732104599475861,0.9277040958404541,-0.008874793536961079,0,0,0,-1,-1,3037.026882041667,unknown,2,2022-06-02T10:51:32.749+02:00,2022-06-02T10:17:13.754+02:00,512,1.445976,0,0,397.4887,0,0,2022-06-02T10:51:32.748+02:00,675852692.7483444,0,5.351562,101.3188,1,0.79
2022-06-02T10:51:34.210+02:00,1654159891.007419,53.22895481256138,10.39874564857259,39.6105,0,0.95,55.546875,97.82255668919125,4,5,-9999,3038.488702,-3.280029296875,0.5962677001953125,1.203598022460938,3038.483705,0.7949769200460221,1.480084738283092,-1.182538472684217,3.634613513946533,2.324832916259766,0.3071417808532715,-2.429922103881836,0.3323797583580017,1.942237734794617,XArbitraryZVertical,-0.5962436540936461,0.356856294918368,-0.1092463404285888,0.7107828362175468,0.3770197927951813,0.925570011138916,-0.03429418057203293,0,0,0,-1,-1,3037.026882041667,unknown,2,2022-06-02T10:51:32.749+02:00,2022-06-02T10:17:13.754+02:00,512,1.445976,0,0,397.4887,0,0,2022-06-02T10:51:32.748+02:00,675852692.7483444,0,5.351562,101.3188,1,0.79
2022-06-02T10:51:34.221+02:00,1654159891.007419,53.22895481256138,10.39874564857259,39.6105,0,0.95,55.546875,97.82255668919125,4,5,-9999,3038.498696,-2.707870483398438,0.72381591796875,-0.8676300048828125,3038.493699,0.7090908006433316,1.44468254917421,-1.172354754152624,2.810795545578003,6.184741020202637,0.9650174379348755,-3.664930105209351,-0.3253992199897766,1.252398252487183,XArbitraryZVertical,-0.5804247668991124,0.37243380858317,-0.1260028325306006,0.7131082037267925,0.3849008679389954,0.9216667413711548,-0.04880029708147049,0,0,0,-1,-1,3037.026882041667,unknown,2,2022-06-02T10:51:32.749+02:00,2022-06-02T10:17:13.754+02:00,512,1.445976,0,0,397.4887,0,0,2022-06-02T10:51:32.748+02:00,675852692.7483444,0,5.351562,101.3188,1,0.79
2022-06-02T10:51:34.231+02:00,1654159891.007419,53.22895481256138,10.39874564857259,39.6105,0,0.95,55.546875,97.82255668919125,4,5,-9999,3038.508691,-0.41717529296875,0.7623138427734375,-1.215286254882812,3038.503693,0.6721773485505754,1.469501297992331,-1.163552600238352,0.1777943670749664,5.027154445648193,0.3465566337108612,-3.101920127868652,-0.1944001913070679,-0.8275777697563171,XArbitraryZVertical,-0.5696461098844071,0.3943058975801098,-0.1433299238511942,0.7067408444554767,0.3940494954586029,0.9182159900665283,-0.04005233570933342,0,0,0,-1,-1,3037.026882041667,unknown,2,2022-06-02T10:51:32.749+02:00,2022-06-02T10:17:13.754+02:00,512,1.445976,0,0,397.4887,0,0,2022-06-02T10:51:32.748+02:00,675852692.7483444,0,5.351562,101.3188,1,0.79
2022-06-02T10:51:34.241+02:00,1654159891.007419,53.22895481256138,10.39874564857259,39.6105,0,0.95,55.546875,97.82255668919125,4,5,-9999,3038.518685,-0.1876373291015625,0.75927734375,-0.4615478515625,3038.513688,0.6874657887060059,1.527986773615544,-1.162544687451503,-1.130385041236877,4.184508800506592,0.1537061333656311,-0.8138166069984436,-0.1555026173591614,-1.198295950889587,XArbitraryZVertical,-0.568144342411901,0.4107515035805276,-0.1542659759523407,0.6962019256506931,0.3966412842273712,0.9178163409233093,-0.0169904176145792,0,0,0,-1,-1,3037.026882041667,unknown,2,2022-06-02T10:51:32.749+02:00,2022-06-02T10:17:13.754+02:00,512,1.445976,0,0,397.4887,0,0,2022-06-02T10:51:32.748+02:00,675852692.7483444,0,5.351562,101.3188,1,0.79
2022-06-02T10:51:34.251+02:00,1654159891.007419,53.22895481256138,10.39874564857259,39.6105,0,0.95,55.546875,97.82255668919125,4,5,-9999,3038.528679,-0.7768096923828125,1.058578491210938,-0.156280517578125,3038.523682,0.718096150376388,1.602654383121441,-1.15898780166692,-1.228968143463135,5.185232639312744,0.5767048001289368,-0.5877012014389038,-0.1571212410926819,-0.4742975234985352,XArbitraryZVertical,-0.5678859917156683,0.4288126464056172,-0.1636856515975322,0.6832511145034597,0.4000638723373413,0.9163984060287476,0.01274957042187452,0,0,0,-1,-1,3037.026882041667,unknown,2,2022-06-02T10:51:32.749+02:00,2022-06-02T10:17:13.754+02:00,512,1.445976,0,0,397.4887,0,0,2022-06-02T10:51:32.748+02:00,675852692.7483444,0,5.351562,101.3188,1,0.79
2022-06-02T10:51:34.260+02:00,1654159891.007419,53.22895481256138,10.39874564857259,39.6105,0,0.95,55.546875,97.82255668919125,4,5,-9999,3038.538673,-1.027236938476562,1.417282104492188,-0.0350494384765625,3038.533676,0.738015545627245,1.676113656291522,-1.152775269232708,-0.4065998792648315,5.772203922271729,0.5497902631759644,-1.18051278591156,0.1446842551231384,-0.1989554166793823,XArbitraryZVertical,-0.5648139301620099,0.4498028856228205,-0.175562972277559,0.6692085507088944,0.4037030637264252,0.9138940572738647,0.04267482459545135,0,0,0,-1,-1,3037.026882041667,unknown,2,2022-06-02T10:51:32.749+02:00,2022-06-02T10:17:13.754+02:00,512,1.445976,0,0,397.4887,0,0,2022-06-02T10:51:32.748+02:00,675852692.7483444,0,5.351562,101.3188,1,0.79
2022-06-02T10:51:34.270+02:00,1654159891.007419,53.22895481256138,10.39874564857259,39.6105,0,0.95,55.546875,97.82255668919125,4,5,-9999,3038.548668,-0.9746246337890625,1.627456665039062,0.3589630126953125,3038.54367,0.7398445944030326,1.737122149295124,-1.147291300525418,-0.03938192501664162,6.100656032562256,0.5779995322227478,-1.432523608207703,0.5056278109550476,-0.1030877903103828,XArbitraryZVertical,-0.5586520085552529,0.4710913211250223,-0.1901225668775564,0.655617387721225,0.4052866101264954,0.9116541147232056,0.06803819537162781,0,0,0,-1,-1,3037.026882041667,unknown,2,2022-06-02T10:51:32.749+02:00,2022-06-02T10:17:13.754+02:00,512,1.445976,0,0,397.4887,0,0,2022-06-02T10:51:32.748+02:00,675852692.7483444,0,5.351562,101.3188,1,0.79
2022-06-02T10:51:34.281+02:00,1654159891.007419,53.22895481256138,10.39874564857259,39.6105,0,0.95,55.546875,97.82255668919125,4,5,-9999,3038.558662,-0.8166046142578125,1.555526733398438,0.8516693115234375,3038.553665,0.7451815219360605,1.804128704842958,-1.140030003705799,-0.8463492393493652,6.335898876190186,0.767571747303009,-1.380875825881958,0.7188103795051575,0.2624127864837646,XArbitraryZVertical,-0.5520811900848964,0.4934383813717474,-0.2043473837566833,0.6402865676549505,0.4062512516975403,0.9086460471153259,0.09655015170574188,0,0,0,-1,-1,3037.026882041667,unknown,2,2022-06-02T10:51:32.749+02:00,2022-06-02T10:17:13.754+02:00,512,1.445976,0,0,397.4887,0,0,2022-06-02T10:51:32.748+02:00,675852692.7483444,0,5.351562,101.3188,1,0.79
2022-06-02T10:51:34.290+02:00,1654159891.007419,53.22895481256138,10.39874564857259,39.6105,0,0.95,55.546875,97.82255668919125,4,5,-9999,3038.568656,-0.757720947265625,1.42205810546875,1.187347412109375,3038.563659,0.7764489490749713,1.896348929973371,-1.127265108404198,-2.443108797073364,6.450641632080078,0.9692888855934143,-1.223195672035217,0.6522846817970276,0.7144191265106201,XArbitraryZVertical,-0.5483237194664776,0.5176545060117104,-0.2151010866505479,0.6205694031750266,0.4065910279750824,0.9032419323921204,0.1372501850128174,0,0,0,-1,-1,3037.026882041667,unknown,2,2022-06-02T10:51:32.749+02:00,2022-06-02T10:17:13.754+02:00,512,1.445976,0,0,397.4887,0,0,2022-06-02T10:51:32.748+02:00,675852692.7483444,0,5.351562,101.3188,1,0.79
2022-06-02T10:51:34.300+02:00,1654159891.007419,53.22895481256138,10.39874564857259,39.6105,0,0.95,55.546875,97.82255668919125,4,5,-9999,3038.57865,-0.694610595703125,1.398895263671875,1.4669189453125,3038.573653,0.8358243290830951,2.014686575784318,-1.104481254671997,-4.122730731964111,6.564611434936523,1.30213189125061,-1.163746953010559,0.5288268327713013,0.994265079498291,XArbitraryZVertical,-0.5481887343676938,0.544086621373761,-0.2207863111970483,0.5955771136932426,0.4060259461402893,0.8932310938835144,0.1930822730064392,0,0,0,-1,-1,3037.026882041667,unknown,2,2022-06-02T10:51:32.749+02:00,2022-06-02T10:17:13.754+02:00,512,1.445976,0,0,397.4887,0,0,2022-06-02T10:51:32.748+02:00,675852692.7483444,0,5.351562,101.3188,1,0.79
2022-06-02T10:51:34.310+02:00,1654159891.007419,53.22895481256138,10.39874564857259,39.6105,0,0.95,55.546875,97.82255668919125,4,5,-9999,3038.588644,-0.5702667236328125,1.398712158203125,1.536727905273438,3038.583647,0.9100392531501085,2.146111178511827,-1.067782786458485,-5.385937690734863,6.579582214355469,1.716887831687927,-1.099075436592102,0.5227612257003784,1.204626321792603,XArbitraryZVertical,-0.550657951811291,0.5726447910780283,-0.2210198473229525,0.5656888095350634,0.4044648408889771,0.8761337995529175,0.2622924745082855,0,0,0,-1,-1,3037.026882041667,unknown,2,2022-06-02T10:51:32.749+02:00,2022-06-02T10:17:13.754+02:00,512,1.445976,0,0,397.4887,0,0,2022-06-02T10:51:32.748+02:00,675852692.7483444,0,5.351562,101.3188,1,0.79
2022-06-02T10:51:34.321+02:00,1654159891.007419,53.22895481256138,10.39874564857259,39.6105,0,0.95,55.546875,97.82255668919125,4,5,-9999,3038.598639,-0.39471435546875,1.430389404296875,1.542404174804688,3038.593642,0.9762729554182623,2.268380069927007,-1.018670309770787,-5.719924926757812,6.395303249359131,2.234416723251343,-0.9722404479980469,0.5473006963729858,1.199806928634644,XArbitraryZVertical,-0.5531499663530061,0.6020677084404122,-0.2171074973937534,0.5332952754879627,0.4019737243652344,0.8514113426208496,0.336920827627182,0,0,0,-1,-1,3037.026882041667,unknown,2,2022-06-02T10:51:32.749+02:00,2022-06-02T10:17:13.754+02:00,512,1.445976,0,0,397.4887,0,0,2022-06-02T10:51:32.748+02:00,675852692.7483444,0,5.351562,101.3188,1,0.79
2022-06-02T10:51:34.331+02:00,1654159891.007419,53.22895481256138,10.39874564857259,39.6105,0,0.95,55.546875,97.82255668919125,4,5,-9999,3038.608633,-0.3423614501953125,1.417449951171875,1.581039428710938,3038.603636,1.019779849686376,2.367281603980921,-0.9625252296228916,-5.3575439453125,6.099019527435303,2.732476472854614,-0.7942852973937988,0.6097520589828491,1.133873224258423,XArbitraryZVertical,-0.5531585964271741,0.6310950646032366,-0.2107685500407716,0.5013094297826804,0.3995709419250488,0.8206372261047363,0.4085308313369751,0,0,0,-1,-1,3037.026882041667,unknown,2,2022-06-02T10:51:32.749+02:00,2022-06-02T10:17:13.754+02:00,512,1.445976,0,0,397.4887,0,0,2022-06-02T10:51:32.748+02:00,675852692.7483444,0,5.351562,101.3188,1,0.79
2022-06-02T10:51:34.340+02:00,1654159891.007419,53.22895481256138,10.39874564857259,39.6105,0,0.95,55.546875,97.82255668919125,4,5,-9999,3038.618627,-0.3664398193359375,1.403671264648438,1.645660400390625,3038.61363,1.037867473269255,2.440809032872217,-0.9070377716596363,-4.267058849334717,5.700740337371826,3.148643016815186,-0.7396212220191956,0.6297676563262939,1.110145330429077,XArbitraryZVertical,-0.5493259841833696,0.6585498927234972,-0.2042995225304068,0.4720324370876262,0.3972597420215607,0.7876822352409363,0.4708940088748932,0,0,0,-1,-1,3037.026882041667,unknown,2,2022-06-02T10:51:32.749+02:00,2022-06-02T10:17:13.754+02:00,512,1.445976,0,0,397.4887,0,0,2022-06-02T10:51:32.748+02:00,675852692.7483444,0,5.351562,101.3188,1,0.79
2022-06-02T10:51:34.350+02:00,1654159891.007419,53.22895481256138,10.39874564857259,39.6105,0,0.95,55.546875,97.82255668919125,4,5,-9999,3038.628621,-0.3881378173828125,1.21307373046875,1.814315795898438,3038.623624,1.032121889415274,2.491324618721355,-0.8579422117327613,-2.938856363296509,5.268453121185303,3.572721004486084,-0.7623684406280518,0.6471729278564453,1.125131130218506,XArbitraryZVertical,-0.5407985611415674,0.6839601216602765,-0.1994681142551968,0.4471553222417512,0.395928680896759,0.756498396396637,0.5205290913581848,0,0,0,-1,-1,3037.026882041667,unknown,2,2022-06-02T10:51:32.749+02:00,2022-06-02T10:17:13.754+02:00,512,1.445976,0,0,397.4887,0,0,2022-06-02T10:51:32.748+02:00,675852692.7483444,0,5.351562,101.3188,1,0.79
2022-06-02T10:51:34.360+02:00,1654159891.007419,53.22895481256138,10.39874564857259,39.6105,0,0.95,55.546875,97.82255668919125,4,5,-9999,3038.638616,-0.3608245849609375,0.88079833984375,1.957870483398438,3038.633619,1.006129867010768,2.521717588078026,-0.8184010486550675,-1.327846765518188,4.65744161605835,3.905951261520386,-0.7851415872573853,0.4830197691917419,1.258070230484009,XArbitraryZVertical,-0.5275519336443827,0.7069736690387485,-0.197069690520005,0.4278326586633605,0.3970038592815399,0.7300540804862976,0.5562456250190735,0,0,0,-1,-1,3037.026882041667,unknown,2,2022-06-02T10:51:32.749+02:00,2022-06-02T10:17:13.754+02:00,512,1.445976,0,0,397.4887,0,0,2022-06-02T10:51:32.748+02:00,675852692.7483444,0,5.351562,101.3188,1,0.79
2022-06-02T10:51:34.370+02:00,1654159891.007419,53.22895481256138,10.39874564857259,39.6105,0,0.95,55.546875,97.82255668919125,4,5,-9999,3038.64861,-0.369781494140625,0.720306396484375,2.070541381835938,3038.643613,0.9626802231841449,2.533980353349765,-0.7913278436805601,0.3358131647109985,4.066964149475098,4.134839534759521,-0.7621170282363892,0.1695109605789185,1.380779027938843,XArbitraryZVertical,-0.5098346510293248,0.7270586350042127,-0.1981843333489618,0.4149423541918031,0.4012923538684845,0.711287260055542,0.5770912766456604,0,0,0,-1,-1,3037.026882041667,unknown,2,2022-06-02T10:51:32.749+02:00,2022-06-02T10:17:13.754+02:00,512,1.445976,0,0,397.4887,0,0,2022-06-02T10:51:32.748+02:00,675852692.7483444,0,5.351562,101.3188,1,0.79
2022-06-02T10:51:34.380+02:00,1654159891.007419,53.22895481256138,10.39874564857259,39.6105,0,0.95,55.546875,97.82255668919125,4,5,-9999,3038.658604,-0.3207244873046875,0.6226806640625,2.173660278320312,3038.653607,0.9047307522959096,2.530519579578641,-0.7760200430748416,1.821952819824219,3.421501874923706,4.358936309814453,-0.7792683839797974,0.01986175775527954,1.485992193222046,XArbitraryZVertical,-0.4882247375879916,0.7442520910097482,-0.2028246751496782,0.4081512504030537,0.4094868004322052,0.7004444599151611,0.5845491290092468,0,0,0,-1,-1,3037.026882041667,unknown,2,2022-06-02T10:51:32.749+02:00,2022-06-02T10:17:13.754+02:00,512,1.445976,0,0,397.4887,0,0,2022-06-02T10:51:32.748+02:00,675852692.7483444,0,5.351562,101.3188,1,0.79
2022-06-02T10:51:34.390+02:00,1654159891.007419,53.22895481256138,10.39874564857259,39.6105,0,0.95,55.546875,97.82255668919125,4,5,-9999,3038.668598,-0.237945556640625,0.5981597900390625,2.187835693359375,3038.663601,0.8337415535423459,2.511702421967124,-0.7705447311892655,3.141599655151367,2.749858379364014,4.54060697555542,-0.7433905601501465,-0.07384568452835083,1.593828916549683,XArbitraryZVertical,-0.463208006387877,0.7585208937320805,-0.2104955279070345,0.4071558420267083,0.4226660132408142,0.6965262293815613,0.5798311829566956,0,0,0,-1,-1,3037.026882041667,unknown,2,2022-06-02T10:51:32.749+02:00,2022-06-02T10:17:13.754+02:00,512,1.445976,0,0,397.4887,0,0,2022-06-02T10:51:32.748+02:00,675852692.7483444,0,5.351562,101.3188,1,0.79
2022-06-02T10:51:34.400+02:00,1654159891.007419,53.22895481256138,10.39874564857259,39.6105,0,0.95,55.546875,97.82255668919125,4,5,-9999,3038.678593,-0.181304931640625,0.637054443359375,2.228225708007812,3038.673596,0.7524848955683687,2.479740851295687,-0.7714693912082669,3.936527490615845,2.194801807403564,4.660463809967041,-0.678528904914856,-0.0990297794342041,1.622315526008606,XArbitraryZVertical,-0.4356559186989515,0.7700414877146377,-0.2203242760516325,0.4107274759465321,0.4405832290649414,0.6971893906593323,0.5655199289321899,0,0,0,-1,-1,3037.026882041667,unknown,2,2022-06-02T10:51:32.749+02:00,2022-06-02T10:17:13.754+02:00,512,1.445976,0,0,397.4887,0,0,2022-06-02T10:51:32.748+02:00,675852692.7483444,0,5.351562,101.3188,1,0.79
2022-06-02T10:51:34.410+02:00,1654159891.007419,53.22895481256138,10.39874564857259,39.6105,0,0.95,55.546875,97.82255668919125,4,5,-9999,3038.688587,-0.0367889404296875,0.5218658447265625,2.2525634765625,3038.68359,0.6640260947268158,2.437271817900291,-0.7747910858040959,4.595033168792725,1.656355142593384,4.756090641021729,-0.6439987421035767,-0.06251251697540283,1.683688879013062,XArbitraryZVertical,-0.4064612411902985,0.7791390361510347,-0.2311325492972261,0.4175035521507129,0.4626937806606293,0.6995667815208435,0.5445367693901062,0,0,0,-1,-1,3037.026882041667,unknown,2,2022-06-02T10:51:32.749+02:00,2022-06-02T10:17:13.754+02:00,512,1.445976,0,0,397.4887,0,0,2022-06-02T10:51:32.748+02:00,675852692.7483444,0,5.351562,101.3188,1,0.79
2022-06-02T10:51:34.420+02:00,1654159891.007419,53.22895481256138,10.39874564857259,39.6105,0,0.95,55.546875,97.82255668919125,4,5,-9999,3038.698581,0.134552001953125,0.415191650390625,2.211822509765625,3038.693584,0.5684297088863582,2.384299109456364,-0.7796454228529965,5.23681116104126,1.177219867706299,4.741647243499756,-0.5253273248672485,-0.1811615228652954,1.73576295375824,XArbitraryZVertical,-0.3758402567321616,0.7855853495553423,-0.2430613423635831,0.4272246470957662,0.488538384437561,0.7030273079872131,0.5168004631996155,0,0,0,-1,-1,3037.026882041667,unknown,2,2022-06-02T10:51:32.749+02:00,2022-06-02T10:17:13.754+02:00,512,1.445976,0,0,397.4887,0,0,2022-06-02T10:51:32.748+02:00,675852692.7483444,0,5.351562,101.3188,1,0.79
2022-06-02T10:51:34.430+02:00,1654159891.007419,53.22895481256138,10.39874564857259,39.6105,0,0.95,55.546875,97.82255668919125,4,5,-9999,3038.708575,0.2462615966796875,0.500762939453125,2.21649169921875,3038.703578,0.4650860221371835,2.320712882798312,-0.7863326680974699,6.127187728881836,0.7016866207122803,4.624735832214355,-0.3823865652084351,-0.2925757169723511,1.730324864387512,XArbitraryZVertical,-0.3439427597662017,0.7889563698537769,-0.2569023650487505,0.4396047651608169,0.5169385671615601,0.7077672481536865,0.4814975559711456,0,0,0,-1,-1,3037.026882041667,unknown,2,2022-06-02T10:51:32.749+02:00,2022-06-02T10:17:13.754+02:00,512,1.445976,0,0,397.4887,0,0,2022-06-02T10:51:32.748+02:00,675852692.7483444,0,5.351562,101.3188,1,0.79
2022-06-02T10:51:34.440+02:00,1654159891.007419,53.22895481256138,10.39874564857259,39.6105,0,0.95,55.546875,97.82255668919125,4,5,-9999,3038.71857,0.3221893310546875,0.59674072265625,2.092987060546875,3038.713572,0.3512394259734428,2.244564041256408,-0.7959299389213741,7.242019176483154,0.3019711077213287,4.383505821228027,-0.3004753589630127,-0.2137516736984253,1.779974102973938,XArbitraryZVertical,-0.3105983059823924,0.7885350142072741,-0.2739988531204869,0.4546050859194739,0.5467368960380554,0.7145144939422607,0.4365175664424896,0,0,0,-1,-1,3037.026882041667,unknown,2,2022-06-02T10:51:32.749+02:00,2022-06-02T10:17:13.754+02:00,512,1.445976,0,0,397.4887,0,0,2022-06-02T10:51:32.748+02:00,675852692.7483444,0,5.351562,101.3188,1,0.79
2022-06-02T10:51:34.450+02:00,1654159891.007419,53.22895481256138,10.39874564857259,39.6105,0,0.95,55.546875,97.82255668919125,4,5,-9999,3038.728564,0.425872802734375,0.5673828125,1.889694213867188,3038.723567,0.2251395232462199,2.155489845254582,-0.8067482318564697,8.170175552368164,0.01884672604501247,4.204465866088867,-0.254731297492981,-0.1253007650375366,1.711124897003174,XArbitraryZVertical,-0.2756227799730848,0.784195872711996,-0.2946815926666533,0.4714143775403349,0.5769205093383789,0.7220412492752075,0.3818621635437012,0,0,0,-1,-1,3037.026882041667,unknown,2,2022-06-02T10:51:32.749+02:00,2022-06-02T10:17:13.754+02:00,512,1.445976,0,0,397.4887,0,0,2022-06-02T10:51:32.748+02:00,675852692.7483444,0,5.351562,101.3188,1,0.79
2022-06-02T10:51:34.460+02:00,1654159891.007419,53.22895481256138,10.39874564857259,39.6105,0,0.95,55.546875,97.82255668919125,4,5,-9999,3038.738558,0.50189208984375,0.444732666015625,1.699020385742188,3038.733561,0.0874264200321217,2.054463575940315,-0.8151507054826292,9.022394180297852,-0.2575441896915436,4.01775074005127,-0.1812261939048767,-0.1604462862014771,1.570796608924866,XArbitraryZVertical,-0.2391474860381028,0.7760523322603903,-0.318180296392265,0.4891956761694607,0.6070988774299622,0.7278289794921875,0.3188974857330322,0,0,0,-1,-1,3037.026882041667,unknown,2,2022-06-02T10:51:32.749+02:00,2022-06-02T10:17:13.754+02:00,512,1.445976,0,0,397.4887,0,0,2022-06-02T10:51:32.748+02:00,675852692.7483444,0,5.351562,101.3188,1,0.79
2022-06-02T10:51:34.470+02:00,1654159891.007419,53.22895481256138,10.39874564857259,39.6105,0,0.95,55.546875,97.82255668919125,4,5,-9999,3038.748552,0.5497283935546875,0.444610595703125,1.483367919921875,3038.743555,-0.06225259591203063,1.941706125746008,-0.8187988632015261,9.900094032287598,-0.4603457748889923,3.827227115631104,-0.1347545981407166,-0.2855933308601379,1.451421976089478,XArbitraryZVertical,-0.201069441199696,0.7637867862083404,-0.3445043587085031,0.5074617662964885,0.636646568775177,0.7303258776664734,0.2475983500480652,0,0,0,-1,-1,3037.026882041667,unknown,2,2022-06-02T10:51:32.749+02:00,2022-06-02T10:17:13.754+02:00,512,1.445976,0,0,397.4887,0,0,2022-06-02T10:51:32.748+02:00,675852692.7483444,0,5.351562,101.3188,1,0.79
2022-06-02T10:51:34.480+02:00,1654159891.007419,53.22895481256138,10.39874564857259,39.6105,0,0.95,55.546875,97.82255668919125,4,5,-9999,3038.758547,0.6163787841796875,0.4839019775390625,1.335891723632812,3038.753549,-0.2227485526798007,1.818781513792985,-0.8146439820514856,10.81031513214111,-0.6912769079208374,3.655132532119751,-0.1154096722602844,-0.2828708291053772,1.314957022666931,XArbitraryZVertical,-0.1612880322810883,0.7471222126817818,-0.3733606868003537,0.5257341283395993,0.6651380658149719,0.7274813652038574,0.1684108674526215,0,0,0,-1,-1,3037.026882041667,unknown,2,2022-06-02T10:51:32.749+02:00,2022-06-02T10:17:13.754+02:00,512,1.445976,0,0,397.4887,0,0,2022-06-02T10:51:32.748+02:00,675852692.7483444,0,5.351562,101.3188,1,0.79
2022-06-02T10:51:34.490+02:00,1654159891.007419,53.22895481256138,10.39874564857259,39.6105,0,0.95,55.546875,97.82255668919125,4,5,-9999,3038.768541,0.6457672119140625,0.6511383056640625,1.2464599609375,3038.763544,-0.3946675007213241,1.686452801943598,-0.8004112828818154,12.04250144958496,-0.8877987265586853,3.460676193237305,-0.07538020610809326,-0.2337407469749451,1.255526661872864,XArbitraryZVertical,-0.1192392201339504,0.7252341241652978,-0.4053945336605609,0.5435739788297151,0.691758930683136,0.7176425457000732,0.08036505430936813,0,0,0,-1,-1,3037.026882041667,unknown,2,2022-06-02T10:51:32.749+02:00,2022-06-02T10:17:13.754+02:00,512,1.445976,0,0,397.4887,0,0,2022-06-02T10:51:32.748+02:00,675852692.7483444,0,5.351562,101.3188,1,0.79
