loggingTime(txt),locationTimestamp_since1970(s),locationLatitude(WGS84),locationLongitude(WGS84),locationAltitude(m),locationSpeed(m/s),locationSpeedAccuracy(m/s),locationCourse(°),locationCourseAccuracy(°),locationVerticalAccuracy(m),locationHorizontalAccuracy(m),locationFloor(Z),accelerometerTimestamp_sinceReboot(s),accelerometerAccelerationX(G),accelerometerAccelerationY(G),accelerometerAccelerationZ(G),motionTimestamp_sinceReboot(s),motionYaw(rad),motionRoll(rad),motionPitch(rad),motionRotationRateX(rad/s),motionRotationRateY(rad/s),motionRotationRateZ(rad/s),motionUserAccelerationX(G),motionUserAccelerationY(G),motionUserAccelerationZ(G),motionAttitudeReferenceFrame(txt),motionQuaternionX(R),motionQuaternionY(R),motionQuaternionZ(R),motionQuaternionW(R),motionGravityX(G),motionGravityY(G),motionGravityZ(G),motionMagneticFieldX(µT),motionMagneticFieldY(µT),motionMagneticFieldZ(µT),motionHeading(°),motionMagneticFieldCalibrationAccuracy(Z),activityTimestamp_sinceReboot(s),activity(txt),activityActivityConfidence(Z),activityActivityStartDate(txt),pedometerStartDate(txt),pedometerNumberofSteps(N),pedometerAverageActivePace(s/m),pedometerCurrentPace(s/m),pedometerCurrentCadence(steps/s),pedometerDistance(m),pedometerFloorAscended(N),pedometerFloorDescended(N),pedometerEndDate(txt),altimeterTimestamp_sinceReboot(s),altimeterReset(bool),altimeterRelativeAltitude(m),altimeterPressure(kPa),batteryState(N),batteryLevel(R)
2022-06-02T10:55:54.790+02:00,1654160152.999776,53.22881542151163,10.39860147983804,40.05172,0,0.31,107.9296875,18.71859275064163,4,5,-9999,3292.891089666667,-0.0296173095703125,-0.2122955322265625,-0.98590087890625,3292.881095666667,0.8827673443877562,-0.009293273103047905,0.2751750339566606,0.01003698818385601,0.06166962161660194,-0.16265669465065,0.09320252388715744,-0.06802153587341309,0.01246124505996704,XArbitraryZVertical,0.1259741118050798,0.05442866796826333,0.4225731193710222,0.8958793304375101,-0.008943509310483932,-0.2717154026031494,-0.9623360633850098,0,0,0,-1,-1,3286.641788041667,unknown,2,2022-06-02T10:55:48.500+02:00,2022-06-02T10:17:13.754+02:00,521,1.631355,0,0,405.4342,0,0,2022-06-02T10:55:53.617+02:00,675852953.6168796,0,4.113281,101.3333,1,0.77
2022-06-02T10:55:54.793+02:00,1654160152.999776,53.22881542151163,10.39860147983804,40.05172,0,0.31,107.9296875,18.71859275064163,4,5,-9999,3292.901084666667,-0.0526123046875,-0.1783294677734375,-0.9710693359375,3292.891089666667,0.8811212009957707,-0.007771759409341637,0.2750288903034386,0.06220528483390808,0.1107703894376755,-0.1353005021810532,0.05559054017066956,-0.008958101272583008,-0.0004718303680419922,XArbitraryZVertical,0.1256324592571702,0.05497584837801686,0.4219358629350803,0.8961942593430405,-0.007479600608348846,-0.2715747356414795,-0.962388277053833,0,0,0,-1,-1,3286.641788041667,unknown,2,2022-06-02T10:55:48.500+02:00,2022-06-02T10:17:13.754+02:00,521,1.631355,0,0,405.4342,0,0,2022-06-02T10:55:53.617+02:00,675852953.6168796,0,4.113281,101.3333,1,0.77
2022-06-02T10:55:54.805+02:00,1654160152.999776,53.22881542151163,10.39860147983804,40.05172,0,0.31,107.9296875,18.71859275064163,4,5,-9999,3292.911078666667,-0.0046539306640625,-0.19647216796875,-0.9298248291015625,3292.901084666667,0.8798472960938997,-0.005786849403058061,0.2757990955177092,0.1321321725845337,0.1875165551900864,-0.1065660566091537,-0.02404920756816864,0.06002041697502136,-0.02370905876159668,XArbitraryZVertical,0.1255942747547181,0.05594807981639116,0.421465950556578,0.896360518796105,-0.005568121094256639,-0.2723159193992615,-0.9621917605400085,0,0,0,-1,-1,3286.641788041667,unknown,2,2022-06-02T10:55:48.500+02:00,2022-06-02T10:17:13.754+02:00,521,1.631355,0,0,405.4342,0,0,2022-06-02T10:55:53.617+02:00,675852953.6168796,0,4.113281,101.3333,1,0.77
2022-06-02T10:55:54.808+02:00,1654160152.999776,53.22881542151163,10.39860147983804,40.05172,0,0.31,107.9296875,18.71859275064163,4,5,-9999,3292.921072666667,0.06134033203125,-0.23260498046875,-0.894012451171875,3292.911078666667,0.8787324328226866,-0.003355530776190447,0.2771991662155143,0.1875021606683731,0.2000106573104858,-0.1097393482923508,-0.04938489943742752,0.09533333778381348,-0.009249031543731689,XArbitraryZVertical,0.1257410231793833,0.05726303615547542,0.4210765190768828,0.8964400241538013,-0.003227429697290063,-0.273662805557251,-0.9618203043937683,0,0,0,-1,-1,3286.641788041667,unknown,2,2022-06-02T10:55:48.500+02:00,2022-06-02T10:17:13.754+02:00,521,1.631355,0,0,405.4342,0,0,2022-06-02T10:55:53.617+02:00,675852953.6168796,0,4.113281,101.3333,1,0.77
2022-06-02T10:55:54.810+02:00,1654160152.999776,53.22881542151163,10.39860147983804,40.05172,0,0.31,107.9296875,18.71859275064163,4,5,-9999,3292.931066666667,0.0845489501953125,-0.2358551025390625,-0.8813629150390625,3292.921072666667,0.8776228158621175,-0.001492082114794216,0.2785865878691374,0.1502692997455597,0.1252059191465378,-0.1128049120306969,-0.003219403326511383,0.07852482795715332,0.03161919116973877,XArbitraryZVertical,0.1260027583402585,0.05832064754864997,0.4206548167735498,0.8965330835515859,-0.001434554462321103,-0.2749969959259033,-0.9614440202713013,0,0,0,-1,-1,3286.641788041667,unknown,2,2022-06-02T10:55:48.500+02:00,2022-06-02T10:17:13.754+02:00,521,1.631355,0,0,405.4342,0,0,2022-06-02T10:55:53.617+02:00,675852953.6168796,0,4.113281,101.3333,1,0.77
2022-06-02T10:55:54.811+02:00,1654160152.999776,53.22881542151163,10.39860147983804,40.05172,0,0.31,107.9296875,18.71859275064163,4,5,-9999,3292.941060666667,0.051239013671875,-0.223297119140625,-0.8658447265625,3292.931066666667,0.8767562927178228,-0.001431615121558607,0.2787832990256344,0.01311623491346836,-0.0006340320687741041,-0.09853356331586838,0.06271665543317795,0.04258114099502563,0.06737756729125977,XArbitraryZVertical,0.1261034993974518,0.05833451999978264,0.4202643025731305,0.8967011049044949,-0.001376341329887509,-0.2751861214637756,-0.96138995885849,0,0,0,-1,-1,3286.641788041667,unknown,2,2022-06-02T10:55:48.500+02:00,2022-06-02T10:17:13.754+02:00,521,1.631355,0,0,405.4342,0,0,2022-06-02T10:55:53.617+02:00,675852953.6168796,0,4.113281,101.3333,1,0.77
2022-06-02T10:55:54.813+02:00,1654160152.999776,53.22881542151163,10.39860147983804,40.05172,0,0.31,107.9296875,18.71859275064163,4,5,-9999,3292.951055666667,0.0099029541015625,-0.217041015625,-0.85858154296875,3292.941060666667,0.8759107124454161,-0.00222105902755982,0.277958284676231,-0.1156404167413712,-0.07367335259914398,-0.102754145860672,0.08668473362922668,0.03853777050971985,0.08025240898132324,XArbitraryZVertical,0.1259239493242523,0.05775388138486073,0.4198600281783101,0.89695320463198,-0.002135807881131768,-0.2743928730487823,-0.9616153240203857,0,0,0,-1,-1,3286.641788041667,unknown,2,2022-06-02T10:55:48.500+02:00,2022-06-02T10:17:13.754+02:00,521,1.631355,0,0,405.4342,0,0,2022-06-02T10:55:53.617+02:00,675852953.6168796,0,4.113281,101.3333,1,0.77
2022-06-02T10:55:54.820+02:00,1654160152.999776,53.22881542151163,10.39860147983804,40.05172,0,0.31,107.9296875,18.71859275064163,4,5,-9999,3292.961049666667,0.0039215087890625,-0.20355224609375,-0.8746795654296875,3292.951055666667,0.874803755426827,-0.002629183791416258,0.2767905704773202,-0.1395497769117355,-0.08266212046146393,-0.1029335707426071,0.0537680983543396,0.04997268319129944,0.09608942270278931,XArbitraryZVertical,0.1255177018741275,0.05725605562398799,0.4193726827464395,0.8972700113512038,-0.002529107267037034,-0.2732698023319244,-0.9619340896606445,0,0,0,-1,-1,3286.641788041667,unknown,2,2022-06-02T10:55:48.500+02:00,2022-06-02T10:17:13.754+02:00,521,1.631355,0,0,405.4342,0,0,2022-06-02T10:55:53.617+02:00,675852953.6168796,0,4.113281,101.3333,1,0.77
2022-06-02T10:55:54.831+02:00,1654160152.999776,53.22881542151163,10.39860147983804,40.05172,0,0.31,107.9296875,18.71859275064163,4,5,-9999,3292.971043666667,0.0069122314453125,-0.1960906982421875,-0.905059814453125,3292.961049666667,0.8738099649582723,-0.002855659586777727,0.2757340190306852,-0.1155208647251129,-0.07774779200553894,-0.06751619279384613,0.01265071332454681,0.05521228909492493,0.1036401987075806,XArbitraryZVertical,0.1251195239108523,0.05687054994884324,0.418944013547569,0.8975503671767618,-0.00274778506718576,-0.2722533047199249,-0.9622216820716858,0,0,0,-1,-1,3286.641788041667,unknown,2,2022-06-02T10:55:48.500+02:00,2022-06-02T10:17:13.754+02:00,521,1.631355,0,0,405.4342,0,0,2022-06-02T10:55:53.617+02:00,675852953.6168796,0,4.113281,101.3333,1,0.77
2022-06-02T10:55:54.840+02:00,1654160152.999776,53.22881542151163,10.39860147983804,40.05172,0,0.31,107.9296875,18.71859275064163,4,5,-9999,3292.981037666667,0.02349853515625,-0.2261199951171875,-0.9213104248046875,3292.971043666667,0.8732945569949616,-0.003262166771011216,0.2747006067525274,-0.0987585037946701,-0.06952361762523651,-0.02891187742352486,0.007061339914798737,0.06770652532577515,0.08782178163528442,XArbitraryZVertical,0.1247555282676858,0.05643929642953466,0.4187179886414272,0.8977336993899437,-0.003139850916340947,-0.2712587714195251,-0.9625013470649719,0,0,0,-1,-1,3286.641788041667,unknown,2,2022-06-02T10:55:48.500+02:00,2022-06-02T10:17:13.754+02:00,521,1.631355,0,0,405.4342,0,0,2022-06-02T10:55:53.617+02:00,675852953.6168796,0,4.113281,101.3333,1,0.77
2022-06-02T10:55:54.850+02:00,1654160152.999776,53.22881542151163,10.39860147983804,40.05172,0,0.31,107.9296875,18.71859275064163,4,5,-9999,3292.991032666667,0.0392913818359375,-0.2714080810546875,-0.926727294921875,3292.981037666667,0.8731057932787886,-0.003988379470292406,0.2735458216824941,-0.09419917315244675,-0.07387202233076096,-0.01487115770578384,0.01075229048728943,0.07405641674995422,0.05775159597396851,XArbitraryZVertical,0.1243945834884573,0.05585953787450983,0.4186223036217765,0.8978647195507061,-0.003840077668428421,-0.2701471149921417,-0.9628114104270935,0,0,0,-1,-1,3286.641788041667,unknown,2,2022-06-02T10:55:48.500+02:00,2022-06-02T10:17:13.754+02:00,521,1.631355,0,0,405.4342,0,0,2022-06-02T10:55:53.617+02:00,675852953.6168796,0,4.113281,101.3333,1,0.77
2022-06-02T10:55:54.860+02:00,1654160152.999776,53.22881542151163,10.39860147983804,40.05172,0,0.31,107.9296875,18.71859275064163,4,5,-9999,3293.001026666667,0.0462188720703125,-0.2870635986328125,-0.9618377685546875,3292.991032666667,0.8729857202487372,-0.004997944238017181,0.2721171994141147,-0.1205034852027893,-0.09916486591100693,-0.01758065819740295,0.02831253409385681,0.04265132546424866,0.04188156127929688,XArbitraryZVertical,0.1239679878467187,0.05509942432641361,0.4185482200380917,0.8980052206980869,-0.00481401989236474,-0.2687713205814362,-0.9631919860839844,0,0,0,-1,-1,3286.641788041667,unknown,2,2022-06-02T10:55:48.500+02:00,2022-06-02T10:17:13.754+02:00,521,1.631355,0,0,405.4342,0,0,2022-06-02T10:55:53.617+02:00,675852953.6168796,0,4.113281,101.3333,1,0.77
2022-06-02T10:55:54.870+02:00,1654160152.999776,53.22881542151163,10.39860147983804,40.05172,0,0.31,107.9296875,18.71859275064163,4,5,-9999,3293.011020666667,0.04644775390625,-0.2611236572265625,-0.9862518310546875,3293.001026666667,0.8728299342568528,-0.006016859378398112,0.27051574527213,-0.1525812596082687,-0.1197953075170517,-0.01195233315229416,0.04508937150239944,-0.004179626703262329,0.0368884801864624,XArbitraryZVertical,0.1234665941102553,0.05429660816823204,0.418463004802181,0.8981628571866839,-0.005798010621219873,-0.2672284543514252,-0.9636157751083374,0,0,0,-1,-1,3286.641788041667,unknown,2,2022-06-02T10:55:48.500+02:00,2022-06-02T10:17:13.754+02:00,521,1.631355,0,0,405.4342,0,0,2022-06-02T10:55:53.617+02:00,675852953.6168796,0,4.113281,101.3333,1,0.77
2022-06-02T10:55:54.880+02:00,1654160152.999776,53.22881542151163,10.39860147983804,40.05172,0,0.31,107.9296875,18.71859275064163,4,5,-9999,3293.021014666667,0.0289154052734375,-0.2582855224609375,-1.005599975585938,3293.011020666667,0.8724064954912916,-0.006741658706463607,0.2688255718831142,-0.1458411514759064,-0.1517499685287476,-0.04794688522815704,0.05271831899881363,-0.02146419882774353,0.002223849296569824,XArbitraryZVertical,0.1228708263705038,0.05359078611811929,0.4182786229572394,0.8983727848228144,-0.006499472539871931,-0.2655993700027466,-0.9640615582466125,0,0,0,-1,-1,3286.641788041667,unknown,2,2022-06-02T10:55:48.500+02:00,2022-06-02T10:17:13.754+02:00,521,1.631355,0,0,405.4342,0,0,2022-06-02T10:55:53.617+02:00,675852953.6168796,0,4.113281,101.3333,1,0.77
2022-06-02T10:55:54.892+02:00,1654160152.999776,53.22881542151163,10.39860147983804,40.05172,0,0.31,107.9296875,18.71859275064163,4,5,-9999,3293.031008666667,0.0228271484375,-0.2464141845703125,-1.00579833984375,3293.021014666667,0.8712000965338499,-0.006670869158228333,0.2676021838917667,-0.06981723010540009,-0.1392608135938644,-0.1070200651884079,0.05288112163543701,0.003296107053756714,-0.02186554670333862,XArbitraryZVertical,0.1223388712147964,0.05329243484196237,0.4177773473320545,0.8986963032633241,-0.006433389615267515,-0.2644197344779968,-0.9643862247467041,0,0,0,-1,-1,3286.641788041667,unknown,2,2022-06-02T10:55:48.500+02:00,2022-06-02T10:17:13.754+02:00,521,1.631355,0,0,405.4342,0,0,2022-06-02T10:55:53.617+02:00,675852953.6168796,0,4.113281,101.3333,1,0.77
2022-06-02T10:55:54.900+02:00,1654160152.999776,53.22881542151163,10.39860147983804,40.05172,0,0.31,107.9296875,18.71859275064163,4,5,-9999,3293.041003666667,0.01678466796875,-0.2602691650390625,-0.9797821044921875,3293.031008666667,0.8697987571713619,-0.006788822163074934,0.2669318370329349,-0.0274306908249855,-0.1240633577108383,-0.1165393963456154,0.03546372056007385,0.005487650632858276,-0.04103744029998779,XArbitraryZVertical,0.1220995850563003,0.05301358889930267,0.4171601716970582,0.8990319823987439,-0.006548343691974878,-0.2637731730937958,-0.9645624756813049,0,0,0,-1,-1,3286.641788041667,unknown,2,2022-06-02T10:55:48.500+02:00,2022-06-02T10:17:13.754+02:00,521,1.631355,0,0,405.4342,0,0,2022-06-02T10:55:53.617+02:00,675852953.6168796,0,4.113281,101.3333,1,0.77
2022-06-02T10:55:54.910+02:00,1654160152.999776,53.22881542151163,10.39860147983804,40.05172,0,0.31,107.9296875,18.71859275064163,4,5,-9999,3293.050997666667,0.0124969482421875,-0.2760162353515625,-0.9574127197265625,3293.041003666667,0.8684166991750991,-0.007390891171922286,0.2663394079446803,-0.0538758784532547,-0.115046426653862,-0.1371863484382629,0.0299573540687561,0.01678749918937683,-0.04108387231826782,XArbitraryZVertical,0.1219952986294017,0.05253483425928997,0.4165195804393312,0.8993711790896043,-0.007130229379981756,-0.2632016837596893,-0.9647144675254822,0,0,0,-1,-1,3286.641788041667,unknown,2,2022-06-02T10:55:48.500+02:00,2022-06-02T10:17:13.754+02:00,521,1.631355,0,0,405.4342,0,0,2022-06-02T10:55:53.617+02:00,675852953.6168796,0,4.113281,101.3333,1,0.77
2022-06-02T10:55:54.920+02:00,1654160152.999776,53.22881542151163,10.39860147983804,40.05172,0,0.31,107.9296875,18.71859275064163,4,5,-9999,3293.060991666667,0.013885498046875,-0.23822021484375,-0.947113037109375,3293.050997666667,0.8668909628839452,-0.007944956202687281,0.2650988827834601,-0.101257249712944,-0.1121126934885979,-0.1429651528596878,0.02445197105407715,0.001735538244247437,-0.01474595069885254,XArbitraryZVertical,0.1215927296225856,0.05193399103563735,0.4158362451651013,0.8997767667667554,-0.007667331025004387,-0.2620047032833099,-0.965036153793335,0,0,0,-1,-1,3286.641788041667,unknown,2,2022-06-02T10:55:48.500+02:00,2022-06-02T10:17:13.754+02:00,521,1.631355,0,0,405.4342,0,0,2022-06-02T10:55:53.617+02:00,675852953.6168796,0,4.113281,101.3333,1,0.77
2022-06-02T10:55:54.930+02:00,1654160152.999776,53.22881542151163,10.39860147983804,40.05172,0,0.31,107.9296875,18.71859275064163,4,5,-9999,3293.070985666667,0.0005950927734375,-0.17596435546875,-0.9337615966796875,3293.060991666667,0.8653752818119773,-0.008616528251621432,0.2633883720543305,-0.1126923263072968,-0.1435609012842178,-0.1379714608192444,0.02081619203090668,-0.01566269993782043,0.008064806461334229,XArbitraryZVertical,0.1210019942259754,0.05118366462858821,0.415163947765974,0.9002096845630968,-0.008319269865751266,-0.2603535652160645,-0.9654775261878967,0,0,0,-1,-1,3286.641788041667,unknown,2,2022-06-02T10:55:48.500+02:00,2022-06-02T10:17:13.754+02:00,521,1.631355,0,0,405.4342,0,0,2022-06-02T10:55:53.617+02:00,675852953.6168796,0,4.113281,101.3333,1,0.77
2022-06-02T10:55:54.940+02:00,1654160152.999776,53.22881542151163,10.39860147983804,40.05172,0,0.31,107.9296875,18.71859275064163,4,5,-9999,3293.080977791667,-0.0187530517578125,-0.1731719970703125,-0.9450531005859375,3293.070985666667,0.863724204804459,-0.009252956812349339,0.262182033239712,-0.06249900162220001,-0.1550741344690323,-0.1576233208179474,0.02282209694385529,0.02096840739250183,0.01867234706878662,XArbitraryZVertical,0.1206331657839783,0.05054656822240009,0.4144177010492706,0.9006389190300711,-0.008936624974012375,-0.2591886222362518,-0.9657853841781616,0,0,0,-1,-1,3286.641788041667,unknown,2,2022-06-02T10:55:48.500+02:00,2022-06-02T10:17:13.754+02:00,521,1.631355,0,0,405.4342,0,0,2022-06-02T10:55:53.617+02:00,675852953.6168796,0,4.113281,101.3333,1,0.77
2022-06-02T10:55:54.950+02:00,1654160152.999776,53.22881542151163,10.39860147983804,40.05172,0,0.31,107.9296875,18.71859275064163,4,5,-9999,3293.090972791667,-0.024993896484375,-0.2463836669921875,-0.953216552734375,3293.080977791667,0.8617890461979602,-0.009605573519013633,0.2620718420185476,-0.02390313521027565,-0.1388522982597351,-0.1794950664043427,0.009872525930404663,0.08311784267425537,0.03204911947250366,XArbitraryZVertical,0.1207053059824815,0.05024810450550973,0.4135280107927753,0.9010548744520563,-0.009277450852096081,-0.2590821981430054,-0.9658107161521912,0,0,0,-1,-1,3286.641788041667,unknown,2,2022-06-02T10:55:48.500+02:00,2022-06-02T10:17:13.754+02:00,521,1.631355,0,0,405.4342,0,0,2022-06-02T10:55:53.617+02:00,675852953.6168796,0,4.113281,101.3333,1,0.77
2022-06-02T10:55:54.960+02:00,1654160152.999776,53.22881542151163,10.39860147983804,40.05172,0,0.31,107.9296875,18.71859275064163,4,5,-9999,3293.100966791667,-0.010650634765625,-0.3161468505859375,-0.9362030029296875,3293.090972791667,0.8596675378017011,-0.009605206820773786,0.2618800942658914,-0.09747005999088287,-0.1164389327168465,-0.1879483908414841,-0.009475498460233212,0.08572500944137573,0.02080732583999634,XArbitraryZVertical,0.1206720843739627,0.05008054029839942,0.4125776395551405,0.9015041864940364,-0.00927757378667593,-0.2588970065116882,-0.9658603668212891,0,0,0,-1,-1,3286.641788041667,unknown,2,2022-06-02T10:55:48.500+02:00,2022-06-02T10:17:13.754+02:00,521,1.631355,0,0,405.4342,0,0,2022-06-02T10:55:53.617+02:00,675852953.6168796,0,4.113281,101.3333,1,0.77
2022-06-02T10:55:54.970+02:00,1654160152.999776,53.22881542151163,10.39860147983804,40.05172,0,0.31,107.9296875,18.71859275064163,4,5,-9999,3293.110960791667,0.00927734375,-0.2768707275390625,-0.952850341796875,3293.100966791667,0.8575249641249596,-0.009351667988329631,0.260097260354041,-0.2500441670417786,-0.1102050021290779,-0.1763719022274017,-0.01595693081617355,0.01079085469245911,0.01310616731643677,XArbitraryZVertical,0.1198698831935092,0.04969763077495892,0.4116789089872368,0.9020431300704906,-0.00903699267655611,-0.257174551486969,-0.9663227200508118,0,0,0,-1,-1,3286.641788041667,unknown,2,2022-06-02T10:55:48.500+02:00,2022-06-02T10:17:13.754+02:00,521,1.631355,0,0,405.4342,0,0,2022-06-02T10:55:53.617+02:00,675852953.6168796,0,4.113281,101.3333,1,0.77
2022-06-02T10:55:54.980+02:00,1654160152.999776,53.22881542151163,10.39860147983804,40.05172,0,0.31,107.9296875,18.71859275064163,4,5,-9999,3293.120954791667,-0.006134033203125,-0.1778106689453125,-0.9728546142578125,3293.110960791667,0.8555875017620073,-0.009615472435878937,0.2570964043806737,-0.3093075454235077,-0.1853819191455841,-0.1641449332237244,-0.001351363956928253,-0.06187340617179871,0.03088468313217163,XArbitraryZVertical,0.1186187387835455,0.04884433381778884,0.4108758257832999,0.9026211062189904,-0.009299291297793388,-0.2542734742164612,-0.9670876264572144,0,0,0,-1,-1,3286.641788041667,unknown,2,2022-06-02T10:55:48.500+02:00,2022-06-02T10:17:13.754+02:00,521,1.631355,0,0,405.4342,0,0,2022-06-02T10:55:53.617+02:00,675852953.6168796,0,4.113281,101.3333,1,0.77
2022-06-02T10:55:54.990+02:00,1654160152.999776,53.22881542151163,10.39860147983804,40.05172,0,0.31,107.9296875,18.71859275064163,4,5,-9999,3293.130948791667,-0.0320281982421875,-0.1186065673828125,-0.999298095703125,3293.120954791667,0.8534678103897383,-0.0106559123638749,0.2541833517309184,-0.1977189779281616,-0.236424595117569,-0.2139191478490829,0.01959065347909927,-0.02541565895080566,0.01496368646621704,XArbitraryZVertical,0.1175690083042294,0.0476499654411879,0.4099410206953428,0.9032471064397749,-0.01031333208084106,-0.2514550983905792,-0.967814028263092,0,0,0,-1,-1,3286.641788041667,unknown,2,2022-06-02T10:55:48.500+02:00,2022-06-02T10:17:13.754+02:00,521,1.631355,0,0,405.4342,0,0,2022-06-02T10:55:53.617+02:00,675852953.6168796,0,4.113281,101.3333,1,0.77
2022-06-02T10:55:55.000+02:00,1654160152.999776,53.22881542151163,10.39860147983804,40.05172,0,0.31,107.9296875,18.71859275064163,4,5,-9999,3293.140943791667,-0.0178680419921875,-0.1410369873046875,-1.0072021484375,3293.130948791667,0.8509115750170858,-0.0117754839549476,0.2531778292462072,-0.03362071141600609,-0.1953165680170059,-0.2467473894357681,0.005265772342681885,0.07267105579376221,-0.004800379276275635,XArbitraryZVertical,0.1174045283890694,0.04678755407830073,0.4087492383142002,0.9038535046953965,-0.01139983348548412,-0.2504817545413971,-0.9680541753768921,0,0,0,-1,-1,3286.641788041667,unknown,2,2022-06-02T10:55:48.500+02:00,2022-06-02T10:17:13.754+02:00,521,1.631355,0,0,405.4342,0,0,2022-06-02T10:55:53.617+02:00,675852953.6168796,0,4.113281,101.3333,1,0.77
2022-06-02T10:55:55.010+02:00,1654160152.999776,53.22881542151163,10.39860147983804,40.05172,0,0.31,107.9296875,18.71859275064163,4,5,-9999,3293.150937791667,0.026641845703125,-0.2140655517578125,-1.00244140625,3293.140943791667,0.8483440592398918,-0.01259132627515,0.2535006452173431,0.01691223680973053,-0.1574259102344513,-0.2319471389055252,-0.01983962953090668,0.1321876645088196,-0.03133440017700195,XArbitraryZVertical,0.1177766209962293,0.04633389409522142,0.407531316950663,0.9043782522097651,-0.01218859106302261,-0.2507942616939545,-0.967963695526123,0,0,0,-1,-1,3286.641788041667,unknown,2,2022-06-02T10:55:48.500+02:00,2022-06-02T10:17:13.754+02:00,521,1.631355,0,0,405.4342,0,0,2022-06-02T10:55:53.617+02:00,675852953.6168796,0,4.113281,101.3333,1,0.77
2022-06-02T10:55:55.020+02:00,1654160152.999776,53.22881542151163,10.39860147983804,40.05172,0,0.31,107.9296875,18.71859275064163,4,5,-9999,3293.160931791667,0.060302734375,-0.262786865234375,-0.9845428466796875,3293.150937791667,0.8459071770463825,-0.01330982048916402,0.2532571897567393,-0.06938116997480392,-0.163406178355217,-0.2310673743486404,-0.004983185790479183,0.1095215976238251,-0.03918641805648804,XArbitraryZVertical,0.1178689239801198,0.04581562627741469,0.4063937761822717,0.90490434185535,-0.01288487575948238,-0.2505585849285126,-0.9680156707763672,0,0,0,-1,-1,3286.641788041667,unknown,2,2022-06-02T10:55:48.500+02:00,2022-06-02T10:17:13.754+02:00,521,1.631355,0,0,405.4342,0,0,2022-06-02T10:55:53.617+02:00,675852953.6168796,0,4.113281,101.3333,1,0.77
2022-06-02T10:55:55.030+02:00,1654160152.999776,53.22881542151163,10.39860147983804,40.05172,0,0.31,107.9296875,18.71859275064163,4,5,-9999,3293.170925791667,0.047821044921875,-0.2539215087890625,-0.977874755859375,3293.160931791667,0.843421407429137,-0.01444715306473303,0.2512597496277619,-0.2247483879327774,-0.2187591791152954,-0.2425277531147003,0.04063484817743301,0.03455878794193268,-0.03394246101379395,XArbitraryZVertical,0.1172526333393304,0.04474784555095253,0.4052596041451805,0.9055462350250818,-0.01399302575737238,-0.2486243546009064,-0.9684988856315613,0,0,0,-1,-1,3286.641788041667,unknown,2,2022-06-02T10:55:48.500+02:00,2022-06-02T10:17:13.754+02:00,521,1.631355,0,0,405.4342,0,0,2022-06-02T10:55:53.617+02:00,675852953.6168796,0,4.113281,101.3333,1,0.77
2022-06-02T10:55:55.040+02:00,1654160152.999776,53.22881542151163,10.39860147983804,40.05172,0,0.31,107.9296875,18.71859275064163,4,5,-9999,3293.180920791667,-0.005035400390625,-0.22259521484375,-0.97998046875,3293.170925791667,0.8409169733448923,-0.01633813898800012,0.2482840648267466,-0.3719862699508667,-0.2706398963928223,-0.2368046939373016,0.07613914459943771,-0.01704587042331696,-0.01533669233322144,XArbitraryZVertical,0.1163436090646801,0.04314036180213227,0.404100908939991,0.906259002092338,-0.01583643443882465,-0.2457410097122192,-0.9692061543464661,0,0,0,-1,-1,3286.641788041667,unknown,2,2022-06-02T10:55:48.500+02:00,2022-06-02T10:17:13.754+02:00,521,1.631355,0,0,405.4342,0,0,2022-06-02T10:55:53.617+02:00,675852953.6168796,0,4.113281,101.3333,1,0.77
2022-06-02T10:55:55.050+02:00,1654160152.999776,53.22881542151163,10.39860147983804,40.05172,0,0.31,107.9296875,18.71859275064163,4,5,-9999,3293.190914791667,-0.0393524169921875,-0.205078125,-0.9705810546875,3293.180920791667,0.8383734968201398,-0.01838998364493279,0.2442638795420476,-0.4318706393241882,-0.2500334084033966,-0.2401850372552872,0.06566411256790161,-0.01207940280437469,-0.007723212242126465,XArbitraryZVertical,0.1149905490429672,0.04124807179317315,0.4029456525376723,0.9070339281385035,-0.01784308254718781,-0.241842120885849,-0.9701515436172485,0,0,0,-1,-1,3286.641788041667,unknown,2,2022-06-02T10:55:48.500+02:00,2022-06-02T10:17:13.754+02:00,521,1.631355,0,0,405.4342,0,0,2022-06-02T10:55:53.617+02:00,675852953.6168796,0,4.113281,101.3333,1,0.77
2022-06-02T10:55:55.060+02:00,1654160152.999776,53.22881542151163,10.39860147983804,40.05172,0,0.31,107.9296875,18.71859275064163,4,5,-9999,3293.200908791667,-0.0450897216796875,-0.230621337890625,-0.93499755859375,3293.190914791667,0.8358109175583254,-0.02002274170478833,0.2399049824103668,-0.452038049697876,-0.1942350566387177,-0.2393539249897003,0.01441258192062378,0.01501509547233582,-0.008814632892608643,XArbitraryZVertical,0.1133951368941261,0.03947937979457296,0.4018157125424293,0.907814332053773,-0.01944800093770027,-0.237610325217247,-0.9711658358573914,0,0,0,-1,-1,3286.641788041667,unknown,2,2022-06-02T10:55:48.500+02:00,2022-06-02T10:17:13.754+02:00,521,1.631355,0,0,405.4342,0,0,2022-06-02T10:55:53.617+02:00,675852953.6168796,0,4.113281,101.3333,1,0.77
2022-06-02T10:55:55.070+02:00,1654160152.999776,53.22881542151163,10.39860147983804,40.05172,0,0.31,107.9296875,18.71859275064163,4,5,-9999,3293.210902791667,-0.037445068359375,-0.2841644287109375,-0.8820037841796875,3293.200908791667,0.8331844293359306,-0.0212053981381891,0.2351969003861949,-0.5168743133544922,-0.1624374389648438,-0.2530351281166077,-0.01873239874839783,0.02795632183551788,0.001668810844421387,XArbitraryZVertical,0.1115475330467284,0.037844788098963,0.4006915327558348,0.9086095030969085,-0.02062003500759602,-0.2330344766378403,-0.9722498655319214,0,0,0,-1,-1,3286.641788041667,unknown,2,2022-06-02T10:55:48.500+02:00,2022-06-02T10:17:13.754+02:00,521,1.631355,0,0,405.4342,0,0,2022-06-02T10:55:53.617+02:00,675852953.6168796,0,4.113281,101.3333,1,0.77
2022-06-02T10:55:55.080+02:00,1654160152.999776,53.22881542151163,10.39860147983804,40.05172,0,0.31,107.9296875,18.71859275064163,4,5,-9999,3293.220896791667,-0.02996826171875,-0.294952392578125,-0.803192138671875,3293.210902791667,0.8303325905089421,-0.02221979103667419,0.2294631966112032,-0.6400965452194214,-0.1730972677469254,-0.2787543535232544,-0.02345413528382778,-0.003166511654853821,0.0385507345199585,XArbitraryZVertical,0.1091999612300096,0.03607271924010391,0.3995018297133204,0.9094901975122457,-0.02163559943437576,-0.2274548262357712,-0.9735482335090637,0,0,0,-1,-1,3286.641788041667,unknown,2,2022-06-02T10:55:48.500+02:00,2022-06-02T10:17:13.754+02:00,521,1.631355,0,0,405.4342,0,0,2022-06-02T10:55:53.617+02:00,675852953.6168796,0,4.113281,101.3333,1,0.77
2022-06-02T10:55:55.090+02:00,1654160152.999776,53.22881542151163,10.39860147983804,40.05172,0,0.31,107.9296875,18.71859275064163,4,5,-9999,3293.230891791667,-0.0442352294921875,-0.258056640625,-0.747406005859375,3293.220896791667,0.8269606498112485,-0.02344991279922417,0.2226320159315737,-0.7443718314170837,-0.2251681983470917,-0.3507883250713348,-0.0145760178565979,-0.06336700916290283,0.09304773807525635,XArbitraryZVertical,0.1063996139711216,0.03396108568347089,0.3980918276087603,0.9105210690620508,-0.02286906540393829,-0.2207974344491959,-0.9750515222549438,0,0,0,-1,-1,3286.641788041667,unknown,2,2022-06-02T10:55:48.500+02:00,2022-06-02T10:17:13.754+02:00,521,1.631355,0,0,405.4342,0,0,2022-06-02T10:55:53.617+02:00,675852953.6168796,0,4.113281,101.3333,1,0.77
2022-06-02T10:55:55.100+02:00,1654160152.999776,53.22881542151163,10.39860147983804,40.05172,0,0.31,107.9296875,18.71859275064163,4,5,-9999,3293.240885791667,-0.07025146484375,-0.2592315673828125,-0.70806884765625,3293.230891791667,0.8226907664251664,-0.02510171858023298,0.2150046319675873,-0.7922458052635193,-0.2816875576972961,-0.4491605460643768,-0.005447093397378922,-0.08160045742988586,0.1734755039215088,XArbitraryZVertical,0.1033267143247086,0.03146070392982356,0.3962690308153184,0.9117591202953348,-0.02452118694782257,-0.2133519500494003,-0.9766676425933838,0,0,0,-1,-1,3286.641788041667,unknown,2,2022-06-02T10:55:48.500+02:00,2022-06-02T10:17:13.754+02:00,521,1.631355,0,0,405.4342,0,0,2022-06-02T10:55:53.617+02:00,675852953.6168796,0,4.113281,101.3333,1,0.77
2022-06-02T10:55:55.110+02:00,1654160152.999776,53.22881542151163,10.39860147983804,40.05172,0,0.31,107.9296875,18.71859275064163,4,5,-9999,3293.250879791667,-0.10089111328125,-0.29595947265625,-0.656829833984375,3293.240885791667,0.8172334100799821,-0.02707602253097682,0.2071696728462441,-0.8113574385643005,-0.3405402004718781,-0.5822342038154602,-0.01774143055081367,-0.0523657351732254,0.2308523058891296,XArbitraryZVertical,0.1002284431580419,0.02872462568618027,0.3938897557130948,0.9132250475518665,-0.02649381943047047,-0.2056909203529358,-0.9782583117485046,0,0,0,-1,-1,3286.641788041667,unknown,2,2022-06-02T10:55:48.500+02:00,2022-06-02T10:17:13.754+02:00,521,1.631355,0,0,405.4342,0,0,2022-06-02T10:55:53.617+02:00,675852953.6168796,0,4.113281,101.3333,1,0.77
2022-06-02T10:55:55.120+02:00,1654160152.999776,53.22881542151163,10.39860147983804,40.05172,0,0.31,107.9296875,18.71859275064163,4,5,-9999,3293.260873791667,-0.1425933837890625,-0.3470001220703125,-0.5995025634765625,3293.250879791667,0.8104578598572377,-0.02957788652516423,0.1986875745693476,-0.9415197372436523,-0.4316493570804596,-0.6927023530006409,-0.04125972092151642,-0.06184870004653931,0.271828830242157,XArbitraryZVertical,0.09693936532513149,0.02557184895199,0.390894590711541,0.9149590587332479,-0.02899175696074963,-0.1973828971385956,-0.979897677898407,0,0,0,-1,-1,3286.641788041667,unknown,2,2022-06-02T10:55:48.500+02:00,2022-06-02T10:17:13.754+02:00,521,1.631355,0,0,405.4342,0,0,2022-06-02T10:55:53.617+02:00,675852953.6168796,0,4.113281,101.3333,1,0.77
2022-06-02T10:55:55.130+02:00,1654160152.999776,53.22881542151163,10.39860147983804,40.05172,0,0.31,107.9296875,18.71859275064163,4,5,-9999,3293.270867791667,-0.2232666015625,-0.468536376953125,-0.5252685546875,3293.260873791667,0.8023664202044011,-0.03297332266316336,0.1879935978377185,-1.291987657546997,-0.5679075717926025,-0.8480070233345032,-0.06850463151931763,-0.1090712696313858,0.3250173926353455,XArbitraryZVertical,0.09280376147731875,0.02153755243247387,0.387306683207802,0.917015334478269,-0.03238650411367416,-0.1868882179260254,-0.9818471670150757,0,0,0,-1,-1,3286.641788041667,unknown,2,2022-06-02T10:55:48.500+02:00,2022-06-02T10:17:13.754+02:00,521,1.631355,0,0,405.4342,0,0,2022-06-02T10:55:53.617+02:00,675852953.6168796,0,4.113281,101.3333,1,0.77
2022-06-02T10:55:55.140+02:00,1654160152.999776,53.22881542151163,10.39860147983804,40.05172,0,0.31,107.9296875,18.71859275064163,4,5,-9999,3293.280862791667,-0.2733917236328125,-0.5251617431640625,-0.572601318359375,3293.270867791667,0.7918795312772487,-0.0373472770089296,0.1722202188123958,-1.955110311508179,-0.6733535528182983,-1.07323145866394,-0.1058071628212929,-0.1756300032138824,0.3850171566009521,XArbitraryZVertical,0.08651103776737738,0.01599963063403288,0.3826977537423919,0.9196751236989922,-0.03678623586893082,-0.1713701486587524,-0.9845197200775146,0,0,0,-1,-1,3286.641788041667,unknown,2,2022-06-02T10:55:48.500+02:00,2022-06-02T10:17:13.754+02:00,521,1.631355,0,0,405.4342,0,0,2022-06-02T10:55:53.617+02:00,675852953.6168796,0,4.113281,101.3333,1,0.77
2022-06-02T10:55:55.150+02:00,1654160152.999776,53.22881542151163,10.39860147983804,40.05172,0,0.31,107.9296875,18.71859275064163,4,5,-9999,3293.290856791667,-0.3391876220703125,-0.5330963134765625,-0.6053466796875,3293.280862791667,0.7793707388893952,-0.04251776801378914,0.1488013045300808,-2.859403610229492,-0.7620090842247009,-1.22687828540802,-0.1812313497066498,-0.3202836215496063,0.4627872109413147,XArbitraryZVertical,0.07679696929971763,0.00862297031744051,0.3772991978749729,0.9228613557818864,-0.04203525930643082,-0.1482527852058411,-0.9880557656288147,0,0,0,-1,-1,3286.641788041667,unknown,2,2022-06-02T10:55:48.500+02:00,2022-06-02T10:17:13.754+02:00,521,1.631355,0,0,405.4342,0,0,2022-06-02T10:55:53.617+02:00,675852953.6168796,0,4.113281,101.3333,1,0.77
2022-06-02T10:55:55.160+02:00,1654160152.999776,53.22881542151163,10.39860147983804,40.05172,0,0.31,107.9296875,18.71859275064163,4,5,-9999,3293.300850791667,-0.437835693359375,-0.5048980712890625,-0.619720458984375,3293.290856791667,0.7643766102983675,-0.04883684620672768,0.1158534588864561,-3.859436750411987,-0.8885546326637268,-1.442929983139038,-0.224901556968689,-0.4095672965049744,0.4195109009742737,XArbitraryZVertical,0.06279201116637415,-0.001031039253760388,0.3709036956748194,0.9265454194307434,-0.04849018901586533,-0.1155944690108299,-0.9921122193336487,0,0,0,-1,-1,3286.641788041667,unknown,2,2022-06-02T10:55:48.500+02:00,2022-06-02T10:17:13.754+02:00,521,1.631355,0,0,405.4342,0,0,2022-06-02T10:55:53.617+02:00,675852953.6168796,0,4.113281,101.3333,1,0.77
2022-06-02T10:55:55.170+02:00,1654160152.999776,53.22881542151163,10.39860147983804,40.05172,0,0.31,107.9296875,18.71859275064163,4,5,-9999,3293.310844791667,-0.521026611328125,-0.420623779296875,-0.5582733154296875,3293.300850791667,0.7462978951198673,-0.05627753921932745,0.07379366436332677,-4.710359573364258,-0.9223242998123169,-1.715267181396484,-0.2830928862094879,-0.4593696296215057,0.3903529644012451,XArbitraryZVertical,0.04458599134748337,-0.01273873616219993,0.3631907373223075,0.9305601163834686,-0.05609475821256638,-0.07372670620679855,-0.9956996440887451,0,0,0,-1,-1,3286.641788041667,unknown,2,2022-06-02T10:55:48.500+02:00,2022-06-02T10:17:13.754+02:00,521,1.631355,0,0,405.4342,0,0,2022-06-02T10:55:53.617+02:00,675852953.6168796,0,4.113281,101.3333,1,0.77
2022-06-02T10:55:55.180+02:00,1654160152.999776,53.22881542151163,10.39860147983804,40.05172,0,0.31,107.9296875,18.71859275064163,4,5,-9999,3293.320839791667,-0.5572357177734375,-0.3156280517578125,-0.51263427734375,3293.310844791667,0.7249440063872422,-0.06427551734061379,0.02460200444006118,-5.354124546051025,-0.878670334815979,-1.943477749824524,-0.3736238777637482,-0.4802985787391663,0.3779125809669495,XArbitraryZVertical,0.02288829418692026,-0.025682694034467,0.3540072387371827,0.9346096655383053,-0.06421183049678802,-0.02459952235221863,-0.9976330399513245,0,0,0,-1,-1,3286.641788041667,unknown,2,2022-06-02T10:55:48.500+02:00,2022-06-02T10:17:13.754+02:00,521,1.631355,0,0,405.4342,0,0,2022-06-02T10:55:53.617+02:00,675852953.6168796,0,4.113281,101.3333,1,0.77
2022-06-02T10:55:55.190+02:00,1654160152.999776,53.22881542151163,10.39860147983804,40.05172,0,0.31,107.9296875,18.71859275064163,4,5,-9999,3293.330833791667,-0.5458984375,-0.171356201171875,-0.4840850830078125,3293.320839791667,0.7008988217727898,-0.07267016243607101,-0.02916314947243907,-5.645448684692383,-0.7829222083091736,-2.115111351013184,-0.4484512805938721,-0.4497828483581543,0.4386633038520813,XArbitraryZVertical,-0.001215273454032997,-0.03911810859319796,0.3435543459909293,0.9383169639769156,-0.07257534563541412,0.02915901504456997,-0.9969366192817688,0,0,0,-1,-1,3286.641788041667,unknown,2,2022-06-02T10:55:48.500+02:00,2022-06-02T10:17:13.754+02:00,521,1.631355,0,0,405.4342,0,0,2022-06-02T10:55:53.617+02:00,675852953.6168796,0,4.113281,101.3333,1,0.77
2022-06-02T10:55:55.200+02:00,1654160152.999776,53.22881542151163,10.39860147983804,40.05172,0,0.31,107.9296875,18.71859275064163,4,5,-9999,3293.340827791667,-0.565887451171875,-0.1640777587890625,-0.4428863525390625,3293.330833791667,0.6745268445368721,-0.08154021816859755,-0.08366766077869667,-5.639006614685059,-0.6957085728645325,-2.304931163787842,-0.476070761680603,-0.3991981744766235,0.4805566668510437,XArbitraryZVertical,-0.0259572271023143,-0.05225648832245443,0.331950237997273,0.9414906133133245,-0.08116497099399567,0.08357007801532745,-0.9931909441947937,0,0,0,-1,-1,3286.641788041667,unknown,2,2022-06-02T10:55:48.500+02:00,2022-06-02T10:17:13.754+02:00,521,1.631355,0,0,405.4342,0,0,2022-06-02T10:55:53.617+02:00,675852953.6168796,0,4.113281,101.3333,1,0.77
2022-06-02T10:55:55.210+02:00,1654160152.999776,53.22881542151163,10.39860147983804,40.05172,0,0.31,107.9296875,18.71859275064163,4,5,-9999,3293.350821791667,-0.6182098388671875,-0.234222412109375,-0.6023712158203125,3293.340827791667,0.6452960376156368,-0.09118561558254901,-0.1385518561700318,-5.817502498626709,-0.5660771131515503,-2.53489089012146,-0.4557117521762848,-0.309465229511261,0.5022172331809998,XArbitraryZVertical,-0.05116361664126193,-0.06504708864267252,0.318981853655152,0.9441407602009869,-0.09018668532371521,0.1381089985370636,-0.9863023161888123,0,0,0,-1,-1,3286.641788041667,unknown,2,2022-06-02T10:55:48.500+02:00,2022-06-02T10:17:13.754+02:00,521,1.631355,0,0,405.4342,0,0,2022-06-02T10:55:53.617+02:00,675852953.6168796,0,4.113281,101.3333,1,0.77
2022-06-02T10:55:55.220+02:00,1654160152.999776,53.22881542151163,10.39860147983804,40.05172,0,0.31,107.9296875,18.71859275064163,4,5,-9999,3293.360815791667,-0.6487579345703125,-0.0810394287109375,-0.7477264404296875,3293.350821791667,0.6135165608227501,-0.1013079188515653,-0.195144063988246,-6.086385250091553,-0.3943503797054291,-2.593847036361694,-0.4666723012924194,-0.3579856753349304,0.5331034660339355,XArbitraryZVertical,-0.07753377833162602,-0.07741842414898878,0.3048502841244013,0.9460767458478416,-0.09921514987945557,0.1939078718423843,-0.975989818572998,0,0,0,-1,-1,3286.641788041667,unknown,2,2022-06-02T10:55:48.500+02:00,2022-06-02T10:17:13.754+02:00,521,1.631355,0,0,405.4342,0,0,2022-06-02T10:55:53.617+02:00,675852953.6168796,0,4.113281,101.3333,1,0.77
2022-06-02T10:55:55.230+02:00,1654160152.999776,53.22881542151163,10.39860147983804,40.05172,0,0.31,107.9296875,18.71859275064163,4,5,-9999,3293.370810791667,-0.7315673828125,0.0977783203125,-0.8432464599609375,3293.360815791667,0.5803406068631506,-0.1119152210891971,-0.254930879071053,-6.50831937789917,-0.2318876832723618,-2.559595584869385,-0.5101375579833984,-0.4864009916782379,0.3592557311058044,XArbitraryZVertical,-0.1057434863801906,-0.08946979096787155,0.2901624688631495,0.9468997960504576,-0.1080722734332085,0.2521785199642181,-0.9616269469261169,0,0,0,-1,-1,3286.641788041667,unknown,2,2022-06-02T10:55:48.500+02:00,2022-06-02T10:17:13.754+02:00,521,1.631355,0,0,405.4342,0,0,2022-06-02T10:55:53.617+02:00,675852953.6168796,0,4.113281,101.3333,1,0.77
2022-06-02T10:55:55.240+02:00,1654160152.999776,53.22881542151163,10.39860147983804,40.05172,0,0.31,107.9296875,18.71859275064163,4,5,-9999,3293.380804791667,-0.8011474609375,0.1812591552734375,-0.87835693359375,3293.370810791667,0.5454910263233083,-0.1226947190491009,-0.3186776556387876,-6.951958179473877,0.06759009510278702,-2.609734296798706,-0.5325329303741455,-0.3943505585193634,0.1947850584983826,XArbitraryZVertical,-0.1362069671249522,-0.100955018050129,0.2748318349659402,0.9464264918942019,-0.1162249892950058,0.3133110702037811,-0.9425114989280701,0,0,0,-1,-1,3286.641788041667,unknown,2,2022-06-02T10:55:48.500+02:00,2022-06-02T10:17:13.754+02:00,521,1.631355,0,0,405.4342,0,0,2022-06-02T10:55:53.617+02:00,675852953.6168796,0,4.113281,101.3333,1,0.77
2022-06-02T10:55:55.250+02:00,1654160152.999776,53.22881542151163,10.39860147983804,40.05172,0,0.31,107.9296875,18.71859275064163,4,5,-9999,3293.390798791667,-0.83172607421875,0.2165374755859375,-0.89739990234375,3293.380804791667,0.5075061261640683,-0.1330407831784716,-0.3861757339835351,-7.336915016174316,0.5022435188293457,-2.74396014213562,-0.6086874604225159,-0.2788703143596649,0.07492369413375854,XArbitraryZVertical,-0.168957833160594,-0.1112123623897403,0.2581752654350382,0.9446853602514561,-0.1228799149394035,0.3766485452651978,-0.9181700944900513,0,0,0,-1,-1,3286.641788041667,unknown,2,2022-06-02T10:55:48.500+02:00,2022-06-02T10:17:13.754+02:00,521,1.631355,0,0,405.4342,0,0,2022-06-02T10:55:53.617+02:00,675852953.6168796,0,4.113281,101.3333,1,0.77
2022-06-02T10:55:55.260+02:00,1654160152.999776,53.22881542151163,10.39860147983804,40.05172,0,0.31,107.9296875,18.71859275064163,4,5,-9999,3293.400792791667,-0.818359375,0.2900238037109375,-0.8349151611328125,3293.390798791667,0.4655562997125049,-0.1432607840897376,-0.4559206892714185,-7.545108795166016,0.8796766996383667,-2.917056083679199,-0.6729594469070435,-0.2590300738811493,0.01030117273330688,XArbitraryZVertical,-0.2032495026907522,-0.119835596128253,0.2398752776069745,0.9416946852924959,-0.1281880289316177,0.4402891397476196,-0.8886581659317017,0,0,0,-1,-1,3286.641788041667,unknown,2,2022-06-02T10:55:48.500+02:00,2022-06-02T10:17:13.754+02:00,521,1.631355,0,0,405.4342,0,0,2022-06-02T10:55:53.617+02:00,675852953.6168796,0,4.113281,101.3333,1,0.77
2022-06-02T10:55:55.270+02:00,1654160152.999776,53.22881542151163,10.39860147983804,40.05172,0,0.31,107.9296875,18.71859275064163,4,5,-9999,3293.410786791667,-0.8089599609375,0.340301513671875,-0.743194580078125,3293.400792791667,0.4193376722498816,-0.1547121184800916,-0.5272201499993466,-7.782771587371826,1.195871472358704,-3.008455753326416,-0.6985552310943604,-0.2865955233573914,-0.04351305961608887,XArbitraryZVertical,-0.2385700970611681,-0.1270467440179989,0.2200405415067623,0.9372969487727671,-0.1331708580255508,0.5031329393386841,-0.8538868427276611,0,0,0,-1,-1,3286.641788041667,unknown,2,2022-06-02T10:55:48.500+02:00,2022-06-02T10:17:13.754+02:00,521,1.631355,0,0,405.4342,0,0,2022-06-02T10:55:53.617+02:00,675852953.6168796,0,4.113281,101.3333,1,0.77
2022-06-02T10:55:55.280+02:00,1654160152.999776,53.22881542151163,10.39860147983804,40.05172,0,0.31,107.9296875,18.71859275064163,4,5,-9999,3293.420781791667,-0.7978515625,0.47003173828125,-0.65325927734375,3293.410786791667,0.3692407463043245,-0.1678248877132079,-0.5998040320841322,-7.893757820129395,1.544314026832581,-3.007187843322754,-0.6804783344268799,-0.2744570374488831,-0.02106606960296631,XArbitraryZVertical,-0.2746850255442876,-0.1327538706685122,0.1991026596051051,0.9312801540490037,-0.1378810554742813,0.564480721950531,-0.8138490915298462,0,0,0,-1,-1,3286.641788041667,unknown,2,2022-06-02T10:55:48.500+02:00,2022-06-02T10:17:13.754+02:00,521,1.631355,0,0,405.4342,0,0,2022-06-02T10:55:53.617+02:00,675852953.6168796,0,4.113281,101.3333,1,0.77
2022-06-02T10:55:55.290+02:00,1654160152.999776,53.22881542151163,10.39860147983804,40.05172,0,0.31,107.9296875,18.71859275064163,4,5,-9999,3293.430775791667,-0.7927703857421875,0.6572113037109375,-0.5889892578125,3293.420781791667,0.3157904311536039,-0.1822925334471923,-0.6732296299454481,-8.117379188537598,1.924443244934082,-2.880161046981812,-0.6672294735908508,-0.2832127809524536,0.02566325664520264,XArbitraryZVertical,-0.3113223303780219,-0.1365630084065749,0.1774887150096157,0.9235402605146066,-0.141730472445488,0.6235141754150391,-0.7688578963279724,0,0,0,-1,-1,3286.641788041667,unknown,2,2022-06-02T10:55:48.500+02:00,2022-06-02T10:17:13.754+02:00,521,1.631355,0,0,405.4342,0,0,2022-06-02T10:55:53.617+02:00,675852953.6168796,0,4.113281,101.3333,1,0.77
2022-06-02T10:55:55.300+02:00,1654160152.999776,53.22881542151163,10.39860147983804,40.05172,0,0.31,107.9296875,18.71859275064163,4,5,-9999,3293.440769791667,-0.7691650390625,0.8487548828125,-0.5675201416015625,3293.430775791667,0.2593176189765188,-0.1978731667359001,-0.7490235331215951,-8.381171226501465,2.341386079788208,-2.658674001693726,-0.6538820862770081,-0.210892379283905,0.06480425596237183,XArbitraryZVertical,-0.3490876302867027,-0.1382246210941921,0.1555758979176413,0.9136891009545118,-0.1439694166183472,0.6809239387512207,-0.7180635333061218,0,0,0,-1,-1,3286.641788041667,unknown,2,2022-06-02T10:55:48.500+02:00,2022-06-02T10:17:13.754+02:00,521,1.631355,0,0,405.4342,0,0,2022-06-02T10:55:53.617+02:00,675852953.6168796,0,4.113281,101.3333,1,0.77
2022-06-02T10:55:55.310+02:00,1654160152.999776,53.22881542151163,10.39860147983804,40.05172,0,0.31,107.9296875,18.71859275064163,4,5,-9999,3293.450763791667,-0.7309112548828125,1.073806762695312,-0.6414794921875,3293.440769791667,0.1994232060061824,-0.2148035161080751,-0.8265779751141688,-8.538129806518555,2.768872261047363,-2.4302818775177,-0.6483795046806335,-0.07840639352798462,0.07283997535705566,XArbitraryZVertical,-0.3875535155144695,-0.1374322790538817,0.1334781842814251,0.9017195860375032,-0.144390881061554,0.7356176376342773,-0.6618292927742004,0,0,0,-1,-1,3286.641788041667,unknown,2,2022-06-02T10:55:48.500+02:00,2022-06-02T10:17:13.754+02:00,521,1.631355,0,0,405.4342,0,0,2022-06-02T10:55:53.617+02:00,675852953.6168796,0,4.113281,101.3333,1,0.77
2022-06-02T10:55:55.320+02:00,1654160152.999776,53.22881542151163,10.39860147983804,40.05172,0,0.31,107.9296875,18.71859275064163,4,5,-9999,3293.460757791667,-0.6839599609375,1.237045288085938,-0.7277984619140625,3293.450763791667,0.1351572407918947,-0.2338903208051454,-0.9050506211131248,-8.613859176635742,3.200809955596924,-2.202133417129517,-0.6260172128677368,0.06229835748672485,0.03330838680267334,XArbitraryZVertical,-0.4261744671557823,-0.1340188570013228,0.1112154621030641,0.8877191642926803,-0.1431478410959244,0.7864564061164856,-0.6008285284042358,0,0,0,-1,-1,3286.641788041667,unknown,2,2022-06-02T10:55:48.500+02:00,2022-06-02T10:17:13.754+02:00,521,1.631355,0,0,405.4342,0,0,2022-06-02T10:55:53.617+02:00,675852953.6168796,0,4.113281,101.3333,1,0.77
2022-06-02T10:55:55.330+02:00,1654160152.999776,53.22881542151163,10.39860147983804,40.05172,0,0.31,107.9296875,18.71859275064163,4,5,-9999,3293.470752791667,-0.609527587890625,1.352493286132812,-0.75042724609375,3293.460757791667,0.06473581360817879,-0.2571884614586933,-0.9830596946648942,-8.519981384277344,3.548317909240723,-2.022116184234619,-0.5898725986480713,0.2416089177131653,-0.1052380800247192,XArbitraryZVertical,-0.4641741595215996,-0.1281468443603832,0.08878981760902019,0.8719157592293142,-0.1410386264324188,0.8321977853775024,-0.5362414717674255,0,0,0,-1,-1,3286.641788041667,unknown,2,2022-06-02T10:55:48.500+02:00,2022-06-02T10:17:13.754+02:00,521,1.631355,0,0,405.4342,0,0,2022-06-02T10:55:53.617+02:00,675852953.6168796,0,4.113281,101.3333,1,0.77
2022-06-02T10:55:55.340+02:00,1654160152.999776,53.22881542151163,10.39860147983804,40.05172,0,0.31,107.9296875,18.71859275064163,4,5,-9999,3293.480746791667,-0.504669189453125,1.447097778320312,-0.690826416015625,3293.470752791667,-0.01389204918599683,-0.2874408449081339,-1.05896254963197,-8.306321144104004,3.803753137588501,-1.793850183486938,-0.5451087355613708,0.3651973009109497,-0.2581160962581635,XArbitraryZVertical,-0.5007248909009572,-0.1201389795944623,0.06640672367907376,0.85465270048109,-0.138851210474968,0.8718478083610535,-0.4696824252605438,0,0,0,-1,-1,3286.641788041667,unknown,2,2022-06-02T10:55:48.500+02:00,2022-06-02T10:17:13.754+02:00,521,1.631355,0,0,405.4342,0,0,2022-06-02T10:55:53.617+02:00,675852953.6168796,0,4.113281,101.3333,1,0.77
2022-06-02T10:55:55.350+02:00,1654160152.999776,53.22881542151163,10.39860147983804,40.05172,0,0.31,107.9296875,18.71859275064163,4,5,-9999,3293.490740791667,-0.389556884765625,1.523208618164062,-0.53021240234375,3293.480746791667,-0.101881861401019,-0.3265383501886169,-1.13177839316588,-8.009154319763184,4.038250923156738,-1.472784280776978,-0.4731856882572174,0.4473236799240112,-0.3478370904922485,XArbitraryZVertical,-0.5353363751585068,-0.1100900943444319,0.04462837849553887,0.8362436072259312,-0.1363418847322464,0.9051695466041565,-0.402590274810791,0,0,0,-1,-1,3286.641788041667,unknown,2,2022-06-02T10:55:48.500+02:00,2022-06-02T10:17:13.754+02:00,521,1.631355,0,0,405.4342,0,0,2022-06-02T10:55:53.617+02:00,675852953.6168796,0,4.113281,101.3333,1,0.77
2022-06-02T10:55:55.360+02:00,1654160152.999776,53.22881542151163,10.39860147983804,40.05172,0,0.31,107.9296875,18.71859275064163,4,5,-9999,3293.500734791667,-0.2804412841796875,1.56207275390625,-0.3833160400390625,3293.490740791667,-0.2013047941477296,-0.3766168370469198,-1.200980790697349,-7.675429821014404,4.238177299499512,-1.111085772514343,-0.3717388510704041,0.5147035717964172,-0.3547154366970062,XArbitraryZVertical,-0.5677687100620432,-0.09789352455121426,0.02380168377796776,0.8169999128741775,-0.1329302936792374,0.9323940277099609,-0.3361110985279083,0,0,0,-1,-1,3286.641788041667,unknown,2,2022-06-02T10:55:48.500+02:00,2022-06-02T10:17:13.754+02:00,521,1.631355,0,0,405.4342,0,0,2022-06-02T10:55:53.617+02:00,675852953.6168796,0,4.113281,101.3333,1,0.77
2022-06-02T10:55:55.371+02:00,1654160152.999776,53.22881542151163,10.39860147983804,40.05172,0,0.31,107.9296875,18.71859275064163,4,5,-9999,3293.510729791667,-0.143798828125,1.608322143554688,-0.231964111328125,3293.500734791667,-0.3184959901078808,-0.4437744642937589,-1.265865197850434,-7.309225082397461,4.462528228759766,-0.8342899084091187,-0.26065394282341,0.5693408250808716,-0.2590661942958832,XArbitraryZVertical,-0.5978474670659388,-0.08369733262167299,0.003803099988643172,0.7972192454391404,-0.1289028972387314,0.9538676142692566,-0.2711463272571564,0,0,0,-1,-1,3286.641788041667,unknown,2,2022-06-02T10:55:48.500+02:00,2022-06-02T10:17:13.754+02:00,521,1.631355,0,0,405.4342,0,0,2022-06-02T10:55:53.617+02:00,675852953.6168796,0,4.113281,101.3333,1,0.77
2022-06-02T10:55:55.380+02:00,1654160152.999776,53.22881542151163,10.39860147983804,40.05172,0,0.31,107.9296875,18.71859275064163,4,5,-9999,3293.520723791667,0.0023193359375,1.650436401367188,-0.09259033203125,3293.510729791667,-0.4653003938445268,-0.5395191077277831,-1.325564091086629,-6.974777698516846,4.651122093200684,-0.5632948875427246,-0.1557187139987946,0.5919917225837708,-0.1750203371047974,XArbitraryZVertical,-0.6255166245723757,-0.06768345174940979,-0.01560886463844982,0.7771127529261989,-0.1247225552797318,0.9700809717178345,-0.2082958072423935,0,0,0,-1,-1,3286.641788041667,unknown,2,2022-06-02T10:55:48.500+02:00,2022-06-02T10:17:13.754+02:00,521,1.631355,0,0,405.4342,0,0,2022-06-02T10:55:53.617+02:00,675852953.6168796,0,4.113281,101.3333,1,0.77
2022-06-02T10:55:55.400+02:00,1654160152.999776,53.22881542151163,10.39860147983804,40.05172,0,0.31,107.9296875,18.71859275064163,4,5,-9999,3293.530717791667,0.1165313720703125,1.701644897460938,0.0483856201171875,3293.520723791667,-0.661452678103824,-0.6841829496473713,-1.379223255261123,-6.660757541656494,4.722784042358398,-0.2328234612941742,-0.02345642447471619,0.6266161203384399,-0.08441406488418579,XArbitraryZVertical,-0.6509304593059912,-0.05014438881938195,-0.03414567727524427,0.756709373350795,-0.120342381298542,0.981705904006958,-0.1475501507520676,0,0,0,-1,-1,3286.641788041667,unknown,2,2022-06-02T10:55:48.500+02:00,2022-06-02T10:17:13.754+02:00,521,1.631355,0,0,405.4342,0,0,2022-06-02T10:55:53.617+02:00,675852953.6168796,0,4.113281,101.3333,1,0.77
2022-06-02T10:55:55.403+02:00,1654160152.999776,53.22881542151163,10.39860147983804,40.05172,0,0.31,107.9296875,18.71859275064163,4,5,-9999,3293.540711791667,0.1848297119140625,1.725906372070312,0.145965576171875,3293.530717791667,-0.9432547750855018,-0.914765940567414,-1.424720963544474,-6.427865505218506,4.73881721496582,0.1175504699349403,0.1176605597138405,0.6610863208770752,-0.003804914653301239,XArbitraryZVertical,-0.6742613498355232,-0.03128731726195397,-0.05137758837226672,0.7360386932866733,-0.1153411939740181,0.9893499612808228,-0.08878546953201294,0,0,0,-1,-1,3286.641788041667,unknown,2,2022-06-02T10:55:48.500+02:00,2022-06-02T10:17:13.754+02:00,521,1.631355,0,0,405.4342,0,0,2022-06-02T10:55:53.617+02:00,675852953.6168796,0,4.113281,101.3333,1,0.77
2022-06-02T10:55:55.410+02:00,1654160152.999776,53.22881542151163,10.39860147983804,40.05172,0,0.31,107.9296875,18.71859275064163,4,5,-9999,3293.550705791667,0.2329254150390625,1.692276000976562,0.3267059326171875,3293.540711791667,-1.369353829208701,-1.290042002569793,-1.456588753569753,-6.184402465820312,4.727923393249512,0.4907232522964478,0.2260290384292603,0.7081595063209534,0.07996147871017456,XArbitraryZVertical,-0.6957632805647492,-0.01120138482031767,-0.06717722788790338,0.7150351164770485,-0.1094976663589478,0.9934853911399841,-0.03157597407698631,0,0,0,-1,-1,3286.641788041667,unknown,2,2022-06-02T10:55:48.500+02:00,2022-06-02T10:17:13.754+02:00,521,1.631355,0,0,405.4342,0,0,2022-06-02T10:55:53.617+02:00,675852953.6168796,0,4.113281,101.3333,1,0.77
2022-06-02T10:55:55.420+02:00,1654160152.999776,53.22881542151163,10.39860147983804,40.05172,0,0.31,107.9296875,18.71859275064163,4,5,-9999,3293.560700791667,0.26922607421875,1.660568237304688,0.6859130859375,3293.550705791667,-1.916062360071835,-1.787080181301674,-1.465737377333005,-5.642199516296387,4.558825492858887,0.8996915817260742,0.287250816822052,0.7314198017120361,0.1234614849090576,XArbitraryZVertical,-0.7149512434250296,0.009835129340945915,-0.08118007719876338,0.6943757065303612,-0.1024210453033447,0.994486391544342,0.02250402048230171,0,0,0,-1,-1,3286.641788041667,unknown,2,2022-06-02T10:55:48.500+02:00,2022-06-02T10:17:13.754+02:00,521,1.631355,0,0,405.4342,0,0,2022-06-02T10:55:53.617+02:00,675852953.6168796,0,4.113281,101.3333,1,0.77
2022-06-02T10:55:55.430+02:00,1654160152.999776,53.22881542151163,10.39860147983804,40.05172,0,0.31,107.9296875,18.71859275064163,4,5,-9999,3293.570694791667,0.2949981689453125,1.60357666015625,0.929534912109375,3293.560700791667,-2.391152216938794,-2.214939850066965,-1.453092792058025,-4.883557796478271,4.32408618927002,1.21671187877655,0.3268246054649353,0.6991949081420898,0.2561870813369751,XArbitraryZVertical,-0.7309493627780419,0.03118282076469622,-0.09304144551154257,0.6753397659688637,-0.09389917552471161,0.9930809140205383,0.07051867991685867,0,0,0,-1,-1,3286.641788041667,unknown,2,2022-06-02T10:55:48.500+02:00,2022-06-02T10:17:13.754+02:00,521,1.631355,0,0,405.4342,0,0,2022-06-02T10:55:53.617+02:00,675852953.6168796,0,4.113281,101.3333,1,0.77
2022-06-02T10:55:55.440+02:00,1654160152.999776,53.22881542151163,10.39860147983804,40.05172,0,0.31,107.9296875,18.71859275064163,4,5,-9999,3293.580688791667,0.3827667236328125,1.494979858398438,1.074264526367188,3293.570694791667,-2.707742093113507,-2.48692834960845,-1.431513507391561,-3.845679521560669,4.076267719268799,1.430914044380188,0.3537593483924866,0.6702521443367004,0.5757849216461182,XArbitraryZVertical,-0.7431920575941247,0.05224526522174266,-0.1031986601957953,0.6590036360093262,-0.0845332071185112,0.9903157949447632,0.1101280078291893,0,0,0,-1,-1,3286.641788041667,unknown,2,2022-06-02T10:55:48.500+02:00,2022-06-02T10:17:13.754+02:00,521,1.631355,0,0,405.4342,0,0,2022-06-02T10:55:53.617+02:00,675852953.6168796,0,4.113281,101.3333,1,0.77
2022-06-02T10:55:55.450+02:00,1654160152.999776,53.22881542151163,10.39860147983804,40.05172,0,0.31,107.9296875,18.71859275064163,4,5,-9999,3293.590682791667,0.4691162109375,1.359909057617188,1.143951416015625,3293.580688791667,-2.913727506939226,-2.651834342832104,-1.412296410244366,-2.681103944778442,3.659234523773193,1.63040030002594,0.3692466616630554,0.6161114573478699,0.7902522087097168,XArbitraryZVertical,-0.7512671134208316,0.07238116877784671,-0.1116968775215175,0.6464382938489562,-0.07424846291542053,0.9874651432037354,0.139282613992691,0,0,0,-1,-1,3286.641788041667,unknown,2,2022-06-02T10:55:48.500+02:00,2022-06-02T10:17:13.754+02:00,521,1.631355,0,0,405.4342,0,0,2022-06-02T10:55:53.617+02:00,675852953.6168796,0,4.113281,101.3333,1,0.77
2022-06-02T10:55:55.460+02:00,1654160152.999776,53.22881542151163,10.39860147983804,40.05172,0,0.31,107.9296875,18.71859275064163,4,5,-9999,3293.600676791667,0.4551849365234375,1.248046875,1.129547119140625,3293.590682791667,-3.062511915439354,-2.765032276282956,-1.399959509580414,-1.629062294960022,3.038097381591797,1.759122610092163,0.4452825784683228,0.5095370411872864,0.9161685705184937,XArbitraryZVertical,-0.7555176097237105,0.09078047237440449,-0.1180306244868028,0.6379818835732632,-0.06251583993434906,0.9854428768157959,0.1580959111452103,0,0,0,-1,-1,3286.641788041667,unknown,2,2022-06-02T10:55:48.500+02:00,2022-06-02T10:17:13.754+02:00,521,1.631355,0,0,405.4342,0,0,2022-06-02T10:55:53.617+02:00,675852953.6168796,0,4.113281,101.3333,1,0.77
2022-06-02T10:55:55.471+02:00,1654160152.999776,53.22881542151163,10.39860147983804,40.05172,0,0.31,107.9296875,18.71859275064163,4,5,-9999,3293.610671791667,0.347137451171875,1.197341918945312,1.097869873046875,3293.600676791667,3.099764896169106,-2.856936994806523,-1.394214586511688,-0.8865077495574951,2.391453266143799,1.819181442260742,0.5184479355812073,0.3754591941833496,0.9753544330596924,XArbitraryZVertical,-0.7568797151293483,0.1069181764200238,-0.1220213556585687,0.6330975005017437,-0.04933171719312668,0.9844499230384827,0.1685968041419983,0,0,0,-1,-1,3286.641788041667,unknown,2,2022-06-02T10:55:48.500+02:00,2022-06-02T10:17:13.754+02:00,521,1.631355,0,0,405.4342,0,0,2022-06-02T10:55:53.617+02:00,675852953.6168796,0,4.113281,101.3333,1,0.77
2022-06-02T10:55:55.494+02:00,1654160152.999776,53.22881542151163,10.39860147983804,40.05172,0,0.31,107.9296875,18.71859275064163,4,5,-9999,3293.620665791667,0.210784912109375,1.149566650390625,1.07568359375,3293.610671791667,2.987591303955428,-2.946574497027072,-1.391595906381479,-0.6125856637954712,1.796790957450867,1.904364228248596,0.4897257089614868,0.2640604376792908,0.9546825885772705,XArbitraryZVertical,-0.7568326502096041,0.1209816951666415,-0.1235767410853502,0.6303146931903879,-0.03454074636101723,0.983986496925354,0.1748644560575485,0,0,0,-1,-1,3286.641788041667,unknown,2,2022-06-02T10:55:48.500+02:00,2022-06-02T10:17:13.754+02:00,521,1.631355,0,0,405.4342,0,0,2022-06-02T10:55:53.617+02:00,675852953.6168796,0,4.113281,101.3333,1,0.77
2022-06-02T10:55:55.497+02:00,1654160152.999776,53.22881542151163,10.39860147983804,40.05172,0,0.31,107.9296875,18.71859275064163,4,5,-9999,3293.630659791667,0.169677734375,1.115188598632812,1.122573852539062,3293.620665791667,2.876694978195513,-3.040372521563915,-1.38887709590067,-0.5346935391426086,1.362908720970154,1.975864291191101,0.3654185831546783,0.2138434052467346,0.917879581451416,XArbitraryZVertical,-0.7564318537696834,0.133438733912298,-0.1229376165424735,0.6284036013304733,-0.01828109659254551,0.9834982752799988,0.1799900829792023,0,0,0,-1,-1,3286.641788041667,unknown,2,2022-06-02T10:55:48.500+02:00,2022-06-02T10:17:13.754+02:00,521,1.631355,0,0,405.4342,0,0,2022-06-02T10:55:53.617+02:00,675852953.6168796,0,4.113281,101.3333,1,0.77
2022-06-02T10:55:55.500+02:00,1654160152.999776,53.22881542151163,10.39860147983804,40.05172,0,0.31,107.9296875,18.71859275064163,4,5,-9999,3293.640653791667,0.18701171875,1.0499267578125,1.175079345703125,3293.630659791667,2.765310089546245,-3.13839591850535,-1.384686424746008,-0.4935218691825867,0.9396346211433411,2.042751550674438,0.2113764435052872,0.1668349504470825,0.8906481266021729,XArbitraryZVertical,-0.7559768729307264,0.1449712552180078,-0.1205997609787561,0.6268475393144963,-0.0005915111396461725,0.9827314615249634,0.1850353926420212,0,0,0,-1,-1,3286.641788041667,unknown,2,2022-06-02T10:55:48.500+02:00,2022-06-02T10:17:13.754+02:00,521,1.631355,0,0,405.4342,0,0,2022-06-02T10:55:53.617+02:00,675852953.6168796,0,4.113281,101.3333,1,0.77
2022-06-02T10:55:55.510+02:00,1654160152.999776,53.22881542151163,10.39860147983804,40.05172,0,0.31,107.9296875,18.71859275064163,4,5,-9999,3293.650647791667,0.1985626220703125,0.9658660888671875,1.317367553710938,3293.640653791667,2.656612330323052,3.045041026451791,-1.379798202703567,-0.2833198606967926,0.4521450996398926,2.07025933265686,0.1513770371675491,0.1333732604980469,0.9336196184158325,XArbitraryZVertical,-0.7552464872415646,0.1551765217302391,-0.1165168010061648,0.6260564686777346,0.01830072142183781,0.9818152189254761,0.1889540255069733,0,0,0,-1,-1,3286.641788041667,unknown,2,2022-06-02T10:55:48.500+02:00,2022-06-02T10:17:13.754+02:00,521,1.631355,0,0,405.4342,0,0,2022-06-02T10:55:53.617+02:00,675852953.6168796,0,4.113281,101.3333,1,0.77
2022-06-02T10:55:55.520+02:00,1654160152.999776,53.22881542151163,10.39860147983804,40.05172,0,0.31,107.9296875,18.71859275064163,4,5,-9999,3293.660642791667,0.166748046875,0.8778839111328125,1.45159912109375,3293.650647791667,2.550470380791134,2.94272893303573,-1.375275103606111,-0.02182636968791485,-0.07272753119468689,2.092042207717896,0.1486313045024872,0.06898003816604614,0.9846314191818237,XArbitraryZVertical,-0.7539412116501043,0.1636966199048632,-0.110581095033027,0.6265362757185454,0.0383804515004158,0.9809465408325195,0.1904478669166565,0,0,0,-1,-1,3286.641788041667,unknown,2,2022-06-02T10:55:48.500+02:00,2022-06-02T10:17:13.754+02:00,521,1.631355,0,0,405.4342,0,0,2022-06-02T10:55:53.617+02:00,675852953.6168796,0,4.113281,101.3333,1,0.77
2022-06-02T10:55:55.530+02:00,1654160152.999776,53.22881542151163,10.39860147983804,40.05172,0,0.31,107.9296875,18.71859275064163,4,5,-9999,3293.670636791667,0.12957763671875,0.8040771484375,1.564178466796875,3293.660642791667,2.446193575663828,2.837369250266227,-1.371429609657145,0.3145311176776886,-0.5570604205131531,2.051385879516602,0.1392370462417603,-0.01432633399963379,1.128414273262024,XArbitraryZVertical,-0.7519430936665482,0.1704644413107769,-0.1030137021700673,0.6284197945119766,0.05932557582855225,0.9801921844482422,0.1889530867338181,0,0,0,-1,-1,3286.641788041667,unknown,2,2022-06-02T10:55:48.500+02:00,2022-06-02T10:17:13.754+02:00,521,1.631355,0,0,405.4342,0,0,2022-06-02T10:55:53.617+02:00,675852953.6168796,0,4.113281,101.3333,1,0.77
2022-06-02T10:55:55.540+02:00,1654160152.999776,53.22881542151163,10.39860147983804,40.05172,0,0.31,107.9296875,18.71859275064163,4,5,-9999,3293.680630791667,0.0662994384765625,0.76837158203125,1.651397705078125,3293.670636791667,2.342194508778437,2.727292538894268,-1.369319736114584,0.7228713035583496,-1.065237998962402,1.969064235687256,0.08619176596403122,-0.1018884181976318,1.268413782119751,XArbitraryZVertical,-0.7489354547522455,0.1751807381779367,-0.09407297089656816,0.6321056142154673,0.08055628836154938,0.97977215051651,0.1831852197647095,0,0,0,-1,-1,3286.641788041667,unknown,2,2022-06-02T10:55:48.500+02:00,2022-06-02T10:17:13.754+02:00,521,1.631355,0,0,405.4342,0,0,2022-06-02T10:55:53.617+02:00,675852953.6168796,0,4.113281,101.3333,1,0.77
2022-06-02T10:55:55.550+02:00,1654160152.999776,53.22881542151163,10.39860147983804,40.05172,0,0.31,107.9296875,18.71859275064163,4,5,-9999,3293.690624791667,-0.0148162841796875,0.736572265625,1.651992797851562,3293.680630791667,2.236979593129699,2.611374462926577,-1.368572923839888,1.066281914710999,-1.494781374931335,1.846304297447205,0.02800460159778595,-0.1755452752113342,1.390907645225525,XArbitraryZVertical,-0.7449865525836882,0.1778494320522661,-0.08399997330611361,0.6374234107687675,0.1015730798244476,0.9796224236488342,0.1732707619667053,0,0,0,-1,-1,3286.641788041667,unknown,2,2022-06-02T10:55:48.500+02:00,2022-06-02T10:17:13.754+02:00,521,1.631355,0,0,405.4342,0,0,2022-06-02T10:55:53.617+02:00,675852953.6168796,0,4.113281,101.3333,1,0.77
2022-06-02T10:55:55.560+02:00,1654160152.999776,53.22881542151163,10.39860147983804,40.05172,0,0.31,107.9296875,18.71859275064163,4,5,-9999,3293.700619791667,-0.0424652099609375,0.744049072265625,1.656814575195312,3293.690624791667,2.128809040873427,2.488430215973845,-1.369001749551459,1.399864196777344,-1.903109550476074,1.711010217666626,-0.05550038814544678,-0.2113370299339294,1.492225050926208,XArbitraryZVertical,-0.7400791676965138,0.1785191304570461,-0.07311697151412638,0.6442573698111995,0.1217998340725899,0.9797084927558899,0.1591725051403046,0,0,0,-1,-1,3286.641788041667,unknown,2,2022-06-02T10:55:48.500+02:00,2022-06-02T10:17:13.754+02:00,521,1.631355,0,0,405.4342,0,0,2022-06-02T10:55:53.617+02:00,675852953.6168796,0,4.113281,101.3333,1,0.77
2022-06-02T10:55:55.570+02:00,1654160152.999776,53.22881542151163,10.39860147983804,40.05172,0,0.31,107.9296875,18.71859275064163,4,5,-9999,3293.710613791667,-0.0769500732421875,0.6737213134765625,1.745635986328125,3293.700619791667,2.017239710946916,2.358079812198242,-1.368905869519364,1.510283827781677,-2.305000305175781,1.688275933265686,-0.1563379764556885,-0.2431172728538513,1.509936332702637,XArbitraryZVertical,-0.734536876371962,0.1774365663832377,-0.06118770471559734,0.6520948159614819,0.1415216773748398,0.9796892404556274,0.1420563161373138,0,0,0,-1,-1,3286.641788041667,unknown,2,2022-06-02T10:55:48.500+02:00,2022-06-02T10:17:13.754+02:00,521,1.631355,0,0,405.4342,0,0,2022-06-02T10:55:53.617+02:00,675852953.6168796,0,4.113281,101.3333,1,0.77
2022-06-02T10:55:55.580+02:00,1654160152.999776,53.22881542151163,10.39860147983804,40.05172,0,0.31,107.9296875,18.71859275064163,4,5,-9999,3293.720607791667,-0.1399383544921875,0.58233642578125,1.8104248046875,3293.710613791667,1.906892627166903,2.224804513269776,-1.36596138815962,1.402465105056763,-2.755261898040771,1.692060828208923,-0.2038982808589935,-0.2350454926490784,1.533068180084229,XArbitraryZVertical,-0.7288787924519982,0.1749538259933021,-0.04772534630818516,0.6601887161174556,0.1614331007003784,0.9790945649147034,0.1237462684512138,0,0,0,-1,-1,3286.641788041667,unknown,2,2022-06-02T10:55:48.500+02:00,2022-06-02T10:17:13.754+02:00,521,1.631355,0,0,405.4342,0,0,2022-06-02T10:55:53.617+02:00,675852953.6168796,0,4.113281,101.3333,1,0.77
2022-06-02T10:55:55.590+02:00,1654160152.999776,53.22881542151163,10.39860147983804,40.05172,0,0.31,107.9296875,18.71859275064163,4,5,-9999,3293.730601791667,-0.277496337890625,0.5052947998046875,1.9923095703125,3293.720607791667,1.811894252627438,2.101120389842739,-1.358788705129031,1.022998809814453,-3.423089265823364,1.696421504020691,-0.2584703266620636,-0.3038890957832336,1.639201045036316,XArbitraryZVertical,-0.7239452058302457,0.1706480778635204,-0.03200965972966355,0.6676511245594696,0.1815202832221985,0.9776104092597961,0.1064348518848419,0,0,0,-1,-1,3286.641788041667,unknown,2,2022-06-02T10:55:48.500+02:00,2022-06-02T10:17:13.754+02:00,521,1.631355,0,0,405.4342,0,0,2022-06-02T10:55:53.617+02:00,675852953.6168796,0,4.113281,101.3333,1,0.77
2022-06-02T10:55:55.600+02:00,1654160152.999776,53.22881542151163,10.39860147983804,40.05172,0,0.31,107.9296875,18.71859275064163,4,5,-9999,3293.740595791667,-0.4274139404296875,0.5776824951171875,2.257232666015625,3293.730601791667,1.743135572468709,1.995775273347594,-1.347700080115885,0.6041951179504395,-4.241218566894531,1.613855838775635,-0.3415076434612274,-0.3928807377815247,1.719202876091003,XArbitraryZVertical,-0.7202734575302527,0.1637590453346823,-0.01330215418358084,0.6739526311423149,0.2015693038702011,0.9752171039581299,0.09122175723314285,0,0,0,-1,-1,3286.641788041667,unknown,2,2022-06-02T10:55:48.500+02:00,2022-06-02T10:17:13.754+02:00,521,1.631355,0,0,405.4342,0,0,2022-06-02T10:55:53.617+02:00,675852953.6168796,0,4.113281,101.3333,1,0.77
2022-06-02T10:55:55.610+02:00,1654160152.999776,53.22881542151163,10.39860147983804,40.05172,0,0.31,107.9296875,18.71859275064163,4,5,-9999,3293.750590791667,-0.594757080078125,0.72576904296875,2.358688354492188,3293.740595791667,1.700095389694345,1.9059212772128,-1.334692135194413,0.2988029718399048,-5.41361665725708,1.548502445220947,-0.4983992576599121,-0.4669620394706726,1.915377497673035,XArbitraryZVertical,-0.7176357470242898,0.1531825261124932,0.008909635596625186,0.6793044035710701,0.2209028750658035,0.9722566604614258,0.0769319012761116,0,0,0,-1,-1,3286.641788041667,unknown,2,2022-06-02T10:55:48.500+02:00,2022-06-02T10:17:13.754+02:00,521,1.631355,0,0,405.4342,0,0,2022-06-02T10:55:53.617+02:00,675852953.6168796,0,4.113281,101.3333,1,0.77
2022-06-02T10:55:55.620+02:00,1654160152.999776,53.22881542151163,10.39860147983804,40.05172,0,0.31,107.9296875,18.71859275064163,4,5,-9999,3293.760584791667,-0.7940216064453125,0.7990875244140625,2.239471435546875,3293.750590791667,1.665762255669788,1.810795176564501,-1.322065978848106,0.6469327807426453,-7.023230075836182,1.288018465042114,-0.666531503200531,-0.3915433287620544,2.198716640472412,XArbitraryZVertical,-0.7144232688774274,0.1373218084636919,0.03564927884313167,0.6851796736971684,0.2391175776720047,0.9692257642745972,0.0585157722234726,0,0,0,-1,-1,3286.641788041667,unknown,2,2022-06-02T10:55:48.500+02:00,2022-06-02T10:17:13.754+02:00,521,1.631355,0,0,405.4342,0,0,2022-06-02T10:55:53.617+02:00,675852953.6168796,0,4.113281,101.3333,1,0.77
2022-06-02T10:55:55.630+02:00,1654160152.999776,53.22881542151163,10.39860147983804,40.05172,0,0.31,107.9296875,18.71859275064163,4,5,-9999,3293.770578791667,-1.035491943359375,0.7960205078125,1.817825317382812,3293.760584791667,1.614470293534199,1.680813677335567,-1.313597850832253,1.628300786018372,-9.08256721496582,0.8205497860908508,-0.8475910425186157,-0.2413374781608582,2.330759286880493,XArbitraryZVertical,-0.7078438052103692,0.113673190390727,0.06715724222418362,0.6939202906761356,0.2528339326381683,0.9671064019203186,0.02792889438569546,0,0,0,-1,-1,3286.641788041667,unknown,2,2022-06-02T10:55:48.500+02:00,2022-06-02T10:17:13.754+02:00,521,1.631355,0,0,405.4342,0,0,2022-06-02T10:55:53.617+02:00,675852953.6168796,0,4.113281,101.3333,1,0.77
2022-06-02T10:55:55.640+02:00,1654160152.999776,53.22881542151163,10.39860147983804,40.05172,0,0.31,107.9296875,18.71859275064163,4,5,-9999,3293.780572791667,-1.185287475585938,0.5609283447265625,1.270095825195312,3293.770578791667,1.532332953977057,1.500831278838956,-1.3070501896841,2.533986330032349,-10.96761608123779,0.600405752658844,-1.05408251285553,-0.1663327217102051,2.257696151733398,XArbitraryZVertical,-0.6958420101095605,0.08180121737912265,0.1038819457241216,0.7059184882747206,0.2600608170032501,0.965420126914978,-0.01822491548955441,0,0,0,-1,-1,3286.641788041667,unknown,2,2022-06-02T10:55:48.500+02:00,2022-06-02T10:17:13.754+02:00,521,1.631355,0,0,405.4342,0,0,2022-06-02T10:55:53.617+02:00,675852953.6168796,0,4.113281,101.3333,1,0.77
2022-06-02T10:55:55.650+02:00,1654160152.999776,53.22881542151163,10.39860147983804,40.05172,0,0.31,107.9296875,18.71859275064163,4,5,-9999,3293.790567791667,-1.22735595703125,0.215423583984375,0.7252349853515625,3293.780572791667,1.430502627918082,1.287268866153575,-1.297050096885847,3.074251174926758,-11.99264621734619,0.3857123255729675,-1.295038342475891,-0.1667445302009583,1.89345121383667,XArbitraryZVertical,-0.6784050713096299,0.04419939792781423,0.1444479822668497,0.7189907383378363,0.2595463991165161,0.9627649188041687,-0.0756259486079216,0,0,0,-1,-1,3286.641788041667,unknown,2,2022-06-02T10:55:48.500+02:00,2022-06-02T10:17:13.754+02:00,521,1.631355,0,0,405.4342,0,0,2022-06-02T10:55:53.617+02:00,675852953.6168796,0,4.113281,101.3333,1,0.77
2022-06-02T10:55:55.660+02:00,1654160152.999776,53.22881542151163,10.39860147983804,40.05172,0,0.31,107.9296875,18.71859275064163,4,5,-9999,3293.800561791667,-1.113739013671875,0.1029815673828125,0.9200439453125,3293.790567791667,1.329765986758252,1.067574495668877,-1.283276945981241,2.999105215072632,-12.62864875793457,0.02859216555953026,-1.433707475662231,-0.3980221152305603,1.406849265098572,XArbitraryZVertical,-0.6569740327615092,0.002889962048518485,0.1858497762445196,0.7306411021028398,0.2484200000762939,0.9589502811431885,-0.1367535442113876,0,0,0,-1,-1,3286.641788041667,unknown,2,2022-06-02T10:55:48.500+02:00,2022-06-02T10:17:13.754+02:00,521,1.631355,0,0,405.4342,0,0,2022-06-02T10:55:53.617+02:00,675852953.6168796,0,4.113281,101.3333,1,0.77
2022-06-02T10:55:55.669+02:00,1654160152.999776,53.22881542151163,10.39860147983804,40.05172,0,0.31,107.9296875,18.71859275064163,4,5,-9999,3293.810555791667,-1.030075073242188,-0.02227783203125,2.009689331054688,3293.800561791667,1.260350741225544,0.8696306704222149,-1.269351807232464,1.685425877571106,-13.83002376556396,0.06047632917761803,-1.454214215278625,-0.7394851446151733,0.916767418384552,XArbitraryZVertical,-0.6343496436419797,-0.04282825645407762,0.2285862042821017,0.7372343628245769,0.2268582284450531,0.9549086093902588,-0.1915325373411179,0,0,0,-1,-1,3286.641788041667,unknown,2,2022-06-02T10:55:48.500+02:00,2022-06-02T10:17:13.754+02:00,521,1.631355,0,0,405.4342,0,0,2022-06-02T10:55:53.617+02:00,675852953.6168796,0,4.113281,101.3333,1,0.77
2022-06-02T10:55:55.679+02:00,1654160152.999776,53.22881542151163,10.39860147983804,40.05172,0,0.31,107.9296875,18.71859275064163,4,5,-9999,3293.820549791667,-3.999588012695312,-1.40740966796875,-0.4650115966796875,3293.810555791667,1.255002914955234,0.7201281874470664,-1.267983469892506,-1.020472049713135,-15.06514930725098,-0.1904615610837936,-1.310400128364563,-0.8515200614929199,1.144211530685425,XArbitraryZVertical,-0.6154326130230551,-0.09570199074431075,0.2737438649955922,0.7329037899716131,0.1966610997915268,0.9545014500617981,-0.2241676598787308,0,0,0,-1,-1,3286.641788041667,unknown,2,2022-06-02T10:55:48.500+02:00,2022-06-02T10:17:13.754+02:00,521,1.631355,0,0,405.4342,0,0,2022-06-02T10:55:53.617+02:00,675852953.6168796,0,4.113281,101.3333,1,0.77
2022-06-02T10:55:55.690+02:00,1654160152.999776,53.22881542151163,10.39860147983804,40.05172,0,0.31,107.9296875,18.71859275064163,4,5,-9999,3293.830543791667,-14.12110900878906,5.265228271484375,-23.96253967285156,3293.820549791667,1.247699280358582,0.6377465163867914,-1.278207089595828,5.887024879455566,16.08927917480469,-2.150515556335449,-1.201803684234619,-0.9797782301902771,2.241426944732666,XArbitraryZVertical,-0.6067050949527549,-0.1266493509899582,0.2934614750079497,0.7278386672082761,0.1717285513877869,0.9575002789497375,-0.2317377328872681,0,0,0,-1,-1,3286.641788041667,unknown,2,2022-06-02T10:55:48.500+02:00,2022-06-02T10:17:13.754+02:00,521,1.631355,0,0,405.4342,0,0,2022-06-02T10:55:53.617+02:00,675852953.6168796,0,4.113281,101.3333,1,0.77
2022-06-02T10:55:55.700+02:00,1654160152.999776,53.22881542151163,10.39860147983804,40.05172,0,0.31,107.9296875,18.71859275064163,4,5,-9999,3293.840538791667,0.8653717041015625,1.642898559570312,-13.66618347167969,3293.830543791667,1.244243396836949,0.724021634041441,-1.275336163974772,-0.06432732939720154,4.256015300750732,-0.9800935983657837,-4.192466259002686,-2.364078044891357,-0.246874988079071,XArbitraryZVertical,-0.6182599330382402,-0.09320026424536113,0.2665564240990365,0.7334956921543588,0.1928783357143402,0.9566682577133179,-0.218136727809906,0,0,0,-1,-1,3286.641788041667,unknown,2,2022-06-02T10:55:48.500+02:00,2022-06-02T10:17:13.754+02:00,521,1.631355,0,0,405.4342,0,0,2022-06-02T10:55:53.617+02:00,675852953.6168796,0,4.113281,101.3333,1,0.77
2022-06-02T10:55:55.710+02:00,1654160152.999776,53.22881542151163,10.39860147983804,40.05172,0,0.31,107.9296875,18.71859275064163,4,5,-9999,3293.850532791667,-1.511932373046875,-1.15740966796875,-0.2242889404296875,3293.840538791667,1.152190278997199,0.6564326740631902,-1.250111294061196,1.939589500427246,0.9022789597511292,2.388060808181763,-14.31348419189453,4.316208362579346,-23.71283340454102,XArbitraryZVertical,-0.6069069667226638,-0.08252741027807516,0.2599965997122783,0.746494985686921,0.1923748999834061,0.949019730091095,-0.2497063279151917,0,0,0,-1,-1,3286.641788041667,unknown,2,2022-06-02T10:55:48.500+02:00,2022-06-02T10:17:13.754+02:00,521,1.631355,0,0,405.4342,0,0,2022-06-02T10:55:53.617+02:00,675852953.6168796,0,4.113281,101.3333,1,0.77
2022-06-02T10:55:55.720+02:00,1654160152.999776,53.22881542151163,10.39860147983804,40.05172,0,0.31,107.9296875,18.71859275064163,4,5,-9999,3293.860526791667,-0.6019439697265625,-3.891159057617188,6.8935546875,3293.850532791667,1.196476793560612,0.6847461993746132,-1.221457684133581,1.237325310707092,-1.736182689666748,2.105329751968384,0.6488900780677795,0.7032991051673889,-13.40106391906738,XArbitraryZVertical,-0.6012636688252672,-0.07695433391080972,0.2755126649516776,0.7460915607096968,0.216481551527977,0.9395992755889893,-0.2651200592517853,0,0,0,-1,-1,3286.641788041667,unknown,2,2022-06-02T10:55:48.500+02:00,2022-06-02T10:17:13.754+02:00,521,1.631355,0,0,405.4342,0,0,2022-06-02T10:55:53.617+02:00,675852953.6168796,0,4.113281,101.3333,1,0.77
2022-06-02T10:55:55.730+02:00,1654160152.999776,53.22881542151163,10.39860147983804,40.05172,0,0.31,107.9296875,18.71859275064163,4,5,-9999,3293.870520791667,0.42041015625,1.125228881835938,3.188217163085938,3293.860526791667,1.24044540123814,0.7503181563299685,-1.239833674630633,-7.072844505310059,5.416750907897949,-1.987146377563477,-1.733508825302124,-2.103139877319336,0.0134052038192749,XArbitraryZVertical,-0.6132225899230631,-0.07149081631038398,0.2669357563574564,0.7399947989282992,0.2215764075517654,0.9457299709320068,-0.2376942336559296,0,0,0,-1,-1,3286.641788041667,unknown,2,2022-06-02T10:55:48.500+02:00,2022-06-02T10:17:13.754+02:00,521,1.631355,0,0,405.4342,0,0,2022-06-02T10:55:53.617+02:00,675852953.6168796,0,4.113281,101.3333,1,0.77
2022-06-02T10:55:55.740+02:00,1654160152.999776,53.22881542151163,10.39860147983804,40.05172,0,0.31,107.9296875,18.71859275064163,4,5,-9999,3293.880514791667,-0.4513092041015625,3.028762817382812,-2.079879760742188,3293.870520791667,1.502941324010044,1.04842746110378,-1.311882832340901,-12.15482234954834,3.337470293045044,0.5671458840370178,-0.8238295316696167,-4.857828140258789,7.021296501159668,XArbitraryZVertical,-0.6566112597020906,-0.07064443862624492,0.2453199421849215,0.7097104520717393,0.221885472536087,0.9666687250137329,-0.1277420371770859,0,0,0,-1,-1,3286.641788041667,unknown,2,2022-06-02T10:55:48.500+02:00,2022-06-02T10:17:13.754+02:00,521,1.631355,0,0,405.4342,0,0,2022-06-02T10:55:53.617+02:00,675852953.6168796,0,4.113281,101.3333,1,0.77
2022-06-02T10:55:55.749+02:00,1654160152.999776,53.22881542151163,10.39860147983804,40.05172,0,0.31,107.9296875,18.71859275064163,4,5,-9999,3293.890509791667,-3.020782470703125,1.724990844726562,-2.568695068359375,3293.880514791667,1.929888198061374,1.491519972993797,-1.32574851693872,-8.317461967468262,3.776356220245361,2.197504043579102,0.1785695999860764,0.1551030874252319,3.2074294090271,XArbitraryZVertical,-0.6970667986871376,-0.06701960576790886,0.2381723376873768,0.672963693504435,0.2418405413627625,0.9701257348060608,-0.01921250112354755,0,0,0,-1,-1,3286.641788041667,unknown,2,2022-06-02T10:55:48.500+02:00,2022-06-02T10:17:13.754+02:00,521,1.631355,0,0,405.4342,0,0,2022-06-02T10:55:53.617+02:00,675852953.6168796,0,4.113281,101.3333,1,0.77
2022-06-02T10:55:55.760+02:00,1654160152.999776,53.22881542151163,10.39860147983804,40.05172,0,0.31,107.9296875,18.71859275064163,4,5,-9999,3293.900503791667,-1.969161987304688,0.884918212890625,0.09124755859375,3293.890509791667,2.090435964650269,1.686663607100688,-1.317053887060019,0.6296573281288147,4.015463829040527,-0.7685415744781494,-0.700654149055481,2.060782909393311,-2.108900785446167,XArbitraryZVertical,-0.7151313816567152,-0.05565571926792909,0.2256397136567758,0.6592239463372688,0.2493449151515961,0.9679797291755676,0.02902090363204479,0,0,0,-1,-1,3286.641788041667,unknown,2,2022-06-02T10:55:48.500+02:00,2022-06-02T10:17:13.754+02:00,521,1.631355,0,0,405.4342,0,0,2022-06-02T10:55:53.617+02:00,675852953.6168796,0,4.113281,101.3333,1,0.77
2022-06-02T10:55:55.770+02:00,1654160152.999776,53.22881542151163,10.39860147983804,40.05172,0,0.31,107.9296875,18.71859275064163,4,5,-9999,3293.910497791667,-1.115142822265625,0.2653045654296875,0.7714691162109375,3293.900503791667,1.973768191002954,1.609394802041893,-1.330390620339714,4.030825138092041,3.209044933319092,-1.011536836624146,-3.258701086044312,0.7537491917610168,-2.577883243560791,XArbitraryZVertical,-0.7089552637146735,-0.044456308755865,0.2099227174656315,0.6718171991195194,0.2379186004400253,0.9712414741516113,0.009187858551740646,0,0,0,-1,-1,3286.641788041667,unknown,2,2022-06-02T10:55:48.500+02:00,2022-06-02T10:17:13.754+02:00,521,1.631355,0,0,405.4342,0,0,2022-06-02T10:55:53.617+02:00,675852953.6168796,0,4.113281,101.3333,1,0.77
2022-06-02T10:55:55.779+02:00,1654160152.999776,53.22881542151163,10.39860147983804,40.05172,0,0.31,107.9296875,18.71859275064163,4,5,-9999,3293.920491791667,-1.005844116210938,-0.5053253173828125,-0.0145416259765625,3293.910497791667,1.863412303904417,1.535530735725833,-1.334371120211615,0.8169465065002441,3.648122310638428,-0.0446913056075573,-2.203244924545288,-0.08726334571838379,0.09950590133666992,XArbitraryZVertical,-0.7034582250257074,-0.03189478726259582,0.19730451568488,0.6820558059823286,0.2340829223394394,0.972181499004364,-0.008258496411144733,0,0,0,-1,-1,3286.641788041667,unknown,2,2022-06-02T10:55:48.500+02:00,2022-06-02T10:17:13.754+02:00,521,1.631355,0,0,405.4342,0,0,2022-06-02T10:55:53.617+02:00,675852953.6168796,0,4.113281,101.3333,1,0.77
2022-06-02T10:55:55.790+02:00,1654160152.999776,53.22881542151163,10.39860147983804,40.05172,0,0.31,107.9296875,18.71859275064163,4,5,-9999,3293.930485791667,-0.852294921875,0.12213134765625,-0.4050140380859375,3293.920491791667,1.899895763293794,1.609071656883141,-1.337642218705696,-2.248558759689331,3.919606924057007,-0.7464790344238281,-1.346020460128784,-0.7076380848884583,0.7626277208328247,XArbitraryZVertical,-0.7099180969174302,-0.02090244571201665,0.1826264007968766,0.679872660364072,0.2308775782585144,0.9729424715042114,0.00884123332798481,0,0,0,-1,-1,3286.641788041667,unknown,2,2022-06-02T10:55:48.500+02:00,2022-06-02T10:17:13.754+02:00,521,1.631355,0,0,405.4342,0,0,2022-06-02T10:55:53.617+02:00,675852953.6168796,0,4.113281,101.3333,1,0.77
2022-06-02T10:55:55.800+02:00,1654160152.999776,53.22881542151163,10.39860147983804,40.05172,0,0.31,107.9296875,18.71859275064163,4,5,-9999,3293.940480791667,-1.217498779296875,0.290740966796875,-0.3208465576171875,3293.930485791667,2.037688650884161,1.782421687658652,-1.342677810340335,-3.746529817581177,4.037076950073242,-0.9770119786262512,-1.226943254470825,-1.479419231414795,-0.062043197453022,XArbitraryZVertical,-0.7235797303401724,-0.0135309061281628,0.1653106972113495,0.6700160048875277,0.2210990935564041,0.9740936160087585,0.04750142246484756,0,0,0,-1,-1,3286.641788041667,unknown,2,2022-06-02T10:55:48.500+02:00,2022-06-02T10:17:13.754+02:00,521,1.631355,0,0,405.4342,0,0,2022-06-02T10:55:53.617+02:00,675852953.6168796,0,4.113281,101.3333,1,0.77
2022-06-02T10:55:55.809+02:00,1654160152.999776,53.22881542151163,10.39860147983804,40.05172,0,0.31,107.9296875,18.71859275064163,4,5,-9999,3293.950474791667,-1.272430419921875,0.0143890380859375,-0.090789794921875,3293.940480791667,2.223117380062416,2.005419915613012,-1.339144924780151,-4.429786682128906,4.477058887481689,-1.131132960319519,-1.060534954071045,-0.8511573076248169,-0.5016851425170898,XArbitraryZVertical,-0.7404695281572073,-0.006357117934257064,0.1462450441942723,0.6559548732609297,0.2082400321960449,0.9732885956764221,0.09667106717824936,0,0,0,-1,-1,3286.641788041667,unknown,2,2022-06-02T10:55:48.500+02:00,2022-06-02T10:17:13.754+02:00,521,1.631355,0,0,405.4342,0,0,2022-06-02T10:55:53.617+02:00,675852953.6168796,0,4.113281,101.3333,1,0.77
2022-06-02T10:55:55.820+02:00,1654160152.999776,53.22881542151163,10.39860147983804,40.05172,0,0.31,107.9296875,18.71859275064163,4,5,-9999,3293.960468791667,-1.032485961914062,0.1011962890625,0.0576629638671875,3293.950474791667,2.419648239406373,2.24224830948023,-1.325494042638497,-4.885468482971191,4.696043014526367,-1.39309561252594,-1.407630562782288,-0.6793229579925537,-0.4719293117523193,XArbitraryZVertical,-0.758644200191154,0.0005291182144305678,0.1248643102800074,0.6394276100928373,0.1901318281888962,0.9700639843940735,0.1510826051235199,0,0,0,-1,-1,3286.641788041667,unknown,2,2022-06-02T10:55:48.500+02:00,2022-06-02T10:17:13.754+02:00,521,1.631355,0,0,405.4342,0,0,2022-06-02T10:55:53.617+02:00,675852953.6168796,0,4.113281,101.3333,1,0.77
2022-06-02T10:55:55.830+02:00,1654160152.999776,53.22881542151163,10.39860147983804,40.05172,0,0.31,107.9296875,18.71859275064163,4,5,-9999,3293.970462791667,-0.888336181640625,0.2303619384765625,0.263153076171875,3293.960468791667,2.592854428593336,2.457294867684014,-1.300139112008315,-4.862306118011475,4.808642387390137,-1.193169951438904,-1.441438794136047,-0.9492066502571106,-0.2979602217674255,XArbitraryZVertical,-0.7768691567239761,0.007706843046278571,0.1026127378608688,0.6211966459020453,0.169008269906044,0.9635953903198242,0.207170158624649,0,0,0,-1,-1,3286.641788041667,unknown,2,2022-06-02T10:55:48.500+02:00,2022-06-02T10:17:13.754+02:00,521,1.631355,0,0,405.4342,0,0,2022-06-02T10:55:53.617+02:00,675852953.6168796,0,4.113281,101.3333,1,0.77
2022-06-02T10:55:55.840+02:00,1654160152.999776,53.22881542151163,10.39860147983804,40.05172,0,0.31,107.9296875,18.71859275064163,4,5,-9999,3293.980457791667,-0.9629669189453125,0.1835174560546875,0.51251220703125,3293.970462791667,2.717975409597406,2.625198582391838,-1.268236910598691,-4.39095401763916,4.774055957794189,-1.091445803642273,-1.179604530334473,-0.8533810377120972,-0.2014476656913757,XArbitraryZVertical,-0.7932868745777215,0.01584615533987233,0.08067671210548208,0.6032709375564974,0.1471185982227325,0.9545770287513733,0.2591103315353394,0,0,0,-1,-1,3286.641788041667,unknown,2,2022-06-02T10:55:48.500+02:00,2022-06-02T10:17:13.754+02:00,521,1.631355,0,0,405.4342,0,0,2022-06-02T10:55:53.617+02:00,675852953.6168796,0,4.113281,101.3333,1,0.77
2022-06-02T10:55:55.850+02:00,1654160152.999776,53.22881542151163,10.39860147983804,40.05172,0,0.31,107.9296875,18.71859275064163,4,5,-9999,3293.990451791667,-1.05865478515625,0.1463470458984375,0.6221466064453125,3293.980457791667,2.809004013372799,2.759342683311586,-1.235589711221903,-4.013748645782471,4.797813892364502,-1.216217041015625,-1.011042475700378,-0.7139806747436523,-0.04206854104995728,XArbitraryZVertical,-0.8074878790632177,0.02395878639589718,0.05857900453743069,0.5864789731934267,0.1227063238620758,0.9443423748016357,0.3052214086055756,0,0,0,-1,-1,3286.641788041667,unknown,2,2022-06-02T10:55:48.500+02:00,2022-06-02T10:17:13.754+02:00,521,1.631355,0,0,405.4342,0,0,2022-06-02T10:55:53.617+02:00,675852953.6168796,0,4.113281,101.3333,1,0.77
2022-06-02T10:55:55.860+02:00,1654160152.999776,53.22881542151163,10.39860147983804,40.05172,0,0.31,107.9296875,18.71859275064163,4,5,-9999,3294.000445791667,-1.088272094726562,0.2599945068359375,0.5972900390625,3293.990451791667,2.879362074698183,2.873832388644819,-1.202112981828272,-3.93041467666626,4.90185546875,-1.228716135025024,-1.058315515518188,-0.7492852210998535,0.1649665832519531,XArbitraryZVertical,-0.8202116939510666,0.03202416991742526,0.03586799580197304,0.5700357313822283,0.0953485444188118,0.932802677154541,0.3475455343723297,0,0,0,-1,-1,3286.641788041667,unknown,2,2022-06-02T10:55:48.500+02:00,2022-06-02T10:17:13.754+02:00,521,1.631355,0,0,405.4342,0,0,2022-06-02T10:55:53.617+02:00,675852953.6168796,0,4.113281,101.3333,1,0.77
2022-06-02T10:55:55.870+02:00,1654160152.999776,53.22881542151163,10.39860147983804,40.05172,0,0.31,107.9296875,18.71859275064163,4,5,-9999,3294.010439791667,-1.095489501953125,0.5210418701171875,0.551727294921875,3294.000445791667,2.932828402607331,2.97255684302162,-1.16719930051808,-3.723640441894531,4.934739589691162,-1.182598233222961,-1.124724268913269,-0.7733075022697449,0.2350155711174011,XArbitraryZVertical,-0.8318265188912637,0.04037335390140144,0.01285298787137315,0.5534159502898583,0.06606943160295486,0.9196543097496033,0.3871307373046875,0,0,0,-1,-1,3286.641788041667,unknown,2,2022-06-02T10:55:48.500+02:00,2022-06-02T10:17:13.754+02:00,521,1.631355,0,0,405.4342,0,0,2022-06-02T10:55:53.617+02:00,675852953.6168796,0,4.113281,101.3333,1,0.77
2022-06-02T10:55:55.880+02:00,1654160152.999776,53.22881542151163,10.39860147983804,40.05172,0,0.31,107.9296875,18.71859275064163,4,5,-9999,3294.020433791667,-1.1783447265625,0.6873931884765625,0.5537261962890625,3294.010439791667,2.971344284071345,3.056944897212096,-1.133631180194578,-3.373234272003174,4.92216968536377,-1.082927227020264,-1.124066829681396,-0.6459609270095825,0.1754329800605774,XArbitraryZVertical,-0.8417393324155386,0.04902442892613348,-0.0100460702579543,0.5375598249422961,0.03579478338360786,0.9059554934501648,0.4218569993972778,0,0,0,-1,-1,3286.641788041667,unknown,2,2022-06-02T10:55:48.500+02:00,2022-06-02T10:17:13.754+02:00,521,1.631355,0,0,405.4342,0,0,2022-06-02T10:55:53.617+02:00,675852953.6168796,0,4.113281,101.3333,1,0.77
2022-06-02T10:55:55.890+02:00,1654160152.999776,53.22881542151163,10.39860147983804,40.05172,0,0.31,107.9296875,18.71859275064163,4,5,-9999,3294.030428791667,-1.278427124023438,0.7062835693359375,0.645233154296875,3294.020433791667,2.998932413042495,3.131093964056458,-1.101635387386229,-3.192264556884766,4.95866870880127,-1.019951701164246,-1.100236296653748,-0.3709061741828918,0.09961414337158203,XArbitraryZVertical,-0.8501140735989566,0.05798736890124886,-0.03283933397694633,0.5223648612447431,0.004746767692267895,0.8919479846954346,0.4521129429340363,0,0,0,-1,-1,3286.641788041667,unknown,2,2022-06-02T10:55:48.500+02:00,2022-06-02T10:17:13.754+02:00,521,1.631355,0,0,405.4342,0,0,2022-06-02T10:55:53.617+02:00,675852953.6168796,0,4.113281,101.3333,1,0.77
2022-06-02T10:55:55.900+02:00,1654160152.999776,53.22881542151163,10.39860147983804,40.05172,0,0.31,107.9296875,18.71859275064163,4,5,-9999,3294.040422791667,-1.32403564453125,0.638031005859375,0.7769622802734375,3294.030428791667,3.01799557340694,-3.085138723488311,-1.068643510392888,-3.447608470916748,5.068488121032715,-0.89022296667099,-1.151187062263489,-0.1891552805900574,0.07317936420440674,XArbitraryZVertical,-0.857741473815248,0.06747511506663567,-0.05568173641272131,0.5065827975453876,-0.02715760469436646,0.8765484094619751,0.4805466532707214,0,0,0,-1,-1,3286.641788041667,unknown,2,2022-06-02T10:55:48.500+02:00,2022-06-02T10:17:13.754+02:00,521,1.631355,0,0,405.4342,0,0,2022-06-02T10:55:53.617+02:00,675852953.6168796,0,4.113281,101.3333,1,0.77
2022-06-02T10:55:55.910+02:00,1654160152.999776,53.22881542151163,10.39860147983804,40.05172,0,0.31,107.9296875,18.71859275064163,4,5,-9999,3294.050416791667,-1.275863647460938,0.5034637451171875,0.968505859375,3294.040422791667,3.02710842406135,-3.02596312966499,-1.030883507523039,-4.072495460510254,5.172404289245605,-0.6605090498924255,-1.21911883354187,-0.1514701843261719,0.1346049308776855,XArbitraryZVertical,-0.8655690017618454,0.07813002925167892,-0.07834600625278079,0.4884134873203657,-0.05930822715163231,0.8577535152435303,0.5106279850006104,0,0,0,-1,-1,3286.641788041667,unknown,2,2022-06-02T10:55:48.500+02:00,2022-06-02T10:17:13.754+02:00,521,1.631355,0,0,405.4342,0,0,2022-06-02T10:55:53.617+02:00,675852953.6168796,0,4.113281,101.3333,1,0.77
2022-06-02T10:55:55.920+02:00,1654160152.999776,53.22881542151163,10.39860147983804,40.05172,0,0.31,107.9296875,18.71859275064163,4,5,-9999,3294.060410791667,-1.196243286132812,0.59149169921875,1.11968994140625,3294.050416791667,3.025594209084721,-2.975436369167105,-0.9868115571805925,-4.639161109924316,5.180058479309082,-0.3963173627853394,-1.232845902442932,-0.1962414979934692,0.2332032918930054,XArbitraryZVertical,-0.8739330069441206,0.09011341633859614,-0.1003218800040313,0.4669646097386845,-0.09118965268135071,0.8342722654342651,0.5437586307525635,0,0,0,-1,-1,3286.641788041667,unknown,2,2022-06-02T10:55:48.500+02:00,2022-06-02T10:17:13.754+02:00,521,1.631355,0,0,405.4342,0,0,2022-06-02T10:55:53.617+02:00,675852953.6168796,0,4.113281,101.3333,1,0.77
2022-06-02T10:55:55.930+02:00,1654160152.999776,53.22881542151163,10.39860147983804,40.05172,0,0.31,107.9296875,18.71859275064163,4,5,-9999,3294.070405791667,-1.14703369140625,0.749359130859375,1.140716552734375,3294.060410791667,3.013251219304562,-2.93408895546114,-0.9394918302844112,-4.914045333862305,5.102690696716309,0.02692469209432602,-1.154272317886353,-0.3037945032119751,0.3909681439399719,XArbitraryZVertical,-0.8820567209544713,0.1036567983926875,-0.1210293135017486,0.4433769636660737,-0.1215913668274879,0.8072583079338074,0.5775375962257385,0,0,0,-1,-1,3286.641788041667,unknown,2,2022-06-02T10:55:48.500+02:00,2022-06-02T10:17:13.754+02:00,521,1.631355,0,0,405.4342,0,0,2022-06-02T10:55:53.617+02:00,675852953.6168796,0,4.113281,101.3333,1,0.77
2022-06-02T10:55:55.941+02:00,1654160152.999776,53.22881542151163,10.39860147983804,40.05172,0,0.31,107.9296875,18.71859275064163,4,5,-9999,3294.080401416667,-1.096099853515625,0.853729248046875,1.160263061523438,3294.070405791667,2.992669164229332,-2.900109104356345,-0.8939781705284979,-4.425203800201416,4.950577735900879,0.3835370540618896,-1.046464085578918,-0.1880778670310974,0.511547327041626,XArbitraryZVertical,-0.8888336633392889,0.1185155538572167,-0.1402362751227387,0.4198362255768215,-0.149779200553894,0.7795695066452026,0.6081424355506897,0,0,0,-1,-1,3286.641788041667,unknown,2,2022-06-02T10:55:48.500+02:00,2022-06-02T10:17:13.754+02:00,521,1.631355,0,0,405.4342,0,0,2022-06-02T10:55:53.617+02:00,675852953.6168796,0,4.113281,101.3333,1,0.77
2022-06-02T10:55:55.950+02:00,1654160152.999776,53.22881542151163,10.39860147983804,40.05172,0,0.31,107.9296875,18.71859275064163,4,5,-9999,3294.090395416667,-1.053939819335938,0.96539306640625,1.247207641601562,3294.080401416667,2.969206387550011,-2.869390714553129,-0.8579185631449289,-3.303274393081665,4.802200317382812,0.6960754990577698,-0.9712002277374268,-0.007123708724975586,0.5107830166816711,XArbitraryZVertical,-0.8927865798867994,0.1337866253496641,-0.1584046470955022,0.3999265247665036,-0.175833448767662,0.7564828991889954,0.6299334764480591,0,0,0,-1,-1,3286.641788041667,unknown,2,2022-06-02T10:55:48.500+02:00,2022-06-02T10:17:13.754+02:00,521,1.631355,0,0,405.4342,0,0,2022-06-02T10:55:53.617+02:00,675852953.6168796,0,4.113281,101.3333,1,0.77
2022-06-02T10:55:55.960+02:00,1654160152.999776,53.22881542151163,10.39860147983804,40.05172,0,0.31,107.9296875,18.71859275064163,4,5,-9999,3294.100389416667,-1.052963256835938,1.07208251953125,1.390472412109375,3294.090395416667,2.9458945723567,-2.839074565238778,-0.8347485164110198,-2.031346082687378,4.761382102966309,0.9547789692878723,-0.8960837125778198,0.1126015782356262,0.5193859934806824,XArbitraryZVertical,-0.8934287327255455,0.1490758589404718,-0.1762376826520731,0.3853592933914416,-0.2000160813331604,0.7411276698112488,0.6408770084381104,0,0,0,-1,-1,3286.641788041667,unknown,2,2022-06-02T10:55:48.500+02:00,2022-06-02T10:17:13.754+02:00,521,1.631355,0,0,405.4342,0,0,2022-06-02T10:55:53.617+02:00,675852953.6168796,0,4.113281,101.3333,1,0.77
2022-06-02T10:55:55.970+02:00,1654160152.999776,53.22881542151163,10.39860147983804,40.05172,0,0.31,107.9296875,18.71859275064163,4,5,-9999,3294.110383416667,-1.096572875976562,1.220123291015625,1.502090454101562,3294.100389416667,2.924670888470803,-2.807051492438767,-0.8247044291050089,-0.8149706125259399,4.772890090942383,1.136337280273438,-0.8310739994049072,0.2310458421707153,0.6060640811920166,XArbitraryZVertical,-0.8908621484715965,0.1641228607107766,-0.1944167950653117,0.3763380835473492,-0.2228657603263855,0.7343471646308899,0.6411433815956116,0,0,0,-1,-1,3286.641788041667,unknown,2,2022-06-02T10:55:48.500+02:00,2022-06-02T10:17:13.754+02:00,521,1.631355,0,0,405.4342,0,0,2022-06-02T10:55:53.617+02:00,675852953.6168796,0,4.113281,101.3333,1,0.77
2022-06-02T10:55:55.980+02:00,1654160152.999776,53.22881542151163,10.39860147983804,40.05172,0,0.31,107.9296875,18.71859275064163,4,5,-9999,3294.120378416667,-1.1663818359375,1.3768310546875,1.519500732421875,3294.110383416667,2.906796613346583,-2.772131265810911,-0.826420924130649,0.2803004384040833,4.850726127624512,1.26002025604248,-0.8083045482635498,0.3365712761878967,0.758677065372467,XArbitraryZVertical,-0.8854182861226209,0.1786954780111552,-0.2132974786606961,0.372298968109645,-0.2446586936712265,0.7355112433433533,0.6317952275276184,0,0,0,-1,-1,3286.641788041667,unknown,2,2022-06-02T10:55:48.500+02:00,2022-06-02T10:17:13.754+02:00,521,1.631355,0,0,405.4342,0,0,2022-06-02T10:55:53.617+02:00,675852953.6168796,0,4.113281,101.3333,1,0.77
2022-06-02T10:55:55.990+02:00,1654160152.999776,53.22881542151163,10.39860147983804,40.05172,0,0.31,107.9296875,18.71859275064163,4,5,-9999,3294.130372416667,-1.212142944335938,1.361190795898438,1.380615234375,3294.120378416667,2.893062175076014,-2.732618373997906,-0.8383496231425005,1.175550222396851,5.099940299987793,1.352020263671875,-0.8306556940078735,0.4765826463699341,0.8885471224784851,XArbitraryZVertical,-0.8772534421249431,0.1928677983277112,-0.2334500600774778,0.3724639377677754,-0.2659171521663666,0.7435405254364014,0.6135431528091431,0,0,0,-1,-1,3286.641788041667,unknown,2,2022-06-02T10:55:48.500+02:00,2022-06-02T10:17:13.754+02:00,521,1.631355,0,0,405.4342,0,0,2022-06-02T10:55:53.617+02:00,675852953.6168796,0,4.113281,101.3333,1,0.77
2022-06-02T10:55:56.000+02:00,1654160152.999776,53.22881542151163,10.39860147983804,40.05172,0,0.31,107.9296875,18.71859275064163,4,5,-9999,3294.140366416667,-1.216842651367188,1.16131591796875,1.265426635742188,3294.130372416667,2.883885558979022,-2.68726739089148,-0.857684020887967,1.761510610580444,5.335507869720459,1.368687033653259,-0.8792861700057983,0.6205015182495117,0.9316726922988892,XArbitraryZVertical,-0.8667042616359261,0.2067309671694001,-0.2551811368732276,0.3754578364305388,-0.2870956361293793,0.7563294768333435,0.5878279209136963,0,0,0,-1,-1,3286.641788041667,unknown,2,2022-06-02T10:55:48.500+02:00,2022-06-02T10:17:13.754+02:00,521,1.631355,0,0,405.4342,0,0,2022-06-02T10:55:53.617+02:00,675852953.6168796,0,4.113281,101.3333,1,0.77
2022-06-02T10:55:56.010+02:00,1654160152.999776,53.22881542151163,10.39860147983804,40.05172,0,0.31,107.9296875,18.71859275064163,4,5,-9999,3294.150360416667,-1.254302978515625,0.9941864013671875,1.187728881835938,3294.140366416667,2.877960767577362,-2.637832620335299,-0.8804571223397479,1.838424324989319,5.439111232757568,1.412389039993286,-0.9047462940216064,0.5901607275009155,0.8229236602783203,XArbitraryZVertical,-0.854548858365728,0.2204358761744916,-0.2777495542958549,0.3794856872825974,-0.3073966205120087,0.771030068397522,0.5576914548873901,0,0,0,-1,-1,3286.641788041667,unknown,2,2022-06-02T10:55:48.500+02:00,2022-06-02T10:17:13.754+02:00,521,1.631355,0,0,405.4342,0,0,2022-06-02T10:55:53.617+02:00,675852953.6168796,0,4.113281,101.3333,1,0.77
2022-06-02T10:55:56.020+02:00,1654160152.999776,53.22881542151163,10.39860147983804,40.05172,0,0.31,107.9296875,18.71859275064163,4,5,-9999,3294.160354416667,-1.274642944335938,0.8945159912109375,1.069168090820312,3294.150360416667,2.870823535436883,-2.589002801197305,-0.9011697914203888,1.21681272983551,5.4193434715271,1.439631581306458,-0.8910448551177979,0.3772624731063843,0.7371123433113098,XArbitraryZVertical,-0.842091442100563,0.2346041732491038,-0.2998688026582503,0.3819968653558359,-0.3257977962493896,0.7840535044670105,0.5283142328262329,0,0,0,-1,-1,3286.641788041667,unknown,2,2022-06-02T10:55:48.500+02:00,2022-06-02T10:17:13.754+02:00,521,1.631355,0,0,405.4342,0,0,2022-06-02T10:55:53.617+02:00,675852953.6168796,0,4.113281,101.3333,1,0.77
2022-06-02T10:55:56.030+02:00,1654160152.999776,53.22881542151163,10.39860147983804,40.05172,0,0.31,107.9296875,18.71859275064163,4,5,-9999,3294.170349416667,-1.261260986328125,0.92236328125,1.082412719726562,3294.160354416667,2.859359008123073,-2.544475117324709,-0.9169766993465115,0.7132312655448914,5.303927898406982,1.467723965644836,-0.9123231172561646,0.2004198431968689,0.6847532391548157,XArbitraryZVertical,-0.8302227853062668,0.2494350817144005,-0.3206390580898377,0.3817102844098305,-0.3419798314571381,0.7937664389610291,0.5029754638671875,0,0,0,-1,-1,3286.641788041667,unknown,2,2022-06-02T10:55:48.500+02:00,2022-06-02T10:17:13.754+02:00,521,1.631355,0,0,405.4342,0,0,2022-06-02T10:55:53.617+02:00,675852953.6168796,0,4.113281,101.3333,1,0.77
2022-06-02T10:55:56.040+02:00,1654160152.999776,53.22881542151163,10.39860147983804,40.05172,0,0.31,107.9296875,18.71859275064163,4,5,-9999,3294.180343416667,-1.319290161132812,0.951446533203125,1.105178833007812,3294.170349416667,2.844415135184028,-2.503817066559095,-0.9305869636873026,0.4699740707874298,5.21448278427124,1.578946232795715,-0.9189671277999878,0.09254509210586548,0.5892332792282104,XArbitraryZVertical,-0.8184582603149655,0.2647514559512648,-0.3401694976579807,0.379891070940526,-0.3556756377220154,0.8019707202911377,0.4799345135688782,0,0,0,-1,-1,3286.641788041667,unknown,2,2022-06-02T10:55:48.500+02:00,2022-06-02T10:17:13.754+02:00,521,1.631355,0,0,405.4342,0,0,2022-06-02T10:55:53.617+02:00,675852953.6168796,0,4.113281,101.3333,1,0.77
2022-06-02T10:55:56.050+02:00,1654160152.999776,53.22881542151163,10.39860147983804,40.05172,0,0.31,107.9296875,18.71859275064163,4,5,-9999,3294.190337416667,-1.427947998046875,1.05474853515625,1.158782958984375,3294.180343416667,2.82687316341174,-2.466197404753385,-0.9439140754511414,0.4002080261707306,5.144481182098389,1.687498569488525,-0.8945011496543884,0.1125028133392334,0.6245772838592529,XArbitraryZVertical,-0.8063865343058481,0.280461061851533,-0.3586718292008976,0.3774079758383735,-0.3667597770690918,0.8098604083061218,0.4578352868556976,0,0,0,-1,-1,3286.641788041667,unknown,2,2022-06-02T10:55:48.500+02:00,2022-06-02T10:17:13.754+02:00,521,1.631355,0,0,405.4342,0,0,2022-06-02T10:55:53.617+02:00,675852953.6168796,0,4.113281,101.3333,1,0.77
2022-06-02T10:55:56.060+02:00,1654160152.999776,53.22881542151163,10.39860147983804,40.05172,0,0.31,107.9296875,18.71859275064163,4,5,-9999,3294.200331416667,-1.493408203125,1.295333862304688,1.195098876953125,3294.190337416667,2.809525235485218,-2.42901460543917,-0.9593850676490725,0.7059456706047058,5.128862857818604,1.849781394004822,-0.9440011382102966,0.1326078772544861,0.6708272099494934,XArbitraryZVertical,-0.7933846133322914,0.2961699707296073,-0.3766607800025399,0.3754342490748629,-0.3752890229225159,0.8188387155532837,0.4343515932559967,0,0,0,-1,-1,3286.641788041667,unknown,2,2022-06-02T10:55:48.500+02:00,2022-06-02T10:17:13.754+02:00,521,1.631355,0,0,405.4342,0,0,2022-06-02T10:55:53.617+02:00,675852953.6168796,0,4.113281,101.3333,1,0.77
2022-06-02T10:55:56.070+02:00,1654160152.999776,53.22881542151163,10.39860147983804,40.05172,0,0.31,107.9296875,18.71859275064163,4,5,-9999,3294.210326416667,-1.466766357421875,1.409774780273438,1.173095703125,3294.200331416667,2.795338947331567,-2.389497555996594,-0.9797239025079235,1.289837956428528,5.120269775390625,2.058131694793701,-1.047250270843506,0.2244048714637756,0.7518448829650879,XArbitraryZVertical,-0.778703954097451,0.3115913006269372,-0.3946005842138019,0.3752615642372883,-0.3806975781917572,0.8303435444831848,0.4069379866123199,0,0,0,-1,-1,3286.641788041667,unknown,2,2022-06-02T10:55:48.500+02:00,2022-06-02T10:17:13.754+02:00,521,1.631355,0,0,405.4342,0,0,2022-06-02T10:55:53.617+02:00,675852953.6168796,0,4.113281,101.3333,1,0.77
2022-06-02T10:55:56.080+02:00,1654160152.999776,53.22881542151163,10.39860147983804,40.05172,0,0.31,107.9296875,18.71859275064163,4,5,-9999,3294.220320416667,-1.394775390625,1.391265869140625,1.155624389648438,3294.210326416667,2.789111359891268,-2.343206284477822,-1.006423613066431,2.007692098617554,5.19947624206543,2.158891439437866,-1.11030650138855,0.450409471988678,0.8218216896057129,XArbitraryZVertical,-0.7617934972600895,0.3260509135274735,-0.4131232314554897,0.3777440220108942,-0.383101612329483,0.84492427110672,0.3732770681381226,0,0,0,-1,-1,3286.641788041667,unknown,2,2022-06-02T10:55:48.500+02:00,2022-06-02T10:17:13.754+02:00,521,1.631355,0,0,405.4342,0,0,2022-06-02T10:55:53.617+02:00,675852953.6168796,0,4.113281,101.3333,1,0.77
2022-06-02T10:55:56.091+02:00,1654160152.999776,53.22881542151163,10.39860147983804,40.05172,0,0.31,107.9296875,18.71859275064163,4,5,-9999,3294.230314416667,-1.33740234375,1.306167602539062,1.10784912109375,3294.220320416667,2.79223135475925,-2.28801264103604,-1.037553418548721,2.402413845062256,5.304308891296387,2.188357591629028,-1.083670377731323,0.5486116409301758,0.8389766216278076,XArbitraryZVertical,-0.7428274860060189,0.3395097056684143,-0.4324557736565881,0.3819980305991079,-0.3830959796905518,0.8611631393432617,0.3341190218925476,0,0,0,-1,-1,3286.641788041667,unknown,2,2022-06-02T10:55:48.500+02:00,2022-06-02T10:17:13.754+02:00,521,1.631355,0,0,405.4342,0,0,2022-06-02T10:55:53.617+02:00,675852953.6168796,0,4.113281,101.3333,1,0.77
2022-06-02T10:55:56.099+02:00,1654160152.999776,53.22881542151163,10.39860147983804,40.05172,0,0.31,107.9296875,18.71859275064163,4,5,-9999,3294.240308416667,-1.320892333984375,1.204910278320312,1.072738647460938,3294.230314416667,2.802242756184525,-2.226042799258748,-1.069928931718417,2.413114786148071,5.352748870849609,2.191460847854614,-1.014036655426025,0.5140994191169739,0.8630204200744629,XArbitraryZVertical,-0.7225812760700865,0.3523892563002908,-0.4519703845701583,0.3865498481478195,-0.3807386457920074,0.8771663904190063,0.2926037907600403,0,0,0,-1,-1,3286.641788041667,unknown,2,2022-06-02T10:55:48.500+02:00,2022-06-02T10:17:13.754+02:00,521,1.631355,0,0,405.4342,0,0,2022-06-02T10:55:53.617+02:00,675852953.6168796,0,4.113281,101.3333,1,0.77
2022-06-02T10:55:56.109+02:00,1654160152.999776,53.22881542151163,10.39860147983804,40.05172,0,0.31,107.9296875,18.71859275064163,4,5,-9999,3294.250302416667,-1.300827026367188,1.195404052734375,1.1014404296875,3294.240308416667,2.814493358965725,-2.161586053025246,-1.101137792662917,2.105203866958618,5.374683380126953,2.217022657394409,-0.9615327119827271,0.4144446849822998,0.8557533025741577,XArbitraryZVertical,-0.7018223611571504,0.3653672571772964,-0.4708905202064559,0.3901463932573729,-0.3758695721626282,0.8917228579521179,0.2520957291126251,0,0,0,-1,-1,3286.641788041667,unknown,2,2022-06-02T10:55:48.500+02:00,2022-06-02T10:17:13.754+02:00,521,1.631355,0,0,405.4342,0,0,2022-06-02T10:55:53.617+02:00,675852953.6168796,0,4.113281,101.3333,1,0.77
2022-06-02T10:55:56.119+02:00,1654160152.999776,53.22881542151163,10.39860147983804,40.05172,0,0.31,107.9296875,18.71859275064163,4,5,-9999,3294.260297416667,-1.27337646484375,1.263565063476562,1.11614990234375,3294.250302416667,2.821513779368577,-2.101446201997264,-1.130001617402073,1.463910579681396,5.395247936248779,2.341288328170776,-0.9529087543487549,0.3004973530769348,0.8568093776702881,XArbitraryZVertical,-0.6811526527719249,0.3794675953907514,-0.488390572516514,0.3918035736609793,-0.3679835498332977,0.9044128656387329,0.2159291803836823,0,0,0,-1,-1,3286.641788041667,unknown,2,2022-06-02T10:55:48.500+02:00,2022-06-02T10:17:13.754+02:00,521,1.631355,0,0,405.4342,0,0,2022-06-02T10:55:53.617+02:00,675852953.6168796,0,4.113281,101.3333,1,0.77
2022-06-02T10:55:56.129+02:00,1654160152.999776,53.22881542151163,10.39860147983804,40.05172,0,0.31,107.9296875,18.71859275064163,4,5,-9999,3294.270291416667,-1.259536743164062,1.39434814453125,1.11785888671875,3294.260297416667,2.817627395129972,-2.051084845385485,-1.156642790583347,0.8535737991333008,5.379547119140625,2.472118139266968,-0.9439406394958496,0.2799466848373413,0.9155105352401733,XArbitraryZVertical,-0.6608642916897373,0.3952509046053325,-0.5039832427981924,0.3911980262415967,-0.3568862974643707,0.9154572486877441,0.1859297752380371,0,0,0,-1,-1,3286.641788041667,unknown,2,2022-06-02T10:55:48.500+02:00,2022-06-02T10:17:13.754+02:00,521,1.631355,0,0,405.4342,0,0,2022-06-02T10:55:53.617+02:00,675852953.6168796,0,4.113281,101.3333,1,0.77
2022-06-02T10:55:56.140+02:00,1654160152.999776,53.22881542151163,10.39860147983804,40.05172,0,0.31,107.9296875,18.71859275064163,4,5,-9999,3294.280285416667,-1.291229248046875,1.452911376953125,1.137969970703125,3294.270291416667,2.803460332183712,-2.010569193208719,-1.182506840722583,0.4797655642032623,5.337554454803467,2.657392978668213,-0.9307959675788879,0.3380069136619568,0.9549646377563477,XArbitraryZVertical,-0.6407345407584111,0.4123733931263213,-0.517728465779754,0.3890559225588206,-0.3425804078578949,0.9255580306053162,0.1611851304769516,0,0,0,-1,-1,3286.641788041667,unknown,2,2022-06-02T10:55:48.500+02:00,2022-06-02T10:17:13.754+02:00,521,1.631355,0,0,405.4342,0,0,2022-06-02T10:55:53.617+02:00,675852953.6168796,0,4.113281,101.3333,1,0.77
2022-06-02T10:55:56.149+02:00,1654160152.999776,53.22881542151163,10.39860147983804,40.05172,0,0.31,107.9296875,18.71859275064163,4,5,-9999,3294.290279416667,-1.312911987304688,1.415176391601562,1.195358276367188,3294.280285416667,2.784019480538868,-1.975817042746173,-1.209418706898943,0.4727151095867157,5.222175598144531,2.829169034957886,-0.9345790147781372,0.458937406539917,0.9785416126251221,XArbitraryZVertical,-0.6202266417022976,0.4300901052503714,-0.5300177016825517,0.3865521611832923,-0.3249576687812805,0.9354106187820435,0.1393171697854996,0,0,0,-1,-1,3286.641788041667,unknown,2,2022-06-02T10:55:48.500+02:00,2022-06-02T10:17:13.754+02:00,521,1.631355,0,0,405.4342,0,0,2022-06-02T10:55:53.617+02:00,675852953.6168796,0,4.113281,101.3333,1,0.77
2022-06-02T10:55:56.160+02:00,1654160152.999776,53.22881542151163,10.39860147983804,40.05172,0,0.31,107.9296875,18.71859275064163,4,5,-9999,3294.300273416667,-1.316192626953125,1.525405883789062,1.197723388671875,3294.290279416667,2.768637270725628,-1.938874017745772,-1.23881333925599,0.7993864417076111,5.058382511138916,3.014882802963257,-0.9871408939361572,0.5075133442878723,1.020697236061096,XArbitraryZVertical,-0.5988469739877197,0.447234418627259,-0.5414227455394341,0.3849999724418922,-0.3040882647037506,0.9453979134559631,0.1172726452350616,0,0,0,-1,-1,3286.641788041667,unknown,2,2022-06-02T10:55:48.500+02:00,2022-06-02T10:17:13.754+02:00,521,1.631355,0,0,405.4342,0,0,2022-06-02T10:55:53.617+02:00,675852953.6168796,0,4.113281,101.3333,1,0.77
2022-06-02T10:55:56.170+02:00,1654160152.999776,53.22881542151163,10.39860147983804,40.05172,0,0.31,107.9296875,18.71859275064163,4,5,-9999,3294.310268416667,-1.286483764648438,1.711517333984375,1.182037353515625,3294.300273416667,2.766849744263359,-1.890818354903149,-1.271712357354665,1.329871654510498,4.903026580810547,3.216859102249146,-1.033226490020752,0.4595695734024048,1.102666616439819,XArbitraryZVertical,-0.576111869711013,0.463077661570003,-0.5524433675944295,0.3853057466101865,-0.2796854078769684,0.9556068181991577,0.09269161522388458,0,0,0,-1,-1,3286.641788041667,unknown,2,2022-06-02T10:55:48.500+02:00,2022-06-02T10:17:13.754+02:00,521,1.631355,0,0,405.4342,0,0,2022-06-02T10:55:53.617+02:00,675852953.6168796,0,4.113281,101.3333,1,0.77
2022-06-02T10:55:56.186+02:00,1654160152.999776,53.22881542151163,10.39860147983804,40.05172,0,0.31,107.9296875,18.71859275064163,4,5,-9999,3294.320262416667,-1.244949340820312,1.803131103515625,1.08514404296875,3294.310268416667,2.789997690701841,-1.819917955181782,-1.307884115697347,1.927448749542236,4.849739074707031,3.35352611541748,-1.064321994781494,0.5597686171531677,1.13364577293396,XArbitraryZVertical,-0.5516446340826873,0.4772074474169463,-0.5636359192758008,0.387654175669239,-0.2518705427646637,0.96563720703125,0.06407750397920609,0,0,0,-1,-1,3286.641788041667,unknown,2,2022-06-02T10:55:48.500+02:00,2022-06-02T10:17:13.754+02:00,521,1.631355,0,0,405.4342,0,0,2022-06-02T10:55:53.617+02:00,675852953.6168796,0,4.113281,101.3333,1,0.77
2022-06-02T10:55:56.192+02:00,1654160152.999776,53.22881542151163,10.39860147983804,40.05172,0,0.31,107.9296875,18.71859275064163,4,5,-9999,3294.330256416667,-1.175201416015625,1.804275512695312,1.031784057617188,3294.320262416667,2.851912136339235,-1.711113474146944,-1.345642941000723,2.442623138427734,4.896202087402344,3.490311861038208,-1.065422534942627,0.7367573976516724,1.150813460350037,XArbitraryZVertical,-0.5252399971100549,0.4896272865707922,-0.5754126120886989,0.391520490335076,-0.2210611999034882,0.9747598767280579,0.03122386895120144,0,0,0,-1,-1,3286.641788041667,unknown,2,2022-06-02T10:55:48.500+02:00,2022-06-02T10:17:13.754+02:00,521,1.631355,0,0,405.4342,0,0,2022-06-02T10:55:56.174+02:00,675852953.6168796,0,4.113281,101.3333,1,0.77
2022-06-02T10:55:56.200+02:00,1654160152.999776,53.22881542151163,10.39860147983804,40.05172,0,0.31,107.9296875,18.71859275064163,4,5,-9999,3294.340250416667,-1.095489501953125,1.675750732421875,0.9427337646484375,3294.330256416667,2.967319456417433,-1.54942656732668,-1.382904036048518,2.70941162109375,4.838826656341553,3.644835472106934,-1.058202981948853,0.8207310438156128,1.0891352891922,XArbitraryZVertical,-0.4971472943247198,0.5008481830081182,-0.5872174980943348,0.3964483804045413,-0.186746284365654,0.982400119304657,-0.00399133050814271,0,0,0,-1,-1,3294.316185416667,walking,2,2022-06-02T10:55:56.174+02:00,2022-06-02T10:17:13.754+02:00,521,1.631355,0,0,405.4342,0,0,2022-06-02T10:55:56.174+02:00,675852956.1742305,0,4.382812,101.3313,1,0.77
2022-06-02T10:55:56.209+02:00,1654160152.999776,53.22881542151163,10.39860147983804,40.05172,0,0.31,107.9296875,18.71859275064163,4,5,-9999,3294.350245416667,-1.028900146484375,1.562545776367188,0.8669281005859375,3294.340250416667,-3.122956517499292,-1.31137547652001,-1.41543248950009,2.885761260986328,4.752990245819092,3.688090085983276,-1.025639533996582,0.8163202404975891,1.071478009223938,XArbitraryZVertical,-0.4680643739945267,0.5109488903089221,-0.5985583929233409,0.4019637295107939,-0.149561882019043,0.9879552721977234,-0.03969394788146019,0,0,0,-1,-1,3294.316185416667,walking,2,2022-06-02T10:55:56.174+02:00,2022-06-02T10:17:13.754+02:00,521,1.631355,0,0,405.4342,0,0,2022-06-02T10:55:56.174+02:00,675852956.1742305,0,4.382812,101.3313,1,0.77
2022-06-02T10:55:56.220+02:00,1654160152.999776,53.22881542151163,10.39860147983804,40.05172,0,0.31,107.9296875,18.71859275064163,4,5,-9999,3294.360239416667,-1.006683349609375,1.439651489257812,0.8892974853515625,3294.350245416667,-2.831331429668646,-0.9755360345145475,-1.437573342192978,2.877992153167725,4.688230514526367,3.765783071517944,-0.9855072498321533,0.6846116781234741,1.017213821411133,XArbitraryZVertical,-0.4383520659172239,0.5201994103461839,-0.6091719979919765,0.4076142615533442,-0.1099822074174881,0.9911389350891113,-0.0744800791144371,0,0,0,-1,-1,3294.316185416667,walking,2,2022-06-02T10:55:56.174+02:00,2022-06-02T10:17:13.754+02:00,521,1.631355,0,0,405.4342,0,0,2022-06-02T10:55:56.174+02:00,675852956.1742305,0,4.382812,101.3313,1,0.77
2022-06-02T10:55:56.230+02:00,1654160152.999776,53.22881542151163,10.39860147983804,40.05172,0,0.31,107.9296875,18.71859275064163,4,5,-9999,3294.370233416667,-1.006851196289062,1.290176391601562,0.875823974609375,3294.360239416667,-2.470109631994469,-0.5708991420970342,-1.444502212289375,2.589695453643799,4.59561014175415,3.832190990447998,-0.9608341455459595,0.5705100893974304,0.972910463809967,XArbitraryZVertical,-0.4084756609114225,0.5292980638013536,-0.6184282294647966,0.4129618927555793,-0.06806589663028717,0.9920355081558228,-0.1059823855757713,0,0,0,-1,-1,3294.316185416667,walking,2,2022-06-02T10:55:56.174+02:00,2022-06-02T10:17:13.754+02:00,521,1.631355,0,0,405.4342,0,0,2022-06-02T10:55:56.174+02:00,675852956.1742305,0,4.382812,101.3313,1,0.77
2022-06-02T10:55:56.240+02:00,1654160152.999776,53.22881542151163,10.39860147983804,40.05172,0,0.31,107.9296875,18.71859275064163,4,5,-9999,3294.380227416667,-0.936981201171875,1.20635986328125,0.8437652587890625,3294.370233416667,-2.127636585113176,-0.1855927135461366,-1.437760677560698,1.878271698951721,4.534672260284424,3.859942674636841,-0.9822067618370056,0.4484876394271851,1.019662857055664,XArbitraryZVertical,-0.379333219105132,0.539373354254108,-0.6254260144641028,0.4171629735738845,-0.02447654120624065,0.9911637902259827,-0.1303653866052628,0,0,0,-1,-1,3294.316185416667,walking,2,2022-06-02T10:55:56.174+02:00,2022-06-02T10:17:13.754+02:00,521,1.631355,0,0,405.4342,0,0,2022-06-02T10:55:56.174+02:00,675852956.1742305,0,4.382812,101.3313,1,0.77
2022-06-02T10:55:56.250+02:00,1654160152.999776,53.22881542151163,10.39860147983804,40.05172,0,0.31,107.9296875,18.71859275064163,4,5,-9999,3294.390221416667,-0.8044891357421875,1.439346313476562,0.817657470703125,3294.380227416667,-1.850805884340214,0.133037334186915,-1.422195864077915,1.443081617355347,4.354158878326416,3.789257287979126,-1.026489853858948,0.3011971712112427,1.022570252418518,XArbitraryZVertical,-0.3514876508152474,0.5505299840803805,-0.6300118955369308,0.4200693472798822,0.01963873952627182,0.9889792799949646,-0.1467463374137878,0,0,0,-1,-1,3294.316185416667,walking,2,2022-06-02T10:55:56.174+02:00,2022-06-02T10:17:13.754+02:00,521,1.631355,0,0,405.4342,0,0,2022-06-02T10:55:56.174+02:00,675852956.1742305,0,4.382812,101.3313,1,0.77
2022-06-02T10:55:56.260+02:00,1654160152.999776,53.22881542151163,10.39860147983804,40.05172,0,0.31,107.9296875,18.71859275064163,4,5,-9999,3294.400216416667,-0.7447662353515625,1.834426879882812,0.8293914794921875,3294.390221416667,-1.64483566136793,0.3788453597368001,-1.398269005249277,1.591990232467651,4.155683040618896,3.808288097381592,-1.000473976135254,0.2212057113647461,1.003264904022217,XArbitraryZVertical,-0.3244663239180817,0.561223441644226,-0.6333017151558076,0.4227041220499237,0.06349276751279831,0.9851540327072144,-0.1594997048377991,0,0,0,-1,-1,3294.316185416667,walking,2,2022-06-02T10:55:56.174+02:00,2022-06-02T10:17:13.754+02:00,521,1.631355,0,0,405.4342,0,0,2022-06-02T10:55:56.174+02:00,675852956.1742305,0,4.382812,101.3313,1,0.77
2022-06-02T10:55:56.269+02:00,1654160152.999776,53.22881542151163,10.39860147983804,40.05172,0,0.31,107.9296875,18.71859275064163,4,5,-9999,3294.410210416667,-0.755706787109375,1.832717895507812,0.8408050537109375,3294.400216416667,-1.502116901023401,0.5599356925695191,-1.364761467944484,1.930043339729309,4.028767585754395,4.010800361633301,-0.9131481647491455,0.4604964256286621,0.9909960627555847,XArbitraryZVertical,-0.2966879798658542,0.5703568499101076,-0.6363619558469907,0.4262777953813787,0.1086590364575386,0.9788497686386108,-0.1733386069536209,0,0,0,-1,-1,3294.316185416667,walking,2,2022-06-02T10:55:56.174+02:00,2022-06-02T10:17:13.754+02:00,521,1.631355,0,0,405.4342,0,0,2022-06-02T10:55:56.174+02:00,675852956.1742305,0,4.382812,101.3313,1,0.77
2022-06-02T10:55:56.280+02:00,1654160152.999776,53.22881542151163,10.39860147983804,40.05172,0,0.31,107.9296875,18.71859275064163,4,5,-9999,3294.420204416667,-0.734283447265625,1.521011352539062,0.8266143798828125,3294.410210416667,-1.410540310466823,0.6890397442512598,-1.323648110432499,2.354368686676025,3.94773006439209,4.10151481628418,-0.9003070592880249,0.8648127317428589,1.018218040466309,XArbitraryZVertical,-0.2677329018330521,0.5778458195525588,-0.6393750305153808,0.4308279722043022,0.1555408239364624,0.9696140289306641,-0.1888266056776047,0,0,0,-1,-1,3294.316185416667,walking,2,2022-06-02T10:55:56.174+02:00,2022-06-02T10:17:13.754+02:00,521,1.631355,0,0,405.4342,0,0,2022-06-02T10:55:56.174+02:00,675852956.1742305,0,4.382812,101.3313,1,0.77
