loggingTime(txt),locationTimestamp_since1970(s),locationLatitude(WGS84),locationLongitude(WGS84),locationAltitude(m),locationSpeed(m/s),locationSpeedAccuracy(m/s),locationCourse(°),locationCourseAccuracy(°),locationVerticalAccuracy(m),locationHorizontalAccuracy(m),locationFloor(Z),accelerometerTimestamp_sinceReboot(s),accelerometerAccelerationX(G),accelerometerAccelerationY(G),accelerometerAccelerationZ(G),motionTimestamp_sinceReboot(s),motionYaw(rad),motionRoll(rad),motionPitch(rad),motionRotationRateX(rad/s),motionRotationRateY(rad/s),motionRotationRateZ(rad/s),motionUserAccelerationX(G),motionUserAccelerationY(G),motionUserAccelerationZ(G),motionAttitudeReferenceFrame(txt),motionQuaternionX(R),motionQuaternionY(R),motionQuaternionZ(R),motionQuaternionW(R),motionGravityX(G),motionGravityY(G),motionGravityZ(G),motionMagneticFieldX(µT),motionMagneticFieldY(µT),motionMagneticFieldZ(µT),motionHeading(°),motionMagneticFieldCalibrationAccuracy(Z),activityTimestamp_sinceReboot(s),activity(txt),activityActivityConfidence(Z),activityActivityStartDate(txt),pedometerStartDate(txt),pedometerNumberofSteps(N),pedometerAverageActivePace(s/m),pedometerCurrentPace(s/m),pedometerCurrentCadence(steps/s),pedometerDistance(m),pedometerFloorAscended(N),pedometerFloorDescended(N),pedometerEndDate(txt),altimeterTimestamp_sinceReboot(s),altimeterReset(bool),altimeterRelativeAltitude(m),altimeterPressure(kPa),batteryState(N),batteryLevel(R)
2022-06-02T10:57:56.871+02:00,1654160272.999632,53.22905935069136,10.39852294524522,35.3208,0,20,-1,-1,2.400000095367432,11.99936978251625,-9999,3414.985016916667,0.122650146484375,-0.3727264404296875,-0.929534912109375,3414.980019916667,-0.028405315772532,0.1038971110068911,0.3660897652690612,0.02165695838630199,0.1014664396643639,-0.07302787154912949,0.0235540047287941,-0.01341661810874939,-0.004009604454040527,XArbitraryZVertical,0.1824856782890836,0.04847092778671266,-0.004495378901586104,0.9820026746357005,0.0968378484249115,-0.3579670488834381,-0.9286990761756897,0,0,0,-1,-1,3404.286036541667,unknown,2,2022-06-02T10:57:46.144+02:00,2022-06-02T10:17:13.754+02:00,538,1.652724,0,0,417.4277,0,0,2022-06-02T10:57:56.370+02:00,675853076.370396,0,3.070312,101.3463,1,0.77
2022-06-02T10:57:56.876+02:00,1654160272.999632,53.22905935069136,10.39852294524522,35.3208,0,20,-1,-1,2.400000095367432,11.99936978251625,-9999,3414.995011916667,0.100494384765625,-0.3736724853515625,-0.9286651611328125,3414.990013916667,-0.02931615398435325,0.1053394646939961,0.3658334456104629,-0.01055221073329449,0.08371306955814362,-0.07730124145746231,0.02446325123310089,-0.01499873399734497,-0.0008852481842041016,XArbitraryZVertical,0.1823854397550898,0.04909907156863894,-0.004817954400559466,0.9819885469418035,0.09818690270185471,-0.3577277064323425,-0.9286496639251709,0,0,0,-1,-1,3404.286036541667,unknown,2,2022-06-02T10:57:46.144+02:00,2022-06-02T10:17:13.754+02:00,538,1.652724,0,0,417.4277,0,0,2022-06-02T10:57:56.370+02:00,675853076.370396,0,3.070312,101.3463,1,0.77
2022-06-02T10:57:56.883+02:00,1654160272.999632,53.22905935069136,10.39852294524522,35.3208,0,20,-1,-1,2.400000095367432,11.99936978251625,-9999,3415.005005916667,0.084869384765625,-0.367828369140625,-0.9341888427734375,3415.000008916667,-0.03012830767956669,0.1066191196590115,0.3654827817759267,-0.02433460205793381,0.09163863956928253,-0.06755221635103226,0.00110587477684021,-0.01627227663993835,-1.722574234008789e-05,XArbitraryZVertical,0.1822365348858831,0.04965758668828333,-0.005109673689852101,0.9819866777584269,0.09938851743936539,-0.3574002385139465,-0.9286479353904724,0,0,0,-1,-1,3404.286036541667,unknown,2,2022-06-02T10:57:46.144+02:00,2022-06-02T10:17:13.754+02:00,538,1.652724,0,0,417.4277,0,0,2022-06-02T10:57:56.370+02:00,675853076.370396,0,3.070312,101.3463,1,0.77
2022-06-02T10:57:56.886+02:00,1654160272.999632,53.22905935069136,10.39852294524522,35.3208,0,20,-1,-1,2.400000095367432,11.99936978251625,-9999,3415.015000916667,0.1041717529296875,-0.3558807373046875,-0.937225341796875,3415.010003916667,-0.03078432317721339,0.1079357660648872,0.3651668319630525,-0.03325419500470161,0.1097033992409706,-0.05841677263379097,-0.01575389504432678,-0.01072326302528381,-0.005560338497161865,XArbitraryZVertical,0.182101271138808,0.05024819699138606,-0.005320609935158785,0.9819806064099043,0.1006232872605324,-0.3571051359176636,-0.9286285042762756,0,0,0,-1,-1,3404.286036541667,unknown,2,2022-06-02T10:57:46.144+02:00,2022-06-02T10:17:13.754+02:00,538,1.652724,0,0,417.4277,0,0,2022-06-02T10:57:56.370+02:00,675853076.370396,0,3.070312,101.3463,1,0.77
2022-06-02T10:57:56.892+02:00,1654160272.999632,53.22905935069136,10.39852294524522,35.3208,0,20,-1,-1,2.400000095367432,11.99936978251625,-9999,3415.024995916667,0.128753662109375,-0.35052490234375,-0.9407196044921875,3415.019997916667,-0.03142288471152744,0.1093831990930094,0.3648227525352102,-0.04379338771104813,0.1022835597395897,-0.06292816251516342,0.002191044390201569,0.0009029805660247803,-0.008621394634246826,XArbitraryZVertical,0.1819524549532455,0.05090507522698978,-0.005512071177624247,0.9819732926658349,0.1019807159900665,-0.3567837178707123,-0.9286039471626282,0,0,0,-1,-1,3404.286036541667,unknown,2,2022-06-02T10:57:46.144+02:00,2022-06-02T10:17:13.754+02:00,538,1.652724,0,0,417.4277,0,0,2022-06-02T10:57:56.370+02:00,675853076.370396,0,3.070312,101.3463,1,0.77
2022-06-02T10:57:56.894+02:00,1654160272.999632,53.22905935069136,10.39852294524522,35.3208,0,20,-1,-1,2.400000095367432,11.99936978251625,-9999,3415.034989916667,0.1397705078125,-0.3496856689453125,-0.9438018798828125,3415.029992916667,-0.03197687680268783,0.1104171995468967,0.3641805746434745,-0.040450319647789,0.09299126267433167,-0.06360993534326553,0.0257876068353653,0.005658805370330811,-0.01199406385421753,XArbitraryZVertical,0.1816543162196115,0.05137059761846518,-0.005708347364620364,0.9820031251778329,0.1029660701751709,-0.3561837375164032,-0.92872554063797,0,0,0,-1,-1,3404.286036541667,unknown,2,2022-06-02T10:57:46.144+02:00,2022-06-02T10:17:13.754+02:00,538,1.652724,0,0,417.4277,0,0,2022-06-02T10:57:56.370+02:00,675853076.370396,0,3.070312,101.3463,1,0.77
2022-06-02T10:57:56.904+02:00,1654160272.999632,53.22905935069136,10.39852294524522,35.3208,0,20,-1,-1,2.400000095367432,11.99936978251625,-9999,3415.044984916667,0.1389923095703125,-0.3436279296875,-0.94281005859375,3415.039987916667,-0.03235701706933858,0.1108421390134735,0.3635766979763201,-0.03886999934911728,0.08472054451704025,-0.06304081529378891,0.03638602793216705,0.0059337317943573,-0.01490658521652222,XArbitraryZVertical,0.1813689202754579,0.05155253818533137,-0.005873727457817905,0.9820453353072113,0.1033844798803329,-0.3556194007396698,-0.9288952946662903,0,0,0,-1,-1,3404.286036541667,unknown,2,2022-06-02T10:57:46.144+02:00,2022-06-02T10:17:13.754+02:00,538,1.652724,0,0,417.4277,0,0,2022-06-02T10:57:56.370+02:00,675853076.370396,0,3.070312,101.3463,1,0.77
2022-06-02T10:57:56.915+02:00,1654160272.999632,53.22905935069136,10.39852294524522,35.3208,0,20,-1,-1,2.400000095367432,11.99936978251625,-9999,3415.054979916667,0.1338043212890625,-0.343505859375,-0.9409332275390625,3415.049981916667,-0.03290368605735267,0.1117106209325704,0.3629549121675831,-0.04897476360201836,0.08294755220413208,-0.06144252419471741,0.03477650135755539,0.01141029596328735,-0.01378530263900757,XArbitraryZVertical,0.1810804517225838,0.05193755941213545,-0.006081379751721699,0.9820769853461329,0.1042158007621765,-0.355038195848465,-0.9290246963500977,0,0,0,-1,-1,3404.286036541667,unknown,2,2022-06-02T10:57:46.144+02:00,2022-06-02T10:17:13.754+02:00,538,1.652724,0,0,417.4277,0,0,2022-06-02T10:57:56.370+02:00,675853076.370396,0,3.070312,101.3463,1,0.77
2022-06-02T10:57:56.924+02:00,1654160272.999632,53.22905935069136,10.39852294524522,35.3208,0,20,-1,-1,2.400000095367432,11.99936978251625,-9999,3415.064974916667,0.1309814453125,-0.34454345703125,-0.93817138671875,3415.059976916667,-0.03354721342308974,0.1128876626332515,0.3625280109308455,-0.05046453699469566,0.08082927018404007,-0.05850611627101898,0.02847803384065628,0.01113319396972656,-0.01188129186630249,XArbitraryZVertical,0.1808913395532049,0.05246294215346067,-0.006303282687461954,0.9820825056622736,0.1053262948989868,-0.3546390533447266,-0.92905193567276,0,0,0,-1,-1,3404.286036541667,unknown,2,2022-06-02T10:57:46.144+02:00,2022-06-02T10:17:13.754+02:00,538,1.652724,0,0,417.4277,0,0,2022-06-02T10:57:56.370+02:00,675853076.370396,0,3.070312,101.3463,1,0.77
2022-06-02T10:57:56.934+02:00,1654160272.999632,53.22905935069136,10.39852294524522,35.3208,0,20,-1,-1,2.400000095367432,11.99936978251625,-9999,3415.074968916667,0.1306304931640625,-0.34716796875,-0.93695068359375,3415.069971916667,-0.03417478621151246,0.1140806901162623,0.36213673346911,-0.05012422055006027,0.08150964230298996,-0.06156016886234283,0.02453105896711349,0.009729713201522827,-0.00910794734954834,XArbitraryZVertical,0.1807196386596172,0.05299728451211401,-0.0065151021433158,0.9820840660156372,0.1064503937959671,-0.3542732000350952,-0.9290633797645569,0,0,0,-1,-1,3404.286036541667,unknown,2,2022-06-02T10:57:46.144+02:00,2022-06-02T10:17:13.754+02:00,538,1.652724,0,0,417.4277,0,0,2022-06-02T10:57:56.370+02:00,675853076.370396,0,3.070312,101.3463,1,0.77
2022-06-02T10:57:56.944+02:00,1654160272.999632,53.22905935069136,10.39852294524522,35.3208,0,20,-1,-1,2.400000095367432,11.99936978251625,-9999,3415.084963916667,0.13104248046875,-0.3454437255859375,-0.9394378662109375,3415.079966916667,-0.03471258219842102,0.1150103588272036,0.3618335061162707,-0.03677938506007195,0.07754792273044586,-0.05323965474963188,0.02330411225557327,0.006821632385253906,-0.007879972457885742,XArbitraryZVertical,0.1805881590509945,0.05340933593486764,-0.006704214464180208,0.9820847332549683,0.1073263883590698,-0.3539896011352539,-0.9290707111358643,0,0,0,-1,-1,3404.286036541667,unknown,2,2022-06-02T10:57:46.144+02:00,2022-06-02T10:17:13.754+02:00,538,1.652724,0,0,417.4277,0,0,2022-06-02T10:57:56.370+02:00,675853076.370396,0,3.070312,101.3463,1,0.77
2022-06-02T10:57:56.954+02:00,1654160272.999632,53.22905935069136,10.39852294524522,35.3208,0,20,-1,-1,2.400000095367432,11.99936978251625,-9999,3415.094958916667,0.1319427490234375,-0.345703125,-0.9389801025390625,3415.089960916667,-0.03512774807985009,0.1156916378129621,0.3616029348876892,-0.02108654379844666,0.07392289489507675,-0.0496084988117218,0.02307374775409698,0.008330225944519043,-0.01035940647125244,XArbitraryZVertical,0.1804884097931186,0.05370956866897292,-0.0068534774994768,0.9820856552037524,0.1079687401652336,-0.3537739515304565,-0.9290784597396851,0,0,0,-1,-1,3404.286036541667,unknown,2,2022-06-02T10:57:46.144+02:00,2022-06-02T10:17:13.754+02:00,538,1.652724,0,0,417.4277,0,0,2022-06-02T10:57:56.370+02:00,675853076.370396,0,3.070312,101.3463,1,0.77
2022-06-02T10:57:56.964+02:00,1654160272.999632,53.22905935069136,10.39852294524522,35.3208,0,20,-1,-1,2.400000095367432,11.99936978251625,-9999,3415.104952916667,0.132354736328125,-0.3501129150390625,-0.939697265625,3415.099955916667,-0.03558236328224865,0.116521572242474,0.3613769502910883,-0.008624814450740814,0.06833584606647491,-0.04724148288369179,0.02319368720054626,0.007859468460083008,-0.009912192821502686,XArbitraryZVertical,0.1803926088679524,0.05407922516338386,-0.007008642358844052,0.9820818836123169,0.1087490692734718,-0.353562593460083,-0.9290679097175598,0,0,0,-1,-1,3404.286036541667,unknown,2,2022-06-02T10:57:46.144+02:00,2022-06-02T10:17:13.754+02:00,538,1.652724,0,0,417.4277,0,0,2022-06-02T10:57:56.370+02:00,675853076.370396,0,3.070312,101.3463,1,0.77
2022-06-02T10:57:56.974+02:00,1654160272.999632,53.22905935069136,10.39852294524522,35.3208,0,20,-1,-1,2.400000095367432,11.99936978251625,-9999,3415.114947916667,0.126556396484375,-0.35260009765625,-0.9419403076171875,3415.109950916667,-0.03614864350733665,0.1175455137573814,0.3612356564515516,0.01100531313568354,0.05678671598434448,-0.04348769038915634,0.02264855802059174,0.003317505121231079,-0.01069164276123047,XArbitraryZVertical,0.1803422779596564,0.05453293761239696,-0.007198654104489053,0.9820646121154811,0.1097061783075333,-0.3534304201602936,-0.9290056228637695,0,0,0,-1,-1,3404.286036541667,unknown,2,2022-06-02T10:57:46.144+02:00,2022-06-02T10:17:13.754+02:00,538,1.652724,0,0,417.4277,0,0,2022-06-02T10:57:56.370+02:00,675853076.370396,0,3.070312,101.3463,1,0.77
2022-06-02T10:57:56.986+02:00,1654160272.999632,53.22905935069136,10.39852294524522,35.3208,0,20,-1,-1,2.400000095367432,11.99936978251625,-9999,3415.124942916667,0.1096649169921875,-0.3572998046875,-0.944671630859375,3415.119944916667,-0.03698683596996762,0.1192131108163303,0.3610109408437612,0.01748931035399437,0.05812229216098785,-0.04770347103476524,0.0152917206287384,0.0006200969219207764,-0.01304006576538086,XArbitraryZVertical,0.1802610904808516,0.0552794126785711,-0.007466799257815056,0.9820358598654473,0.1112646758556366,-0.3532201945781708,-0.9289002418518066,0,0,0,-1,-1,3404.286036541667,unknown,2,2022-06-02T10:57:46.144+02:00,2022-06-02T10:17:13.754+02:00,538,1.652724,0,0,417.4277,0,0,2022-06-02T10:57:56.370+02:00,675853076.370396,0,3.070312,101.3463,1,0.77
2022-06-02T10:57:56.997+02:00,1654160272.999632,53.22905935069136,10.39852294524522,35.3208,0,20,-1,-1,2.400000095367432,11.99936978251625,-9999,3415.134936916667,0.1021575927734375,-0.366729736328125,-0.950592041015625,3415.129939916667,-0.03779958353389611,0.1208620159201746,0.3606239386614685,0.01100621186196804,0.07171046733856201,-0.04741844907402992,-0.00314774364233017,-0.004441678524017334,-0.01582050323486328,XArbitraryZVertical,0.1801000439298352,0.0560214681735933,-0.007729382408296623,0.982021219599318,0.1128126680850983,-0.3528580963611603,-0.9288511276245117,0,0,0,-1,-1,3404.286036541667,unknown,2,2022-06-02T10:57:46.144+02:00,2022-06-02T10:17:13.754+02:00,538,1.652724,0,0,417.4277,0,0,2022-06-02T10:57:56.370+02:00,675853076.370396,0,3.070312,101.3463,1,0.77
2022-06-02T10:57:57.004+02:00,1654160272.999632,53.22905935069136,10.39852294524522,35.3208,0,20,-1,-1,2.400000095367432,11.99936978251625,-9999,3415.144931916667,0.1053619384765625,-0.36724853515625,-0.9472808837890625,3415.139934916667,-0.03849297006050641,0.1223873255689491,0.3601881574924551,-0.009381618350744247,0.08505610376596451,-0.04598486796021461,-0.01209049671888351,-0.01427939534187317,-0.02176147699356079,XArbitraryZVertical,0.1799116760828485,0.05671445419967627,-0.007946328436233295,0.9820142697001885,0.1142480820417404,-0.3524503111839294,-0.9288305044174194,0,0,0,-1,-1,3404.286036541667,unknown,2,2022-06-02T10:57:46.144+02:00,2022-06-02T10:17:13.754+02:00,538,1.652724,0,0,417.4277,0,0,2022-06-02T10:57:56.370+02:00,675853076.370396,0,3.070312,101.3463,1,0.77
2022-06-02T10:57:57.015+02:00,1654160272.999632,53.22905935069136,10.39852294524522,35.3208,0,20,-1,-1,2.400000095367432,11.99936978251625,-9999,3415.154926916667,0.1167449951171875,-0.3647613525390625,-0.9406890869140625,3415.149928916667,-0.03905372327468484,0.1237982975475591,0.3596783622835214,-0.02242274954915047,0.08564965426921844,-0.03949601203203201,-0.01021875441074371,-0.01527535915374756,-0.01843428611755371,XArbitraryZVertical,0.1796831262686661,0.05736449919158575,-0.00811112311589327,0.9820170199084342,0.1155806928873062,-0.3519732058048248,-0.9288465976715088,0,0,0,-1,-1,3404.286036541667,unknown,2,2022-06-02T10:57:46.144+02:00,2022-06-02T10:17:13.754+02:00,538,1.652724,0,0,417.4277,0,0,2022-06-02T10:57:56.370+02:00,675853076.370396,0,3.070312,101.3463,1,0.77
2022-06-02T10:57:57.024+02:00,1654160272.999632,53.22905935069136,10.39852294524522,35.3208,0,20,-1,-1,2.400000095367432,11.99936978251625,-9999,3415.164920916667,0.123443603515625,-0.3614959716796875,-0.9301605224609375,3415.159923916667,-0.03959491180736793,0.1251010446723123,0.3591681928050909,-0.02877065911889076,0.07683059573173523,-0.04852066189050674,-6.80387020111084e-05,-0.01326572895050049,-0.01181578636169434,XArbitraryZVertical,0.179453665651281,0.0579633263714559,-0.008276385688190797,0.9820225131481757,0.1168130412697792,-0.351495623588562,-0.9288732409477234,0,0,0,-1,-1,3404.286036541667,unknown,2,2022-06-02T10:57:46.144+02:00,2022-06-02T10:17:13.754+02:00,538,1.652724,0,0,417.4277,0,0,2022-06-02T10:57:56.370+02:00,675853076.370396,0,3.070312,101.3463,1,0.77
2022-06-02T10:57:57.034+02:00,1654160272.999632,53.22905935069136,10.39852294524522,35.3208,0,20,-1,-1,2.400000095367432,11.99936978251625,-9999,3415.174915916667,0.1240997314453125,-0.3561248779296875,-0.92626953125,3415.169918916667,-0.04024690415405205,0.1263424690858049,0.3585919929971578,-0.02144204080104828,0.06888586282730103,-0.05967345088720322,0.00545203685760498,-0.01053982973098755,-0.00123220682144165,XArbitraryZVertical,0.179195084094322,0.05852330539218099,-0.008504041520891301,0.9820344856465001,0.1179915741086006,-0.3509561419487,-0.9289283156394958,0,0,0,-1,-1,3404.286036541667,unknown,2,2022-06-02T10:57:46.144+02:00,2022-06-02T10:17:13.754+02:00,538,1.652724,0,0,417.4277,0,0,2022-06-02T10:57:56.370+02:00,675853076.370396,0,3.070312,101.3463,1,0.77
2022-06-02T10:57:57.044+02:00,1654160272.999632,53.22905935069136,10.39852294524522,35.3208,0,20,-1,-1,2.400000095367432,11.99936978251625,-9999,3415.184910916667,0.11932373046875,-0.34991455078125,-0.9239501953125,3415.179913916667,-0.04097467668114849,0.1275382791845882,0.3580829416957294,-0.02018849179148674,0.0609552301466465,-0.06228042021393776,0.004974715411663055,-0.005645453929901123,0.002694129943847656,XArbitraryZVertical,0.1789717916603324,0.0590532527591732,-0.008771119059572317,0.9820411955239793,0.1191250160336494,-0.3504794239997864,-0.9289636015892029,0,0,0,-1,-1,3404.286036541667,unknown,2,2022-06-02T10:57:46.144+02:00,2022-06-02T10:17:13.754+02:00,538,1.652724,0,0,417.4277,0,0,2022-06-02T10:57:56.370+02:00,675853076.370396,0,3.070312,101.3463,1,0.77
2022-06-02T10:57:57.054+02:00,1654160272.999632,53.22905935069136,10.39852294524522,35.3208,0,20,-1,-1,2.400000095367432,11.99936978251625,-9999,3415.194905916667,0.11334228515625,-0.3517303466796875,-0.9262237548828125,3415.189907916667,-0.04174562157569477,0.128705025302657,0.3576900183900887,-0.01792290806770325,0.06085489690303802,-0.06547361612319946,-0.0009027346968650818,0.0001968443393707275,0.005010306835174561,XArbitraryZVertical,0.1788070077678845,0.05956341714387322,-0.009058404461217036,0.9820378247687257,0.1202264726161957,-0.3501113951206207,-0.9289605021476746,0,0,0,-1,-1,3404.286036541667,unknown,2,2022-06-02T10:57:46.144+02:00,2022-06-02T10:17:13.754+02:00,538,1.652724,0,0,417.4277,0,0,2022-06-02T10:57:56.370+02:00,675853076.370396,0,3.070312,101.3463,1,0.77
2022-06-02T10:57:57.064+02:00,1654160272.999632,53.22905935069136,10.39852294524522,35.3208,0,20,-1,-1,2.400000095367432,11.99936978251625,-9999,3415.204898666667,0.1174163818359375,-0.34808349609375,-0.924896240234375,3415.199902916667,-0.04241037192016676,0.1296646535503305,0.357409313333347,-0.009968046098947525,0.06029989197850227,-0.05383986234664917,-0.007788293063640594,-0.001881897449493408,0.00271838903427124,XArbitraryZVertical,0.1786935327584571,0.05997971348473648,-0.009308477211951296,0.9820307220077433,0.12113057076931,-0.3498484492301941,-0.928942084312439,0,0,0,-1,-1,3404.286036541667,unknown,2,2022-06-02T10:57:46.144+02:00,2022-06-02T10:17:13.754+02:00,538,1.652724,0,0,417.4277,0,0,2022-06-02T10:57:56.370+02:00,675853076.370396,0,3.070312,101.3463,1,0.77
2022-06-02T10:57:57.074+02:00,1654160272.999632,53.22905935069136,10.39852294524522,35.3208,0,20,-1,-1,2.400000095367432,11.99936978251625,-9999,3415.214893666667,0.12322998046875,-0.34197998046875,-0.9267578125,3415.209896666667,-0.04278470629034269,0.1299949007104628,0.3573596160415565,0.001543734688311815,0.05413201078772545,-0.04472705721855164,-0.004023216664791107,0.001718401908874512,0.004023075103759766,XArbitraryZVertical,0.1786819180430088,0.0601092271618343,-0.009464455665470189,0.9820234954367077,0.1214395985007286,-0.3498018682003021,-0.9289193153381348,0,0,0,-1,-1,3404.286036541667,unknown,2,2022-06-02T10:57:46.144+02:00,2022-06-02T10:17:13.754+02:00,538,1.652724,0,0,417.4277,0,0,2022-06-02T10:57:56.370+02:00,675853076.370396,0,3.070312,101.3463,1,0.77
2022-06-02T10:57:57.084+02:00,1654160272.999632,53.22905935069136,10.39852294524522,35.3208,0,20,-1,-1,2.400000095367432,11.99936978251625,-9999,3415.224888666667,0.1273193359375,-0.3391876220703125,-0.929718017578125,3415.219890666667,-0.0430018576923222,0.1299850713449964,0.357624809152278,0.009373161941766739,0.04615424573421478,-0.04214032739400864,0.001811549067497253,0.008070319890975952,0.00207066535949707,XArbitraryZVertical,0.1788185613751848,0.06008067545306464,-0.009562977873265585,0.9819993119048788,0.1214184388518333,-0.350050300359726,-0.9288284778594971,0,0,0,-1,-1,3404.286036541667,unknown,2,2022-06-02T10:57:46.144+02:00,2022-06-02T10:17:13.754+02:00,538,1.652724,0,0,417.4277,0,0,2022-06-02T10:57:56.370+02:00,675853076.370396,0,3.070312,101.3463,1,0.77
2022-06-02T10:57:57.093+02:00,1654160272.999632,53.22905935069136,10.39852294524522,35.3208,0,20,-1,-1,2.400000095367432,11.99936978251625,-9999,3415.234882666667,0.1251068115234375,-0.3415985107421875,-0.929595947265625,3415.229885666667,-0.04324010834594962,0.1299579606409066,0.3580235676296427,0.02097056247293949,0.03285122290253639,-0.03641453385353088,0.005944184958934784,0.01123619079589844,-0.001024723052978516,XArbitraryZVertical,0.1790212794028984,0.06003952778515753,-0.009668880234979482,0.9819638225128597,0.1213751584291458,-0.3504238128662109,-0.9286932945251465,0,0,0,-1,-1,3404.286036541667,unknown,2,2022-06-02T10:57:46.144+02:00,2022-06-02T10:17:13.754+02:00,538,1.652724,0,0,417.4277,0,0,2022-06-02T10:57:56.370+02:00,675853076.370396,0,3.070312,101.3463,1,0.77
2022-06-02T10:57:57.104+02:00,1654160272.999632,53.22905935069136,10.39852294524522,35.3208,0,20,-1,-1,2.400000095367432,11.99936978251625,-9999,3415.244877666667,0.1250762939453125,-0.3462677001953125,-0.9284820556640625,3415.239880666667,-0.0435191423188517,0.1302236050287822,0.3584934808080938,0.02708171680569649,0.03269702568650246,-0.02536747418344021,0.00350634753704071,0.009265393018722534,-0.001098275184631348,XArbitraryZVertical,0.179261547489502,0.06013723344317588,-0.009766153281934382,0.9819130519926605,0.1216004639863968,-0.3508638739585876,-0.9284976124763489,0,0,0,-1,-1,3404.286036541667,unknown,2,2022-06-02T10:57:46.144+02:00,2022-06-02T10:17:13.754+02:00,538,1.652724,0,0,417.4277,0,0,2022-06-02T10:57:56.370+02:00,675853076.370396,0,3.070312,101.3463,1,0.77
2022-06-02T10:57:57.114+02:00,1654160272.999632,53.22905935069136,10.39852294524522,35.3208,0,20,-1,-1,2.400000095367432,11.99936978251625,-9999,3415.254872666667,0.1320648193359375,-0.3548126220703125,-0.924224853515625,3415.249875666667,-0.04381262567819606,0.1306721250449255,0.3589787709736533,0.02461326867341995,0.0251664724200964,-0.02171261981129646,0.00308159738779068,0.005050569772720337,-0.0002079606056213379,XArbitraryZVertical,0.1795107074625326,0.06032308409849101,-0.009853507160005331,0.9818552820867948,0.1219946965575218,-0.3513182699680328,-0.9282740354537964,0,0,0,-1,-1,3404.286036541667,unknown,2,2022-06-02T10:57:46.144+02:00,2022-06-02T10:17:13.754+02:00,538,1.652724,0,0,417.4277,0,0,2022-06-02T10:57:56.370+02:00,675853076.370396,0,3.070312,101.3463,1,0.77
2022-06-02T10:57:57.124+02:00,1654160272.999632,53.22905935069136,10.39852294524522,35.3208,0,20,-1,-1,2.400000095367432,11.99936978251625,-9999,3415.264867666667,0.134765625,-0.3616180419921875,-0.9229583740234375,3415.259869666667,-0.04408985414639358,0.1310342286191988,0.3592903936086911,0.01086310110986233,0.01386827789247036,-0.02045321092009544,0.009748309850692749,-0.003202587366104126,0.003896415233612061,XArbitraryZVertical,0.1796737773945448,0.06047077392588467,-0.009946456788835016,0.9818154080875778,0.1223165094852448,-0.3516100347042084,-0.9281212091445923,0,0,0,-1,-1,3404.286036541667,unknown,2,2022-06-02T10:57:46.144+02:00,2022-06-02T10:17:13.754+02:00,538,1.652724,0,0,417.4277,0,0,2022-06-02T10:57:56.370+02:00,675853076.370396,0,3.070312,101.3463,1,0.77
2022-06-02T10:57:57.134+02:00,1654160272.999632,53.22905935069136,10.39852294524522,35.3208,0,20,-1,-1,2.400000095367432,11.99936978251625,-9999,3415.274861666667,0.1329803466796875,-0.356231689453125,-0.924041748046875,3415.269864666667,-0.04430049497968443,0.131122944092635,0.3592882122021751,-0.0065831677056849,0.002338854596018791,-0.02169417589902878,0.01236668229103088,-0.01001006364822388,0.005152761936187744,XArbitraryZVertical,0.1796795251624956,0.06049543909982948,-0.01004196599761627,0.9818118400513689,0.1223989501595497,-0.3516079783439636,-0.9281111359596252,0,0,0,-1,-1,3404.286036541667,unknown,2,2022-06-02T10:57:46.144+02:00,2022-06-02T10:17:13.754+02:00,538,1.652724,0,0,417.4277,0,0,2022-06-02T10:57:56.370+02:00,675853076.370396,0,3.070312,101.3463,1,0.77
2022-06-02T10:57:57.143+02:00,1654160272.999632,53.22905935069136,10.39852294524522,35.3208,0,20,-1,-1,2.400000095367432,11.99936978251625,-9999,3415.284856666667,0.1236114501953125,-0.348907470703125,-0.9239501953125,3415.279859666667,-0.04442036384150724,0.1309267073425934,0.359190241765723,-0.01200270093977451,-0.002624478656798601,-0.02035833522677422,0.01075903326272964,-0.004715442657470703,0.004127562046051025,XArbitraryZVertical,0.1796340806366037,0.06038997389957575,-0.01012178720081337,0.9818258745322844,0.1222213134169579,-0.3515162765979767,-0.928169310092926,0,0,0,-1,-1,3404.286036541667,unknown,2,2022-06-02T10:57:46.144+02:00,2022-06-02T10:17:13.754+02:00,538,1.652724,0,0,417.4277,0,0,2022-06-02T10:57:56.370+02:00,675853076.370396,0,3.070312,101.3463,1,0.77
2022-06-02T10:57:57.154+02:00,1654160272.999632,53.22905935069136,10.39852294524522,35.3208,0,20,-1,-1,2.400000095367432,11.99936978251625,-9999,3415.294851666667,0.1178131103515625,-0.3445587158203125,-0.930084228515625,3415.289853666667,-0.04461306766942631,0.1308514540569658,0.3589960983322271,-0.00929603073745966,-0.002537193475291133,-0.02550136670470238,0.001451075077056885,0.002427041530609131,0.004296004772186279,XArbitraryZVertical,0.1795442537305752,0.06033898093104352,-0.01022977609681676,0.981844332916518,0.122160367667675,-0.3513345122337341,-0.9282461404800415,0,0,0,-1,-1,3404.286036541667,unknown,2,2022-06-02T10:57:46.144+02:00,2022-06-02T10:17:13.754+02:00,538,1.652724,0,0,417.4277,0,0,2022-06-02T10:57:56.370+02:00,675853076.370396,0,3.070312,101.3463,1,0.77
2022-06-02T10:57:57.163+02:00,1654160272.999632,53.22905935069136,10.39852294524522,35.3208,0,20,-1,-1,2.400000095367432,11.99936978251625,-9999,3415.304845666667,0.119903564453125,-0.342498779296875,-0.9343414306640625,3415.299848666667,-0.0449080153310478,0.1309722866446034,0.3586717102332753,-0.0003715110942721367,-0.0005685848882421851,-0.02588752284646034,-0.004474297165870667,0.006472080945968628,-0.001739919185638428,XArbitraryZVertical,0.1793946062441959,0.06037728915385634,-0.01037481407010466,0.9818678341907259,0.1222874075174332,-0.3510307669639587,-0.9283443093299866,0,0,0,-1,-1,3404.286036541667,unknown,2,2022-06-02T10:57:46.144+02:00,2022-06-02T10:17:13.754+02:00,538,1.652724,0,0,417.4277,0,0,2022-06-02T10:57:56.370+02:00,675853076.370396,0,3.070312,101.3463,1,0.77
2022-06-02T10:57:57.174+02:00,1654160272.999632,53.22905935069136,10.39852294524522,35.3208,0,20,-1,-1,2.400000095367432,11.99936978251625,-9999,3415.314840666667,0.1229400634765625,-0.34161376953125,-0.9384002685546875,3415.309843666667,-0.04522220549176497,0.1311919383980623,0.358340768943698,0.001267431769520044,0.0008432234171777964,-0.02418156899511814,-0.002602942287921906,0.008222103118896484,-0.005908846855163574,XArbitraryZVertical,0.1792428556423457,0.06046254565847865,-0.01052069312411544,0.9818887746287694,0.1225065067410469,-0.3507208824157715,-0.9284325838088989,0,0,0,-1,-1,3404.286036541667,unknown,2,2022-06-02T10:57:46.144+02:00,2022-06-02T10:17:13.754+02:00,538,1.652724,0,0,417.4277,0,0,2022-06-02T10:57:56.370+02:00,675853076.370396,0,3.070312,101.3463,1,0.77
2022-06-02T10:57:57.184+02:00,1654160272.999632,53.22905935069136,10.39852294524522,35.3208,0,20,-1,-1,2.400000095367432,11.99936978251625,-9999,3415.324835666667,0.1253509521484375,-0.3396148681640625,-0.934722900390625,3415.319837666667,-0.04551648151722875,0.1313782379970158,0.3580934610334091,0.006042745895683765,0.003386808326467872,-0.02556268498301506,0.0002492368221282959,0.008875489234924316,-0.009904563426971436,XArbitraryZVertical,0.1791313944282301,0.06053184271454391,-0.01065695399706318,0.9819033721118269,0.1226908341050148,-0.3504892587661743,-0.9284957051277161,0,0,0,-1,-1,3404.286036541667,unknown,2,2022-06-02T10:57:46.144+02:00,2022-06-02T10:17:13.754+02:00,538,1.652724,0,0,417.4277,0,0,2022-06-02T10:57:56.370+02:00,675853076.370396,0,3.070312,101.3463,1,0.77
2022-06-02T10:57:57.194+02:00,1654160272.999632,53.22905935069136,10.39852294524522,35.3208,0,20,-1,-1,2.400000095367432,11.99936978251625,-9999,3415.334829666667,0.13214111328125,-0.33819580078125,-0.9327392578125,3415.329832666667,-0.04580169072107826,0.1315809331141852,0.3580654690247959,0.0138328243046999,0.00391318229958415,-0.02290524914860725,0.002470634877681732,0.01084819436073303,-0.00624239444732666,XArbitraryZVertical,0.1791273874407024,0.06060628999054662,-0.01077978419925847,0.9818981460976691,0.1228803172707558,-0.3504630625247955,-0.9284805059432983,0,0,0,-1,-1,3404.286036541667,unknown,2,2022-06-02T10:57:46.144+02:00,2022-06-02T10:17:13.754+02:00,538,1.652724,0,0,417.4277,0,0,2022-06-02T10:57:56.370+02:00,675853076.370396,0,3.070312,101.3463,1,0.77
2022-06-02T10:57:57.204+02:00,1654160272.999632,53.22905935069136,10.39852294524522,35.3208,0,20,-1,-1,2.400000095367432,11.99936978251625,-9999,3415.344824666667,0.1338348388671875,-0.3402557373046875,-0.9236907958984375,3415.339827666667,-0.0461657463287093,0.1319653637363737,0.3583030806923669,0.01451299525797367,0.0001051282742992043,-0.02536094933748245,0.008914828300476074,0.01248979568481445,-0.004388630390167236,XArbitraryZVertical,0.1792570972369626,0.0607583267689087,-0.01091589066174062,0.9818636287873111,0.1232262849807739,-0.3506855964660645,-0.9283506274223328,0,0,0,-1,-1,3404.286036541667,unknown,2,2022-06-02T10:57:46.144+02:00,2022-06-02T10:17:13.754+02:00,538,1.652724,0,0,417.4277,0,0,2022-06-02T10:57:56.370+02:00,675853076.370396,0,3.070312,101.3463,1,0.77
2022-06-02T10:57:57.214+02:00,1654160272.999632,53.22905935069136,10.39852294524522,35.3208,0,20,-1,-1,2.400000095367432,11.99936978251625,-9999,3415.354819666667,0.1311187744140625,-0.3502197265625,-0.9181976318359375,3415.349822666667,-0.04657335127824791,0.1323891113476,0.3587251064154656,0.0165446549654007,-0.004326238296926022,-0.02740399539470673,0.01023472845554352,0.01082503795623779,0.004460752010345459,XArbitraryZVertical,0.1794788949407214,0.0609225111773293,-0.01106340912947043,0.9818112594966941,0.123600110411644,-0.3510807752609253,-0.928151547908783,0,0,0,-1,-1,3404.286036541667,unknown,2,2022-06-02T10:57:46.144+02:00,2022-06-02T10:17:13.754+02:00,538,1.652724,0,0,417.4277,0,0,2022-06-02T10:57:56.370+02:00,675853076.370396,0,3.070312,101.3463,1,0.77
2022-06-02T10:57:57.224+02:00,1654160272.999632,53.22905935069136,10.39852294524522,35.3208,0,20,-1,-1,2.400000095367432,11.99936978251625,-9999,3415.364814666667,0.12646484375,-0.3567657470703125,-0.911376953125,3415.359816666667,-0.04700285734558034,0.1327240895649863,0.3589779234557934,0.01066865585744381,-0.008088752627372742,-0.03453034535050392,0.007219508290290833,0.001097768545150757,0.009824454784393311,XArbitraryZVertical,0.1796178925954012,0.06104399466092034,-0.01123541825688314,0.9817763580742912,0.1238992661237717,-0.3513174951076508,-0.9280220866203308,0,0,0,-1,-1,3404.286036541667,unknown,2,2022-06-02T10:57:46.144+02:00,2022-06-02T10:17:13.754+02:00,538,1.652724,0,0,417.4277,0,0,2022-06-02T10:57:56.370+02:00,675853076.370396,0,3.070312,101.3463,1,0.77
2022-06-02T10:57:57.234+02:00,1654160272.999632,53.22905935069136,10.39852294524522,35.3208,0,20,-1,-1,2.400000095367432,11.99936978251625,-9999,3415.374808666667,0.117645263671875,-0.3624267578125,-0.9157562255859375,3415.369811666667,-0.04737594817685709,0.1327886703331546,0.3589171035610539,-0.01123271323740482,-0.007885686121881008,-0.03458267822861671,0.002502813935279846,-0.005505204200744629,0.01665830612182617,XArbitraryZVertical,0.1795998044351646,0.06104325504163978,-0.0114148766991228,0.9817776560340385,0.1239620298147202,-0.3512605428695679,-0.9280352592468262,0,0,0,-1,-1,3404.286036541667,unknown,2,2022-06-02T10:57:46.144+02:00,2022-06-02T10:17:13.754+02:00,538,1.652724,0,0,417.4277,0,0,2022-06-02T10:57:56.370+02:00,675853076.370396,0,3.070312,101.3463,1,0.77
2022-06-02T10:57:57.244+02:00,1654160272.999632,53.22905935069136,10.39852294524522,35.3208,0,20,-1,-1,2.400000095367432,11.99936978251625,-9999,3415.384803666667,0.116790771484375,-0.3550567626953125,-0.9115447998046875,3415.379806666667,-0.04768089481129315,0.1326753607129776,0.3584746637152494,-0.03727949410676956,-0.005129847675561905,-0.03354937210679054,-0.00623214989900589,-0.01158049702644348,0.0124470591545105,XArbitraryZVertical,0.179391381752371,0.0609680393320214,-0.01159011121231611,0.9818184014937942,0.1238774210214615,-0.3508462607860565,-0.928203284740448,0,0,0,-1,-1,3404.286036541667,unknown,2,2022-06-02T10:57:46.144+02:00,2022-06-02T10:17:13.754+02:00,538,1.652724,0,0,417.4277,0,0,2022-06-02T10:57:56.370+02:00,675853076.370396,0,3.070312,101.3463,1,0.77
2022-06-02T10:57:57.254+02:00,1654160272.999632,53.22905935069136,10.39852294524522,35.3208,0,20,-1,-1,2.400000095367432,11.99936978251625,-9999,3415.394798666667,0.115814208984375,-0.341583251953125,-0.9110260009765625,3415.389800666667,-0.04795645828347243,0.1326153707365954,0.3576917869478264,-0.06067170575261116,-0.005725197028368711,-0.04131288453936577,-0.0070672407746315,-0.004943728446960449,0.01693785190582275,XArbitraryZVertical,0.1790153346604694,0.06092771028854287,-0.01175794963659882,0.9818874401542454,0.1238580122590065,-0.3501130342483521,-0.9284826517105103,0,0,0,-1,-1,3404.286036541667,unknown,2,2022-06-02T10:57:46.144+02:00,2022-06-02T10:17:13.754+02:00,538,1.652724,0,0,417.4277,0,0,2022-06-02T10:57:56.370+02:00,675853076.370396,0,3.070312,101.3463,1,0.77
2022-06-02T10:57:57.264+02:00,1654160272.999632,53.22905935069136,10.39852294524522,35.3208,0,20,-1,-1,2.400000095367432,11.99936978251625,-9999,3415.404792666667,0.1082916259765625,-0.33642578125,-0.9076995849609375,3415.399795666667,-0.04836851216901542,0.1326687636743179,0.3567394001116178,-0.06024213507771492,-0.001548029016703367,-0.05902237445116043,-0.008137434720993042,0.007637530565261841,0.01778018474578857,XArbitraryZVertical,0.1785608763355868,0.06093394990562555,-0.01198856092003738,0.9819670717881516,0.123951643705368,-0.3492207825183868,-0.9288061261177063,0,0,0,-1,-1,3404.286036541667,unknown,2,2022-06-02T10:57:46.144+02:00,2022-06-02T10:17:13.754+02:00,538,1.652724,0,0,417.4277,0,0,2022-06-02T10:57:56.370+02:00,675853076.370396,0,3.070312,101.3463,1,0.77
2022-06-02T10:57:57.274+02:00,1654160272.999632,53.22905935069136,10.39852294524522,35.3208,0,20,-1,-1,2.400000095367432,11.99936978251625,-9999,3415.414787666667,0.097930908203125,-0.3334503173828125,-0.9015960693359375,3415.409790666667,-0.04896555745484004,0.1328641528166507,0.3558265074381863,-0.05282020568847656,-3.43547435477376e-05,-0.06688742339611053,-0.015883669257164,0.01193943619728088,0.02139794826507568,XArbitraryZVertical,0.1781322844504944,0.0609929134819136,-0.0122960415541665,0.9820374843885731,0.1241752952337265,-0.3483652174472809,-0.9290975332260132,0,0,0,-1,-1,3404.286036541667,unknown,2,2022-06-02T10:57:46.144+02:00,2022-06-02T10:17:13.754+02:00,538,1.652724,0,0,417.4277,0,0,2022-06-02T10:57:56.370+02:00,675853076.370396,0,3.070312,101.3463,1,0.77
2022-06-02T10:57:57.284+02:00,1654160272.999632,53.22905935069136,10.39852294524522,35.3208,0,20,-1,-1,2.400000095367432,11.99936978251625,-9999,3415.424782666667,0.0860137939453125,-0.3390655517578125,-0.8873443603515625,3415.419784666667,-0.04975155871783523,0.1333071555134699,0.3549032924994379,-0.0607934445142746,0.002207227982580662,-0.08475376665592194,-0.02669865638017654,0.01404935121536255,0.02776467800140381,XArbitraryZVertical,0.1777060135160291,0.06115713775276917,-0.01267479479279692,0.9820995575734056,0.1246295720338821,-0.3474996984004974,-0.9293607473373413,0,0,0,-1,-1,3404.286036541667,unknown,2,2022-06-02T10:57:46.144+02:00,2022-06-02T10:17:13.754+02:00,538,1.652724,0,0,417.4277,0,0,2022-06-02T10:57:56.370+02:00,675853076.370396,0,3.070312,101.3463,1,0.77
2022-06-02T10:57:57.294+02:00,1654160272.999632,53.22905935069136,10.39852294524522,35.3208,0,20,-1,-1,2.400000095367432,11.99936978251625,-9999,3415.434777666667,0.0720062255859375,-0.3500518798828125,-0.876190185546875,3415.429779666667,-0.05077759677558707,0.1339224813729072,0.3539685479292626,-0.08303000777959824,0.00405952287837863,-0.1132379397749901,-0.03923092782497406,0.007557481527328491,0.04226106405258179,XArbitraryZVertical,0.1772826620658124,0.06138527340620363,-0.01315680576335495,0.9821555793307896,0.1252447217702866,-0.346623033285141,-0.9296054244041443,0,0,0,-1,-1,3404.286036541667,unknown,2,2022-06-02T10:57:46.144+02:00,2022-06-02T10:17:13.754+02:00,538,1.652724,0,0,417.4277,0,0,2022-06-02T10:57:56.370+02:00,675853076.370396,0,3.070312,101.3463,1,0.77
2022-06-02T10:57:57.304+02:00,1654160272.999632,53.22905935069136,10.39852294524522,35.3208,0,20,-1,-1,2.400000095367432,11.99936978251625,-9999,3415.444771666667,0.0558929443359375,-0.357147216796875,-0.86358642578125,3415.439774666667,-0.05203066118112434,0.1345737243622044,0.352883775786932,-0.1299780756235123,0.01628236658871174,-0.1449135839939117,-0.05389423668384552,-0.004446595907211304,0.05370551347732544,XArbitraryZVertical,0.1767931768486862,0.06161425898970947,-0.01375277752697274,0.9822213129836834,0.1259004771709442,-0.3456053137779236,-0.9298956990242004,0,0,0,-1,-1,3404.286036541667,unknown,2,2022-06-02T10:57:46.144+02:00,2022-06-02T10:17:13.754+02:00,538,1.652724,0,0,417.4277,0,0,2022-06-02T10:57:56.370+02:00,675853076.370396,0,3.070312,101.3463,1,0.77
2022-06-02T10:57:57.314+02:00,1654160272.999632,53.22905935069136,10.39852294524522,35.3208,0,20,-1,-1,2.400000095367432,11.99936978251625,-9999,3415.454766666667,0.037994384765625,-0.3601226806640625,-0.8497467041015625,3415.449769666667,-0.05353601013063054,0.1353395231408822,0.3513297288194794,-0.1866936087608337,0.0265367366373539,-0.1819116771221161,-0.07079191505908966,-0.01300063729286194,0.06674367189407349,XArbitraryZVertical,0.1760822959484983,0.06188688466313867,-0.01447969803117174,0.9823214192095567,0.1266848593950272,-0.3441466093063354,-0.9303300976753235,0,0,0,-1,-1,3404.286036541667,unknown,2,2022-06-02T10:57:46.144+02:00,2022-06-02T10:17:13.754+02:00,538,1.652724,0,0,417.4277,0,0,2022-06-02T10:57:56.370+02:00,675853076.370396,0,3.070312,101.3463,1,0.77
2022-06-02T10:57:57.324+02:00,1654160272.999632,53.22905935069136,10.39852294524522,35.3208,0,20,-1,-1,2.400000095367432,11.99936978251625,-9999,3415.464761666667,0.0170135498046875,-0.3588409423828125,-0.8366241455078125,3415.459763666667,-0.05531987299065491,0.136241252766265,0.3491254549231115,-0.2477463036775589,0.04493331909179688,-0.221183180809021,-0.08963204920291901,-0.01804652810096741,0.08121806383132935,XArbitraryZVertical,0.1750623380395723,0.06221569803281735,-0.01535558270166254,0.9824696536524586,0.127626433968544,-0.3420761525630951,-0.9309647679328918,0,0,0,-1,-1,3404.286036541667,unknown,2,2022-06-02T10:57:46.144+02:00,2022-06-02T10:17:13.754+02:00,538,1.652724,0,0,417.4277,0,0,2022-06-02T10:57:56.370+02:00,675853076.370396,0,3.070312,101.3463,1,0.77
2022-06-02T10:57:57.334+02:00,1654160272.999632,53.22905935069136,10.39852294524522,35.3208,0,20,-1,-1,2.400000095367432,11.99936978251625,-9999,3415.474755666667,-0.0072479248046875,-0.3463287353515625,-0.8155517578125,3415.469758666667,-0.05750514189816013,0.1374396599678273,0.3461309353622832,-0.3230179250240326,0.055804543197155,-0.2725168764591217,-0.1118682324886322,-0.01958021521568298,0.09519755840301514,XArbitraryZVertical,0.1736699349200044,0.06267313040844798,-0.01643275749514992,0.9826702045858958,0.1288817822933197,-0.3392607569694519,-0.9318216443061829,0,0,0,-1,-1,3404.286036541667,unknown,2,2022-06-02T10:57:46.144+02:00,2022-06-02T10:17:13.754+02:00,538,1.652724,0,0,417.4277,0,0,2022-06-02T10:57:56.370+02:00,675853076.370396,0,3.070312,101.3463,1,0.77
2022-06-02T10:57:57.344+02:00,1654160272.999632,53.22905935069136,10.39852294524522,35.3208,0,20,-1,-1,2.400000095367432,11.99936978251625,-9999,3415.484750666667,-0.03497314453125,-0.338104248046875,-0.800689697265625,3415.479753666667,-0.06014150336437448,0.1388930589275913,0.3422056716352674,-0.3897972404956818,0.07079840451478958,-0.3334944844245911,-0.1376672387123108,-0.01076304912567139,0.1173933148384094,XArbitraryZVertical,0.1718378285820395,0.06323952847482786,-0.01774600569830491,0.9829331158554793,0.1304193288087845,-0.3355656862258911,-0.9329450726509094,0,0,0,-1,-1,3404.286036541667,unknown,2,2022-06-02T10:57:46.144+02:00,2022-06-02T10:17:13.754+02:00,538,1.652724,0,0,417.4277,0,0,2022-06-02T10:57:56.370+02:00,675853076.370396,0,3.070312,101.3463,1,0.77
2022-06-02T10:57:57.354+02:00,1654160272.999632,53.22905935069136,10.39852294524522,35.3208,0,20,-1,-1,2.400000095367432,11.99936978251625,-9999,3415.494745666667,-0.0563201904296875,-0.3294830322265625,-0.8064727783203125,3415.489747666667,-0.063353020149335,0.1406803634163175,0.3376116142274653,-0.4481587409973145,0.08584593236446381,-0.398838996887207,-0.1672744750976562,-0.006869792938232422,0.1335372924804688,XArbitraryZVertical,0.1697000186054026,0.06394068213317192,-0.01934198252267753,0.9832290035594444,0.1323013305664062,-0.331234484910965,-0.9342269897460938,0,0,0,-1,-1,3404.286036541667,unknown,2,2022-06-02T10:57:46.144+02:00,2022-06-02T10:17:13.754+02:00,538,1.652724,0,0,417.4277,0,0,2022-06-02T10:57:56.370+02:00,675853076.370396,0,3.070312,101.3463,1,0.77
2022-06-02T10:57:57.364+02:00,1654160272.999632,53.22905935069136,10.39852294524522,35.3208,0,20,-1,-1,2.400000095367432,11.99936978251625,-9999,3415.504739666667,-0.068267822265625,-0.3282623291015625,-0.826019287109375,3415.499742666667,-0.06713208670040989,0.1427073891147163,0.332304824700569,-0.502435028553009,0.08439717441797256,-0.463019847869873,-0.1907630562782288,-0.003260403871536255,0.129210889339447,XArbitraryZVertical,0.1672348405811168,0.06473544906845198,-0.02122888813628676,0.9835604518854562,0.1344428807497025,-0.3262226283550262,-0.9356836676597595,0,0,0,-1,-1,3404.286036541667,unknown,2,2022-06-02T10:57:46.144+02:00,2022-06-02T10:17:13.754+02:00,538,1.652724,0,0,417.4277,0,0,2022-06-02T10:57:56.370+02:00,675853076.370396,0,3.070312,101.3463,1,0.77
2022-06-02T10:57:57.374+02:00,1654160272.999632,53.22905935069136,10.39852294524522,35.3208,0,20,-1,-1,2.400000095367432,11.99936978251625,-9999,3415.514734666667,-0.071624755859375,-0.3310394287109375,-0.8257293701171875,3415.509737666667,-0.07150774858736643,0.1448416666973753,0.3265059496718759,-0.5414333343505859,0.0851399302482605,-0.5299384593963623,-0.2049781531095505,-0.007526755332946777,0.1112315058708191,XArbitraryZVertical,0.164551295104957,0.06555527465850626,-0.02342584631753107,0.9839087346982192,0.1367103159427643,-0.3207355439662933,-0.9372507333755493,0,0,0,-1,-1,3404.286036541667,unknown,2,2022-06-02T10:57:46.144+02:00,2022-06-02T10:17:13.754+02:00,538,1.652724,0,0,417.4277,0,0,2022-06-02T10:57:56.370+02:00,675853076.370396,0,3.070312,101.3463,1,0.77
2022-06-02T10:57:57.384+02:00,1654160272.999632,53.22905935069136,10.39852294524522,35.3208,0,20,-1,-1,2.400000095367432,11.99936978251625,-9999,3415.524729666667,-0.073272705078125,-0.3353424072265625,-0.8163604736328125,3415.519732666667,-0.07643316587657771,0.1474336406110673,0.3199468385651469,-0.6188258528709412,0.1193967014551163,-0.5850908756256104,-0.2110700011253357,-0.0165233314037323,0.1132246851921082,XArbitraryZVertical,0.1615214048568566,0.0665870024747538,-0.02589369287787936,0.9842796517280935,0.1394452303647995,-0.3145160973072052,-0.9389539957046509,0,0,0,-1,-1,3404.286036541667,unknown,2,2022-06-02T10:57:46.144+02:00,2022-06-02T10:17:13.754+02:00,538,1.652724,0,0,417.4277,0,0,2022-06-02T10:57:56.370+02:00,675853076.370396,0,3.070312,101.3463,1,0.77
2022-06-02T10:57:57.394+02:00,1654160272.999632,53.22905935069136,10.39852294524522,35.3208,0,20,-1,-1,2.400000095367432,11.99936978251625,-9999,3415.534724666667,-0.082733154296875,-0.3522186279296875,-0.7924652099609375,3415.529726666667,-0.08178846198318415,0.150450427957896,0.312508691291994,-0.7039269804954529,0.1467980295419693,-0.6445827484130859,-0.2158966213464737,-0.02789562940597534,0.1244556307792664,XArbitraryZVertical,0.1580845320985168,0.06783245776668019,-0.02858487289151048,0.9846780869617331,0.1426239162683487,-0.3074467778205872,-0.9408161044120789,0,0,0,-1,-1,3404.286036541667,unknown,2,2022-06-02T10:57:46.144+02:00,2022-06-02T10:17:13.754+02:00,538,1.652724,0,0,417.4277,0,0,2022-06-02T10:57:56.370+02:00,675853076.370396,0,3.070312,101.3463,1,0.77
2022-06-02T10:57:57.404+02:00,1654160272.999632,53.22905935069136,10.39852294524522,35.3208,0,20,-1,-1,2.400000095367432,11.99936978251625,-9999,3415.544718666667,-0.396209716796875,-0.5325164794921875,-0.822784423828125,3415.539721666667,-0.08970298643804354,0.1535577929499774,0.3029049952210288,-1.061138868331909,-0.03265641257166862,-1.364263534545898,-0.2287247329950333,-0.05392444133758545,0.1507776379585266,XArbitraryZVertical,0.1536781527524165,0.06900447190799311,-0.03263169949652879,0.9851682386414856,0.1459915935993195,-0.2982942163944244,-0.9432427883148193,0,0,0,-1,-1,3404.286036541667,unknown,2,2022-06-02T10:57:46.144+02:00,2022-06-02T10:17:13.754+02:00,538,1.652724,0,0,417.4277,0,0,2022-06-02T10:57:56.370+02:00,675853076.370396,0,3.070312,101.3463,1,0.77
2022-06-02T10:57:57.414+02:00,1654160272.999632,53.22905935069136,10.39852294524522,35.3208,0,20,-1,-1,2.400000095367432,11.99936978251625,-9999,3415.554713666667,-0.1604461669921875,-0.5890960693359375,-0.8713226318359375,3415.549716666667,-0.1037437955480228,0.1605313947232777,0.2885172605469257,-1.276968955993652,0.5285821557044983,-1.439726233482361,-0.5494456887245178,-0.2479854226112366,0.1235563158988953,XArbitraryZVertical,0.1472172366522792,0.0718102682362701,-0.03963386777414023,0.9856974945400196,0.153235986828804,-0.2845310866832733,-0.9463407397270203,0,0,0,-1,-1,3404.286036541667,unknown,2,2022-06-02T10:57:46.144+02:00,2022-06-02T10:17:13.754+02:00,538,1.652724,0,0,417.4277,0,0,2022-06-02T10:57:56.370+02:00,675853076.370396,0,3.070312,101.3463,1,0.77
2022-06-02T10:57:57.424+02:00,1654160272.999632,53.22905935069136,10.39852294524522,35.3208,0,20,-1,-1,2.400000095367432,11.99936978251625,-9999,3415.564708666667,-0.0083465576171875,-0.4467315673828125,-0.827362060546875,3415.559710666667,-0.11260976034388,0.1681343944169706,0.2733046519911917,-1.518096566200256,0.448891818523407,-0.8710559010505676,-0.3215784132480621,-0.3191812038421631,0.07798361778259277,XArbitraryZVertical,0.140212480331674,0.07541446003360158,-0.04413298347538082,0.9862582540346367,0.1611322611570358,-0.2699148952960968,-0.9493062496185303,0,0,0,-1,-1,3404.286036541667,unknown,2,2022-06-02T10:57:46.144+02:00,2022-06-02T10:17:13.754+02:00,538,1.652724,0,0,417.4277,0,0,2022-06-02T10:57:56.370+02:00,675853076.370396,0,3.070312,101.3463,1,0.77
2022-06-02T10:57:57.434+02:00,1654160272.999632,53.22905935069136,10.39852294524522,35.3208,0,20,-1,-1,2.400000095367432,11.99936978251625,-9999,3415.574702666667,-0.0738372802734375,-0.4771881103515625,-0.8842315673828125,3415.569705666667,-0.1201692546789685,0.173755992890842,0.254512544273817,-1.894940614700317,0.3182941377162933,-1.269784569740295,-0.1756603121757507,-0.1949578821659088,0.1258515119552612,XArbitraryZVertical,0.1313744751874765,0.07831961751025819,-0.04834606026810064,0.9870508529023877,0.1673137694597244,-0.2517736852169037,-0.9532135725021362,0,0,0,-1,-1,3404.286036541667,unknown,2,2022-06-02T10:57:46.144+02:00,2022-06-02T10:17:13.754+02:00,538,1.652724,0,0,417.4277,0,0,2022-06-02T10:57:56.370+02:00,675853076.370396,0,3.070312,101.3463,1,0.77
2022-06-02T10:57:57.444+02:00,1654160272.999632,53.22905935069136,10.39852294524522,35.3208,0,20,-1,-1,2.400000095367432,11.99936978251625,-9999,3415.584697666667,-0.0726318359375,-0.42816162109375,-0.9266357421875,3415.579700666667,-0.131339959830844,0.179994591892017,0.2326370407652345,-2.027128934860229,0.3893259763717651,-1.562804460525513,-0.2480389624834061,-0.2466437965631485,0.07311016321182251,XArbitraryZVertical,0.1211956272108692,0.08149099410356805,-0.05450738602628816,0.9877751100256618,0.1742016673088074,-0.2305443286895752,-0.9573416709899902,0,0,0,-1,-1,3404.286036541667,unknown,2,2022-06-02T10:57:46.144+02:00,2022-06-02T10:17:13.754+02:00,538,1.652724,0,0,417.4277,0,0,2022-06-02T10:57:56.370+02:00,675853076.370396,0,3.070312,101.3463,1,0.77
2022-06-02T10:57:57.454+02:00,1654160272.999632,53.22905935069136,10.39852294524522,35.3208,0,20,-1,-1,2.400000095367432,11.99936978251625,-9999,3415.594692666667,-0.077606201171875,-0.4042510986328125,-0.928436279296875,3415.589694666667,-0.142981246641763,0.1866872882333674,0.2093978235982356,-2.133175611495972,0.4337036311626434,-1.515899658203125,-0.2541822791099548,-0.2202907353639603,0.03452455997467041,XArbitraryZVertical,0.1104083708567001,0.08502850906759848,-0.06101325366853071,0.9883609605019036,0.1815504729747772,-0.2078709155321121,-0.9611603021621704,0,0,0,-1,-1,3404.286036541667,unknown,2,2022-06-02T10:57:46.144+02:00,2022-06-02T10:17:13.754+02:00,538,1.652724,0,0,417.4277,0,0,2022-06-02T10:57:56.370+02:00,675853076.370396,0,3.070312,101.3463,1,0.77
2022-06-02T10:57:57.464+02:00,1654160272.999632,53.22905935069136,10.39852294524522,35.3208,0,20,-1,-1,2.400000095367432,11.99936978251625,-9999,3415.604687666667,-0.0775299072265625,-0.39874267578125,-0.9317626953125,3415.599689666667,-0.1542669157783036,0.1933886074641393,0.1849520590955902,-2.263561010360718,0.4636484682559967,-1.602020502090454,-0.2665139436721802,-0.2203516960144043,0.03618538379669189,XArbitraryZVertical,0.09904722254794257,0.08876282478004296,-0.06748058205283325,0.9888159384310402,0.188907727599144,-0.1838994175195694,-0.9646216034889221,0,0,0,-1,-1,3404.286036541667,unknown,2,2022-06-02T10:57:46.144+02:00,2022-06-02T10:17:13.754+02:00,538,1.652724,0,0,417.4277,0,0,2022-06-02T10:57:56.370+02:00,675853076.370396,0,3.070312,101.3463,1,0.77
2022-06-02T10:57:57.474+02:00,1654160272.999632,53.22905935069136,10.39852294524522,35.3208,0,20,-1,-1,2.400000095367432,11.99936978251625,-9999,3415.614681666667,-0.043121337890625,-0.385894775390625,-0.9327392578125,3415.609684666667,-0.1663366586052545,0.2003601711343086,0.1586603758829001,-2.428544282913208,0.5161255598068237,-1.754371285438538,-0.2740524411201477,-0.2407471537590027,0.03592336177825928,XArbitraryZVertical,0.08685930217198518,0.09280322181201783,-0.07449771863668493,0.9890869653221007,0.1965225487947464,-0.1579955518245697,-0.9676860570907593,0,0,0,-1,-1,3404.286036541667,unknown,2,2022-06-02T10:57:46.144+02:00,2022-06-02T10:17:13.754+02:00,538,1.652724,0,0,417.4277,0,0,2022-06-02T10:57:56.370+02:00,675853076.370396,0,3.070312,101.3463,1,0.77
2022-06-02T10:57:57.491+02:00,1654160272.999632,53.22905935069136,10.39852294524522,35.3208,0,20,-1,-1,2.400000095367432,11.99936978251625,-9999,3415.624676666667,-0.0094451904296875,-0.340087890625,-0.92559814453125,3415.619679666667,-0.1789712691508452,0.2075860748414887,0.1306287063996255,-2.562876462936401,0.5571776628494263,-1.820212960243225,-0.2474638223648071,-0.2556372880935669,0.03745514154434204,XArbitraryZVertical,0.0738961356787036,0.09717083649425817,-0.08196064544923998,0.9891307974337522,0.2043424844741821,-0.1302575170993805,-0.970194399356842,0,0,0,-1,-1,3404.286036541667,unknown,2,2022-06-02T10:57:46.144+02:00,2022-06-02T10:17:13.754+02:00,538,1.652724,0,0,417.4277,0,0,2022-06-02T10:57:56.370+02:00,675853076.370396,0,3.070312,101.3463,1,0.77
2022-06-02T10:57:57.506+02:00,1654160272.999632,53.22905935069136,10.39852294524522,35.3208,0,20,-1,-1,2.400000095367432,11.99936978251625,-9999,3415.634671666667,0.0014190673828125,-0.3155517578125,-0.8901519775390625,3415.629673666667,-0.1915848623043434,0.2146532039553177,0.1008752883388584,-2.742733716964722,0.5640279054641724,-1.890749216079712,-0.2213709354400635,-0.2393836230039597,0.04648524522781372,XArbitraryZVertical,0.06012899775520163,0.1016996025997531,-0.08959885779442779,0.9889457228464998,0.2119257599115372,-0.1007042974233627,-0.9720833897590637,0,0,0,-1,-1,3404.286036541667,unknown,2,2022-06-02T10:57:46.144+02:00,2022-06-02T10:17:13.754+02:00,538,1.652724,0,0,417.4277,0,0,2022-06-02T10:57:56.370+02:00,675853076.370396,0,3.070312,101.3463,1,0.77
2022-06-02T10:57:57.508+02:00,1654160272.999632,53.22905935069136,10.39852294524522,35.3208,0,20,-1,-1,2.400000095367432,11.99936978251625,-9999,3415.644665666667,-0.0068359375,-0.2899932861328125,-0.91632080078125,3415.639668666667,-0.2044594905155038,0.2215855878368067,0.06891227987987107,-2.958045721054077,0.6064062714576721,-1.992845773696899,-0.217836007475853,-0.2466940432786942,0.08308273553848267,XArbitraryZVertical,0.04533614037010068,0.1064296724253212,-0.09757682295992769,0.9884816810378252,0.2192550748586655,-0.06885775178670883,-0.9732347130775452,0,0,0,-1,-1,3404.286036541667,unknown,2,2022-06-02T10:57:46.144+02:00,2022-06-02T10:17:13.754+02:00,538,1.652724,0,0,417.4277,0,0,2022-06-02T10:57:56.370+02:00,675853076.370396,0,3.070312,101.3463,1,0.77
2022-06-02T10:57:57.514+02:00,1654160272.999632,53.22905935069136,10.39852294524522,35.3208,0,20,-1,-1,2.400000095367432,11.99936978251625,-9999,3415.654660666667,-0.013916015625,-0.2386627197265625,-0.937164306640625,3415.649663666667,-0.2172403820141297,0.2287265676464164,0.03420813688140829,-3.264464616775513,0.6920444369316101,-2.042972087860107,-0.2334407418966293,-0.2557918429374695,0.05706536769866943,XArbitraryZVertical,0.02926030933042538,0.1115830577866308,-0.1057426112186929,0.9876798072698926,0.2266047894954681,-0.03420146554708481,-0.9733861088752747,0,0,0,-1,-1,3404.286036541667,unknown,2,2022-06-02T10:57:46.144+02:00,2022-06-02T10:17:13.754+02:00,538,1.652724,0,0,417.4277,0,0,2022-06-02T10:57:56.370+02:00,675853076.370396,0,3.070312,101.3463,1,0.77
2022-06-02T10:57:57.524+02:00,1654160272.999632,53.22905935069136,10.39852294524522,35.3208,0,20,-1,-1,2.400000095367432,11.99936978251625,-9999,3415.664655666667,-0.0081024169921875,-0.2276763916015625,-0.9283599853515625,3415.659657666667,-0.2292452614297788,0.2364144674292812,-0.004534002062793575,-3.755993127822876,0.8171797394752502,-2.085171222686768,-0.2481319457292557,-0.2431967407464981,0.03500974178314209,XArbitraryZVertical,0.0112516711770049,0.1174154465908105,-0.113838986659612,0.986472322134005,0.2342159301042557,0.004533986561000347,-0.9721740484237671,0,0,0,-1,-1,3404.286036541667,unknown,2,2022-06-02T10:57:46.144+02:00,2022-06-02T10:17:13.754+02:00,538,1.652724,0,0,417.4277,0,0,2022-06-02T10:57:56.370+02:00,675853076.370396,0,3.070312,101.3463,1,0.77
2022-06-02T10:57:57.534+02:00,1654160272.999632,53.22905935069136,10.39852294524522,35.3208,0,20,-1,-1,2.400000095367432,11.99936978251625,-9999,3415.674649666667,0.0211944580078125,-0.1828155517578125,-0.979217529296875,3415.669652666667,-0.2399783029944846,0.2450519440177934,-0.04871161089053995,-4.329384803771973,0.9627839922904968,-2.094828128814697,-0.2504213452339172,-0.2763687968254089,0.04061400890350342,XArbitraryZVertical,-0.00937150577827958,0.1241981576887918,-0.1217238723943827,0.9847183700865768,0.2423189431428909,0.04869234934449196,-0.9689739942550659,0,0,0,-1,-1,3404.286036541667,unknown,2,2022-06-02T10:57:46.144+02:00,2022-06-02T10:17:13.754+02:00,538,1.652724,0,0,417.4277,0,0,2022-06-02T10:57:56.370+02:00,675853076.370396,0,3.070312,101.3463,1,0.77
2022-06-02T10:57:57.544+02:00,1654160272.999632,53.22905935069136,10.39852294524522,35.3208,0,20,-1,-1,2.400000095367432,11.99936978251625,-9999,3415.684644666667,0.0626220703125,-0.0300140380859375,-1.010696411132812,3415.679647666667,-0.2483822668807088,0.254755030213197,-0.0983994979454578,-4.898253917694092,1.110615253448486,-1.981953620910645,-0.2295948266983032,-0.2810563743114471,-0.01617366075515747,XArbitraryZVertical,-0.03268891278070322,0.131945089244896,-0.1289192743224287,0.9822941094442715,0.2507893145084381,0.09824078530073166,-0.9630438685417175,0,0,0,-1,-1,3404.286036541667,unknown,2,2022-06-02T10:57:46.144+02:00,2022-06-02T10:17:13.754+02:00,538,1.652724,0,0,417.4277,0,0,2022-06-02T10:57:56.370+02:00,675853076.370396,0,3.070312,101.3463,1,0.77
2022-06-02T10:57:57.554+02:00,1654160272.999632,53.22905935069136,10.39852294524522,35.3208,0,20,-1,-1,2.400000095367432,11.99936978251625,-9999,3415.694639666667,0.0852508544921875,0.2166900634765625,-1.118865966796875,3415.689642666667,-0.2535268422472297,0.266286320767344,-0.1528965976917579,-5.362767219543457,1.3307865858078,-1.817809462547302,-0.1974585056304932,-0.1823156625032425,-0.05719637870788574,XArbitraryZVertical,-0.05835672016804291,0.1408704102889185,-0.1349965898621847,0.9790434010447269,0.2600805759429932,0.1523015797138214,-0.9535000324249268,0,0,0,-1,-1,3404.286036541667,unknown,2,2022-06-02T10:57:46.144+02:00,2022-06-02T10:17:13.754+02:00,538,1.652724,0,0,417.4277,0,0,2022-06-02T10:57:56.370+02:00,675853076.370396,0,3.070312,101.3463,1,0.77
2022-06-02T10:57:57.564+02:00,1654160272.999632,53.22905935069136,10.39852294524522,35.3208,0,20,-1,-1,2.400000095367432,11.99936978251625,-9999,3415.704634666667,0.10992431640625,0.5131988525390625,-1.225433349609375,3415.699636666667,-0.2556464471087942,0.2804086378953687,-0.2103028970746218,-5.560624599456787,1.580414533615112,-1.704126834869385,-0.1854000985622406,0.007933884859085083,-0.1790952682495117,XArbitraryZVertical,-0.08536429145322877,0.1510880356073697,-0.1400750988514659,0.9748150374270738,0.2706509530544281,0.2087561339139938,-0.9397706985473633,0,0,0,-1,-1,3404.286036541667,unknown,2,2022-06-02T10:57:46.144+02:00,2022-06-02T10:17:13.754+02:00,538,1.652724,0,0,417.4277,0,0,2022-06-02T10:57:56.370+02:00,675853076.370396,0,3.070312,101.3463,1,0.77
2022-06-02T10:57:57.574+02:00,1654160272.999632,53.22905935069136,10.39852294524522,35.3208,0,20,-1,-1,2.400000095367432,11.99936978251625,-9999,3415.714628666667,0.1453399658203125,0.720062255859375,-1.314727783203125,3415.709631666667,-0.2561870055463674,0.2973945373762298,-0.2678988983504381,-5.437491893768311,1.842644214630127,-1.687717199325562,-0.1726531982421875,0.2484929263591766,-0.3034350872039795,XArbitraryZVertical,-0.1122377976108127,0.1624917113679409,-0.1448253774355037,0.9695487018349592,0.2825774848461151,0.2647058665752411,-0.9219982624053955,0,0,0,-1,-1,3404.286036541667,unknown,2,2022-06-02T10:57:46.144+02:00,2022-06-02T10:17:13.754+02:00,538,1.652724,0,0,417.4277,0,0,2022-06-02T10:57:56.370+02:00,675853076.370396,0,3.070312,101.3463,1,0.77
2022-06-02T10:57:57.584+02:00,1654160272.999632,53.22905935069136,10.39852294524522,35.3208,0,20,-1,-1,2.400000095367432,11.99936978251625,-9999,3415.724623666667,0.1980133056640625,0.824951171875,-1.353057861328125,3415.719626666667,-0.2564157087243649,0.3171356375102458,-0.3231414966510625,-5.089945316314697,2.128247499465942,-1.68276035785675,-0.1503660082817078,0.4025151431560516,-0.4137716889381409,XArbitraryZVertical,-0.1376205780620756,0.1748786342061291,-0.1498019030982276,0.9633469161144214,0.2957059442996979,0.3175470232963562,-0.9009560942649841,0,0,0,-1,-1,3404.286036541667,unknown,2,2022-06-02T10:57:46.144+02:00,2022-06-02T10:17:13.754+02:00,538,1.652724,0,0,417.4277,0,0,2022-06-02T10:57:56.370+02:00,675853076.370396,0,3.070312,101.3463,1,0.77
2022-06-02T10:57:57.594+02:00,1654160272.999632,53.22905935069136,10.39852294524522,35.3208,0,20,-1,-1,2.400000095367432,11.99936978251625,-9999,3415.734618666667,0.2261505126953125,0.801727294921875,-1.495071411132812,3415.729620666667,-0.2557761787454079,0.3397910137513896,-0.3752660736145766,-4.677775859832764,2.393259048461914,-1.584284543991089,-0.1120831370353699,0.4584310054779053,-0.4758445620536804,XArbitraryZVertical,-0.1611611146922696,0.1882032053153163,-0.1547787232662166,0.9563733676274786,0.3100964426994324,0.36652010679245,-0.8772132992744446,0,0,0,-1,-1,3404.286036541667,unknown,2,2022-06-02T10:57:46.144+02:00,2022-06-02T10:17:13.754+02:00,538,1.652724,0,0,417.4277,0,0,2022-06-02T10:57:56.370+02:00,675853076.370396,0,3.070312,101.3463,1,0.77
2022-06-02T10:57:57.604+02:00,1654160272.999632,53.22905935069136,10.39852294524522,35.3208,0,20,-1,-1,2.400000095367432,11.99936978251625,-9999,3415.744612666667,0.2284698486328125,0.7571868896484375,-1.417572021484375,3415.739615666667,-0.2555706775068448,0.3657078129682775,-0.4210031269562151,-3.975879669189453,2.778034687042236,-1.530797600746155,-0.1002331376075745,0.3930510282516479,-0.6427466869354248,XArbitraryZVertical,-0.1811303442814969,0.2025572412948706,-0.1602322426029564,0.9489403644251226,0.326383650302887,0.4086761772632599,-0.8523247241973877,0,0,0,-1,-1,3404.286036541667,unknown,2,2022-06-02T10:57:46.144+02:00,2022-06-02T10:17:13.754+02:00,538,1.652724,0,0,417.4277,0,0,2022-06-02T10:57:56.370+02:00,675853076.370396,0,3.070312,101.3463,1,0.77
2022-06-02T10:57:57.614+02:00,1654160272.999632,53.22905935069136,10.39852294524522,35.3208,0,20,-1,-1,2.400000095367432,11.99936978251625,-9999,3415.754607666667,0.253204345703125,0.7427215576171875,-1.356597900390625,3415.749610666667,-0.2557033837827477,0.3952805483456555,-0.461315332518854,-3.532157182693481,3.137082815170288,-1.482523679733276,-0.1163453459739685,0.3120605051517487,-0.5911550521850586,XArbitraryZVertical,-0.1979645457989244,0.2181778112044536,-0.166234593375826,0.9410496425383532,0.344815194606781,0.4451263248920441,-0.8264169692993164,0,0,0,-1,-1,3404.286036541667,unknown,2,2022-06-02T10:57:46.144+02:00,2022-06-02T10:17:13.754+02:00,538,1.652724,0,0,417.4277,0,0,2022-06-02T10:57:56.370+02:00,675853076.370396,0,3.070312,101.3463,1,0.77
2022-06-02T10:57:57.624+02:00,1654160272.999632,53.22905935069136,10.39852294524522,35.3208,0,20,-1,-1,2.400000095367432,11.99936978251625,-9999,3415.764602666667,0.28656005859375,0.66796875,-1.190231323242188,3415.759605666667,-0.2555707514129513,0.4280013382853584,-0.4979561868001216,-3.202213287353516,3.385703802108765,-1.421216368675232,-0.1114450693130493,0.2650905847549438,-0.5572860240936279,XArbitraryZVertical,-0.2125999080860115,0.234830455476275,-0.1725954279027731,0.9326664375890005,0.3646494150161743,0.4776309132575989,-0.7993118762969971,0,0,0,-1,-1,3404.286036541667,unknown,2,2022-06-02T10:57:46.144+02:00,2022-06-02T10:17:13.754+02:00,538,1.652724,0,0,417.4277,0,0,2022-06-02T10:57:56.370+02:00,675853076.370396,0,3.070312,101.3463,1,0.77
2022-06-02T10:57:57.634+02:00,1654160272.999632,53.22905935069136,10.39852294524522,35.3208,0,20,-1,-1,2.400000095367432,11.99936978251625,-9999,3415.774597666667,0.2981719970703125,0.6287384033203125,-1.039443969726562,3415.769599666667,-0.2548338058784262,0.4632308977921271,-0.5313832814061489,-2.900675773620605,3.587915420532227,-1.343900084495544,-0.09866452217102051,0.1612423062324524,-0.4189788699150085,XArbitraryZVertical,-0.2253473608789789,0.2521751897130639,-0.1791253195970006,0.9238724554251273,0.3852245807647705,0.5067263841629028,-0.771252453327179,0,0,0,-1,-1,3404.286036541667,unknown,2,2022-06-02T10:57:46.144+02:00,2022-06-02T10:17:13.754+02:00,538,1.652724,0,0,417.4277,0,0,2022-06-02T10:57:56.370+02:00,675853076.370396,0,3.070312,101.3463,1,0.77
2022-06-02T10:57:57.644+02:00,1654160272.999632,53.22905935069136,10.39852294524522,35.3208,0,20,-1,-1,2.400000095367432,11.99936978251625,-9999,3415.784591666667,0.3050079345703125,0.66436767578125,-0.89801025390625,3415.779594666667,-0.2533291817324236,0.5006715055561195,-0.5621903200165366,-2.70361590385437,3.739683628082275,-1.28342080116272,-0.1079634726047516,0.09569764137268066,-0.2972030639648438,XArbitraryZVertical,-0.2365414533383665,0.2700512747802886,-0.1857565604287165,0.9146665079013055,0.4061354696750641,0.5330407023429871,-0.7422409057617188,0,0,0,-1,-1,3404.286036541667,unknown,2,2022-06-02T10:57:46.144+02:00,2022-06-02T10:17:13.754+02:00,538,1.652724,0,0,417.4277,0,0,2022-06-02T10:57:56.370+02:00,675853076.370396,0,3.070312,101.3463,1,0.77
2022-06-02T10:57:57.654+02:00,1654160272.999632,53.22905935069136,10.39852294524522,35.3208,0,20,-1,-1,2.400000095367432,11.99936978251625,-9999,3415.794586666667,0.3204498291015625,0.7249908447265625,-0.7652435302734375,3415.789589666667,-0.2503260578354122,0.5403386356919221,-0.5916763438760423,-2.686364650726318,3.872061014175415,-1.207849979400635,-0.1219695210456848,0.1066144108772278,-0.1862507462501526,XArbitraryZVertical,-0.2468975627542321,0.2883779313401389,-0.1922839571808962,0.9049345774580158,0.4269774556159973,0.5577532052993774,-0.7117595076560974,0,0,0,-1,-1,3404.286036541667,unknown,2,2022-06-02T10:57:46.144+02:00,2022-06-02T10:17:13.754+02:00,538,1.652724,0,0,417.4277,0,0,2022-06-02T10:57:56.370+02:00,675853076.370396,0,3.070312,101.3463,1,0.77
2022-06-02T10:57:57.664+02:00,1654160272.999632,53.22905935069136,10.39852294524522,35.3208,0,20,-1,-1,2.400000095367432,11.99936978251625,-9999,3415.804581666667,0.3499298095703125,0.763946533203125,-0.71533203125,3415.799583666667,-0.2447165680080035,0.5827317453901805,-0.6208003620509965,-2.739649772644043,3.96635913848877,-1.110127687454224,-0.1271770596504211,0.1433043479919434,-0.0860741138458252,XArbitraryZVertical,-0.2569932329128535,0.3071965832350348,-0.1984068924464364,0.8945498830610963,0.4476268887519836,0.5816863775253296,-0.6791694760322571,0,0,0,-1,-1,3404.286036541667,unknown,2,2022-06-02T10:57:46.144+02:00,2022-06-02T10:17:13.754+02:00,538,1.652724,0,0,417.4277,0,0,2022-06-02T10:57:56.370+02:00,675853076.370396,0,3.070312,101.3463,1,0.77
2022-06-02T10:57:57.674+02:00,1654160272.999632,53.22905935069136,10.39852294524522,35.3208,0,20,-1,-1,2.400000095367432,11.99936978251625,-9999,3415.814575666667,0.390655517578125,0.79052734375,-0.6771087646484375,3415.809578666667,-0.2359319334803579,0.6278887777480562,-0.6493827335607437,-2.765950441360474,4.028844356536865,-0.9772164821624756,-0.1179390549659729,0.1592515707015991,-0.07078355550765991,XArbitraryZVertical,-0.2668690453125198,0.3263535835796804,-0.2039227341757565,0.8835664397994178,0.4678688049316406,0.6046949028968811,-0.6445484757423401,0,0,0,-1,-1,3404.286036541667,unknown,2,2022-06-02T10:57:46.144+02:00,2022-06-02T10:17:13.754+02:00,538,1.652724,0,0,417.4277,0,0,2022-06-02T10:57:56.370+02:00,675853076.370396,0,3.070312,101.3463,1,0.77
2022-06-02T10:57:57.684+02:00,1654160272.999632,53.22905935069136,10.39852294524522,35.3208,0,20,-1,-1,2.400000095367432,11.99936978251625,-9999,3415.824570666667,0.432464599609375,0.7969970703125,-0.6357574462890625,3415.819573666667,-0.2236994519887555,0.6760266176337566,-0.6768622673534798,-2.778590679168701,4.095698833465576,-0.8283398747444153,-0.09710267186164856,0.1641771197319031,-0.0690155029296875,XArbitraryZVertical,-0.2763498234275568,0.3458093601543946,-0.2087380998129003,0.8720521944264941,0.4877581596374512,0.6263501048088074,-0.6080933213233948,0,0,0,-1,-1,3404.286036541667,unknown,2,2022-06-02T10:57:46.144+02:00,2022-06-02T10:17:13.754+02:00,538,1.652724,0,0,417.4277,0,0,2022-06-02T10:57:56.370+02:00,675853076.370396,0,3.070312,101.3463,1,0.77
2022-06-02T10:57:57.694+02:00,1654160272.999632,53.22905935069136,10.39852294524522,35.3208,0,20,-1,-1,2.400000095367432,11.99936978251625,-9999,3415.834565666667,0.4860992431640625,0.76422119140625,-0.573272705078125,3415.829567666667,-0.2080807174375075,0.7270558512794022,-0.7026848754239219,-2.70968770980835,4.118569850921631,-0.6611285805702209,-0.07475376129150391,0.1507281064987183,-0.06561177968978882,XArbitraryZVertical,-0.2852563175820172,0.365453123476193,-0.2128482397174636,0.8600979724501988,0.5072183609008789,0.6462688446044922,-0.5701456665992737,0,0,0,-1,-1,3404.286036541667,unknown,2,2022-06-02T10:57:46.144+02:00,2022-06-02T10:17:13.754+02:00,538,1.652724,0,0,417.4277,0,0,2022-06-02T10:57:56.370+02:00,675853076.370396,0,3.070312,101.3463,1,0.77
2022-06-02T10:57:57.704+02:00,1654160272.999632,53.22905935069136,10.39852294524522,35.3208,0,20,-1,-1,2.400000095367432,11.99936978251625,-9999,3415.844560666667,0.520477294921875,0.71197509765625,-0.4501800537109375,3415.839562666667,-0.1896519871104127,0.7802826311359901,-0.7258479959628568,-2.573570251464844,4.110663414001465,-0.4867698550224304,-0.04005956649780273,0.1004511713981628,-0.04170304536819458,XArbitraryZVertical,-0.2931926469984621,0.3850366583548272,-0.2162752119249362,0.8479444555773684,0.5261588096618652,0.6637699007987976,-0.5315696597099304,0,0,0,-1,-1,3404.286036541667,unknown,2,2022-06-02T10:57:46.144+02:00,2022-06-02T10:17:13.754+02:00,538,1.652724,0,0,417.4277,0,0,2022-06-02T10:57:56.370+02:00,675853076.370396,0,3.070312,101.3463,1,0.77
2022-06-02T10:57:57.714+02:00,1654160272.999632,53.22905935069136,10.39852294524522,35.3208,0,20,-1,-1,2.400000095367432,11.99936978251625,-9999,3415.854554666667,0.532623291015625,0.6812744140625,-0.367919921875,3415.849557666667,-0.1693645095948264,0.834740226992188,-0.7461615560565124,-2.41837215423584,4.058326244354248,-0.3788176774978638,-0.02372866868972778,0.0331498384475708,0.04280704259872437,XArbitraryZVertical,-0.300076815383072,0.4043022962241121,-0.2192192866527569,0.8357251394512151,0.5442059636116028,0.6788251996040344,-0.4929871261119843,0,0,0,-1,-1,3404.286036541667,unknown,2,2022-06-02T10:57:46.144+02:00,2022-06-02T10:17:13.754+02:00,538,1.652724,0,0,417.4277,0,0,2022-06-02T10:57:56.370+02:00,675853076.370396,0,3.070312,101.3463,1,0.77
2022-06-02T10:57:57.724+02:00,1654160272.999632,53.22905935069136,10.39852294524522,35.3208,0,20,-1,-1,2.400000095367432,11.99936978251625,-9999,3415.864549666667,0.5585479736328125,0.738739013671875,-0.299896240234375,3415.859552666667,-0.1476507536554078,0.8897102576359699,-0.764253737857384,-2.356164693832397,3.962320327758789,-0.3096388876438141,-0.02821230888366699,-0.01072412729263306,0.08661437034606934,XArbitraryZVertical,-0.3062342897656888,0.4230287777928959,-0.2218071448038403,0.8234493515927664,0.5608356595039368,0.6919984817504883,-0.4545344114303589,0,0,0,-1,-1,3404.286036541667,unknown,2,2022-06-02T10:57:46.144+02:00,2022-06-02T10:17:13.754+02:00,538,1.652724,0,0,417.4277,0,0,2022-06-02T10:57:56.370+02:00,675853076.370396,0,3.070312,101.3463,1,0.77
2022-06-02T10:57:57.733+02:00,1654160272.999632,53.22905935069136,10.39852294524522,35.3208,0,20,-1,-1,2.400000095367432,11.99936978251625,-9999,3415.874544666667,0.6051788330078125,0.808197021484375,-0.26190185546875,3415.869546666667,-0.1236479020388107,0.9455807026934544,-0.7804573288166053,-2.339020013809204,3.867669105529785,-0.1650356352329254,-0.01762610673904419,0.03513437509536743,0.1159932315349579,XArbitraryZVertical,-0.3120035859807423,0.4412584422722367,-0.2237642753104893,0.8110943888360952,0.5761739611625671,0.7036044597625732,-0.4158895015716553,0,0,0,-1,-1,3404.286036541667,unknown,2,2022-06-02T10:57:46.144+02:00,2022-06-02T10:17:13.754+02:00,538,1.652724,0,0,417.4277,0,0,2022-06-02T10:57:56.370+02:00,675853076.370396,0,3.070312,101.3463,1,0.77
2022-06-02T10:57:57.744+02:00,1654160272.999632,53.22905935069136,10.39852294524522,35.3208,0,20,-1,-1,2.400000095367432,11.99936978251625,-9999,3415.884538666667,0.6411285400390625,0.8489227294921875,-0.2673492431640625,3415.879541666667,-0.09738236294481703,1.002179122311309,-0.793691406345123,-2.203192949295044,3.724585056304932,0.06985118985176086,0.01429975032806396,0.09525030851364136,0.1156812906265259,XArbitraryZVertical,-0.3170275141130774,0.4590228490694872,-0.224823394096974,0.7989029870237018,0.5908790230751038,0.7129465937614441,-0.3775831460952759,0,0,0,-1,-1,3404.286036541667,unknown,2,2022-06-02T10:57:46.144+02:00,2022-06-02T10:17:13.754+02:00,538,1.652724,0,0,417.4277,0,0,2022-06-02T10:57:56.370+02:00,675853076.370396,0,3.070312,101.3463,1,0.77
2022-06-02T10:57:57.754+02:00,1654160272.999632,53.22905935069136,10.39852294524522,35.3208,0,20,-1,-1,2.400000095367432,11.99936978251625,-9999,3415.894533666667,0.6421661376953125,0.8695831298828125,-0.22918701171875,3415.889536666667,-0.07036427752204251,1.057979075863744,-0.802660161454453,-1.943911075592041,3.58565616607666,0.3116163909435272,0.03570717573165894,0.1297156810760498,0.07354125380516052,XArbitraryZVertical,-0.32069938586217,0.4761372105599216,-0.2249746429757129,0.7872938446920469,0.6054213047027588,0.7192069292068481,-0.3408905267715454,0,0,0,-1,-1,3404.286036541667,unknown,2,2022-06-02T10:57:46.144+02:00,2022-06-02T10:17:13.754+02:00,538,1.652724,0,0,417.4277,0,0,2022-06-02T10:57:56.370+02:00,675853076.370396,0,3.070312,101.3463,1,0.77
2022-06-02T10:57:57.764+02:00,1654160272.999632,53.22905935069136,10.39852294524522,35.3208,0,20,-1,-1,2.400000095367432,11.99936978251625,-9999,3415.904528666667,0.6452178955078125,0.8924102783203125,-0.1856231689453125,3415.899530666667,-0.04532006460355897,1.111268540669512,-0.807892620369882,-1.600242614746094,3.455187320709229,0.3747969567775726,0.02282822132110596,0.1467505097389221,0.07729899883270264,XArbitraryZVertical,-0.3228464557072161,0.4924704548314291,-0.2249740141691109,0.7762922794552807,0.6193379163742065,0.7228325605392456,-0.306486040353775,0,0,0,-1,-1,3404.286036541667,unknown,2,2022-06-02T10:57:46.144+02:00,2022-06-02T10:17:13.754+02:00,538,1.652724,0,0,417.4277,0,0,2022-06-02T10:57:56.370+02:00,675853076.370396,0,3.070312,101.3463,1,0.77
2022-06-02T10:57:57.774+02:00,1654160272.999632,53.22905935069136,10.39852294524522,35.3208,0,20,-1,-1,2.400000095367432,11.99936978251625,-9999,3415.914522666667,0.6564178466796875,0.8749847412109375,-0.168548583984375,3415.909525666667,-0.02538779711738134,1.159370741534875,-0.8097995279487328,-1.03000545501709,3.27738881111145,0.4521884918212891,0.01312398910522461,0.1682612299919128,0.09017655253410339,XArbitraryZVertical,-0.3231554549898448,0.5076127434341069,-0.2255213767602661,0.7661852484380856,0.6320938467979431,0.7241489291191101,-0.2757997214794159,0,0,0,-1,-1,3404.286036541667,unknown,2,2022-06-02T10:57:46.144+02:00,2022-06-02T10:17:13.754+02:00,538,1.652724,0,0,417.4277,0,0,2022-06-02T10:57:56.370+02:00,675853076.370396,0,3.070312,101.3463,1,0.77
2022-06-02T10:57:57.784+02:00,1654160272.999632,53.22905935069136,10.39852294524522,35.3208,0,20,-1,-1,2.400000095367432,11.99936978251625,-9999,3415.924517666667,0.644500732421875,0.8580169677734375,-0.1237945556640625,3415.919520666667,-0.01293169924455051,1.200256128063018,-0.8079568762497313,-0.4409169554710388,3.108889818191528,0.5380501747131348,0.01233649253845215,0.1521075963973999,0.08166712522506714,XArbitraryZVertical,-0.3210298173911641,0.5213750902679181,-0.2268929261707838,0.7573818177322782,0.6440812349319458,0.7228769063949585,-0.2502157390117645,0,0,0,-1,-1,3404.286036541667,unknown,2,2022-06-02T10:57:46.144+02:00,2022-06-02T10:17:13.754+02:00,538,1.652724,0,0,417.4277,0,0,2022-06-02T10:57:56.370+02:00,675853076.370396,0,3.070312,101.3463,1,0.77
2022-06-02T10:57:57.794+02:00,1654160272.999632,53.22905935069136,10.39852294524522,35.3208,0,20,-1,-1,2.400000095367432,11.99936978251625,-9999,3415.934512666667,0.6367645263671875,0.8289794921875,-0.04315185546875,3415.929515666667,-0.007572131469376169,1.234592997419149,-0.8033416181076223,0.05912373960018158,2.993513345718384,0.5836824178695679,-0.01093357801437378,0.138336718082428,0.1052605211734772,XArbitraryZVertical,-0.3167848547794228,0.5339660727758416,-0.2291385167549823,0.7496820226514157,0.6554343104362488,0.7196801900863647,-0.229055181145668,0,0,0,-1,-1,3404.286036541667,unknown,2,2022-06-02T10:57:46.144+02:00,2022-06-02T10:17:13.754+02:00,538,1.652724,0,0,417.4277,0,0,2022-06-02T10:57:56.370+02:00,675853076.370396,0,3.070312,101.3463,1,0.77
2022-06-02T10:57:57.804+02:00,1654160272.999632,53.22905935069136,10.39852294524522,35.3208,0,20,-1,-1,2.400000095367432,11.99936978251625,-9999,3415.944507666667,0.64849853515625,0.807769775390625,0.041900634765625,3415.939509666667,-0.008496825648363789,1.263260109132768,-0.796773144100494,0.4546782672405243,2.864879846572876,0.6208968758583069,-0.02945691347122192,0.113875150680542,0.1684487164020538,XArbitraryZVertical,-0.3107716965785747,0.5455461939950138,-0.2322168441831928,0.7428832192739341,0.6662213802337646,0.7151041626930237,-0.2116006016731262,0,0,0,-1,-1,3404.286036541667,unknown,2,2022-06-02T10:57:46.144+02:00,2022-06-02T10:17:13.754+02:00,538,1.652724,0,0,417.4277,0,0,2022-06-02T10:57:56.370+02:00,675853076.370396,0,3.070312,101.3463,1,0.77
2022-06-02T10:57:57.813+02:00,1654160272.999632,53.22905935069136,10.39852294524522,35.3208,0,20,-1,-1,2.400000095367432,11.99936978251625,-9999,3415.954501666667,0.6694793701171875,0.7720794677734375,0.0839691162109375,3415.949504666667,-0.01391445158564871,1.287065409406703,-0.7891217337730113,0.7053260803222656,2.667135953903198,0.6204273104667664,-0.02780401706695557,0.09803485870361328,0.2391090989112854,XArbitraryZVertical,-0.3036538105577623,0.5560486518771963,-0.2357838567412895,0.7368921911245874,0.6763024926185608,0.7097348570823669,-0.1972085237503052,0,0,0,-1,-1,3404.286036541667,unknown,2,2022-06-02T10:57:46.144+02:00,2022-06-02T10:17:13.754+02:00,538,1.652724,0,0,417.4277,0,0,2022-06-02T10:57:56.370+02:00,675853076.370396,0,3.070312,101.3463,1,0.77
2022-06-02T10:57:57.824+02:00,1654160272.999632,53.22905935069136,10.39852294524522,35.3208,0,20,-1,-1,2.400000095367432,11.99936978251625,-9999,3415.964496666667,0.6704864501953125,0.7509002685546875,0.10906982421875,3415.959499666667,-0.02246577725379498,1.306748718143599,-0.7811603515822849,0.8757215142250061,2.484391450881958,0.5828762054443359,-0.0160067081451416,0.06797552108764648,0.2692973017692566,XArbitraryZVertical,-0.2959769373410833,0.5654498639197552,-0.2396638311764789,0.7315909436235424,0.6854860782623291,0.7041038274765015,-0.1853282153606415,0,0,0,-1,-1,3404.286036541667,unknown,2,2022-06-02T10:57:46.144+02:00,2022-06-02T10:17:13.754+02:00,538,1.652724,0,0,417.4277,0,0,2022-06-02T10:57:56.370+02:00,675853076.370396,0,3.070312,101.3463,1,0.77
2022-06-02T10:57:57.834+02:00,1654160272.999632,53.22905935069136,10.39852294524522,35.3208,0,20,-1,-1,2.400000095367432,11.99936978251625,-9999,3415.974491666667,0.665191650390625,0.7395782470703125,0.1014251708984375,3415.969493666667,-0.03266511122937039,1.323626475783139,-0.7733637942938102,0.9129430055618286,2.332075357437134,0.5630856156349182,-0.02333152294158936,0.05235397815704346,0.284140408039093,XArbitraryZVertical,-0.2881647447478541,0.5739562203519289,-0.2436585329417816,0.7267501418080878,0.6938179135322571,0.6985461711883545,-0.1750706732273102,0,0,0,-1,-1,3404.286036541667,unknown,2,2022-06-02T10:57:46.144+02:00,2022-06-02T10:17:13.754+02:00,538,1.652724,0,0,417.4277,0,0,2022-06-02T10:57:56.370+02:00,675853076.370396,0,3.070312,101.3463,1,0.77
2022-06-02T10:57:57.844+02:00,1654160272.999632,53.22905935069136,10.39852294524522,35.3208,0,20,-1,-1,2.400000095367432,11.99936978251625,-9999,3415.984485666667,0.660430908203125,0.712493896484375,0.0724334716796875,3415.979488666667,-0.04298688130120598,1.339057677617295,-0.7657383486810703,0.8843939304351807,2.192897081375122,0.5684713125228882,-0.03640913963317871,0.04650861024856567,0.2669875025749207,XArbitraryZVertical,-0.2804919809615941,0.5818445317069995,-0.2474304804838569,0.7221905167709636,0.7016006708145142,0.6930694580078125,-0.1655623763799667,0,0,0,-1,-1,3404.286036541667,unknown,2,2022-06-02T10:57:46.144+02:00,2022-06-02T10:17:13.754+02:00,538,1.652724,0,0,417.4277,0,0,2022-06-02T10:57:56.370+02:00,675853076.370396,0,3.070312,101.3463,1,0.77
2022-06-02T10:57:57.854+02:00,1654160272.999632,53.22905935069136,10.39852294524522,35.3208,0,20,-1,-1,2.400000095367432,11.99936978251625,-9999,3415.994480666667,0.641387939453125,0.6841278076171875,0.0963897705078125,3415.989483666667,-0.05268175823497387,1.353677817971696,-0.7582619541508948,0.8150363564491272,2.081552982330322,0.5758222937583923,-0.04855573177337646,0.02483320236206055,0.2288328409194946,XArbitraryZVertical,-0.2730993677435251,0.5892512276457931,-0.2508071677078382,0.7178408124273244,0.7089865803718567,0.6876606345176697,-0.1563994586467743,0,0,0,-1,-1,3404.286036541667,unknown,2,2022-06-02T10:57:46.144+02:00,2022-06-02T10:17:13.754+02:00,538,1.652724,0,0,417.4277,0,0,2022-06-02T10:57:56.370+02:00,675853076.370396,0,3.070312,101.3463,1,0.77
2022-06-02T10:57:57.865+02:00,1654160272.999632,53.22905935069136,10.39852294524522,35.3208,0,20,-1,-1,2.400000095367432,11.99936978251625,-9999,3416.004475666667,0.639984130859375,0.67132568359375,0.1263885498046875,3415.999477666667,-0.06138867125974283,1.36813787497564,-0.751131952300227,0.7258279323577881,2.006571531295776,0.5531308054924011,-0.07457059621810913,0.001661121845245361,0.2435043007135391,XArbitraryZVertical,-0.2660957503679494,0.5963520401462595,-0.2538170043907552,0.7135363543720339,0.7159584760665894,0.6824665665626526,-0.1471145898103714,0,0,0,-1,-1,3404.286036541667,unknown,2,2022-06-02T10:57:46.144+02:00,2022-06-02T10:17:13.754+02:00,538,1.652724,0,0,417.4277,0,0,2022-06-02T10:57:56.370+02:00,675853076.370396,0,3.070312,101.3463,1,0.77
2022-06-02T10:57:57.886+02:00,1654160272.999632,53.22905935069136,10.39852294524522,35.3208,0,20,-1,-1,2.400000095367432,11.99936978251625,-9999,3416.014470666667,0.67181396484375,0.66851806640625,0.1712799072265625,3416.009472666667,-0.06930367847600569,1.382355707600161,-0.7444163653281344,0.6816937923431396,1.913520216941833,0.5444717407226562,-0.08247947692871094,-0.006217122077941895,0.2641646265983582,XArbitraryZVertical,-0.2594684665858784,0.6031484324294935,-0.2565485541462238,0.709274927541689,0.7224636077880859,0.6775426864624023,-0.1377761662006378,0,0,0,-1,-1,3404.286036541667,unknown,2,2022-06-02T10:57:46.144+02:00,2022-06-02T10:17:13.754+02:00,538,1.652724,0,0,417.4277,0,0,2022-06-02T10:57:56.370+02:00,675853076.370396,0,3.070312,101.3463,1,0.77
2022-06-02T10:57:57.892+02:00,1654160272.999632,53.22905935069136,10.39852294524522,35.3208,0,20,-1,-1,2.400000095367432,11.99936978251625,-9999,3416.024464666667,0.710235595703125,0.6559600830078125,0.2276153564453125,3416.019467666667,-0.0768416718884648,1.395835001779529,-0.7378257165139293,0.6493544578552246,1.796867609024048,0.5492467880249023,-0.05682253837585449,-0.004162728786468506,0.3000799417495728,XArbitraryZVertical,-0.2530593208376601,0.6095579623429883,-0.2590101663286531,0.7052047311326297,0.7286364436149597,0.672680675983429,-0.1288001388311386,0,0,0,-1,-1,3404.286036541667,unknown,2,2022-06-02T10:57:46.144+02:00,2022-06-02T10:17:13.754+02:00,538,1.652724,0,0,417.4277,0,0,2022-06-02T10:57:56.370+02:00,675853076.370396,0,3.070312,101.3463,1,0.77
2022-06-02T10:57:57.897+02:00,1654160272.999632,53.22905935069136,10.39852294524522,35.3208,0,20,-1,-1,2.400000095367432,11.99936978251625,-9999,3416.034459666667,0.7410888671875,0.643524169921875,0.29833984375,3416.029462666667,-0.08417748530046566,1.408152626632432,-0.731369308674512,0.6471367478370667,1.657202482223511,0.5429613590240479,-0.02420264482498169,-0.01192945241928101,0.3481315970420837,XArbitraryZVertical,-0.2468799695979173,0.6154609132615976,-0.2612234166622563,0.7014416330763047,0.7344381809234619,0.6678893566131592,-0.1205162927508354,0,0,0,-1,-1,3404.286036541667,unknown,2,2022-06-02T10:57:46.144+02:00,2022-06-02T10:17:13.754+02:00,538,1.652724,0,0,417.4277,0,0,2022-06-02T10:57:56.370+02:00,675853076.370396,0,3.070312,101.3463,1,0.77
2022-06-02T10:57:57.904+02:00,1654160272.999632,53.22905935069136,10.39852294524522,35.3208,0,20,-1,-1,2.400000095367432,11.99936978251625,-9999,3416.044454666667,0.761322021484375,0.6202239990234375,0.317962646484375,3416.039456666667,-0.09146765549988417,1.419049898703876,-0.7250836879471217,0.6177114844322205,1.489371061325073,0.5242305994033813,0.001245617866516113,-0.01967394351959229,0.4114781022071838,XArbitraryZVertical,-0.2409350243231281,0.6207907542739538,-0.2632350729261666,0.6980518559302989,0.7398431897163391,0.6631980538368225,-0.113138310611248,0,0,0,-1,-1,3404.286036541667,unknown,2,2022-06-02T10:57:46.144+02:00,2022-06-02T10:17:13.754+02:00,538,1.652724,0,0,417.4277,0,0,2022-06-02T10:57:56.370+02:00,675853076.370396,0,3.070312,101.3463,1,0.77
2022-06-02T10:57:57.913+02:00,1654160272.999632,53.22905935069136,10.39852294524522,35.3208,0,20,-1,-1,2.400000095367432,11.99936978251625,-9999,3416.054448666667,0.7613983154296875,0.585174560546875,0.3451690673828125,3416.049451666667,-0.09860130668105457,1.428379235333454,-0.7191512506563695,0.6297087073326111,1.33057165145874,0.4947210550308228,0.01657402515411377,-0.03852248191833496,0.4247503280639648,XArbitraryZVertical,-0.2353490316316124,0.6254733729178283,-0.2650575032549519,0.6950815061833375,0.7447478771209717,0.6587463617324829,-0.1067877858877182,0,0,0,-1,-1,3404.286036541667,unknown,2,2022-06-02T10:57:46.144+02:00,2022-06-02T10:17:13.754+02:00,538,1.652724,0,0,417.4277,0,0,2022-06-02T10:57:56.370+02:00,675853076.370396,0,3.070312,101.3463,1,0.77
2022-06-02T10:57:57.923+02:00,1654160272.999632,53.22905935069136,10.39852294524522,35.3208,0,20,-1,-1,2.400000095367432,11.99936978251625,-9999,3416.064443666667,0.77093505859375,0.5671234130859375,0.363861083984375,3416.059446666667,-0.1062864037283661,1.436057636284703,-0.7134593182409895,0.6644427180290222,1.214650392532349,0.4716559648513794,0.01214885711669922,-0.06927883625030518,0.4467372894287109,XArbitraryZVertical,-0.229874984190567,0.6295818866359372,-0.2669075615789289,0.692491506684295,0.7492494583129883,0.6544532775878906,-0.1015682816505432,0,0,0,-1,-1,3404.286036541667,unknown,2,2022-06-02T10:57:46.144+02:00,2022-06-02T10:17:13.754+02:00,538,1.652724,0,0,417.4277,0,0,2022-06-02T10:57:56.370+02:00,675853076.370396,0,3.070312,101.3463,1,0.77
2022-06-02T10:57:57.934+02:00,1654160272.999632,53.22905935069136,10.39852294524522,35.3208,0,20,-1,-1,2.400000095367432,11.99936978251625,-9999,3416.074438666667,0.7888031005859375,0.53582763671875,0.3580474853515625,3416.069440666667,-0.113912463295394,1.442592140282295,-0.708042100207964,0.6152657866477966,1.09038507938385,0.458926647901535,0.01753270626068115,-0.08322441577911377,0.4609830379486084,XArbitraryZVertical,-0.2246515437113781,0.633222451151198,-0.2686540120624576,0.6902071912525463,0.7534022927284241,0.6503477096557617,-0.09712202101945877,0,0,0,-1,-1,3404.286036541667,unknown,2,2022-06-02T10:57:46.144+02:00,2022-06-02T10:17:13.754+02:00,538,1.652724,0,0,417.4277,0,0,2022-06-02T10:57:56.370+02:00,675853076.370396,0,3.070312,101.3463,1,0.77
2022-06-02T10:57:57.943+02:00,1654160272.999632,53.22905935069136,10.39852294524522,35.3208,0,20,-1,-1,2.400000095367432,11.99936978251625,-9999,3416.084433666667,0.80450439453125,0.4895172119140625,0.37701416015625,3416.079435666667,-0.120522267620922,1.448622862838211,-0.7027266094149682,0.5122994780540466,0.974478006362915,0.4693609178066254,0.03140819072723389,-0.1104731559753418,0.4510441422462463,XArbitraryZVertical,-0.2198383572882386,0.6365318048721053,-0.269995183470037,0.688186713021459,0.7573948502540588,0.646300733089447,-0.09299671649932861,0,0,0,-1,-1,3404.286036541667,unknown,2,2022-06-02T10:57:46.144+02:00,2022-06-02T10:17:13.754+02:00,538,1.652724,0,0,417.4277,0,0,2022-06-02T10:57:56.370+02:00,675853076.370396,0,3.070312,101.3463,1,0.77
2022-06-02T10:57:57.953+02:00,1654160272.999632,53.22905935069136,10.39852294524522,35.3208,0,20,-1,-1,2.400000095367432,11.99936978251625,-9999,3416.094427666667,0.81707763671875,0.484466552734375,0.3952484130859375,3416.089430666667,-0.1255858770247185,1.45447326538545,-0.6975908862028116,0.3757676184177399,0.847905695438385,0.4563901722431183,0.04329168796539307,-0.1528561115264893,0.4659622311592102,XArbitraryZVertical,-0.2155951914037652,0.6395659809478121,-0.27081473719572,0.6863915648203217,0.7612127065658569,0.6423732042312622,-0.08894813805818558,0,0,0,-1,-1,3404.286036541667,unknown,2,2022-06-02T10:57:46.144+02:00,2022-06-02T10:17:13.754+02:00,538,1.652724,0,0,417.4277,0,0,2022-06-02T10:57:56.370+02:00,675853076.370396,0,3.070312,101.3463,1,0.77
2022-06-02T10:57:57.964+02:00,1654160272.999632,53.22905935069136,10.39852294524522,35.3208,0,20,-1,-1,2.400000095367432,11.99936978251625,-9999,3416.104422666667,0.829833984375,0.5227508544921875,0.4136199951171875,3416.099425666667,-0.1288747807933737,1.460300810229929,-0.6928249833055056,0.2403102070093155,0.7417558431625366,0.4344039261341095,0.05232536792755127,-0.154246985912323,0.4800956249237061,XArbitraryZVertical,-0.2120491841552357,0.6423484333470689,-0.2711148439702197,0.6847774658610648,0.7647520899772644,0.6387134194374084,-0.08484726399183273,0,0,0,-1,-1,3404.286036541667,unknown,2,2022-06-02T10:57:46.144+02:00,2022-06-02T10:17:13.754+02:00,538,1.652724,0,0,417.4277,0,0,2022-06-02T10:57:56.370+02:00,675853076.370396,0,3.070312,101.3463,1,0.77
2022-06-02T10:57:57.973+02:00,1654160272.999632,53.22905935069136,10.39852294524522,35.3208,0,20,-1,-1,2.400000095367432,11.99936978251625,-9999,3416.114417666667,0.843292236328125,0.545379638671875,0.4449615478515625,3416.109419666667,-0.1307117614468361,1.46610771409597,-0.6883538582660139,0.1496734470129013,0.6539561152458191,0.4261338710784912,0.06176948547363281,-0.1125160455703735,0.4943225979804993,XArbitraryZVertical,-0.2090762227792927,0.6449308619936025,-0.2709886288424525,0.6833127084622226,0.7680643796920776,0.6352667212486267,-0.08070263266563416,0,0,0,-1,-1,3404.286036541667,unknown,2,2022-06-02T10:57:46.144+02:00,2022-06-02T10:17:13.754+02:00,538,1.652724,0,0,417.4277,0,0,2022-06-02T10:57:56.370+02:00,675853076.370396,0,3.070312,101.3463,1,0.77
2022-06-02T10:57:57.983+02:00,1654160272.999632,53.22905935069136,10.39852294524522,35.3208,0,20,-1,-1,2.400000095367432,11.99936978251625,-9999,3416.124411666667,0.8650665283203125,0.5394134521484375,0.517791748046875,3416.119414666667,-0.1320768704962423,1.471286316211532,-0.6839537183189581,0.1601681709289551,0.5542628169059753,0.426818311214447,0.07204604148864746,-0.08648288249969482,0.5219625234603882,XArbitraryZVertical,-0.2063669030965513,0.6472342551156661,-0.2706431168827387,0.6820943871490963,0.7712461352348328,0.6318624019622803,-0.07700104266405106,0,0,0,-1,-1,3404.286036541667,unknown,2,2022-06-02T10:57:46.144+02:00,2022-06-02T10:17:13.754+02:00,538,1.652724,0,0,417.4277,0,0,2022-06-02T10:57:56.370+02:00,675853076.370396,0,3.070312,101.3463,1,0.77
2022-06-02T10:57:57.993+02:00,1654160272.999632,53.22905935069136,10.39852294524522,35.3208,0,20,-1,-1,2.400000095367432,11.99936978251625,-9999,3416.134406666667,0.8951568603515625,0.5328369140625,0.6246490478515625,3416.129409666667,-0.1335009060205448,1.475374755928745,-0.6796538782148367,0.1291081756353378,0.4354979395866394,0.4055962562561035,0.09081453084945679,-0.08911049365997314,0.5918970704078674,XArbitraryZVertical,-0.2038229845988564,0.6491559884891682,-0.2702247997390123,0.6811983399966532,0.7742519378662109,0.6285238265991211,-0.0741053894162178,0,0,0,-1,-1,3404.286036541667,unknown,2,2022-06-02T10:57:46.144+02:00,2022-06-02T10:17:13.754+02:00,538,1.652724,0,0,417.4277,0,0,2022-06-02T10:57:56.370+02:00,675853076.370396,0,3.070312,101.3463,1,0.77
2022-06-02T10:57:58.003+02:00,1654160272.999632,53.22905935069136,10.39852294524522,35.3208,0,20,-1,-1,2.400000095367432,11.99936978251625,-9999,3416.144401666667,0.928955078125,0.5164031982421875,0.667724609375,3416.139403666667,-0.1339013966673839,1.478647108120867,-0.6756200716073748,0.00709892250597477,0.2632529437541962,0.394432008266449,0.1181482076644897,-0.09254443645477295,0.6964530944824219,XArbitraryZVertical,-0.2018176825054918,0.6506670243164656,-0.2694484035817607,0.6806611428598225,0.777008593082428,0.6253812909126282,-0.07180409133434296,0,0,0,-1,-1,3404.286036541667,unknown,2,2022-06-02T10:57:46.144+02:00,2022-06-02T10:17:13.754+02:00,538,1.652724,0,0,417.4277,0,0,2022-06-02T10:57:56.370+02:00,675853076.370396,0,3.070312,101.3463,1,0.77
2022-06-02T10:57:58.014+02:00,1654160272.999632,53.22905935069136,10.39852294524522,35.3208,0,20,-1,-1,2.400000095367432,11.99936978251625,-9999,3416.154396666667,0.933807373046875,0.494903564453125,0.6826171875,3416.149398666667,-0.1325510492385414,1.481210499107909,-0.6718134077869847,-0.1513185203075409,0.08338310569524765,0.3828157484531403,0.1493995189666748,-0.1060032844543457,0.7377490997314453,XArbitraryZVertical,-0.2005609993981917,0.6517384483099363,-0.268069131046283,0.6805521395826094,0.7795555591583252,0.6224063634872437,-0.07002455741167068,0,0,0,-1,-1,3404.286036541667,unknown,2,2022-06-02T10:57:46.144+02:00,2022-06-02T10:17:13.754+02:00,538,1.652724,0,0,417.4277,0,0,2022-06-02T10:57:56.370+02:00,675853076.370396,0,3.070312,101.3463,1,0.77
2022-06-02T10:57:58.024+02:00,1654160272.999632,53.22905935069136,10.39852294524522,35.3208,0,20,-1,-1,2.400000095367432,11.99936978251625,-9999,3416.164390666667,0.9245452880859375,0.481658935546875,0.687225341796875,3416.159393666667,-0.1291476435432108,1.483412410277453,-0.6682398532838917,-0.3150456547737122,-0.06447505950927734,0.3777629435062408,0.1518887281417847,-0.1247017979621887,0.7511187195777893,XArbitraryZVertical,-0.2001086029415221,0.6524613121004177,-0.2660228639800493,0.6807956452323923,0.7819187045097351,0.6196053624153137,-0.06850156933069229,0,0,0,-1,-1,3404.286036541667,unknown,2,2022-06-02T10:57:46.144+02:00,2022-06-02T10:17:13.754+02:00,538,1.652724,0,0,417.4277,0,0,2022-06-02T10:57:56.370+02:00,675853076.370396,0,3.070312,101.3463,1,0.77
2022-06-02T10:57:58.034+02:00,1654160272.999632,53.22905935069136,10.39852294524522,35.3208,0,20,-1,-1,2.400000095367432,11.99936978251625,-9999,3416.174385666667,0.9071807861328125,0.4768524169921875,0.6654815673828125,3416.169388666667,-0.1236262928597827,1.485563696927659,-0.6647863329207332,-0.4907469749450684,-0.1847850978374481,0.3860247433185577,0.1403537392616272,-0.1352320313453674,0.7542263269424438,XArbitraryZVertical,-0.2004015910248442,0.6529461559804114,-0.2632836188219053,0.6813092784132803,0.7841916084289551,0.6168909668922424,-0.06700103729963303,0,0,0,-1,-1,3404.286036541667,unknown,2,2022-06-02T10:57:46.144+02:00,2022-06-02T10:17:13.754+02:00,538,1.652724,0,0,417.4277,0,0,2022-06-02T10:57:56.370+02:00,675853076.370396,0,3.070312,101.3463,1,0.77
2022-06-02T10:57:58.043+02:00,1654160272.999632,53.22905935069136,10.39852294524522,35.3208,0,20,-1,-1,2.400000095367432,11.99936978251625,-9999,3416.184380666667,0.8902740478515625,0.480194091796875,0.6535491943359375,3416.179382666667,-0.1156724656755937,1.488068160136486,-0.6614652791041684,-0.7067613005638123,-0.296206146478653,0.3810246586799622,0.1207865476608276,-0.1374213695526123,0.7306873202323914,XArbitraryZVertical,-0.2014958427622406,0.6532966672607849,-0.259787461591392,0.681992201425292,0.7863942980766296,0.614273726940155,-0.06520578265190125,0,0,0,-1,-1,3404.286036541667,unknown,2,2022-06-02T10:57:46.144+02:00,2022-06-02T10:17:13.754+02:00,538,1.652724,0,0,417.4277,0,0,2022-06-02T10:57:56.370+02:00,675853076.370396,0,3.070312,101.3463,1,0.77
2022-06-02T10:57:58.053+02:00,1654160272.999632,53.22905935069136,10.39852294524522,35.3208,0,20,-1,-1,2.400000095367432,11.99936978251625,-9999,3416.194374666667,0.8707733154296875,0.5131072998046875,0.6660003662109375,3416.189377666667,-0.1048765691465812,1.491174526289567,-0.6584059786479824,-0.9403619170188904,-0.4065565466880798,0.3690020143985748,0.101811408996582,-0.1316627860069275,0.7164609432220459,XArbitraryZVertical,-0.2035419756605456,0.6535401731872728,-0.2554591733310723,0.6827858072572853,0.7884625792503357,0.6118568181991577,-0.06291181594133377,0,0,0,-1,-1,3404.286036541667,unknown,2,2022-06-02T10:57:46.144+02:00,2022-06-02T10:17:13.754+02:00,538,1.652724,0,0,417.4277,0,0,2022-06-02T10:57:56.370+02:00,675853076.370396,0,3.070312,101.3463,1,0.77
2022-06-02T10:57:58.063+02:00,1654160272.999632,53.22905935069136,10.39852294524522,35.3208,0,20,-1,-1,2.400000095367432,11.99936978251625,-9999,3416.20437075,0.8532867431640625,0.545013427734375,0.7040557861328125,3416.199372666667,-0.0915370621714925,1.494729521575554,-0.6555497046631945,-1.11389696598053,-0.521016001701355,0.3628823459148407,0.08035272359848022,-0.09648787975311279,0.7262412905693054,XArbitraryZVertical,-0.2064452713609893,0.6536511691013021,-0.2503662769479946,0.6836937273812795,0.7904205322265625,0.6095951199531555,-0.06024099886417389,0,0,0,-1,-1,3404.286036541667,unknown,2,2022-06-02T10:57:46.144+02:00,2022-06-02T10:17:13.754+02:00,538,1.652724,0,0,417.4277,0,0,2022-06-02T10:57:56.370+02:00,675853076.370396,0,3.070312,101.3463,1,0.77
2022-06-02T10:57:58.073+02:00,1654160272.999632,53.22905935069136,10.39852294524522,35.3208,0,20,-1,-1,2.400000095367432,11.99936978251625,-9999,3416.21436575,0.84881591796875,0.5769500732421875,0.7673492431640625,3416.20936775,-0.07623001958406359,1.498215760498015,-0.6529263700846223,-1.268596053123474,-0.6592947244644165,0.3432645499706268,0.06106859445571899,-0.06250011920928955,0.7616565227508545,XArbitraryZVertical,-0.210094435980019,0.6534982157490794,-0.2446610129946819,0.6847929472119821,0.7922180891036987,0.607513427734375,-0.05760081857442856,0,0,0,-1,-1,3404.286036541667,unknown,2,2022-06-02T10:57:46.144+02:00,2022-06-02T10:17:13.754+02:00,538,1.652724,0,0,417.4277,0,0,2022-06-02T10:57:56.370+02:00,675853076.370396,0,3.070312,101.3463,1,0.77
2022-06-02T10:57:58.083+02:00,1654160272.999632,53.22905935069136,10.39852294524522,35.3208,0,20,-1,-1,2.400000095367432,11.99936978251625,-9999,3416.22436075,0.8694000244140625,0.6012420654296875,0.912506103515625,3416.21936275,-0.05910186435550069,1.501306647141958,-0.6504641250700978,-1.412401914596558,-0.8124229907989502,0.3439780175685883,0.05493378639221191,-0.02860581874847412,0.822604775428772,XArbitraryZVertical,-0.2144535324001375,0.6529792432489789,-0.2383338384753052,0.6861666504605971,0.7938820719718933,0.6055558323860168,-0.05525558069348335,0,0,0,-1,-1,3404.286036541667,unknown,2,2022-06-02T10:57:46.144+02:00,2022-06-02T10:17:13.754+02:00,538,1.652724,0,0,417.4277,0,0,2022-06-02T10:57:56.370+02:00,675853076.370396,0,3.070312,101.3463,1,0.77
2022-06-02T10:57:58.093+02:00,1654160272.999632,53.22905935069136,10.39852294524522,35.3208,0,20,-1,-1,2.400000095367432,11.99936978251625,-9999,3416.23435475,0.885650634765625,0.60491943359375,0.982879638671875,3416.22935775,-0.03998453587376234,1.503550418972067,-0.6481466975547086,-1.594485998153687,-1.075687289237976,0.3233254551887512,0.0739978551864624,-0.0024680495262146,0.9660743474960327,XArbitraryZVertical,-0.219618013054979,0.6519077995487434,-0.2312672353389809,0.6879675988456416,0.7954019904136658,0.6037099957466125,-0.05356829985976219,0,0,0,-1,-1,3404.286036541667,unknown,2,2022-06-02T10:57:46.144+02:00,2022-06-02T10:17:13.754+02:00,538,1.652724,0,0,417.4277,0,0,2022-06-02T10:57:56.370+02:00,675853076.370396,0,3.070312,101.3463,1,0.77
2022-06-02T10:57:58.103+02:00,1654160272.999632,53.22905935069136,10.39852294524522,35.3208,0,20,-1,-1,2.400000095367432,11.99936978251625,-9999,3416.24434975,0.8568878173828125,0.6138916015625,0.9725799560546875,3416.23935275,-0.01891632906259319,1.50390796144301,-0.6462087824869781,-1.721710681915283,-1.398362040519714,0.2861962020397186,0.08906352519989014,0.002755343914031982,1.03624165058136,XArbitraryZVertical,-0.2257600015930575,0.6498856969970095,-0.2234225299844052,0.6904804248160865,0.7965869903564453,0.6021639108657837,-0.05336200445890427,0,0,0,-1,-1,3404.286036541667,unknown,2,2022-06-02T10:57:46.144+02:00,2022-06-02T10:17:13.754+02:00,538,1.652724,0,0,417.4277,0,0,2022-06-02T10:57:56.370+02:00,675853076.370396,0,3.070312,101.3463,1,0.77
2022-06-02T10:57:58.113+02:00,1654160272.999632,53.22905935069136,10.39852294524522,35.3208,0,20,-1,-1,2.400000095367432,11.99936978251625,-9999,3416.25434475,0.7846221923828125,0.6362457275390625,0.978271484375,3416.24934675,0.00357648462794734,1.502043642537072,-0.6447152098635683,-1.847700595855713,-1.686737418174744,0.2516797780990601,0.0595051646232605,0.01292067766189575,1.027488708496094,XArbitraryZVertical,-0.2327379400405182,0.6468219865854437,-0.2149421717066602,0.6937248678501684,0.7973825931549072,0.6009708642959595,-0.05490873754024506,0,0,0,-1,-1,3404.286036541667,unknown,2,2022-06-02T10:57:46.144+02:00,2022-06-02T10:17:13.754+02:00,538,1.652724,0,0,417.4277,0,0,2022-06-02T10:57:56.370+02:00,675853076.370396,0,3.070312,101.3463,1,0.77
2022-06-02T10:57:58.123+02:00,1654160272.999632,53.22905935069136,10.39852294524522,35.3208,0,20,-1,-1,2.400000095367432,11.99936978251625,-9999,3416.26433875,0.71575927734375,0.648040771484375,1.017196655273438,3416.25934175,0.02809729707787673,1.498472613228004,-0.6437552329340611,-2.05939245223999,-1.983636736869812,0.2148791551589966,-0.01313430070877075,0.03604239225387573,1.036068916320801,XArbitraryZVertical,-0.2406868429675997,0.6427838518896909,-0.2056792169346417,0.6975635169058736,0.797756552696228,0.600203275680542,-0.05779752507805824,0,0,0,-1,-1,3404.286036541667,unknown,2,2022-06-02T10:57:46.144+02:00,2022-06-02T10:17:13.754+02:00,538,1.652724,0,0,417.4277,0,0,2022-06-02T10:57:56.370+02:00,675853076.370396,0,3.070312,101.3463,1,0.77
2022-06-02T10:57:58.133+02:00,1654160272.999632,53.22905935069136,10.39852294524522,35.3208,0,20,-1,-1,2.400000095367432,11.99936978251625,-9999,3416.27433375,0.6691131591796875,0.7191314697265625,1.131484985351562,3416.26933675,0.05610063885938858,1.493869069936169,-0.6433840628893308,-2.427093982696533,-2.30709171295166,0.1940879076719284,-0.08194470405578613,0.04813438653945923,1.078683018684387,XArbitraryZVertical,-0.2499852252218385,0.6377806269381449,-0.1951963810303599,0.7018843179962296,0.7977040410041809,0.5999063849449158,-0.06148651987314224,0,0,0,-1,-1,3404.286036541667,unknown,2,2022-06-02T10:57:46.144+02:00,2022-06-02T10:17:13.754+02:00,538,1.652724,0,0,417.4277,0,0,2022-06-02T10:57:56.370+02:00,675853076.370396,0,3.070312,101.3463,1,0.77
2022-06-02T10:57:58.143+02:00,1654160272.999632,53.22905935069136,10.39852294524522,35.3208,0,20,-1,-1,2.400000095367432,11.99936978251625,-9999,3416.28432875,0.650299072265625,0.819061279296875,1.262924194335938,3416.27933075,0.0899612380888853,1.489395978917627,-0.6436413875548784,-2.980208158493042,-2.670486211776733,0.1800439953804016,-0.1281540393829346,0.1190191507339478,1.196526527404785,XArbitraryZVertical,-0.2612443941653188,0.6318469726200512,-0.1827862204355371,0.706477125082671,0.7972671389579773,0.6001121997833252,-0.06504154205322266,0,0,0,-1,-1,3404.286036541667,unknown,2,2022-06-02T10:57:46.144+02:00,2022-06-02T10:17:13.754+02:00,538,1.652724,0,0,417.4277,0,0,2022-06-02T10:57:56.370+02:00,675853076.370396,0,3.070312,101.3463,1,0.77
2022-06-02T10:57:58.153+02:00,1654160272.999632,53.22905935069136,10.39852294524522,35.3208,0,20,-1,-1,2.400000095367432,11.99936978251625,-9999,3416.29432375,0.6503448486328125,0.9234466552734375,1.4678955078125,3416.28932575,0.1301476440813664,1.484682816207821,-0.6446986250974498,-3.414003372192383,-3.130986928939819,0.1396423280239105,-0.1460201144218445,0.2181035876274109,1.331668019294739,XArbitraryZVertical,-0.274644457927304,0.6246587098701062,-0.1682552928719345,0.7113803009195471,0.7963190078735352,0.6009575724601746,-0.06874383240938187,0,0,0,-1,-1,3404.286036541667,unknown,2,2022-06-02T10:57:46.144+02:00,2022-06-02T10:17:13.754+02:00,538,1.652724,0,0,417.4277,0,0,2022-06-02T10:57:56.370+02:00,675853076.370396,0,3.070312,101.3463,1,0.77
2022-06-02T10:57:58.163+02:00,1654160272.999632,53.22905935069136,10.39852294524522,35.3208,0,20,-1,-1,2.400000095367432,11.99936978251625,-9999,3416.30431775,0.666107177734375,1.057113647460938,1.576995849609375,3416.29932075,0.1747577208816833,1.477313384988063,-0.6468905739590392,-3.687040567398071,-3.754750490188599,0.05739405006170273,-0.1441326141357422,0.3207383155822754,1.542382597923279,XArbitraryZVertical,-0.2898125189109917,0.6154389586147258,-0.1520028557326062,0.7170345219839644,0.7944772839546204,0.602708101272583,-0.07448718696832657,0,0,0,-1,-1,3404.286036541667,unknown,2,2022-06-02T10:57:46.144+02:00,2022-06-02T10:17:13.754+02:00,538,1.652724,0,0,417.4277,0,0,2022-06-02T10:57:56.370+02:00,675853076.370396,0,3.070312,101.3463,1,0.77
2022-06-02T10:57:58.173+02:00,1654160272.999632,53.22905935069136,10.39852294524522,35.3208,0,20,-1,-1,2.400000095367432,11.99936978251625,-9999,3416.31431275,0.6269989013671875,1.096282958984375,1.554122924804688,3416.30931575,0.2214629282003752,1.464258072653535,-0.6502041895687334,-3.747885227203369,-4.524320125579834,0.02537506446242332,-0.1253400444984436,0.4517646431922913,1.661635637283325,XArbitraryZVertical,-0.3061023362073066,0.6033087263987119,-0.1343170327446319,0.7240710324217072,0.7914472222328186,0.6053489446640015,-0.08463988453149796,0,0,0,-1,-1,3404.286036541667,unknown,2,2022-06-02T10:57:46.144+02:00,2022-06-02T10:17:13.754+02:00,538,1.652724,0,0,417.4277,0,0,2022-06-02T10:57:56.370+02:00,675853076.370396,0,3.070312,101.3463,1,0.77
2022-06-02T10:57:58.183+02:00,1654160272.999632,53.22905935069136,10.39852294524522,35.3208,0,20,-1,-1,2.400000095367432,11.99936978251625,-9999,3416.32430775,0.4969635009765625,1.144866943359375,1.323104858398438,3416.31930975,0.266414454154239,1.442122077180106,-0.6543849800826428,-3.379510402679443,-5.386632919311523,-0.03550745919346809,-0.1598641276359558,0.4876115322113037,1.65593433380127,XArbitraryZVertical,-0.3222856805144906,0.5875595036138592,-0.1158286424587315,0.7331367434520404,0.7868630886077881,0.6086713671684265,-0.1018115431070328,0,0,0,-1,-1,3404.286036541667,unknown,2,2022-06-02T10:57:46.144+02:00,2022-06-02T10:17:13.754+02:00,538,1.652724,0,0,417.4277,0,0,2022-06-02T10:57:56.370+02:00,675853076.370396,0,3.070312,101.3463,1,0.77
2022-06-02T10:57:58.193+02:00,1654160272.999632,53.22905935069136,10.39852294524522,35.3208,0,20,-1,-1,2.400000095367432,11.99936978251625,-9999,3416.33430175,0.3495025634765625,1.4271240234375,1.326400756835938,3416.32930475,0.3056321738524577,1.4079417994148,-0.6591539609705331,-2.959342479705811,-6.240175724029541,0.02495395205914974,-0.2830874919891357,0.5324186682701111,1.451274752616882,XArbitraryZVertical,-0.337053702525152,0.5677233751959422,-0.09724614052942968,0.7447336290180442,0.780051052570343,0.6124482750892639,-0.1281699389219284,0,0,0,-1,-1,3404.286036541667,unknown,2,2022-06-02T10:57:46.144+02:00,2022-06-02T10:17:13.754+02:00,538,1.652724,0,0,417.4277,0,0,2022-06-02T10:57:56.370+02:00,675853076.370396,0,3.070312,101.3463,1,0.77
2022-06-02T10:57:58.204+02:00,1654160272.999632,53.22905935069136,10.39852294524522,35.3208,0,20,-1,-1,2.400000095367432,11.99936978251625,-9999,3416.34429675,0.2095794677734375,1.493789672851562,1.243484497070312,3416.33929975,0.3435222324653354,1.364955234067222,-0.6630941863782881,-3.111546754837036,-7.049589157104492,0.292592316865921,-0.4219517707824707,0.8115656971931458,1.487479209899902,XArbitraryZVertical,-0.3508100372121341,0.5444199638369682,-0.07687049523143991,0.7580436353082955,0.7714542746543884,0.6155582666397095,-0.1610784381628036,0,0,0,-1,-1,3404.286036541667,unknown,2,2022-06-02T10:57:46.144+02:00,2022-06-02T10:17:13.754+02:00,538,1.652724,0,0,417.4277,0,0,2022-06-02T10:57:56.370+02:00,675853076.370396,0,3.070312,101.3463,1,0.77
2022-06-02T10:57:58.221+02:00,1654160272.999632,53.22905935069136,10.39852294524522,35.3208,0,20,-1,-1,2.400000095367432,11.99936978251625,-9999,3416.35429175,0.080108642578125,1.437789916992188,1.329452514648438,3416.34929375,0.3862932677808789,1.316400647453215,-0.666726682272993,-3.661938667297363,-7.951631546020508,0.5307962894439697,-0.5509785413742065,0.875372588634491,1.441251993179321,XArbitraryZVertical,-0.3650002559078021,0.5175819376168982,-0.05294923267364487,0.7720622457779626,0.7605579495429993,0.618416965007782,-0.1977674961090088,0,0,0,-1,-1,3404.286036541667,unknown,2,2022-06-02T10:57:46.144+02:00,2022-06-02T10:17:13.754+02:00,538,1.652724,0,0,417.4277,0,0,2022-06-02T10:57:56.370+02:00,675853076.370396,0,3.070312,101.3463,1,0.77
2022-06-02T10:57:58.224+02:00,1654160278.205194,53.22908916924259,10.39852735921719,38.18151,0,20,-1,-1,2.400000095367432,7.999579855010836,-9999,3416.36428675,-0.125518798828125,1.358428955078125,1.404525756835938,3416.35928875,0.4393190352318958,1.265762821685434,-0.6726756006109164,-4.695335865020752,-8.789217948913574,0.5712541937828064,-0.6659418940544128,0.8147088885307312,1.564353942871094,XArbitraryZVertical,-0.3813782523063581,0.4869290346913169,-0.02466190535359358,0.7853931842426015,0.7460504770278931,0.6230809688568115,-0.234901487827301,0,0,0,-1,-1,3404.286036541667,unknown,2,2022-06-02T10:57:46.144+02:00,2022-06-02T10:17:13.754+02:00,538,1.652724,0,0,417.4277,0,0,2022-06-02T10:57:56.370+02:00,675853076.370396,0,3.070312,101.3463,1,0.77
2022-06-02T10:57:58.233+02:00,1654160278.205194,53.22908916924259,10.39852735921719,38.18151,0,20,-1,-1,2.400000095367432,7.999579855010836,-9999,3416.37428075,-0.4419097900390625,1.311004638671875,1.04888916015625,3416.36928375,0.5028802336025375,1.213150407364409,-0.6848024849894888,-5.2797532081604,-9.721739768981934,0.345028281211853,-0.8510523438453674,0.7259088754653931,1.675670385360718,XArbitraryZVertical,-0.4007762668320237,0.4514488333700983,0.007170408409902853,0.7971956396820195,0.7255335450172424,0.6325200200080872,-0.2711446583271027,0,0,0,-1,-1,3404.286036541667,unknown,2,2022-06-02T10:57:46.144+02:00,2022-06-02T10:17:13.754+02:00,538,1.652724,0,0,417.4277,0,0,2022-06-02T10:57:56.370+02:00,675853076.370396,0,3.070312,101.3463,1,0.77
2022-06-02T10:57:58.243+02:00,1654160278.205194,53.22908916924259,10.39852735921719,38.18151,0,20,-1,-1,2.400000095367432,7.999579855010836,-9999,3416.38427575,-1.147384643554688,0.340545654296875,4.053756713867188,3416.37927875,0.5622596626533349,1.149724528662064,-0.6989272891154741,-3.556772708892822,-10.76837348937988,0.7572661638259888,-1.140574336051941,0.6676076650619507,1.361792087554932,XArbitraryZVertical,-0.4178112435380418,0.4110745317116324,0.0399155112113483,0.8092330841011752,0.6986645460128784,0.6433968544006348,-0.3129029870033264,0,0,0,-1,-1,3404.286036541667,unknown,2,2022-06-02T10:57:46.144+02:00,2022-06-02T10:17:13.754+02:00,538,1.652724,0,0,417.4277,0,0,2022-06-02T10:57:56.370+02:00,675853076.370396,0,3.070312,101.3463,1,0.77
2022-06-02T10:57:58.253+02:00,1654160278.205194,53.22908916924259,10.39852735921719,38.18151,0,20,-1,-1,2.400000095367432,7.999579855010836,-9999,3416.39427075,-5.659820556640625,4.505035400390625,-19.80630493164062,3416.38927275,0.5412376765540078,1.064675878769116,-0.7027389710477762,2.585190534591675,-6.958352565765381,-0.6533104181289673,-1.814794301986694,-0.3057646155357361,4.423686027526855,XArbitraryZVertical,-0.413155864035369,0.379917842701502,0.0479302181773841,0.8262368979718209,0.6674095988273621,0.6463101506233215,-0.3699293434619904,0,0,0,-1,-1,3404.286036541667,unknown,2,2022-06-02T10:57:46.144+02:00,2022-06-02T10:17:13.754+02:00,538,1.652724,0,0,417.4277,0,0,2022-06-02T10:57:56.370+02:00,675853076.370396,0,3.070312,101.3463,1,0.77
2022-06-02T10:57:58.263+02:00,1654160278.205194,53.22908916924259,10.39852735921719,38.18151,0,20,-1,-1,2.400000095367432,7.999579855010836,-9999,3416.40426475,-5.445114135742188,2.150802612304688,-9.287185668945312,3416.39926775,0.5177731368441714,1.051306038349638,-0.7000295212184127,4.353766441345215,3.295245885848999,0.5617965459823608,-6.323742389678955,3.860795021057129,-19.4266185760498,XArbitraryZVertical,-0.4074014958323787,0.3797110641951908,0.04168472290224042,0.8295214597053232,0.6639217734336853,0.6442402601242065,-0.3796870708465576,0,0,0,-1,-1,3404.286036541667,unknown,2,2022-06-02T10:57:46.144+02:00,2022-06-02T10:17:13.754+02:00,538,1.652724,0,0,417.4277,0,0,2022-06-02T10:57:56.370+02:00,675853076.370396,0,3.070312,101.3463,1,0.77
2022-06-02T10:57:58.273+02:00,1654160278.205194,53.22908916924259,10.39852735921719,38.18151,0,20,-1,-1,2.400000095367432,7.999579855010836,-9999,3416.41425975,-2.0269775390625,1.833892822265625,-3.767318725585938,3416.40926275,0.4972637617220957,1.083076458181331,-0.6789149405658451,0.6053293347358704,4.915091991424561,0.7999821901321411,-6.132627010345459,1.52285361289978,-8.9224853515625,XArbitraryZVertical,-0.3961623653164341,0.4008807369686592,0.03247926877857289,0.8254059762842429,0.6875128149986267,0.6279489398002625,-0.3647000193595886,0,0,0,-1,-1,3404.286036541667,unknown,2,2022-06-02T10:57:46.144+02:00,2022-06-02T10:17:13.754+02:00,538,1.652724,0,0,417.4277,0,0,2022-06-02T10:57:56.370+02:00,675853076.370396,0,3.070312,101.3463,1,0.77
2022-06-02T10:57:58.283+02:00,1654160278.205194,53.22908916924259,10.39852735921719,38.18151,0,20,-1,-1,2.400000095367432,7.999579855010836,-9999,3416.42425475,-0.2763519287109375,0.50592041015625,0.3984832763671875,3416.41925675,0.5176301504861205,1.150109894831802,-0.6803315215918965,-3.546216249465942,5.576774120330811,0.815610408782959,-2.736562252044678,1.20484185218811,-3.449853420257568,XArbitraryZVertical,-0.4018781135911344,0.4239826097156527,0.02704622697638632,0.811172603518766,0.7095847129821777,0.6290507912635803,-0.3174654543399811,0,0,0,-1,-1,3404.286036541667,unknown,2,2022-06-02T10:57:46.144+02:00,2022-06-02T10:17:13.754+02:00,538,1.652724,0,0,417.4277,0,0,2022-06-02T10:57:56.370+02:00,675853076.370396,0,3.070312,101.3463,1,0.77
2022-06-02T10:57:58.293+02:00,1654160278.205194,53.22908916924259,10.39852735921719,38.18151,0,20,-1,-1,2.400000095367432,7.999579855010836,-9999,3416.43424975,1.639389038085938,-0.75823974609375,2.554702758789062,3416.42925175,0.5778402438462709,1.239893707230669,-0.6845188915694628,-5.300963878631592,4.34190559387207,1.756616592407227,-1.009046077728271,-0.1263800263404846,0.6501883268356323,XArbitraryZVertical,-0.4177727508219476,0.4467811198506496,0.03153806747313734,0.7904794935586236,0.7326940894126892,0.6323003768920898,-0.2517051100730896,0,0,0,-1,-1,3404.286036541667,unknown,2,2022-06-02T10:57:46.144+02:00,2022-06-02T10:17:13.754+02:00,538,1.652724,0,0,417.4277,0,0,2022-06-02T10:57:56.370+02:00,675853076.370396,0,3.070312,101.3463,1,0.77
2022-06-02T10:57:58.304+02:00,1654160278.205194,53.22908916924259,10.39852735921719,38.18151,0,20,-1,-1,2.400000095367432,7.999579855010836,-9999,3416.44424375,3.121566772460938,-1.280471801757812,1.074264526367188,3416.43924675,0.6574970591199145,1.312483647428675,-0.6890997021657451,-6.440957546234131,-0.1000523641705513,0.7877870798110962,0.8931773900985718,-1.394082427024841,2.751863479614258,XArbitraryZVertical,-0.4386956195427827,0.457127738782972,0.04571088403238328,0.7723282033768943,0.7462116479873657,0.6358425617218018,-0.1971607655286789,0,0,0,-1,-1,3404.286036541667,unknown,2,2022-06-02T10:57:46.144+02:00,2022-06-02T10:17:13.754+02:00,538,1.652724,0,0,417.4277,0,0,2022-06-02T10:57:56.370+02:00,675853076.370396,0,3.070312,101.3463,1,0.77
2022-06-02T10:57:58.313+02:00,1654160278.205194,53.22908916924259,10.39852735921719,38.18151,0,20,-1,-1,2.400000095367432,7.999579855010836,-9999,3416.45423875,2.327713012695312,-0.0531463623046875,-0.7983856201171875,3416.44924175,0.7282152333252649,1.346777917119215,-0.7023265861370911,-4.4528489112854,-1.749611616134644,-0.6249414086341858,2.377299308776855,-1.926467299461365,1.243840217590332,XArbitraryZVertical,-0.4598071259538802,0.4514305123098574,0.06092956372575127,0.7622830335303662,0.7442673444747925,0.6459954380989075,-0.1695757955312729,0,0,0,-1,-1,3404.286036541667,unknown,2,2022-06-02T10:57:46.144+02:00,2022-06-02T10:17:13.754+02:00,538,1.652724,0,0,417.4277,0,0,2022-06-02T10:57:56.370+02:00,675853076.370396,0,3.070312,101.3463,1,0.77
2022-06-02T10:57:58.323+02:00,1654160278.205194,53.22908916924259,10.39852735921719,38.18151,0,20,-1,-1,2.400000095367432,7.999579855010836,-9999,3416.46423375,0.9076995849609375,1.639312744140625,-1.035842895507812,3416.45923575,0.7579368564888715,1.347844336335569,-0.7148594227943297,-0.1250473707914352,-1.974626541137695,-0.5943406224250793,1.591219186782837,-0.7086577415466309,-0.6314070224761963,XArbitraryZVertical,-0.4702677528546685,0.4419942452259166,0.06796589680118674,0.7608350003727695,0.736493706703186,0.6555112600326538,-0.166978657245636,0,0,0,-1,-1,3404.286036541667,unknown,2,2022-06-02T10:57:46.144+02:00,2022-06-02T10:17:13.754+02:00,538,1.652724,0,0,417.4277,0,0,2022-06-02T10:57:56.370+02:00,675853076.370396,0,3.070312,101.3463,1,0.77
2022-06-02T10:57:58.333+02:00,1654160278.205194,53.22908916924259,10.39852735921719,38.18151,0,20,-1,-1,2.400000095367432,7.999579855010836,-9999,3416.47422775,0.0445098876953125,2.003219604492188,-0.720489501953125,3416.46923075,0.7247944725169314,1.305465692564904,-0.711612769806114,4.902654647827148,-2.164681673049927,-0.05287446454167366,0.1768913269042969,0.9862566590309143,-0.8372548818588257,XArbitraryZVertical,-0.4605945257151072,0.4342334058447929,0.06616767364464778,0.7713079235719665,0.7308082580566406,0.6530559659004211,-0.1985880583524704,0,0,0,-1,-1,3404.286036541667,unknown,2,2022-06-02T10:57:46.144+02:00,2022-06-02T10:17:13.754+02:00,538,1.652724,0,0,417.4277,0,0,2022-06-02T10:57:56.370+02:00,675853076.370396,0,3.070312,101.3463,1,0.77
2022-06-02T10:57:58.343+02:00,1654160278.205194,53.22908916924259,10.39852735921719,38.18151,0,20,-1,-1,2.400000095367432,7.999579855010836,-9999,3416.48422275,-0.289581298828125,1.4500732421875,-0.6483612060546875,3416.47922575,0.6472171156425605,1.236898744932666,-0.6941733192631612,7.022953987121582,-1.421029448509216,-0.1561387926340103,-0.6816257238388062,1.363469123840332,-0.4686035811901093,XArbitraryZVertical,-0.4361366725631374,0.4287678077967366,0.05666249514750052,0.789133815777711,0.7261355519294739,0.6397503018379211,-0.2518859505653381,0,0,0,-1,-1,3404.286036541667,unknown,2,2022-06-02T10:57:46.144+02:00,2022-06-02T10:17:13.754+02:00,538,1.652724,0,0,417.4277,0,0,2022-06-02T10:57:56.370+02:00,675853076.370396,0,3.070312,101.3463,1,0.77
2022-06-02T10:57:58.353+02:00,1654160278.205194,53.22908916924259,10.39852735921719,38.18151,0,20,-1,-1,2.400000095367432,7.999579855010836,-9999,3416.49421775,0.1017303466796875,0.548553466796875,-0.6513824462890625,3416.48922075,0.5641852087268521,1.175737441527261,-0.6718933304659209,6.331096649169922,-0.4167645871639252,-0.2355719059705734,-1.01194179058075,0.8276042342185974,-0.3471507728099823,XArbitraryZVertical,-0.4092269964218068,0.4265301838656357,0.04308537458332688,0.8054494666967296,0.7223604321479797,0.622468888759613,-0.3012105226516724,0,0,0,-1,-1,3404.286036541667,unknown,2,2022-06-02T10:57:46.144+02:00,2022-06-02T10:17:13.754+02:00,538,1.652724,0,0,417.4277,0,0,2022-06-02T10:57:56.370+02:00,675853076.370396,0,3.070312,101.3463,1,0.77
2022-06-02T10:57:58.363+02:00,1654160278.205194,53.22908916924259,10.39852735921719,38.18151,0,20,-1,-1,2.400000095367432,7.999579855010836,-9999,3416.50421275,0.66729736328125,0.1570587158203125,-0.270751953125,3416.49921475,0.5037828675467197,1.136665770913845,-0.6529151623129325,3.713115692138672,-0.06257057189941406,-0.1362037807703018,-0.6189019083976746,-0.05895119905471802,-0.3172758817672729,XArbitraryZVertical,-0.3888087439236722,0.4263501321716321,0.03180460871622787,0.8161137739661131,0.7206322550773621,0.6075045466423035,-0.3341066539287567,0,0,0,-1,-1,3404.286036541667,unknown,2,2022-06-02T10:57:46.144+02:00,2022-06-02T10:17:13.754+02:00,538,1.652724,0,0,417.4277,0,0,2022-06-02T10:57:56.370+02:00,675853076.370396,0,3.070312,101.3463,1,0.77
