loggingTime(txt),accelerometerTimestamp_sinceReboot(s),accelerometerAccelerationX(G),accelerometerAccelerationY(G),accelerometerAccelerationZ(G),motionTimestamp_sinceReboot(s),motionYaw(rad),motionRoll(rad),motionPitch(rad),motionRotationRateX(rad/s),motionRotationRateY(rad/s),motionRotationRateZ(rad/s),motionUserAccelerationX(G),motionUserAccelerationY(G),motionUserAccelerationZ(G),motionAttitudeReferenceFrame(txt),motionQuaternionX(R),motionQuaternionY(R),motionQuaternionZ(R),motionQuaternionW(R),motionGravityX(G),motionGravityY(G),motionGravityZ(G),motionMagneticFieldX(µT),motionMagneticFieldY(µT),motionMagneticFieldZ(µT),motionHeading(°),motionMagneticFieldCalibrationAccuracy(Z),activityTimestamp_sinceReboot(s),activity(txt),activityActivityConfidence(Z),activityActivityStartDate(txt),pedometerStartDate(txt),pedometerNumberofSteps(N),pedometerAverageActivePace(s/m),pedometerCurrentPace(s/m),pedometerCurrentCadence(steps/s),pedometerDistance(m),pedometerFloorAscended(N),pedometerFloorDescended(N),pedometerEndDate(txt)
2022-06-30T09:23:10.370+02:00,3384.7724415,0.1652069091796875,-0.194915771484375,-0.93377685546875,3384.7624895,1.619148182507439,0.2070747826256069,0.2081076142157255,-0.1484863758087158,-0.03632362559437752,0.01421991549432278,-0.07492624223232269,0.02039080858230591,0.01672512292861938,XArbitraryZVertical,0.003157921956840883,-0.1457033518116801,-0.7236263641437014,-0.6746299619507209,0.2011620104312897,-0.2066087126731873,-0.9575211405754089,0,0,0,-1,-1,3378.7606145,running,2,2022-06-30T09:23:04.341+02:00,2022-06-30T08:20:05.567+02:00,1052,1.411193,0,0,819.8695,0,0,2022-06-30T09:23:09.437+02:00
2022-06-30T09:23:10.372+02:00,3384.7823925,0.1707305908203125,-0.2044677734375,-0.945556640625,3384.7724415,1.619620871294173,0.2068314356018918,0.2064708370155076,-0.240789458155632,-0.02298747189342976,0.008527841418981552,-0.05065351724624634,0.002767354249954224,0.02862411737442017,XArbitraryZVertical,0.003668988780941863,-0.1450402569138873,-0.7237892073343918,-0.674595526822627,0.2009981721639633,-0.2050069719552994,-0.9578997492790222,0,0,0,-1,-1,3378.7606145,running,2,2022-06-30T09:23:04.341+02:00,2022-06-30T08:20:05.567+02:00,1052,1.411193,0,0,819.8695,0,0,2022-06-30T09:23:09.437+02:00
2022-06-30T09:23:10.373+02:00,3384.7923445,0.1755218505859375,-0.199462890625,-0.9503631591796875,3384.7823925,1.62019866464651,0.2068225995941978,0.204482176523281,-0.2201084196567535,0.0002976101823151112,0.01917089708149433,-0.03586632013320923,0.008144736289978027,0.02452164888381958,XArbitraryZVertical,0.0043935881092827,-0.1443308558295427,-0.7239871606692668,-0.674530816091238,0.20107302069664,-0.2030601501464844,-0.9582986235618591,0,0,0,-1,-1,3378.7606145,running,2,2022-06-30T09:23:04.341+02:00,2022-06-30T08:20:05.567+02:00,1052,1.411193,0,0,819.8695,0,0,2022-06-30T09:23:09.437+02:00
2022-06-30T09:23:10.383+02:00,3384.8022955,0.16888427734375,-0.2037811279296875,-0.94952392578125,3384.7923445,1.620830774062164,0.2067678701532433,0.2028694409998963,-0.1853941828012466,-0.001989185810089111,0.02680807746946812,-0.03035715222358704,-0.002986669540405273,0.01307213306427002,XArbitraryZVertical,0.004975417145459298,-0.1437386827000519,-0.7242024634187216,-0.6744222380921305,0.201087549328804,-0.2014807462692261,-0.9586288928985596,0,0,0,-1,-1,3378.7606145,running,2,2022-06-30T09:23:04.341+02:00,2022-06-30T08:20:05.567+02:00,1052,1.411193,0,0,819.8695,0,0,2022-06-30T09:23:09.437+02:00
2022-06-30T09:23:10.393+02:00,3384.8122475,0.1626129150390625,-0.2056884765625,-0.94415283203125,3384.8022955,1.621521610193069,0.2067147315992394,0.2015039169244724,-0.1656095683574677,0.01491203438490629,0.03881094604730606,-0.02557122707366943,0.0006805062294006348,0.008544683456420898,XArbitraryZVertical,0.00547646327309433,-0.1432342245714448,-0.7244369032986496,-0.6742738461238486,0.2010928839445114,-0.200143039226532,-0.9589079022407532,0,0,0,-1,-1,3378.7606145,running,2,2022-06-30T09:23:04.341+02:00,2022-06-30T08:20:05.567+02:00,1052,1.411193,0,0,819.8695,0,0,2022-06-30T09:23:09.437+02:00
2022-06-30T09:23:10.403+02:00,3384.8221985,0.1688385009765625,-0.220428466796875,-0.95086669921875,3384.8122475,1.622226070206829,0.2069215267868162,0.2001701805554863,-0.1457776725292206,0.02715795114636421,0.04119014739990234,-0.03246176242828369,-0.004944652318954468,0.009602665901184082,XArbitraryZVertical,0.006061360889571318,-0.1428282268747507,-0.7246748028826591,-0.6740992880926885,0.2013458460569382,-0.1988361179828644,-0.9591267108917236,0,0,0,-1,-1,3378.7606145,running,2,2022-06-30T09:23:04.341+02:00,2022-06-30T08:20:05.567+02:00,1052,1.411193,0,0,819.8695,0,0,2022-06-30T09:23:09.437+02:00
2022-06-30T09:23:10.414+02:00,3384.8321505,0.099822998046875,-0.2692718505859375,-0.950653076171875,3384.8221985,1.622994567239322,0.207004627108911,0.1988630533778061,-0.144012525677681,0.03083311021327972,0.05404975265264511,-0.0388660728931427,-0.008133202791213989,0.01521056890487671,XArbitraryZVertical,0.006596528733173987,-0.1423893522029146,-0.7249342214191529,-0.6739081621266556,0.2014787942171097,-0.1975549161434174,-0.9593635201454163,0,0,0,-1,-1,3378.7606145,running,2,2022-06-30T09:23:04.341+02:00,2022-06-30T08:20:05.567+02:00,1052,1.411193,0,0,819.8695,0,0,2022-06-30T09:23:09.437+02:00
2022-06-30T09:23:10.423+02:00,3384.8421015,0.0680694580078125,-0.200286865234375,-0.9161834716796875,3384.8321505,1.626222608750959,0.2067975687644067,0.1981143452547674,0.007166671101003885,0.1940763890743256,0.5770590305328369,-0.0324721485376358,-0.02360720932483673,0.008682906627655029,XArbitraryZVertical,0.007008596534317598,-0.142042345748136,-0.7260220576763252,-0.6728052281748526,0.2013104557991028,-0.1968209147453308,-0.9595497250556946,0,0,0,-1,-1,3378.7606145,running,2,2022-06-30T09:23:04.341+02:00,2022-06-30T08:20:05.567+02:00,1052,1.411193,0,0,819.8695,0,0,2022-06-30T09:23:09.437+02:00
2022-06-30T09:23:10.433+02:00,3384.8520525,0.22509765625,-0.2484893798828125,-0.96380615234375,3384.8421015,1.631476535562468,0.2056789898273292,0.1977174147704443,-0.245793953537941,0.1454681009054184,0.2302762866020203,-0.1004301309585571,-0.07283975183963776,0.009197473526000977,XArbitraryZVertical,0.007110778530938784,-0.1415065252814597,-0.7277913051705817,-0.6710030215153026,0.2002529352903366,-0.1964317262172699,-0.9598506689071655,0,0,0,-1,-1,3378.7606145,running,2,2022-06-30T09:23:04.341+02:00,2022-06-30T08:20:05.567+02:00,1052,1.411193,0,0,819.8695,0,0,2022-06-30T09:23:09.437+02:00
2022-06-30T09:23:10.443+02:00,3384.8620045,0.29681396484375,-0.2329559326171875,-0.96124267578125,3384.8520525,1.632512973045789,0.2058216670322847,0.1960617444768848,-0.1440763771533966,0.05721546337008476,-0.04595796763896942,-0.1323868036270142,-0.005478456616401672,0.04395556449890137,XArbitraryZVertical,0.00780342534648486,-0.1409593201400469,-0.7281394233393101,-0.6707329283330942,0.2004560828208923,-0.1948080509901047,-0.9601391553878784,0,0,0,-1,-1,3378.7606145,running,2,2022-06-30T09:23:04.341+02:00,2022-06-30T08:20:05.567+02:00,1052,1.411193,0,0,819.8695,0,0,2022-06-30T09:23:09.437+02:00
2022-06-30T09:23:10.453+02:00,3384.8719555,0.198272705078125,-0.216217041015625,-0.95562744140625,3384.8620045,1.632903507332153,0.2055222162586826,0.1950065919026017,-0.1058333814144135,-0.01055293064564466,0.05927444249391556,0.02488707005977631,-0.05471602082252502,-0.00340646505355835,XArbitraryZVertical,0.008083433882583473,-0.1404804101185939,-0.7282719886843447,-0.6706860923911423,0.2002103924751282,-0.1937730014324188,-0.9603998064994812,0,0,0,-1,-1,3378.7606145,running,2,2022-06-30T09:23:04.341+02:00,2022-06-30T08:20:05.567+02:00,1052,1.411193,0,0,819.8695,0,0,2022-06-30T09:23:09.437+02:00
2022-06-30T09:23:10.463+02:00,3384.8819075,0.1350860595703125,-0.1880950927734375,-0.9485321044921875,3384.8719555,1.633548339013887,0.2049948174948998,0.1943001822641126,-0.08142271637916565,-0.0173353236168623,0.00612300680950284,0.09708209335803986,-0.03987564146518707,-0.0006037354469299316,XArbitraryZVertical,0.008178571103845169,-0.1400484946350072,-0.728490573793146,-0.6705378776012594,0.1997316628694534,-0.1930799335241318,-0.9606390595436096,0,0,0,-1,-1,3378.7606145,running,2,2022-06-30T09:23:04.341+02:00,2022-06-30T08:20:05.567+02:00,1052,1.411193,0,0,819.8695,0,0,2022-06-30T09:23:09.437+02:00
2022-06-30T09:23:10.473+02:00,3384.8918585,0.1361083984375,-0.1724853515625,-0.946533203125,3384.8819075,1.633506532818634,0.2046309114576162,0.1936819907896303,-0.05364594608545303,-0.01745196990668774,-0.03276154026389122,-0.00113379955291748,-0.02374333143234253,0.005200862884521484,XArbitraryZVertical,0.008254832540388267,-0.1397056712811419,-0.7284782271093554,-0.6706218592512837,0.1994062811136246,-0.1924733370542526,-0.9608283638954163,0,0,0,-1,-1,3378.7606145,running,2,2022-06-30T09:23:04.341+02:00,2022-06-30T08:20:05.567+02:00,1052,1.411193,0,0,819.8695,0,0,2022-06-30T09:23:09.437+02:00
2022-06-30T09:23:10.483+02:00,3384.9018105,0.160980224609375,-0.1923065185546875,-0.95037841796875,3384.8918585,1.633451876048396,0.2042686150205751,0.1933868359355926,-0.02116363681852818,-0.01050535682588816,-0.00720717990770936,-0.06398382782936096,0.00408896803855896,0.01242393255233765,XArbitraryZVertical,0.008220142201456351,-0.139478886994519,-0.7284614715368247,-0.6706877802561708,0.1990696787834167,-0.1921836882829666,-0.9609561562538147,0,0,0,-1,-1,3378.7606145,running,2,2022-06-30T09:23:04.341+02:00,2022-06-30T08:20:05.567+02:00,1052,1.411193,0,0,819.8695,0,0,2022-06-30T09:23:09.437+02:00
2022-06-30T09:23:10.493+02:00,3384.9117615,0.1855621337890625,-0.2060699462890625,-0.947601318359375,3384.9018105,1.633426271930456,0.203877571097808,0.1935041173105741,0.0120483785867691,-0.01436534244567156,-0.01659988239407539,-0.06258112192153931,0.01981379091739655,0.01447850465774536,XArbitraryZVertical,0.008035765134109307,-0.1393897892604049,-0.7284544353571093,-0.6707160917150047,0.1986893266439438,-0.1922987848520279,-0.9610118269920349,0,0,0,-1,-1,3378.7606145,running,2,2022-06-30T09:23:04.341+02:00,2022-06-30T08:20:05.567+02:00,1052,1.411193,0,0,819.8695,0,0,2022-06-30T09:23:09.437+02:00
2022-06-30T09:23:10.503+02:00,3384.9217125,0.179351806640625,-0.2200775146484375,-0.954315185546875,3384.9117615,1.633157496215547,0.2034548307066631,0.1938995638242373,0.01938185840845108,-0.0323835052549839,-0.03847119212150574,-0.037287637591362,0.0003806799650192261,0.0106426477432251,XArbitraryZVertical,0.007727607154463442,-0.1393904287433043,-0.728365793246645,-0.6708158609203798,0.1982676684856415,-0.1926868408918381,-0.9610211849212646,0,0,0,-1,-1,3378.7606145,running,2,2022-06-30T09:23:04.341+02:00,2022-06-30T08:20:05.567+02:00,1052,1.411193,0,0,819.8695,0,0,2022-06-30T09:23:09.437+02:00
2022-06-30T09:23:10.513+02:00,3384.9316645,0.1640167236328125,-0.2251739501953125,-0.953887939453125,3384.9217125,1.632844063244134,0.2023262669712817,0.1946518830922242,-0.001812642440199852,-0.03675375133752823,-0.05545923113822937,-0.011591836810112,-0.01264458894729614,0.0135006308555603,XArbitraryZVertical,0.007037054916094977,-0.1392819233691605,-0.7282643321136051,-0.6709561003213199,0.1971537917852402,-0.1934249997138977,-0.9611020684242249,0,0,0,-1,-1,3378.7606145,running,2,2022-06-30T09:23:04.341+02:00,2022-06-30T08:20:05.567+02:00,1052,1.411193,0,0,819.8695,0,0,2022-06-30T09:23:09.437+02:00
2022-06-30T09:23:10.523+02:00,3384.9416155,0.155975341796875,-0.2210540771484375,-0.9652099609375,3384.9316645,1.632544170602686,0.2009434534156985,0.1945209340566916,-0.04456150159239769,-0.02824924886226654,-0.05735523626208305,-0.01647801697254181,-0.0267806202173233,0.007083296775817871,XArbitraryZVertical,0.006557589200204758,-0.1387721658748529,-0.7281685258594972,-0.6711704884262949,0.1958296298980713,-0.1932965219020844,-0.9613985419273376,0,0,0,-1,-1,3378.7606145,running,2,2022-06-30T09:23:04.341+02:00,2022-06-30T08:20:05.567+02:00,1052,1.411193,0,0,819.8695,0,0,2022-06-30T09:23:09.437+02:00
2022-06-30T09:23:10.533+02:00,3384.9515675,0.1598663330078125,-0.198760986328125,-0.9581298828125,3384.9416155,1.63214903993522,0.2010253363106148,0.1942663926350163,-0.07951655983924866,-0.01660963706672192,-0.03841536492109299,-0.03190164268016815,-0.03212681412696838,0.007542669773101807,XArbitraryZVertical,0.006647217065348167,-0.1387099774485807,-0.7280358897803618,-0.6713264008125127,0.1959181576967239,-0.1930467784404755,-0.9614307284355164,0,0,0,-1,-1,3378.7606145,running,2,2022-06-30T09:23:04.341+02:00,2022-06-30T08:20:05.567+02:00,1052,1.411193,0,0,819.8695,0,0,2022-06-30T09:23:09.437+02:00
2022-06-30T09:23:10.543+02:00,3384.9615185,0.17071533203125,-0.180908203125,-0.9517059326171875,3384.9515675,1.631821273505048,0.201816193939958,0.1936420489957423,-0.09243994951248169,-0.009688371792435646,-0.03248710557818413,-0.04072743654251099,-0.02861957252025604,-0.003816723823547363,XArbitraryZVertical,0.007126351583514204,-0.1387534924283592,-0.7279236432751832,-0.6714342739763923,0.1967025846242905,-0.1924341470003128,-0.9613933563232422,0,0,0,-1,-1,3378.7606145,running,2,2022-06-30T09:23:04.341+02:00,2022-06-30T08:20:05.567+02:00,1052,1.411193,0,0,819.8695,0,0,2022-06-30T09:23:09.437+02:00
2022-06-30T09:23:10.553+02:00,3384.9714705,0.1764678955078125,-0.177642822265625,-0.9508056640625,3384.9615185,1.63166315055308,0.2017348778548707,0.1929062829730012,-0.08624090999364853,-0.02025393024086952,-0.03947017714381218,-0.03678658604621887,-0.007048547267913818,0.003417849540710449,XArbitraryZVertical,0.007338034525203051,-0.1384638798717272,-0.7278712988036745,-0.6715485307817596,0.1966527253389359,-0.1917120814323425,-0.9615477919578552,0,0,0,-1,-1,3378.7606145,running,2,2022-06-30T09:23:04.341+02:00,2022-06-30T08:20:05.567+02:00,1052,1.411193,0,0,819.8695,0,0,2022-06-30T09:23:09.437+02:00
2022-06-30T09:23:10.563+02:00,3384.9814215,0.177764892578125,-0.17291259765625,-0.95477294921875,3384.9714705,1.631485745116057,0.2009959094937631,0.1920417851482915,-0.07605572044849396,-0.02728834562003613,-0.05036646872758865,-0.02525998651981354,0.009955704212188721,0.01014888286590576,XArbitraryZVertical,0.007353247387216308,-0.1379074869035281,-0.7278148950543419,-0.6717239414726357,0.195975124835968,-0.1908635348081589,-0.9618549346923828,0,0,0,-1,-1,3378.7606145,running,2,2022-06-30T09:23:04.341+02:00,2022-06-30T08:20:05.567+02:00,1052,1.411193,0,0,819.8695,0,0,2022-06-30T09:23:09.437+02:00
2022-06-30T09:23:10.573+02:00,3384.9913735,0.175384521484375,-0.1577911376953125,-0.9590911865234375,3384.9814215,1.631209341819784,0.200265513977281,0.1911509099963995,-0.05900882184505463,-0.02250610664486885,-0.05211749672889709,-0.01883858442306519,0.01234650611877441,0.01135826110839844,XArbitraryZVertical,0.007373930527069161,-0.1373448359962978,-0.7277251686049921,-0.6719360652665666,0.1953062862157822,-0.1899889707565308,-0.962164044380188,0,0,0,-1,-1,3378.7606145,running,2,2022-06-30T09:23:04.341+02:00,2022-06-30T08:20:05.567+02:00,1052,1.411193,0,0,819.8695,0,0,2022-06-30T09:23:09.437+02:00
2022-06-30T09:23:10.583+02:00,3385.0013245,0.178955078125,-0.1413116455078125,-0.9607696533203125,3384.9913735,1.630870720823717,0.1998902039211008,0.1907010239629825,-0.0254798885434866,-0.009529998525977135,-0.04623377695679665,-0.01719741523265839,0.01663501560688019,0.007547914981842041,XArbitraryZVertical,0.007368433736828054,-0.1370592248571643,-0.7276129744936893,-0.6721159407289083,0.1949621140956879,-0.1895472556352615,-0.9623209238052368,0,0,0,-1,-1,3378.7606145,running,2,2022-06-30T09:23:04.341+02:00,2022-06-30T08:20:05.567+02:00,1052,1.411193,0,0,819.8695,0,0,2022-06-30T09:23:09.437+02:00
2022-06-30T09:23:10.592+02:00,3385.0112755,0.1820831298828125,-0.1605224609375,-0.96746826171875,3385.0013245,1.630403600305192,0.1997825056952044,0.1906924819630569,0.003818078897893429,-0.02099943533539772,-0.05317210778594017,-0.01947449147701263,0.03174810111522675,0.003252267837524414,XArbitraryZVertical,0.007300171989142154,-0.1370216819372319,-0.7274563751555252,-0.6722939044037622,0.1948587894439697,-0.1895388662815094,-0.9623435139656067,0,0,0,-1,-1,3378.7606145,running,2,2022-06-30T09:23:04.341+02:00,2022-06-30T08:20:05.567+02:00,1052,1.411193,0,0,819.8695,0,0,2022-06-30T09:23:09.437+02:00
2022-06-30T09:23:10.602+02:00,3385.0212275,0.1806640625,-0.1783599853515625,-0.96820068359375,3385.0112755,1.629858843858797,0.199418723692184,0.1912147009255433,0.01730059832334518,-0.02998908050358295,-0.05792877823114395,-0.0155341774225235,0.04874031245708466,0.001547455787658691,XArbitraryZVertical,0.006951358871100052,-0.1370878377258508,-0.7272742641554063,-0.6724811638158394,0.194489061832428,-0.1900516003370285,-0.9623172283172607,0,0,0,-1,-1,3378.7606145,running,2,2022-06-30T09:23:04.341+02:00,2022-06-30T08:20:05.567+02:00,1052,1.411193,0,0,819.8695,0,0,2022-06-30T09:23:09.437+02:00
2022-06-30T09:23:10.612+02:00,3385.0311785,0.1805267333984375,-0.1810302734375,-0.96441650390625,3385.0212275,1.629418191822902,0.1986994106143883,0.1918656626253118,-0.001481079030781984,-0.02776347659528255,-0.04731608182191849,-0.01168940961360931,0.0301685631275177,-0.00513303279876709,XArbitraryZVertical,0.006436212496926519,-0.1370798732705604,-0.7271280374383634,-0.6726459558590153,0.1937723457813263,-0.1906906515359879,-0.9623353481292725,0,0,0,-1,-1,3378.7606145,running,2,2022-06-30T09:23:04.341+02:00,2022-06-30T08:20:05.567+02:00,1052,1.411193,0,0,819.8695,0,0,2022-06-30T09:23:09.437+02:00
2022-06-30T09:23:10.623+02:00,3385.0411305,0.17901611328125,-0.18072509765625,-0.97125244140625,3385.0311785,1.629309346274688,0.1970782282527419,0.192710900101978,-0.04443560540676117,-0.01999852247536182,-0.04030338302254677,-0.01151648163795471,0.01316069066524506,-0.005710959434509277,XArbitraryZVertical,0.005549248598967662,-0.1368367161022349,-0.7270954244911125,-0.6727385780381138,0.192180335521698,-0.1915203183889389,-0.9624898433685303,0,0,0,-1,-1,3378.7606145,running,2,2022-06-30T09:23:04.341+02:00,2022-06-30T08:20:05.567+02:00,1052,1.411193,0,0,819.8695,0,0,2022-06-30T09:23:09.437+02:00
2022-06-30T09:23:10.632+02:00,3385.0510815,0.1730804443359375,-0.1865386962890625,-0.981475830078125,3385.0411305,1.629283063640882,0.1956502022366109,0.1923895978266065,-0.07833631336688995,-0.01624958962202072,-0.04121151939034462,-0.01029109954833984,0.01017503440380096,-0.00159299373626709,XArbitraryZVertical,0.005138596224422996,-0.1362416712988865,-0.7270908219382477,-0.6728675022659627,0.1908176392316818,-0.1912049502134323,-0.9628236293792725,0,0,0,-1,-1,3378.7606145,running,2,2022-06-30T09:23:04.341+02:00,2022-06-30T08:20:05.567+02:00,1052,1.411193,0,0,819.8695,0,0,2022-06-30T09:23:09.437+02:00
2022-06-30T09:23:10.642+02:00,3385.0610335,0.1696929931640625,-0.166595458984375,-0.9791107177734375,3385.0510815,1.629219831644005,0.1948467408212219,0.1911489348031475,-0.09841920435428619,-0.004238321911543608,-0.03326810523867607,-0.01107384264469147,0.009262293577194214,-0.008043944835662842,XArbitraryZVertical,0.005268073512706697,-0.1355283955145512,-0.7270733413344176,-0.6730295058204855,0.1900897771120071,-0.1899870336055756,-0.9632086157798767,0,0,0,-1,-1,3378.7606145,running,2,2022-06-30T09:23:04.341+02:00,2022-06-30T08:20:05.567+02:00,1052,1.411193,0,0,819.8695,0,0,2022-06-30T09:23:09.437+02:00
2022-06-30T09:23:10.653+02:00,3385.0709845,0.1706390380859375,-0.1395111083984375,-0.967681884765625,3385.0610335,1.629263144669942,0.1944503293300858,0.1897394684382962,-0.1056611388921738,0.01346530672162771,-0.01592640206217766,-0.01667924225330353,0.002064704895019531,-0.01793026924133301,XArbitraryZVertical,0.005610707036791367,-0.1348914053676947,-0.7270907350249847,-0.6731359017952714,0.1897594779729843,-0.1886030435562134,-0.9635456800460815,0,0,0,-1,-1,3378.7606145,running,2,2022-06-30T09:23:04.341+02:00,2022-06-30T08:20:05.567+02:00,1052,1.411193,0,0,819.8695,0,0,2022-06-30T09:23:09.437+02:00
2022-06-30T09:23:10.663+02:00,3385.0809355,0.174163818359375,-0.13812255859375,-0.9658050537109375,3385.0709845,1.629420939405922,0.1941966168955904,0.1882668721527825,-0.0865713432431221,0.01265556178987026,-0.006798684131354094,-0.01987561583518982,0.0205615758895874,-0.01524555683135986,XArbitraryZVertical,0.006034547521091944,-0.1342794275597391,-0.7271461016580414,-0.6731947371042315,0.1895684003829956,-0.1871566772460938,-0.9638652205467224,0,0,0,-1,-1,3378.7606145,running,2,2022-06-30T09:23:04.341+02:00,2022-06-30T08:20:05.567+02:00,1052,1.411193,0,0,819.8695,0,0,2022-06-30T09:23:09.437+02:00
2022-06-30T09:23:10.672+02:00,3385.0908875,0.176605224609375,-0.1484527587890625,-0.9697113037109375,3385.0809355,1.629550816851492,0.1938352851001471,0.1867801023310186,-0.03931727632880211,0.001079066190868616,-0.006155264563858509,-0.01863467693328857,0.04618522524833679,-0.003476321697235107,XArbitraryZVertical,0.006422140440534921,-0.1336260655698839,-0.7271921681592712,-0.673271512462395,0.1892735064029694,-0.1856959611177444,-0.9642056822776794,0,0,0,-1,-1,3378.7606145,running,2,2022-06-30T09:23:04.341+02:00,2022-06-30T08:20:05.567+02:00,1052,1.411193,0,0,819.8695,0,0,2022-06-30T09:23:09.437+02:00
2022-06-30T09:23:10.682+02:00,3385.1008385,0.1727294921875,-0.1657562255859375,-0.9706268310546875,3385.0908875,1.629621966035363,0.1934305589193135,0.1851614526137365,-0.02591458335518837,-0.01581541076302528,-0.003321161493659019,-0.01477718353271484,0.04598304629325867,-0.001229226589202881,XArbitraryZVertical,0.006835238253676689,-0.1329110004369163,-0.7272184426552373,-0.6733805319314171,0.1889407783746719,-0.1841052323579788,-0.9645758867263794,0,0,0,-1,-1,3378.7606145,running,2,2022-06-30T09:23:04.341+02:00,2022-06-30T08:20:05.567+02:00,1052,1.411193,0,0,819.8695,0,0,2022-06-30T09:23:09.437+02:00
2022-06-30T09:23:10.692+02:00,3385.1107905,0.1692962646484375,-0.1645050048828125,-0.9659423828125,3385.1008385,1.629777089119147,0.1929711033298486,0.1839328852092272,-0.04528108984231949,-0.0126182846724987,0.01039358507841825,-0.01193580031394958,0.03444512188434601,-0.004827558994293213,XArbitraryZVertical,0.007100065281406542,-0.1323165154661324,-0.7272727963648193,-0.6734361484707176,0.1885408163070679,-0.1828975230455399,-0.9648838639259338,0,0,0,-1,-1,3378.7606145,running,2,2022-06-30T09:23:04.341+02:00,2022-06-30T08:20:05.567+02:00,1052,1.411193,0,0,819.8695,0,0,2022-06-30T09:23:09.437+02:00
2022-06-30T09:23:10.714+02:00,3385.1207415,0.1652984619140625,-0.143096923828125,-0.9460296630859375,3385.1107905,1.630119762830816,0.1924969791503099,0.1832477390671174,-0.05947527289390564,0.001605282537639141,0.02545725554227829,-0.01537796854972839,0.01646801829338074,-0.005531013011932373,XArbitraryZVertical,0.007185368340730228,-0.1319106313151602,-0.7273901030790532,-0.6733881784914222,0.1881072521209717,-0.1822238862514496,-0.9650959372520447,0,0,0,-1,-1,3378.7606145,running,2,2022-06-30T09:23:04.341+02:00,2022-06-30T08:20:05.567+02:00,1052,1.411193,0,0,819.8695,0,0,2022-06-30T09:23:09.437+02:00
2022-06-30T09:23:10.716+02:00,3385.1306935,0.1658172607421875,-0.140869140625,-0.944000244140625,3385.1207415,1.630523772471173,0.1921924593143487,0.1827358598522709,-0.03874948993325233,0.01086402870714664,0.02591079287230968,-0.0185350775718689,0.01721590757369995,-0.0006979107856750488,XArbitraryZVertical,0.007276824325005445,-0.1316235398512042,-0.7275273819116064,-0.6732950898300286,0.1878311485052109,-0.1817205548286438,-0.9652445912361145,0,0,0,-1,-1,3378.7606145,running,2,2022-06-30T09:23:04.341+02:00,2022-06-30T08:20:05.567+02:00,1052,1.411193,0,0,819.8695,0,0,2022-06-30T09:23:09.437+02:00
2022-06-30T09:23:10.723+02:00,3385.1406445,0.1732330322265625,-0.1567840576171875,-0.954681396484375,3385.1306935,1.630822163278105,0.1918334610249698,0.1825310009811558,0.001467905472964048,0.00389617052860558,0.01658563502132893,-0.02219344675540924,0.03842255473136902,0.01931869983673096,XArbitraryZVertical,0.007236119156059789,-0.1314283156289739,-0.7276291938401757,-0.6732235744759484,0.187491700053215,-0.1815191060304642,-0.965348482131958,0,0,0,-1,-1,3378.7606145,running,2,2022-06-30T09:23:04.341+02:00,2022-06-30T08:20:05.567+02:00,1052,1.411193,0,0,819.8695,0,0,2022-06-30T09:23:09.437+02:00
2022-06-30T09:23:10.732+02:00,3385.1505965,0.177642822265625,-0.17181396484375,-0.9652862548828125,3385.1406445,1.631078634358537,0.19114107481909,0.1828454787086321,0.03199678659439087,-0.000710831955075264,0.02136893942952156,-0.02099534869194031,0.04095956683158875,0.02142161130905151,XArbitraryZVertical,0.006893203069264958,-0.1313068962012503,-0.7277178329056301,-0.6731550380021497,0.1868124157190323,-0.1818283498287201,-0.9654219746589661,0,0,0,-1,-1,3378.7606145,running,2,2022-06-30T09:23:04.341+02:00,2022-06-30T08:20:05.567+02:00,1052,1.411193,0,0,819.8695,0,0,2022-06-30T09:23:09.437+02:00
2022-06-30T09:23:10.742+02:00,3385.1605475,0.178009033203125,-0.1798248291015625,-0.979034423828125,3385.1505965,1.631402985496727,0.1902983675085326,0.1824862596009093,0.01305818185210228,-0.007966795936226845,0.0249654371291399,-0.01277829706668854,0.02469140291213989,0.01096165180206299,XArbitraryZVertical,0.00673098135024895,-0.1308935812214687,-0.727830072379781,-0.673115888967622,0.1860111206769943,-0.1814751029014587,-0.9656431078910828,0,0,0,-1,-1,3378.7606145,running,2,2022-06-30T09:23:04.341+02:00,2022-06-30T08:20:05.567+02:00,1052,1.411193,0,0,819.8695,0,0,2022-06-30T09:23:09.437+02:00
2022-06-30T09:23:10.752+02:00,3385.1704985,0.17547607421875,-0.1798248291015625,-0.98388671875,3385.1605475,1.631761476976742,0.1895911975263648,0.1809195299988416,-0.01875247806310654,-0.005486859939992428,0.02501417323946953,-0.007738932967185974,0.008120566606521606,0.0007660984992980957,XArbitraryZVertical,0.007034120926638758,-0.1300933746722878,-0.7279539884700381,-0.6731339019540616,0.1853815615177155,-0.179934173822403,-0.9660524725914001,0,0,0,-1,-1,3378.7606145,running,2,2022-06-30T09:23:04.341+02:00,2022-06-30T08:20:05.567+02:00,1052,1.411193,0,0,819.8695,0,0,2022-06-30T09:23:09.437+02:00
2022-06-30T09:23:10.762+02:00,3385.1804505,0.1742401123046875,-0.1758270263671875,-0.97906494140625,3385.1704985,1.632149420074822,0.1890670630265215,0.179075032653443,-0.05805414542555809,-0.001996243139728904,0.02377623692154884,-0.006928429007530212,-0.001704975962638855,-0.01256066560745239,XArbitraryZVertical,0.007500696116046178,-0.1292548737105041,-0.7280870841880861,-0.6731464918563479,0.1849372535943985,-0.1781194806098938,-0.9664738178253174,0,0,0,-1,-1,3378.7606145,running,2,2022-06-30T09:23:04.341+02:00,2022-06-30T08:20:05.567+02:00,1052,1.411193,0,0,819.8695,0,0,2022-06-30T09:23:09.437+02:00
2022-06-30T09:23:10.772+02:00,3385.1904015,0.168182373046875,-0.17755126953125,-0.9705810546875,3385.1804505,1.632567983481614,0.1886882998150466,0.1772597614189858,-0.09923966228961945,0.003411837853491306,0.01675800792872906,-0.009155631065368652,-0.003491535782814026,-0.01702702045440674,XArbitraryZVertical,0.008011823569354828,-0.1284752964360274,-0.7282295997946698,-0.6731357177028637,0.1846315115690231,-0.1763329356908798,-0.9668598175048828,0,0,0,-1,-1,3378.7606145,running,2,2022-06-30T09:23:04.341+02:00,2022-06-30T08:20:05.567+02:00,1052,1.411193,0,0,819.8695,0,0,2022-06-30T09:23:09.437+02:00
2022-06-30T09:23:10.782+02:00,3385.2003535,0.1639404296875,-0.1836395263671875,-0.9654083251953125,3385.1904015,1.63300119850228,0.18822278752508,0.1757669547085765,-0.1347559839487076,0.002666830783709884,0.01238050311803818,-0.009990543127059937,-0.0009633451700210571,-0.01186186075210571,XArbitraryZVertical,0.008381512171084224,-0.1277817293143124,-0.7283771243908774,-0.673103486379442,0.1842304617166519,-0.1748633235692978,-0.9672031402587891,0,0,0,-1,-1,3378.7606145,running,2,2022-06-30T09:23:04.341+02:00,2022-06-30T08:20:05.567+02:00,1052,1.411193,0,0,819.8695,0,0,2022-06-30T09:23:09.437+02:00
2022-06-30T09:23:10.791+02:00,3385.2103045,0.1660308837890625,-0.1585693359375,-0.9490509033203125,3385.2003535,1.633479351541161,0.1877070585727076,0.1740748998930635,-0.1369821280241013,0.01274556387215853,0.01356907188892365,-0.0156044065952301,-0.004353821277618408,-0.00299382209777832,XArbitraryZVertical,0.008803685104049774,-0.1269993118540965,-0.7285397290501189,-0.6730701836828413,0.1837865710258484,-0.1731970906257629,-0.9675873517990112,0,0,0,-1,-1,3378.7606145,running,2,2022-06-30T09:23:04.341+02:00,2022-06-30T08:20:05.567+02:00,1052,1.411193,0,0,819.8695,0,0,2022-06-30T09:23:09.437+02:00
2022-06-30T09:23:10.801+02:00,3385.2202565,0.1773529052734375,-0.1182098388671875,-0.9211578369140625,3385.2103045,1.63397804421784,0.1872940719978907,0.1721185789980317,-0.09082407504320145,0.01566257327795029,0.02480541542172432,-0.01950947940349579,-0.01236914098262787,0.002585828304290771,XArbitraryZVertical,0.00935467911233263,-0.1261561851439865,-0.7287083535493907,-0.6730388485514012,0.1834496855735779,-0.1712700128555298,-0.967994213104248,0,0,0,-1,-1,3378.7606145,running,2,2022-06-30T09:23:04.341+02:00,2022-06-30T08:20:05.567+02:00,1052,1.411193,0,0,819.8695,0,0,2022-06-30T09:23:09.437+02:00
2022-06-30T09:23:10.811+02:00,3385.2302075,0.1770782470703125,-0.120452880859375,-0.9235687255859375,3385.2202565,1.634426990798048,0.1868715910843406,0.1706306512215205,-0.03132639080286026,-0.006640602368861437,0.02152413316071033,-0.01705718040466309,0.01123490929603577,0.01926994323730469,XArbitraryZVertical,0.009738339748382998,-0.125477818617009,-0.7288602899822537,-0.6729957696314749,0.1830878555774689,-0.1698038727045059,-0.9683209657669067,0,0,0,-1,-1,3378.7606145,running,2,2022-06-30T09:23:04.341+02:00,2022-06-30T08:20:05.567+02:00,1052,1.411193,0,0,819.8695,0,0,2022-06-30T09:23:09.437+02:00
2022-06-30T09:23:10.821+02:00,3385.2401585,0.17584228515625,-0.1444244384765625,-0.9394989013671875,3385.2302075,1.634603444710025,0.1864003467517269,0.1703874026236378,0.04344798251986504,-0.03383920341730118,0.009267468005418777,-0.005286455154418945,0.05135467648506165,0.04728972911834717,XArbitraryZVertical,0.009660915847020305,-0.1252310624719409,-0.7289217443204882,-0.6729762850520824,0.1826391667127609,-0.1695641577243805,-0.9684476852416992,0,0,0,-1,-1,3378.7606145,running,2,2022-06-30T09:23:04.341+02:00,2022-06-30T08:20:05.567+02:00,1052,1.411193,0,0,819.8695,0,0,2022-06-30T09:23:09.437+02:00
2022-06-30T09:23:10.831+02:00,3385.250110541667,0.1744384765625,-0.170257568359375,-0.959320068359375,3385.2401585,1.634598706541438,0.1858656723133559,0.1710876313176554,0.07467513531446457,-0.04779602587223053,0.01020330283790827,-0.00502130389213562,0.04980169236660004,0.04485946893692017,XArbitraryZVertical,0.009226092740040976,-0.1253025889228987,-0.7289231758091173,-0.6729674636674801,0.1820993572473526,-0.1702542006969452,-0.9684282541275024,0,0,0,-1,-1,3378.7606145,running,2,2022-06-30T09:23:04.341+02:00,2022-06-30T08:20:05.567+02:00,1052,1.411193,0,0,819.8695,0,0,2022-06-30T09:23:09.437+02:00
2022-06-30T09:23:10.841+02:00,3385.260061541667,0.17474365234375,-0.1859130859375,-0.96630859375,3385.250110541667,1.634632640048889,0.1852204428300706,0.171964864999817,0.05642063543200493,-0.04942953959107399,0.01833852753043175,-0.005604803562164307,0.02669449150562286,0.0288994312286377,XArbitraryZVertical,0.00869280571107052,-0.1254002867914616,-0.7289379009874837,-0.6729404641980931,0.1814468801021576,-0.1711185574531555,-0.96839839220047,0,0,0,-1,-1,3378.7606145,running,2,2022-06-30T09:23:04.341+02:00,2022-06-30T08:20:05.567+02:00,1052,1.411193,0,0,819.8695,0,0,2022-06-30T09:23:09.437+02:00
2022-06-30T09:23:10.851+02:00,3385.270013541667,0.174560546875,-0.1880035400390625,-0.978363037109375,3385.260061541667,1.634825422530448,0.1845601223649652,0.1724310249165667,0.002937704790383577,-0.04270292446017265,0.02364114858210087,-0.006354451179504395,0.001320615410804749,0.009119331836700439,XArbitraryZVertical,0.008304677982838241,-0.1253446812383749,-0.7290056774037698,-0.6728822372315655,0.1807927340269089,-0.1715778261423111,-0.9684394598007202,0,0,0,-1,-1,3378.7606145,running,2,2022-06-30T09:23:04.341+02:00,2022-06-30T08:20:05.567+02:00,1052,1.411193,0,0,819.8695,0,0,2022-06-30T09:23:09.437+02:00
2022-06-30T09:23:10.861+02:00,3385.279964541667,0.1695709228515625,-0.1881866455078125,-0.987152099609375,3385.270013541667,1.635149574297562,0.1839563286194295,0.1722908115166926,-0.05347583815455437,-0.03051851689815521,0.02523401752114296,-0.005468904972076416,-0.01447303593158722,0.002263426780700684,XArbitraryZVertical,0.008152842234151839,-0.1250898560673242,-0.7291172048964314,-0.6728107824367883,0.1802123636007309,-0.1714396923780441,-0.9685721397399902,0,0,0,-1,-1,3378.7606145,running,2,2022-06-30T09:23:04.341+02:00,2022-06-30T08:20:05.567+02:00,1052,1.411193,0,0,819.8695,0,0,2022-06-30T09:23:09.437+02:00
2022-06-30T09:23:10.871+02:00,3385.289916541667,0.17041015625,-0.186737060546875,-0.9865570068359375,3385.279964541667,1.635575345066181,0.1833187780192355,0.1718074361470209,-0.0847296267747879,-0.02519432455301285,0.02364970371127129,-0.005049556493759155,-0.0170397013425827,-0.009594917297363281,XArbitraryZVertical,0.008112359719057586,-0.1247000301432829,-0.7292630064054868,-0.6727256220174048,0.1796098947525024,-0.1709634512662888,-0.9687681794166565,0,0,0,-1,-1,3378.7606145,running,2,2022-06-30T09:23:04.341+02:00,2022-06-30T08:20:05.567+02:00,1052,1.411193,0,0,819.8695,0,0,2022-06-30T09:23:09.437+02:00
2022-06-30T09:23:10.881+02:00,3385.299867541667,0.168975830078125,-0.1800384521484375,-0.977935791015625,3385.289916541667,1.636067061053604,0.1825743842438759,0.1712221805189128,-0.1156255006790161,-0.02847425080835819,0.02351654507219791,-0.009336113929748535,-0.0177994966506958,-0.01815235614776611,XArbitraryZVertical,0.008071702009968214,-0.1242373896741983,-0.7294313992259881,-0.6726289601651377,0.1789068430662155,-0.170386791229248,-0.9689998626708984,0,0,0,-1,-1,3378.7606145,running,2,2022-06-30T09:23:04.341+02:00,2022-06-30T08:20:05.567+02:00,1052,1.411193,0,0,819.8695,0,0,2022-06-30T09:23:09.437+02:00
2022-06-30T09:23:10.891+02:00,3385.309819541667,0.167083740234375,-0.162933349609375,-0.97393798828125,3385.299867541667,1.636575551256786,0.1819925789759,0.1698237830554879,-0.1319360136985779,-0.02030660212039948,0.02364704012870789,-0.007976025342941284,-0.01772803068161011,-0.01721996068954468,XArbitraryZVertical,0.008369160724443551,-0.1235369607396206,-0.7296047356984078,-0.6725664522727269,0.1783859878778458,-0.1690086722373962,-0.9693371653556824,0,0,0,-1,-1,3378.7606145,running,2,2022-06-30T09:23:04.341+02:00,2022-06-30T08:20:05.567+02:00,1052,1.411193,0,0,819.8695,0,0,2022-06-30T09:23:09.437+02:00
2022-06-30T09:23:10.901+02:00,3385.319770541667,0.163909912109375,-0.1403961181640625,-0.9553680419921875,3385.309819541667,1.636975228761403,0.181951170777218,0.1674349370989013,-0.1102670133113861,-0.01686021685600281,0.02047271840274334,-0.009442776441574097,-0.0133843868970871,-0.00819706916809082,XArbitraryZVertical,0.009195335797030409,-0.1226622415005048,-0.7297385474615249,-0.6725705188209098,0.1784183979034424,-0.1666537076234818,-0.9697388410568237,0,0,0,-1,-1,3378.7606145,running,2,2022-06-30T09:23:04.341+02:00,2022-06-30T08:20:05.567+02:00,1052,1.411193,0,0,819.8695,0,0,2022-06-30T09:23:09.437+02:00
2022-06-30T09:23:10.911+02:00,3385.329721541667,0.1602630615234375,-0.1379852294921875,-0.9460906982421875,3385.319770541667,1.637247971449509,0.1819255609878846,0.1654869115911513,-0.06897683441638947,-0.02465582080185413,0.004573113285005093,-0.01136840879917145,0.001799628138542175,-0.003877222537994385,XArbitraryZVertical,0.009868504097999681,-0.1219515537297096,-0.7298290249226801,-0.6725921643825514,0.1784519553184509,-0.1647326052188873,-0.9700608849525452,0,0,0,-1,-1,3378.7606145,running,2,2022-06-30T09:23:04.341+02:00,2022-06-30T08:20:05.567+02:00,1052,1.411193,0,0,819.8695,0,0,2022-06-30T09:23:09.437+02:00
2022-06-30T09:23:10.921+02:00,3385.339673541667,0.15679931640625,-0.1519317626953125,-0.953216552734375,3385.329721541667,1.637325647419136,0.1816947268156533,0.1647374461569776,-0.007224518805742264,-0.03453518077731133,-0.004514523781836033,-0.01434057950973511,0.02359758317470551,0.0148550271987915,XArbitraryZVertical,0.01004514398806873,-0.121603875269377,-0.7298556053471909,-0.6726236382742059,0.1782502979040146,-0.1639933437108994,-0.9702231884002686,0,0,0,-1,-1,3378.7606145,running,2,2022-06-30T09:23:04.341+02:00,2022-06-30T08:20:05.567+02:00,1052,1.411193,0,0,819.8695,0,0,2022-06-30T09:23:09.437+02:00
2022-06-30T09:23:10.931+02:00,3385.349624541667,0.160491943359375,-0.1697235107421875,-0.9731292724609375,3385.339673541667,1.637274351965639,0.1812759153271314,0.1649655840127963,0.01536121778190136,-0.03978586941957474,-0.005020524375140667,-0.01757432520389557,0.02623352408409119,0.0241701602935791,XArbitraryZVertical,0.009811220267167775,-0.1215453646265709,-0.7298406415640737,-0.6726539158866683,0.1778371781110764,-0.1642183810472488,-0.9702609181404114,0,0,0,-1,-1,3378.7606145,running,2,2022-06-30T09:23:04.341+02:00,2022-06-30T08:20:05.567+02:00,1052,1.411193,0,0,819.8695,0,0,2022-06-30T09:23:09.437+02:00
2022-06-30T09:23:10.941+02:00,3385.359576541667,0.1704254150390625,-0.164642333984375,-0.9868927001953125,3385.349624541667,1.637201140133303,0.1808891381938063,0.1656692490014333,0.02641486749053001,-0.02765629440546036,-0.003697166452184319,-0.02064193785190582,0.01298105716705322,0.01699906587600708,XArbitraryZVertical,0.009425144793859412,-0.1216688339904452,-0.7298184083955895,-0.6726610661775257,0.1774410605430603,-0.1649124473333359,-0.9702157378196716,0,0,0,-1,-1,3378.7606145,running,2,2022-06-30T09:23:04.341+02:00,2022-06-30T08:20:05.567+02:00,1052,1.411193,0,0,819.8695,0,0,2022-06-30T09:23:09.437+02:00
2022-06-30T09:23:10.951+02:00,3385.369527541667,0.172943115234375,-0.152252197265625,-0.97900390625,3385.359576541667,1.637112336323678,0.1805550973424052,0.1664199742838599,0.02639302983880043,-0.02389537915587425,-0.01007250789552927,-0.01660293340682983,-0.004070281982421875,-0.002976477146148682,XArbitraryZVertical,0.009041246049005275,-0.1218269934789149,-0.7297905128076653,-0.6726680370902454,0.1770946830511093,-0.1656528562307358,-0.9701528549194336,0,0,0,-1,-1,3378.7606145,running,2,2022-06-30T09:23:04.341+02:00,2022-06-30T08:20:05.567+02:00,1052,1.411193,0,0,819.8695,0,0,2022-06-30T09:23:09.437+02:00
2022-06-30T09:23:10.961+02:00,3385.379479541667,0.161590576171875,-0.154937744140625,-0.9856719970703125,3385.369527541667,1.636969084755959,0.1800990775221638,0.1671442559029504,0.03067512810230255,-0.0234386008232832,-0.02079559303820133,-0.006205499172210693,0.001725122332572937,-0.01677757501602173,XArbitraryZVertical,0.008618547883838871,-0.1219348129291775,-0.7297446137094268,-0.6727038548232899,0.1766307204961777,-0.1663670837879181,-0.9701152443885803,0,0,0,-1,-1,3378.7606145,running,2,2022-06-30T09:23:04.341+02:00,2022-06-30T08:20:05.567+02:00,1052,1.411193,0,0,819.8695,0,0,2022-06-30T09:23:09.437+02:00
2022-06-30T09:23:10.971+02:00,3385.389430541667,0.1552886962890625,-0.1670074462890625,-0.984649658203125,3385.379479541667,1.636705588965424,0.1796894009919417,0.1677791831294042,0.01659339666366577,-0.02350411377847195,-0.02717413008213043,-0.003271430730819702,0.01474130153656006,-0.008920609951019287,XArbitraryZVertical,0.008235952219033997,-0.1220265133614536,-0.729657821128247,-0.6727861600608541,0.1762143522500992,-0.1669931262731552,-0.9700834155082703,0,0,0,-1,-1,3378.7606145,running,2,2022-06-30T09:23:04.341+02:00,2022-06-30T08:20:05.567+02:00,1052,1.411193,0,0,819.8695,0,0,2022-06-30T09:23:09.437+02:00
2022-06-30T09:23:10.981+02:00,3385.399381541667,0.1505279541015625,-0.1747894287109375,-0.9788665771484375,3385.389430541667,1.636471528514116,0.1793258148327566,0.1681365057692306,-0.007358608767390251,-0.01249527093023062,-0.02753535471856594,-0.01426060497760773,0.012408047914505,-0.01558345556259155,XArbitraryZVertical,0.007966857913891656,-0.1220336611401769,-0.7295805649108338,-0.6728719233279741,0.175850972533226,-0.1673454195261002,-0.9700886011123657,0,0,0,-1,-1,3378.7606145,running,2,2022-06-30T09:23:04.341+02:00,2022-06-30T08:20:05.567+02:00,1052,1.411193,0,0,819.8695,0,0,2022-06-30T09:23:09.437+02:00
2022-06-30T09:23:10.991+02:00,3385.409333541667,0.15264892578125,-0.1837615966796875,-0.975677490234375,3385.399381541667,1.636268904757139,0.1790939489157455,0.1676912080031765,-0.04681627079844475,0.005400638096034527,-0.03432747721672058,-0.02035079896450043,-0.0001006871461868286,-0.01444715261459351,XArbitraryZVertical,0.008022192130950755,-0.1217963061005346,-0.7295133192105524,-0.6729871919003138,0.1756393015384674,-0.1669063866138458,-0.970202624797821,0,0,0,-1,-1,3378.7606145,running,2,2022-06-30T09:23:04.341+02:00,2022-06-30T08:20:05.567+02:00,1052,1.411193,0,0,819.8695,0,0,2022-06-30T09:23:09.437+02:00
2022-06-30T09:23:11.001+02:00,3385.419284541667,0.1561279296875,-0.1850128173828125,-0.9727935791015625,3385.409333541667,1.636027837889799,0.1790033161761761,0.1662610332816675,-0.09300413727760315,0.01670917123556137,-0.04738729074597359,-0.02506594359874725,-0.009292960166931152,-0.008414268493652344,XArbitraryZVertical,0.008463578345752705,-0.1212524507167805,-0.7294323577544096,-0.6731677261707654,0.175593689084053,-0.1654961109161377,-0.9704524278640747,0,0,0,-1,-1,3378.7606145,running,2,2022-06-30T09:23:04.341+02:00,2022-06-30T08:20:05.567+02:00,1052,1.411193,0,0,819.8695,0,0,2022-06-30T09:23:09.437+02:00
2022-06-30T09:23:11.010+02:00,3385.429236541667,0.158355712890625,-0.1686248779296875,-0.9616546630859375,3385.419284541667,1.635793019083087,0.1789767739099874,0.1643784952123291,-0.1329715251922607,0.03122526220977306,-0.05272799357771873,-0.02297435700893402,-0.0201219916343689,-0.00491565465927124,XArbitraryZVertical,0.009083578516887382,-0.1205674993320658,-0.7293525862563388,-0.6733689433702216,0.1756230890750885,-0.1636392325162888,-0.9707619547843933,0,0,0,-1,-1,3378.7606145,running,2,2022-06-30T09:23:04.341+02:00,2022-06-30T08:20:05.567+02:00,1052,1.411193,0,0,819.8695,0,0,2022-06-30T09:23:09.437+02:00
2022-06-30T09:23:11.020+02:00,3385.439187541667,0.1581268310546875,-0.146942138671875,-0.9608154296875,3385.429236541667,1.635567849077673,0.1789732312792501,0.1626526038110068,-0.1497206687927246,0.04640980809926987,-0.0552835613489151,-0.01954193413257599,-0.02307608723640442,-0.001754641532897949,XArbitraryZVertical,0.009659102508913015,-0.1199466184618472,-0.7292754388747894,-0.6735553192832332,0.1756696552038193,-0.1619363725185394,-0.9710389971733093,0,0,0,-1,-1,3378.7606145,running,2,2022-06-30T09:23:04.341+02:00,2022-06-30T08:20:05.567+02:00,1052,1.411193,0,0,819.8695,0,0,2022-06-30T09:23:09.437+02:00
2022-06-30T09:23:11.030+02:00,3385.449139541667,0.158050537109375,-0.151763916015625,-0.9773712158203125,3385.439187541667,1.635344777596305,0.179110587543765,0.1613539885547682,-0.1422092318534851,0.05474390462040901,-0.05964582040905952,-0.01748482882976532,-0.007969751954078674,0.009566247463226318,XArbitraryZVertical,0.01014007418877647,-0.1195269086513183,-0.7291982354816409,-0.6737064688691063,0.1758403480052948,-0.160654753446579,-0.9712209701538086,0,0,0,-1,-1,3378.7606145,running,2,2022-06-30T09:23:04.341+02:00,2022-06-30T08:20:05.567+02:00,1052,1.411193,0,0,819.8695,0,0,2022-06-30T09:23:09.437+02:00
2022-06-30T09:23:11.040+02:00,3385.459090541667,0.1638336181640625,-0.1583709716796875,-0.9846038818359375,3385.449139541667,1.634925484450412,0.1795418497075874,0.160060151752516,-0.1060595586895943,0.0573715828359127,-0.07968820631504059,-0.01816953718662262,0.01243580877780914,0.01053327322006226,XArbitraryZVertical,0.01071495480973793,-0.1192090651963853,-0.7290529581888473,-0.6739110769915315,0.1762961596250534,-0.1593775898218155,-0.971348762512207,0,0,0,-1,-1,3378.7606145,running,2,2022-06-30T09:23:04.341+02:00,2022-06-30T08:20:05.567+02:00,1052,1.411193,0,0,819.8695,0,0,2022-06-30T09:23:09.437+02:00
2022-06-30T09:23:11.050+02:00,3385.469042541667,0.1682586669921875,-0.1623382568359375,-0.989532470703125,3385.459090541667,1.634228437196582,0.1801416000599603,0.1587155271880803,-0.0985233411192894,0.06447716802358627,-0.1000355556607246,-0.01886659860610962,0.006286457180976868,-0.005918502807617188,XArbitraryZVertical,0.01135223367644812,-0.118931550569524,-0.7288124231782479,-0.6742097912644016,0.1769169270992279,-0.1580500155687332,-0.9714528322219849,0,0,0,-1,-1,3378.7606145,running,2,2022-06-30T09:23:04.341+02:00,2022-06-30T08:20:05.567+02:00,1052,1.411193,0,0,819.8695,0,0,2022-06-30T09:23:09.437+02:00
2022-06-30T09:23:11.060+02:00,3385.478993541667,0.1674041748046875,-0.17901611328125,-0.9921722412109375,3385.469042541667,1.633463160161017,0.1804636767845723,0.1573294475104203,-0.1235909461975098,0.06725509464740753,-0.1091828122735023,-0.01343555748462677,-0.001689404249191284,-0.01299357414245605,XArbitraryZVertical,0.01189869801527307,-0.1185463360877868,-0.7285496512397415,-0.6745521338663768,0.1772689521312714,-0.1566811949014664,-0.9716103672981262,0,0,0,-1,-1,3378.7606145,running,2,2022-06-30T09:23:04.341+02:00,2022-06-30T08:20:05.567+02:00,1052,1.411193,0,0,819.8695,0,0,2022-06-30T09:23:09.437+02:00
2022-06-30T09:23:11.070+02:00,3385.488944541667,0.1678619384765625,-0.15435791015625,-0.9758758544921875,3385.478993541667,1.632633908030503,0.1806950638281214,0.1560141424018692,-0.1517520099878311,0.08125559985637665,-0.1280600875616074,-0.009272187948226929,-0.006955891847610474,-0.01776134967803955,XArbitraryZVertical,0.0123843949198862,-0.1181567419880125,-0.7282653595891372,-0.6749187333820538,0.1775306463241577,-0.1553820073604584,-0.971771240234375,0,0,0,-1,-1,3378.7606145,running,2,2022-06-30T09:23:04.341+02:00,2022-06-30T08:20:05.567+02:00,1052,1.411193,0,0,819.8695,0,0,2022-06-30T09:23:09.437+02:00
2022-06-30T09:23:11.080+02:00,3385.498896541667,0.166412353515625,-0.1238555908203125,-0.96234130859375,3385.488944541667,1.631814038180154,0.1810177679565109,0.1546985317424983,-0.1871642619371414,0.1007722988724709,-0.1223965212702751,-0.01047690212726593,-0.02493351697921753,-0.02025818824768066,XArbitraryZVertical,0.01290431480119576,-0.1177982053603212,-0.7279830358147613,-0.6752761539903895,0.1778808832168579,-0.1540822386741638,-0.9719141125679016,0,0,0,-1,-1,3378.7606145,running,2,2022-06-30T09:23:04.341+02:00,2022-06-30T08:20:05.567+02:00,1052,1.411193,0,0,819.8695,0,0,2022-06-30T09:23:09.437+02:00
2022-06-30T09:23:11.090+02:00,3385.508847541667,0.1675262451171875,-0.135040283203125,-0.9658660888671875,3385.498896541667,1.631048260848103,0.1815097202165283,0.153372972565212,-0.2014097720384598,0.1047966033220291,-0.1273707747459412,-0.01053397357463837,-0.001585185527801514,-0.003849387168884277,XArbitraryZVertical,0.01349268894326801,-0.1174933198182087,-0.7277171658669798,-0.6756043103939601,0.1783957034349442,-0.1527723670005798,-0.972026526927948,0,0,0,-1,-1,3378.7606145,running,2,2022-06-30T09:23:04.341+02:00,2022-06-30T08:20:05.567+02:00,1052,1.411193,0,0,819.8695,0,0,2022-06-30T09:23:09.437+02:00
2022-06-30T09:23:11.100+02:00,3385.518799541667,0.1675872802734375,-0.1495361328125,-0.95556640625,3385.508847541667,1.630197697631147,0.1820872802451879,0.1520838088823712,-0.2007849961519241,0.09789691120386124,-0.1362857073545456,-0.01258045434951782,0.02764299511909485,0.009774863719940186,XArbitraryZVertical,0.01409498387309318,-0.1172314851349442,-0.7274214316390906,-0.6759558288183196,0.1789925992488861,-0.1514982134103775,-0.972116231918335,0,0,0,-1,-1,3378.7606145,running,2,2022-06-30T09:23:04.341+02:00,2022-06-30T08:20:05.567+02:00,1052,1.411193,0,0,819.8695,0,0,2022-06-30T09:23:09.437+02:00
2022-06-30T09:23:11.110+02:00,3385.528750541667,0.1617889404296875,-0.1759490966796875,-0.9410552978515625,3385.518799541667,1.62929130342102,0.182745073526499,0.1502216995082534,-0.24465711414814,0.1031084507703781,-0.1421151012182236,-0.01215693354606628,0.0146174430847168,0.006407856941223145,XArbitraryZVertical,0.01492000758886002,-0.116792110653755,-0.7271031618416455,-0.6763564591955552,0.1796829700469971,-0.1496573388576508,-0.9722740054130554,0,0,0,-1,-1,3378.7606145,running,2,2022-06-30T09:23:04.341+02:00,2022-06-30T08:20:05.567+02:00,1052,1.411193,0,0,819.8695,0,0,2022-06-30T09:23:09.437+02:00
2022-06-30T09:23:11.120+02:00,3385.538702541667,0.1490478515625,-0.2083892822265625,-0.9368743896484375,3385.528750541667,1.628417009795129,0.1834651589674777,0.1472058313687973,-0.3168000876903534,0.1138199865818024,-0.1566809564828873,-0.01287747919559479,-0.002861008048057556,0.0170171856880188,XArbitraryZVertical,0.01616601190271841,-0.1159603788558132,-0.7267885821918392,-0.6768088267593421,0.1804645657539368,-0.1466747522354126,-0.9725837111473083,0,0,0,-1,-1,3378.7606145,running,2,2022-06-30T09:23:04.341+02:00,2022-06-30T08:20:05.567+02:00,1052,1.411193,0,0,819.8695,0,0,2022-06-30T09:23:09.437+02:00
2022-06-30T09:23:11.130+02:00,3385.548653541667,0.135711669921875,-0.2279510498046875,-0.9454803466796875,3385.538702541667,1.627389483935075,0.1842359626362147,0.1434956368575171,-0.402460902929306,0.1297518163919449,-0.2042671293020248,-0.01952388882637024,-0.03294503688812256,0.03191721439361572,XArbitraryZVertical,0.01766076673241312,-0.1148990750229916,-0.7264151037952133,-0.6773532775547384,0.181312620639801,-0.1430036872625351,-0.972972571849823,0,0,0,-1,-1,3378.7606145,running,2,2022-06-30T09:23:04.341+02:00,2022-06-30T08:20:05.567+02:00,1052,1.411193,0,0,819.8695,0,0,2022-06-30T09:23:09.437+02:00
2022-06-30T09:23:11.140+02:00,3385.558605541667,0.120880126953125,-0.23553466796875,-0.9544525146484375,3385.548653541667,1.626097251495772,0.1853511306387072,0.1389934260200423,-0.5122581720352173,0.1511694490909576,-0.2398917227983475,-0.03346669673919678,-0.06984260678291321,0.03651827573776245,XArbitraryZVertical,0.01953867107851006,-0.113674396212677,-0.7259394508266049,-0.6780179406416084,0.1825143396854401,-0.1385463178157806,-0.9733927249908447,0,0,0,-1,-1,3378.7606145,running,2,2022-06-30T09:23:04.341+02:00,2022-06-30T08:20:05.567+02:00,1052,1.411193,0,0,819.8695,0,0,2022-06-30T09:23:09.437+02:00
2022-06-30T09:23:11.150+02:00,3385.568556541667,0.110687255859375,-0.25262451171875,-0.96160888671875,3385.558605541667,1.624641616086533,0.1869126643036493,0.1332192642036511,-0.6511870622634888,0.1692128926515579,-0.2830533087253571,-0.04846823215484619,-0.09512512385845184,0.02839595079421997,XArbitraryZVertical,0.0220081687681287,-0.1121492280445637,-0.7253873740664296,-0.6787866657573955,0.1841796934604645,-0.132825568318367,-0.9738763570785522,0,0,0,-1,-1,3378.7606145,running,2,2022-06-30T09:23:04.341+02:00,2022-06-30T08:20:05.567+02:00,1052,1.411193,0,0,819.8695,0,0,2022-06-30T09:23:09.437+02:00
2022-06-30T09:23:11.160+02:00,3385.578507541667,0.1041259765625,-0.2558135986328125,-0.972930908203125,3385.568556541667,1.622921540470616,0.1889111387407085,0.1254826975460583,-0.8124035596847534,0.1894869953393936,-0.3471997082233429,-0.0654330849647522,-0.1103806495666504,0.02003395557403564,XArbitraryZVertical,0.02529871607346441,-0.1100758916294037,-0.7247109438685195,-0.6797332386071298,0.1863130033016205,-0.1251536458730698,-0.9744865298271179,0,0,0,-1,-1,3378.7606145,running,2,2022-06-30T09:23:04.341+02:00,2022-06-30T08:20:05.567+02:00,1052,1.411193,0,0,819.8695,0,0,2022-06-30T09:23:09.437+02:00
2022-06-30T09:23:11.170+02:00,3385.588459541667,0.0951690673828125,-0.1977691650390625,-0.9366455078125,3385.578507541667,1.620965228574662,0.1913510169981931,0.116269866935303,-0.9234040975570679,0.2554353773593903,-0.3805435597896576,-0.07821430265903473,-0.1366160660982132,0.01351070404052734,XArbitraryZVertical,0.02924777554132671,-0.107632350066068,-0.7239124294427952,-0.6808161745974545,0.188901349902153,-0.116008073091507,-0.9751197099685669,0,0,0,-1,-1,3378.7606145,running,2,2022-06-30T09:23:04.341+02:00,2022-06-30T08:20:05.567+02:00,1052,1.411193,0,0,819.8695,0,0,2022-06-30T09:23:09.437+02:00
2022-06-30T09:23:11.180+02:00,3385.598410541667,0.07891845703125,-0.167144775390625,-0.93701171875,3385.588459541667,1.618938995358542,0.1944402989119799,0.1059529714444734,-1.033732891082764,0.3157794177532196,-0.4214693307876587,-0.08800812065601349,-0.150058388710022,0.002722859382629395,XArbitraryZVertical,0.03381237773661833,-0.1050227896535289,-0.7230379147669563,-0.6819407070169469,0.1921338886022568,-0.1057548448443413,-0.9756538867950439,0,0,0,-1,-1,3378.7606145,running,2,2022-06-30T09:23:04.341+02:00,2022-06-30T08:20:05.567+02:00,1052,1.411193,0,0,819.8695,0,0,2022-06-30T09:23:09.437+02:00
2022-06-30T09:23:11.190+02:00,3385.608362541667,0.0717926025390625,-0.1575775146484375,-0.95233154296875,3385.598410541667,1.616526014285191,0.1979696217617854,0.09471458808040971,-1.084256052970886,0.3393670320510864,-0.4941278100013733,-0.1006286293268204,-0.1031957566738129,0.03942781686782837,XArbitraryZVertical,0.03883780923799471,-0.1022493182056782,-0.7219737223154894,-0.6832208480773831,0.1957974880933762,-0.09457304328680038,-0.9760733842849731,0,0,0,-1,-1,3378.7606145,running,2,2022-06-30T09:23:04.341+02:00,2022-06-30T08:20:05.567+02:00,1052,1.411193,0,0,819.8695,0,0,2022-06-30T09:23:09.437+02:00
2022-06-30T09:23:11.200+02:00,3385.618313541667,0.04736328125,-0.1340789794921875,-0.9542388916015625,3385.608362541667,1.613641098451073,0.2016779210584082,0.08281426938990248,-1.149600625038147,0.3583356142044067,-0.5423204302787781,-0.1207087934017181,-0.08442476391792297,0.03936237096786499,XArbitraryZVertical,0.04413757170571334,-0.09932164738071383,-0.7206901661918619,-0.6846845493443153,0.1996270269155502,-0.08271963894367218,-0.9763741493225098,0,0,0,-1,-1,3378.7606145,running,2,2022-06-30T09:23:04.341+02:00,2022-06-30T08:20:05.567+02:00,1052,1.411193,0,0,819.8695,0,0,2022-06-30T09:23:09.437+02:00
2022-06-30T09:23:11.210+02:00,3385.628265541667,0.020660400390625,-0.1271514892578125,-0.96337890625,3385.618313541667,1.610515776394886,0.2057548517103195,0.07013742716537372,-1.22034752368927,0.4241154193878174,-0.5863028168678284,-0.1320114433765411,-0.08749720454216003,0.02416867017745972,XArbitraryZVertical,0.04983271613735073,-0.09626296814596792,-0.7192512708392852,-0.6862418142740097,0.2038038372993469,-0.07007993757724762,-0.9765002727508545,0,0,0,-1,-1,3378.7606145,running,2,2022-06-30T09:23:04.341+02:00,2022-06-30T08:20:05.567+02:00,1052,1.411193,0,0,819.8695,0,0,2022-06-30T09:23:09.437+02:00
2022-06-30T09:23:11.219+02:00,3385.638216541667,0.018157958984375,-0.190155029296875,-0.96258544921875,3385.628265541667,1.606921278838115,0.2105477546094522,0.05651343369562781,-1.308242678642273,0.488769918680191,-0.6955104470252991,-0.1612988710403442,-0.07759525626897812,0.02211642265319824,XArbitraryZVertical,0.05609696821803374,-0.09314204452238334,-0.7175533765332219,-0.6879642772371758,0.2086619436740875,-0.05648335814476013,-0.9763553738594055,0,0,0,-1,-1,3378.7606145,running,2,2022-06-30T09:23:04.341+02:00,2022-06-30T08:20:05.567+02:00,1052,1.411193,0,0,819.8695,0,0,2022-06-30T09:23:09.437+02:00
2022-06-30T09:23:11.229+02:00,3385.648167541667,0.0134735107421875,-0.261260986328125,-0.95928955078125,3385.638216541667,1.602299698106661,0.2157760814176849,0.04171418765889557,-1.420270919799805,0.5143719911575317,-0.8417409062385559,-0.1932591497898102,-0.08544903248548508,0.01258182525634766,XArbitraryZVertical,0.06288484632945515,-0.08980591148642325,-0.7153886196614847,-0.6900721564176896,0.2139193266630173,-0.04170209169387817,-0.9759607911109924,0,0,0,-1,-1,3378.7606145,running,2,2022-06-30T09:23:04.341+02:00,2022-06-30T08:20:05.567+02:00,1052,1.411193,0,0,819.8695,0,0,2022-06-30T09:23:09.437+02:00
2022-06-30T09:23:11.239+02:00,3385.658119541667,-0.014892578125,-0.3209228515625,-0.9532928466796875,3385.648167541667,1.596703921085008,0.2212480160144328,0.02481182941438801,-1.669925689697266,0.5563111901283264,-0.9929735660552979,-0.2012220919132233,-0.1653453707695007,0.01273852586746216,XArbitraryZVertical,0.07045728988969276,-0.08587053279830713,-0.7127300565636764,-0.6925879200142102,0.2193798422813416,-0.02480928413569927,-0.9753240346908569,0,0,0,-1,-1,3378.7606145,running,2,2022-06-30T09:23:04.341+02:00,2022-06-30T08:20:05.567+02:00,1052,1.411193,0,0,819.8695,0,0,2022-06-30T09:23:09.437+02:00
2022-06-30T09:23:11.250+02:00,3385.668070541667,-0.022857666015625,-0.3120269775390625,-0.9438934326171875,3385.658119541667,1.590471719476609,0.2273526996896051,0.004589578925034404,-2.025018215179443,0.6580652594566345,-1.122249722480774,-0.2119234800338745,-0.2566710710525513,0.01496666669845581,XArbitraryZVertical,0.07939700482764647,-0.08104313703110608,-0.7096006451121036,-0.6954101232514102,0.2253967672586441,-0.004589562769979239,-0.9742562770843506,0,0,0,-1,-1,3378.7606145,running,2,2022-06-30T09:23:04.341+02:00,2022-06-30T08:20:05.567+02:00,1052,1.411193,0,0,819.8695,0,0,2022-06-30T09:23:09.437+02:00
2022-06-30T09:23:11.259+02:00,3385.678022541667,-0.0131988525390625,-0.2583160400390625,-0.9224853515625,3385.668070541667,1.584460741063069,0.2343637500150303,-0.01982396253356197,-2.486575365066528,0.7569696307182312,-1.167379260063171,-0.2470713555812836,-0.3407451510429382,0.01917833089828491,XArbitraryZVertical,0.09014231736687624,-0.07509177221320792,-0.7061904951406185,-0.6982339671410118,0.2321785539388657,0.01982266455888748,-0.9724711775779724,0,0,0,-1,-1,3378.7606145,running,2,2022-06-30T09:23:04.341+02:00,2022-06-30T08:20:05.567+02:00,1052,1.411193,0,0,819.8695,0,0,2022-06-30T09:23:09.437+02:00
2022-06-30T09:23:11.269+02:00,3385.687973541667,0.0077972412109375,-0.120697021484375,-0.9405670166015625,3385.678022541667,1.579528524793263,0.2420646971487202,-0.04888404014517634,-2.952809810638428,0.8312821984291077,-1.166991591453552,-0.2622791826725006,-0.3608911633491516,0.02579188346862793,XArbitraryZVertical,0.1028002228993531,-0.0677453374245672,-0.7027040221701897,-0.7007495280887382,0.2394212931394577,0.04886457324028015,-0.9696853756904602,0,0,0,-1,-1,3378.7606145,running,2,2022-06-30T09:23:04.341+02:00,2022-06-30T08:20:05.567+02:00,1052,1.411193,0,0,819.8695,0,0,2022-06-30T09:23:09.437+02:00
2022-06-30T09:23:11.279+02:00,3385.697925541667,0.02880859375,-0.0051116943359375,-0.960479736328125,3385.687973541667,1.576168783297909,0.2505641503305016,-0.08256955540868106,-3.450153350830078,0.9320766925811768,-1.136444926261902,-0.260304868221283,-0.3407914340496063,0.04298681020736694,XArbitraryZVertical,0.1173956057727105,-0.0590101048684113,-0.6992105088398399,-0.7027381236333655,0.2471057772636414,0.08247576653957367,-0.9654721617698669,0,0,0,-1,-1,3378.7606145,running,2,2022-06-30T09:23:04.341+02:00,2022-06-30T08:20:05.567+02:00,1052,1.411193,0,0,819.8695,0,0,2022-06-30T09:23:09.437+02:00
2022-06-30T09:23:11.289+02:00,3385.707876541667,0.067047119140625,0.0481719970703125,-0.984283447265625,3385.697925541667,1.574466015935562,0.2604364699823108,-0.1206853503273526,-3.854875087738037,1.091595768928528,-1.139764547348022,-0.247832328081131,-0.241089254617691,0.01868230104446411,XArbitraryZVertical,0.134023228340198,-0.04912345590812583,-0.6955999344238136,-0.7041061038396105,0.2556293606758118,0.1203925982117653,-0.9592493176460266,0,0,0,-1,-1,3378.7606145,running,2,2022-06-30T09:23:04.341+02:00,2022-06-30T08:20:05.567+02:00,1052,1.411193,0,0,819.8695,0,0,2022-06-30T09:23:09.437+02:00
2022-06-30T09:23:11.299+02:00,3385.717828541667,0.1231536865234375,0.1141815185546875,-1.0010986328125,3385.707876541667,1.573633820452735,0.2719261012518884,-0.1621763231323132,-4.137979030609131,1.242619156837463,-1.21700644493103,-0.2362546026706696,-0.1665776968002319,-0.009863972663879395,XArbitraryZVertical,0.1523309945837324,-0.0385668562969568,-0.6915167363029444,-0.7050620491742502,0.2650629281997681,0.1614663600921631,-0.9506157040596008,0,0,0,-1,-1,3378.7606145,running,2,2022-06-30T09:23:04.341+02:00,2022-06-30T08:20:05.567+02:00,1052,1.411193,0,0,819.8695,0,0,2022-06-30T09:23:09.437+02:00
2022-06-30T09:23:11.309+02:00,3385.727779541667,0.1529693603515625,0.1858978271484375,-0.9795989990234375,3385.717828541667,1.573466735573723,0.2849074789984247,-0.2060587730792964,-4.322370529174805,1.375463247299194,-1.225607633590698,-0.2080757915973663,-0.1564313024282455,-0.04489803314208984,XArbitraryZVertical,0.1718816890333995,-0.02764052782993482,-0.6868505232745314,-0.7056408172283314,0.2751226127147675,0.2046036422252655,-0.9393853545188904,0,0,0,-1,-1,3378.7606145,running,2,2022-06-30T09:23:04.341+02:00,2022-06-30T08:20:05.567+02:00,1052,1.411193,0,0,819.8695,0,0,2022-06-30T09:23:09.437+02:00
2022-06-30T09:23:11.319+02:00,3385.737730541667,0.1519012451171875,0.247314453125,-0.9339599609375,3385.727779541667,1.574631989066781,0.2994784172999486,-0.2510212192939492,-4.375462055206299,1.505728006362915,-1.148496270179749,-0.1626222431659698,-0.1342114210128784,-0.07555389404296875,XArbitraryZVertical,0.1922151963183749,-0.01676191557796847,-0.6818438519416736,-0.7055928082092234,0.2857756614685059,0.2483932971954346,-0.9255447387695312,0,0,0,-1,-1,3378.7606145,running,2,2022-06-30T09:23:04.341+02:00,2022-06-30T08:20:05.567+02:00,1052,1.411193,0,0,819.8695,0,0,2022-06-30T09:23:09.437+02:00
2022-06-30T09:23:11.329+02:00,3385.747682541667,0.146148681640625,0.261016845703125,-0.9250335693359375,3385.737730541667,1.577184911563628,0.3155674220723911,-0.2957645439764762,-4.315731048583984,1.586694955825806,-1.110314011573792,-0.1439110338687897,-0.1055730879306793,-0.0702548623085022,XArbitraryZVertical,0.2128097576194446,-0.006321518003754432,-0.676585235701903,-0.7049145143708614,0.2968801259994507,0.2914712727069855,-0.9093440771102905,0,0,0,-1,-1,3378.7606145,running,2,2022-06-30T09:23:04.341+02:00,2022-06-30T08:20:05.567+02:00,1052,1.411193,0,0,819.8695,0,0,2022-06-30T09:23:09.437+02:00
2022-06-30T09:23:11.339+02:00,3385.757633541667,0.1829071044921875,0.3007659912109375,-0.913604736328125,3385.747682541667,1.580164377220013,0.3330065217249741,-0.3389252417729463,-4.091108322143555,1.730347871780396,-1.117730140686035,-0.1563891470432281,-0.0851588249206543,-0.04265838861465454,XArbitraryZVertical,0.2331074531494756,0.0031844887391175,-0.6708788368540065,-0.7039690275018431,0.3082901537418365,0.3324736654758453,-0.8913015723228455,0,0,0,-1,-1,3378.7606145,running,2,2022-06-30T09:23:04.341+02:00,2022-06-30T08:20:05.567+02:00,1052,1.411193,0,0,819.8695,0,0,2022-06-30T09:23:09.437+02:00
2022-06-30T09:23:11.349+02:00,3385.767585541667,0.2407989501953125,0.335540771484375,-0.9154205322265625,3385.757633541667,1.583433273752045,0.3518590111527303,-0.3803205700627834,-3.974531173706055,1.819298505783081,-1.083786487579346,-0.1738688349723816,-0.1102009415626526,-0.05337643623352051,XArbitraryZVertical,0.2530523194914657,0.01166146697450016,-0.6647039632350049,-0.7028493287756481,0.3200172483921051,0.3712181448936462,-0.8716570734977722,0,0,0,-1,-1,3378.7606145,running,2,2022-06-30T09:23:04.341+02:00,2022-06-30T08:20:05.567+02:00,1052,1.411193,0,0,819.8695,0,0,2022-06-30T09:23:09.437+02:00
2022-06-30T09:23:11.359+02:00,3385.777536541667,0.282623291015625,0.40484619140625,-0.8475341796875,3385.767585541667,1.588113933154618,0.3720135625204824,-0.4208955350447853,-3.975064039230347,1.86419141292572,-0.9884464740753174,-0.1488608121871948,-0.1078116297721863,-0.06331396102905273,XArbitraryZVertical,0.2728896390709981,0.01964425844328988,-0.6583570027042748,-0.701221423560798,0.3317676484584808,0.4085779786109924,-0.8502907156944275,0,0,0,-1,-1,3378.7606145,running,2,2022-06-30T09:23:04.341+02:00,2022-06-30T08:20:05.567+02:00,1052,1.411193,0,0,819.8695,0,0,2022-06-30T09:23:09.437+02:00
2022-06-30T09:23:11.369+02:00,3385.787488541667,0.3164825439453125,0.53533935546875,-0.7678375244140625,3385.777536541667,1.595214895622749,0.3940597705619222,-0.4617626677863541,-4.151392459869385,1.967719912528992,-0.8825778365135193,-0.1029309332370758,-0.1099857687950134,-0.08876705169677734,XArbitraryZVertical,0.2931149436584025,0.02751270849329155,-0.6519303120531907,-0.6987943312738344,0.3437295854091644,0.4455268681049347,-0.8266533613204956,0,0,0,-1,-1,3378.7606145,running,2,2022-06-30T09:23:04.341+02:00,2022-06-30T08:20:05.567+02:00,1052,1.411193,0,0,819.8695,0,0,2022-06-30T09:23:09.437+02:00
2022-06-30T09:23:11.379+02:00,3385.797439541667,0.3319091796875,0.653564453125,-0.78607177734375,3385.787488541667,1.605754469881624,0.4194441249639136,-0.504135159360896,-4.408931732177734,2.168498516082764,-0.7624856233596802,-0.07396453619003296,-0.07820382714271545,-0.04784184694290161,XArbitraryZVertical,0.3144808185685875,0.03543581257374868,-0.6452931454887224,-0.6953005927483994,0.3565875589847565,0.4830503761768341,-0.7996922135353088,0,0,0,-1,-1,3378.7606145,running,2,2022-06-30T09:23:04.341+02:00,2022-06-30T08:20:05.567+02:00,1052,1.411193,0,0,819.8695,0,0,2022-06-30T09:23:09.437+02:00
2022-06-30T09:23:11.389+02:00,3385.807390541667,0.3780364990234375,0.7164459228515625,-0.8182220458984375,3385.797439541667,1.619632925549735,0.44939518498686,-0.5471918341639351,-4.425666809082031,2.448842763900757,-0.6970323324203491,-0.05450832843780518,0.0150485634803772,0.001358985900878906,XArbitraryZVertical,0.3370009709113535,0.04280347662085261,-0.6381810225852557,-0.6908858551942508,0.3709906041622162,0.5202911496162415,-0.7691963911056519,0,0,0,-1,-1,3378.7606145,running,2,2022-06-30T09:23:04.341+02:00,2022-06-30T08:20:05.567+02:00,1052,1.411193,0,0,819.8695,0,0,2022-06-30T09:23:09.437+02:00
2022-06-30T09:23:11.399+02:00,3385.817342541667,0.462921142578125,0.7093048095703125,-0.7982330322265625,3385.807390541667,1.635318594395996,0.4834997115252482,-0.5886682716495639,-4.185414791107178,2.694253921508789,-0.6864932775497437,-0.05472338199615479,0.09831082820892334,-0.04972356557846069,XArbitraryZVertical,0.3597844966946225,0.04879598261932035,-0.6303709017988782,-0.6861535336110857,0.3866322934627533,0.5552539229393005,-0.7363481521606445,0,0,0,-1,-1,3378.7606145,running,2,2022-06-30T09:23:04.341+02:00,2022-06-30T08:20:05.567+02:00,1052,1.411193,0,0,819.8695,0,0,2022-06-30T09:23:09.437+02:00
2022-06-30T09:23:11.408+02:00,3385.827293541667,0.5439605712890625,0.696685791015625,-0.7296295166015625,3385.817342541667,1.651179748799935,0.5200543984844709,-0.6267551509662884,-3.777542352676392,2.820828199386597,-0.6976223587989807,-0.02444261312484741,0.1299265027046204,-0.1153666973114014,XArbitraryZVertical,0.3817772848390826,0.05308951547696754,-0.6219033177751512,-0.6816626639947511,0.4024788439273834,0.586519718170166,-0.7028552293777466,0,0,0,-1,-1,3378.7606145,running,2,2022-06-30T09:23:04.341+02:00,2022-06-30T08:20:05.567+02:00,1052,1.411193,0,0,819.8695,0,0,2022-06-30T09:23:09.437+02:00
2022-06-30T09:23:11.419+02:00,3385.837245541667,0.581085205078125,0.6974029541015625,-0.6499176025390625,3385.827293541667,1.666772227827517,0.557799500481757,-0.6608556716295172,-3.413406848907471,2.884539365768433,-0.6565967202186584,0.0450395941734314,0.09551256895065308,-0.128431499004364,XArbitraryZVertical,0.4024757166439175,0.05579049795923391,-0.6130579823996215,-0.6775402323558126,0.4178812801837921,0.6137925982475281,-0.6698014140129089,0,0,0,-1,-1,3378.7606145,running,2,2022-06-30T09:23:04.341+02:00,2022-06-30T08:20:05.567+02:00,1052,1.411193,0,0,819.8695,0,0,2022-06-30T09:23:09.437+02:00
2022-06-30T09:23:11.428+02:00,3385.847196541667,0.598388671875,0.6910858154296875,-0.5456695556640625,3385.837245541667,1.683240440212659,0.5972920723226239,-0.6916486107577731,-3.203836917877197,2.983557939529419,-0.5562219619750977,0.1107981204986572,0.05887836217880249,-0.09278422594070435,XArbitraryZVertical,0.422267010921103,0.05716619549015892,-0.6040706668516894,-0.6734399594616893,0.4331622421741486,0.6378077864646912,-0.6368451714515686,0,0,0,-1,-1,3378.7606145,running,2,2022-06-30T09:23:04.341+02:00,2022-06-30T08:20:05.567+02:00,1052,1.411193,0,0,819.8695,0,0,2022-06-30T09:23:09.437+02:00
2022-06-30T09:23:11.438+02:00,3385.857148541667,0.6051177978515625,0.6683197021484375,-0.4466400146484375,3385.847196541667,1.702174560588313,0.6398830181506001,-0.7203486641935291,-3.207449913024902,3.106364727020264,-0.4305568635463715,0.1323177218437195,0.03775650262832642,-0.04702919721603394,XArbitraryZVertical,0.4418614523196393,0.05756996214988964,-0.5949679989105024,-0.6689225617737455,0.4487671554088593,0.65964674949646,-0.602888286113739,0,0,0,-1,-1,3378.7606145,running,2,2022-06-30T09:23:04.341+02:00,2022-06-30T08:20:05.567+02:00,1052,1.411193,0,0,819.8695,0,0,2022-06-30T09:23:09.437+02:00
2022-06-30T09:23:11.448+02:00,3385.867099541667,0.61883544921875,0.64227294921875,-0.3546295166015625,3385.857148541667,1.725258025329173,0.6867211551428517,-0.7484759099823228,-3.386650800704956,3.205413103103638,-0.3396365344524384,0.1338358521461487,0.01056337356567383,0.02096951007843018,XArbitraryZVertical,0.4619070673164986,0.05763992693354722,-0.5856673497648666,-0.663561142447334,0.4645525515079498,0.6805227994918823,-0.5666390061378479,0,0,0,-1,-1,3378.7606145,running,2,2022-06-30T09:23:04.341+02:00,2022-06-30T08:20:05.567+02:00,1052,1.411193,0,0,819.8695,0,0,2022-06-30T09:23:09.437+02:00
2022-06-30T09:23:11.458+02:00,3385.877051541667,0.634063720703125,0.6433563232421875,-0.2520599365234375,3385.867099541667,1.754051526164143,0.7390788304822087,-0.7769171455922728,-3.683089256286621,3.317448377609253,-0.2278631329536438,0.1247827112674713,-0.03276443481445312,0.08038866519927979,XArbitraryZVertical,0.4828507547059362,0.05780008707750128,-0.5760448937926363,-0.6570286382824315,0.4803347885608673,0.7010844349861145,-0.5270286202430725,0,0,0,-1,-1,3378.7606145,running,2,2022-06-30T09:23:04.341+02:00,2022-06-30T08:20:05.567+02:00,1052,1.411193,0,0,819.8695,0,0,2022-06-30T09:23:09.437+02:00
2022-06-30T09:23:11.468+02:00,3385.887002541667,0.6434173583984375,0.656829833984375,-0.1253509521484375,3385.877051541667,1.790322307508633,0.7983986102256786,-0.8055290710343924,-4.018391132354736,3.413697957992554,-0.08623728901147842,0.1226746737957001,-0.07892394065856934,0.1287952661514282,XArbitraryZVertical,0.5048792984482945,0.05817692338606863,-0.5661481695708473,-0.6489904931886635,0.4961604475975037,0.721197247505188,-0.4834246933460236,0,0,0,-1,-1,3378.7606145,running,2,2022-06-30T09:23:04.341+02:00,2022-06-30T08:20:05.567+02:00,1052,1.411193,0,0,819.8695,0,0,2022-06-30T09:23:09.437+02:00
2022-06-30T09:23:11.479+02:00,3385.896953541667,0.6544342041015625,0.6952667236328125,-0.0145111083984375,3385.887002541667,1.834776209502031,0.8652963495918088,-0.8333450606086846,-4.221165180206299,3.498521089553833,0.06213860586285591,0.1221709847450256,-0.09682810306549072,0.1839364767074585,XArbitraryZVertical,0.5277870230876981,0.05867483583440648,-0.5560253422871227,-0.6394012336673094,0.5118923783302307,0.7401847243309021,-0.4359962344169617,0,0,0,-1,-1,3378.7606145,running,2,2022-06-30T09:23:04.341+02:00,2022-06-30T08:20:05.567+02:00,1052,1.411193,0,0,819.8695,0,0,2022-06-30T09:23:09.437+02:00
2022-06-30T09:23:11.488+02:00,3385.906905541667,0.66864013671875,0.7843017578125,0.101837158203125,3385.896953541667,1.885368473076228,0.9381931323455894,-0.8582910679940944,-4.158605575561523,3.532750368118286,0.179135262966156,0.1161882877349854,-0.09989631175994873,0.2611655592918396,XArbitraryZVertical,0.5507183083117799,0.05874663953917606,-0.5457515769623368,-0.6288190648052072,0.5272287726402283,0.7567265033721924,-0.3865163624286652,0,0,0,-1,-1,3378.7606145,running,2,2022-06-30T09:23:04.341+02:00,2022-06-30T08:20:05.567+02:00,1052,1.411193,0,0,819.8695,0,0,2022-06-30T09:23:09.437+02:00
2022-06-30T09:23:11.498+02:00,3385.916856541667,0.705047607421875,0.825897216796875,0.1887359619140625,3385.906905541667,1.939013325868058,1.01423337225331,-0.8792086561379481,-3.934811592102051,3.512757778167725,0.2421990185976028,0.1129265427589417,-0.07496744394302368,0.3223996460437775,XArbitraryZVertical,0.572855056170364,0.05815329815231999,-0.5353679915278498,-0.6179290864989985,0.5415073037147522,0.7702344059944153,-0.3369105458259583,0,0,0,-1,-1,3378.7606145,running,2,2022-06-30T09:23:04.341+02:00,2022-06-30T08:20:05.567+02:00,1052,1.411193,0,0,819.8695,0,0,2022-06-30T09:23:09.437+02:00
2022-06-30T09:23:11.512+02:00,3385.926808541667,0.7393341064453125,0.8158721923828125,0.2730255126953125,3385.916856541667,1.992578809885386,1.090436626129808,-0.8951405325176299,-3.547743797302246,3.449085235595703,0.3617813289165497,0.1140089631080627,0.004005074501037598,0.3908377885818481,XArbitraryZVertical,0.593548913517531,0.05656372491133092,-0.5250876179225785,-0.6072752722084609,0.5546308755874634,0.7802969813346863,-0.2890004515647888,0,0,0,-1,-1,3378.7606145,running,2,2022-06-30T09:23:04.341+02:00,2022-06-30T08:20:05.567+02:00,1052,1.411193,0,0,819.8695,0,0,2022-06-30T09:23:09.437+02:00
2022-06-30T09:23:11.518+02:00,3385.936759541667,0.7397613525390625,0.7677154541015625,0.3719024658203125,3385.926808541667,2.044055958036846,1.164575561478524,-0.9056397148528806,-3.183537006378174,3.330975294113159,0.4854266345500946,0.1380907893180847,0.03907734155654907,0.4326097965240479,XArbitraryZVertical,0.6125104815407223,0.05379645291305277,-0.5152510787022743,-0.5970369470428384,0.5669564604759216,0.786820113658905,-0.2438737004995346,0,0,0,-1,-1,3378.7606145,running,2,2022-06-30T09:23:04.341+02:00,2022-06-30T08:20:05.567+02:00,1052,1.411193,0,0,819.8695,0,0,2022-06-30T09:23:09.437+02:00
2022-06-30T09:23:11.528+02:00,3385.946711541667,0.70965576171875,0.71856689453125,0.466400146484375,3385.936759541667,2.093048534131338,1.235607554054834,-0.9116871643069305,-2.893116474151611,3.179466724395752,0.5713250637054443,0.1610026955604553,0.02533441781997681,0.4744772911071777,XArbitraryZVertical,0.6298765381642076,0.05029627177093138,-0.5059659684222658,-0.5871322846038062,0.5783310532569885,0.7905381321907043,-0.2014516592025757,0,0,0,-1,-1,3378.7606145,running,2,2022-06-30T09:23:04.341+02:00,2022-06-30T08:20:05.567+02:00,1052,1.411193,0,0,819.8695,0,0,2022-06-30T09:23:09.437+02:00
2022-06-30T09:23:11.538+02:00,3385.956662541667,0.67578125,0.77313232421875,0.6160125732421875,3385.946711541667,2.137873465275335,1.302019316757474,-0.913916502460288,-2.510862588882446,3.041985511779785,0.6342681050300598,0.1510365009307861,-0.02418571710586548,0.5340619683265686,XArbitraryZVertical,0.6455971377370003,0.04609372276721491,-0.497207406866364,-0.5778101317721027,0.5887244939804077,0.7919014096260071,-0.1621594130992889,0,0,0,-1,-1,3378.7606145,running,2,2022-06-30T09:23:04.341+02:00,2022-06-30T08:20:05.567+02:00,1052,1.411193,0,0,819.8695,0,0,2022-06-30T09:23:09.437+02:00
2022-06-30T09:23:11.548+02:00,3385.966614541667,0.70703125,0.819427490234375,0.7144622802734375,3385.956662541667,2.178572439080015,1.363881946457545,-0.9134592078988987,-2.348450183868408,2.920239210128784,0.6476209163665771,0.1116775274276733,-0.07305485010147095,0.5919270515441895,XArbitraryZVertical,0.6599370723051977,0.04146888750045873,-0.4888148504051466,-0.5690549155342264,0.5979779362678528,0.7916221022605896,-0.1255267858505249,0,0,0,-1,-1,3378.7606145,running,2,2022-06-30T09:23:04.341+02:00,2022-06-30T08:20:05.567+02:00,1052,1.411193,0,0,819.8695,0,0,2022-06-30T09:23:09.437+02:00
2022-06-30T09:23:11.558+02:00,3385.976565541667,0.734222412109375,0.8152313232421875,0.824493408203125,3385.966614541667,2.216786264710457,1.422142375083971,-0.9105722935362864,-2.144523143768311,2.710074901580811,0.7578387260437012,0.06925088167190552,-0.01672220230102539,0.7068458795547485,XArbitraryZVertical,0.673229319935512,0.03668381025606261,-0.4809994351167757,-0.5604071649442806,0.6065301299095154,0.7898548245429993,-0.09083316475152969,0,0,0,-1,-1,3378.7606145,running,2,2022-06-30T09:23:04.341+02:00,2022-06-30T08:20:05.567+02:00,1052,1.411193,0,0,819.8695,0,0,2022-06-30T09:23:09.437+02:00
2022-06-30T09:23:11.568+02:00,3385.986516541667,0.75634765625,0.783203125,0.904571533203125,3385.976565541667,2.25051439589028,1.474261483923376,-0.9051429318210731,-1.885858416557312,2.408604621887207,0.8189337849617004,0.09233301877975464,0.03291428089141846,0.7739871740341187,XArbitraryZVertical,0.6850078827595164,0.03165139612370402,-0.4741933824062415,-0.5521802651561952,0.6146978735923767,0.7865134477615356,-0.0595247782766819,0,0,0,-1,-1,3378.7606145,running,2,2022-06-30T09:23:04.341+02:00,2022-06-30T08:20:05.567+02:00,1052,1.411193,0,0,819.8695,0,0,2022-06-30T09:23:09.437+02:00
2022-06-30T09:23:11.578+02:00,3385.996468541667,0.7612152099609375,0.703582763671875,1.002593994140625,3385.986516541667,2.28060306554946,1.5198310192291,-0.898551196591445,-1.768054008483887,1.99638044834137,0.7762168049812317,0.1122862696647644,0.03280627727508545,0.856218159198761,XArbitraryZVertical,0.6952698002917788,0.02715863164718627,-0.4685266897291931,-0.5443760172697512,0.6219359040260315,0.7824255228042603,-0.03172462806105614,0,0,0,-1,-1,3378.7606145,running,2,2022-06-30T09:23:04.341+02:00,2022-06-30T08:20:05.567+02:00,1052,1.411193,0,0,819.8695,0,0,2022-06-30T09:23:09.437+02:00
2022-06-30T09:23:11.588+02:00,3386.006419541667,0.747039794921875,0.6378326416015625,1.150634765625,3385.996468541667,2.308430566030891,1.559175780341133,-0.8916022116789389,-1.692152857780457,1.5353102684021,0.7166985869407654,0.1282234787940979,0.005124270915985107,0.9118711352348328,XArbitraryZVertical,0.7041199152906188,0.0237783404350185,-0.4641640895995744,-0.5368439956704056,0.6281238198280334,0.7780792117118835,-0.007299470715224743,0,0,0,-1,-1,3378.7606145,running,2,2022-06-30T09:23:04.341+02:00,2022-06-30T08:20:05.567+02:00,1052,1.411193,0,0,819.8695,0,0,2022-06-30T09:23:09.437+02:00
2022-06-30T09:23:11.598+02:00,3386.016371541667,0.7346343994140625,0.617431640625,1.269454956054688,3386.006419541667,2.334928280934658,1.592317271295828,-0.8851196143874699,-1.699886918067932,0.9808570742607117,0.5548434853553772,0.1281644105911255,-0.07040762901306152,0.9889681339263916,XArbitraryZVertical,0.7115669231976107,0.02203379081971841,-0.4612270862802718,-0.5295816495119754,0.6330505013465881,0.7739907503128052,0.01362594868987799,0,0,0,-1,-1,3378.7606145,running,2,2022-06-30T09:23:04.341+02:00,2022-06-30T08:20:05.567+02:00,1052,1.411193,0,0,819.8695,0,0,2022-06-30T09:23:09.437+02:00
2022-06-30T09:23:11.607+02:00,3386.026322541667,0.6940765380859375,0.615936279296875,1.357833862304688,3386.016371541667,2.362927795585053,1.620435241265186,-0.8799452563546838,-1.911183953285217,0.3195747137069702,0.3570824563503265,0.1106308102607727,-0.1328710317611694,1.119018316268921,XArbitraryZVertical,0.7178346722239075,0.02284050246432967,-0.4598990635045146,-0.5221922090072532,0.6364087462425232,0.7707039713859558,0.03161660954356194,0,0,0,-1,-1,3378.7606145,running,2,2022-06-30T09:23:04.341+02:00,2022-06-30T08:20:05.567+02:00,1052,1.411193,0,0,819.8695,0,0,2022-06-30T09:23:09.437+02:00
2022-06-30T09:23:11.618+02:00,3386.036274541667,0.6519317626953125,0.715576171875,1.421539306640625,3386.026322541667,2.393227250040662,1.643742749492984,-0.8761746042160076,-2.013902425765991,-0.3213463127613068,0.1543029844760895,0.096241295337677,-0.1508638858795166,1.222803831100464,XArbitraryZVertical,0.7229302171499645,0.026410682099002,-0.4603297002631367,-0.5145591025170291,0.6383928060531616,0.7682958841323853,0.04665124416351318,0,0,0,-1,-1,3378.7606145,running,2,2022-06-30T09:23:04.341+02:00,2022-06-30T08:20:05.567+02:00,1052,1.411193,0,0,819.8695,0,0,2022-06-30T09:23:09.437+02:00
2022-06-30T09:23:11.627+02:00,3386.046225541667,0.6333770751953125,0.782440185546875,1.501663208007812,3386.036274541667,2.424720323709265,1.661419407866566,-0.8740686857548581,-2.060025453567505,-0.9967737793922424,-0.06376383453607559,0.05499792098999023,-0.1510096192359924,1.299759745597839,XArbitraryZVertical,0.7266189978998933,0.03258811101833132,-0.4625003374158923,-0.5070072330893901,0.6390782594680786,0.7669461965560913,0.05807430669665337,0,0,0,-1,-1,3378.7606145,running,2,2022-06-30T09:23:04.341+02:00,2022-06-30T08:20:05.567+02:00,1052,1.411193,0,0,819.8695,0,0,2022-06-30T09:23:09.437+02:00
2022-06-30T09:23:11.637+02:00,3386.056176541667,0.61260986328125,0.8205108642578125,1.493316650390625,3386.046225541667,2.456264205589755,1.672073031233364,-0.8738148547134862,-1.963026165962219,-1.727260947227478,-0.2853509485721588,0.01331460475921631,-0.05120694637298584,1.356640458106995,XArbitraryZVertical,0.7285219211509271,0.04129566184550162,-0.4666274614433719,-0.4998091945628046,0.6386167407035828,0.7667832970619202,0.06489904224872589,0,0,0,-1,-1,3378.7606145,running,2,2022-06-30T09:23:04.341+02:00,2022-06-30T08:20:05.567+02:00,1052,1.411193,0,0,819.8695,0,0,2022-06-30T09:23:09.437+02:00
2022-06-30T09:23:11.647+02:00,3386.066128541667,0.594696044921875,0.85845947265625,1.588333129882812,3386.056176541667,2.485147511781598,1.673086972643511,-0.8760645353721578,-1.683743834495544,-2.534667015075684,-0.5426977872848511,-0.003456294536590576,0.01421493291854858,1.436293125152588,XArbitraryZVertical,0.7279749102163112,0.05232240866732513,-0.4728814421547056,-0.4936576994690365,0.6368329524993896,0.7682254314422607,0.06537020951509476,0,0,0,-1,-1,3378.7606145,running,2,2022-06-30T09:23:04.341+02:00,2022-06-30T08:20:05.567+02:00,1052,1.411193,0,0,819.8695,0,0,2022-06-30T09:23:09.437+02:00
2022-06-30T09:23:11.657+02:00,3386.076079541667,0.5276947021484375,0.8629913330078125,1.601516723632812,3386.066128541667,2.509798215843557,1.66235328750439,-0.8809342613347882,-1.370150089263916,-3.455038785934448,-0.736050546169281,-0.02115577459335327,0.04917746782302856,1.435128569602966,XArbitraryZVertical,0.7244283394803364,0.06555714000325018,-0.4816572262877511,-0.4887865569952064,0.6337653994560242,0.7713338136672974,0.05818831548094749,0,0,0,-1,-1,3378.7606145,running,2,2022-06-30T09:23:04.341+02:00,2022-06-30T08:20:05.567+02:00,1052,1.411193,0,0,819.8695,0,0,2022-06-30T09:23:09.437+02:00
2022-06-30T09:23:11.667+02:00,3386.086031541667,0.375396728515625,0.9110565185546875,1.527969360351562,3386.076079541667,2.529450493215716,1.63782446618292,-0.888349808097631,-1.008136749267578,-4.54968786239624,-0.9709972739219666,-0.03458154201507568,0.08242768049240112,1.546090722084045,XArbitraryZVertical,0.7173133558906111,0.08113463837475496,-0.4935050927046064,-0.4851096937993782,0.6292771697044373,0.776032030582428,0.04224256053566933,0,0,0,-1,-1,3378.7606145,running,2,2022-06-30T09:23:04.341+02:00,2022-06-30T08:20:05.567+02:00,1052,1.411193,0,0,819.8695,0,0,2022-06-30T09:23:09.437+02:00
2022-06-30T09:23:11.677+02:00,3386.095982541667,0.203369140625,1.013137817382812,1.300155639648438,3386.086031541667,2.544492947717301,1.598283640765028,-0.8990087289759112,-0.799580454826355,-5.753352165222168,-1.248797535896301,-0.09445673227310181,0.08028125762939453,1.584411382675171,XArbitraryZVertical,0.7061229097923644,0.09971570591819048,-0.5086627080605803,-0.4823997419275265,0.6221511363983154,0.7827103137969971,0.01710557192564011,0,0,0,-1,-1,3378.7606145,running,2,2022-06-30T09:23:04.341+02:00,2022-06-30T08:20:05.567+02:00,1052,1.411193,0,0,819.8695,0,0,2022-06-30T09:23:09.437+02:00
2022-06-30T09:23:11.687+02:00,3386.105934541667,0.0209503173828125,1.197067260742188,1.187118530273438,3386.095982541667,2.55575106912478,1.544098135545392,-0.9121982106623858,-0.5890362858772278,-6.889703750610352,-1.383621335029602,-0.2363943457603455,0.120205819606781,1.544307231903076,XArbitraryZVertical,0.6907386850152464,0.1212900428188153,-0.5271218032202908,-0.479907768146088,0.6117907762527466,0.7908509969711304,-0.01633758842945099,0,0,0,-1,-1,3378.7606145,running,2,2022-06-30T09:23:04.341+02:00,2022-06-30T08:20:05.567+02:00,1052,1.411193,0,0,819.8695,0,0,2022-06-30T09:23:09.437+02:00
2022-06-30T09:23:11.700+02:00,3386.115885541667,-0.22052001953125,1.342666625976562,0.8694305419921875,3386.105934541667,2.56277732915834,1.476161530862361,-0.9260162615640404,-0.4570522010326385,-7.864561080932617,-1.308611154556274,-0.3949645757675171,0.2139061093330383,1.356948733329773,XArbitraryZVertical,0.6712819955784256,0.1448588341642232,-0.5485817446012338,-0.4769218840509588,0.5983334183692932,0.7992319464683533,-0.05679279938340187,0,0,0,-1,-1,3378.7606145,running,2,2022-06-30T09:23:04.341+02:00,2022-06-30T08:20:05.567+02:00,1052,1.411193,0,0,819.8695,0,0,2022-06-30T09:23:09.437+02:00
2022-06-30T09:23:11.710+02:00,3386.125836541667,-0.610015869140625,1.368606567382812,0.35687255859375,3386.115885541667,2.566869760361984,1.396929463726259,-0.9383281015029014,-0.3414094746112823,-8.684787750244141,-1.067107677459717,-0.5612750053405762,0.3904966711997986,1.28938102722168,XArbitraryZVertical,0.6481798163605291,0.169504676465689,-0.5726661718896953,-0.4724242429759951,0.5822250843048096,0.8065708875656128,-0.1022621840238571,0,0,0,-1,-1,3378.7606145,running,2,2022-06-30T09:23:04.341+02:00,2022-06-30T08:20:05.567+02:00,1052,1.411193,0,0,819.8695,0,0,2022-06-30T09:23:09.437+02:00
2022-06-30T09:23:11.717+02:00,3386.135788541667,-1.01446533203125,1.220504760742188,2.485336303710938,3386.125836541667,2.56694062333642,1.309073440333876,-0.9478712684528049,-0.07204186171293259,-8.905169486999512,-0.8175941109657288,-0.7840660214424133,0.5304915308952332,1.020386219024658,XArbitraryZVertical,0.6220899705919699,0.193717210941726,-0.5982118324765469,-0.4664980851203726,0.5635457634925842,0.8121753931045532,-0.1509554237127304,0,0,0,-1,-1,3378.7606145,running,2,2022-06-30T09:23:04.341+02:00,2022-06-30T08:20:05.567+02:00,1052,1.411193,0,0,819.8695,0,0,2022-06-30T09:23:09.437+02:00
2022-06-30T09:23:11.727+02:00,3386.145739541667,-8.520828247070312,0.6967926025390625,-12.50633239746094,3386.135788541667,2.565001886134429,1.224207366290913,-0.9556858617918726,-1.288075566291809,-5.623251914978027,-0.7796339392662048,-1.152751684188843,0.5518970489501953,0.5528914928436279,XArbitraryZVertical,0.5961822971903509,0.2157715616293342,-0.6216463581818082,-0.4599620785498055,0.5427356362342834,0.8167096972465515,-0.1960186064243317,0,0,0,-1,-1,3378.7606145,running,2,2022-06-30T09:23:04.341+02:00,2022-06-30T08:20:05.567+02:00,1052,1.411193,0,0,819.8695,0,0,2022-06-30T09:23:09.437+02:00
2022-06-30T09:23:11.737+02:00,3386.155691541667,-2.697402954101562,0.7598724365234375,-10.84982299804688,3386.145739541667,2.642714664465093,1.314002547714998,-0.9791556613808887,-8.330021858215332,6.282315254211426,0.1487030535936356,-1.553901195526123,0.3904783725738525,2.62698769569397,XArbitraryZVertical,0.6142410314653641,0.2277770640349429,-0.6062856071835119,-0.4508253432719077,0.5394356250762939,0.8300267457962036,-0.1416511237621307,0,0,0,-1,-1,3378.7606145,running,2,2022-06-30T09:23:04.341+02:00,2022-06-30T08:20:05.567+02:00,1052,1.411193,0,0,819.8695,0,0,2022-06-30T09:23:09.437+02:00
2022-06-30T09:23:11.747+02:00,3386.165642541667,-0.6913299560546875,3.9031982421875,-5.652725219726562,3386.155691541667,2.733608823830055,1.444368766893143,-0.9906449593180536,-0.9698964357376099,2.919000625610352,-0.378900021314621,-9.064603805541992,-0.1395868062973022,-12.43721485137939,XArbitraryZVertical,0.6417737384107611,0.2314476737915792,-0.582843446094418,-0.441420499044556,0.543775737285614,0.8363797068595886,-0.06911688297986984,0,0,0,-1,-1,3378.7606145,running,2,2022-06-30T09:23:04.341+02:00,2022-06-30T08:20:05.567+02:00,1052,1.411193,0,0,819.8695,0,0,2022-06-30T09:23:09.437+02:00
2022-06-30T09:23:11.757+02:00,3386.175594541667,-1.881607055664062,3.154495239257812,-0.371246337890625,3386.165642541667,2.707936302627548,1.420292694857112,-0.9927581670298398,2.924822807312012,-2.097753047943115,-0.5494953393936157,-3.237608909606934,-0.0776633620262146,-10.76790046691895,XArbitraryZVertical,0.6375291975553133,0.2293366975729028,-0.5843456717555209,-0.4466559052668292,0.5402056574821472,0.8375361561775208,-0.08192240446805954,0,0,0,-1,-1,3378.7606145,running,2,2022-06-30T09:23:04.341+02:00,2022-06-30T08:20:05.567+02:00,1052,1.411193,0,0,819.8695,0,0,2022-06-30T09:23:09.437+02:00
2022-06-30T09:23:11.767+02:00,3386.185545541667,-0.3694610595703125,2.314071655273438,1.263031005859375,3386.175594541667,2.63748519456692,1.354802867318338,-0.9958271721419477,4.69173526763916,1.448333501815796,-1.291050314903259,-1.222503423690796,3.063989639282227,-5.536176681518555,XArbitraryZVertical,0.6260785102680059,0.2230508162901222,-0.5883086917074042,-0.4606160405630066,0.5311732888221741,0.8392090797424316,-0.1165480613708496,0,0,0,-1,-1,3378.7606145,running,2,2022-06-30T09:23:04.341+02:00,2022-06-30T08:20:05.567+02:00,1052,1.411193,0,0,819.8695,0,0,2022-06-30T09:23:09.437+02:00
2022-06-30T09:23:11.777+02:00,3386.195497541667,0.557464599609375,1.439117431640625,0.9183349609375,3386.185545541667,2.529268681395143,1.293848999394515,-0.9922293066787141,6.794991970062256,3.842554330825806,-0.7531368732452393,-2.407595157623291,2.317248344421387,-0.2217328548431396,XArbitraryZVertical,0.6199002510240798,0.2024032904534786,-0.5826328810679702,-0.4850727779283283,0.5259878635406494,0.8372470736503601,-0.1495131701231003,0,0,0,-1,-1,3378.7606145,running,2,2022-06-30T09:23:04.341+02:00,2022-06-30T08:20:05.567+02:00,1052,1.411193,0,0,819.8695,0,0,2022-06-30T09:23:09.437+02:00
2022-06-30T09:23:11.787+02:00,3386.205448541667,0.8072052001953125,0.201446533203125,0.605987548828125,3386.195497541667,2.405968895122809,1.223808020219003,-0.9779574563747092,6.897404193878174,2.403687477111816,-0.8367601037025452,-0.8948801159858704,1.484714031219482,1.453032732009888,XArbitraryZVertical,0.6114490876773861,0.1764348638061963,-0.5772781302622878,-0.5116157109784102,0.5254186987876892,0.829357922077179,-0.1900015026330948,0,0,0,-1,-1,3378.7606145,running,2,2022-06-30T09:23:04.341+02:00,2022-06-30T08:20:05.567+02:00,1052,1.411193,0,0,819.8695,0,0,2022-06-30T09:23:09.437+02:00
2022-06-30T09:23:11.797+02:00,3386.215399541667,1.029403686523438,-0.3016510009765625,0.4111480712890625,3386.205448541667,2.290854900986542,1.141747460643557,-0.9660308052898564,6.107707500457764,0.2264223545789719,-1.840440154075623,0.04042911529541016,0.6164821982383728,1.154863476753235,XArbitraryZVertical,0.5971710695437373,0.1585010752794494,-0.5751974906358643,-0.5361081845924823,0.5170351266860962,0.8226354122161865,-0.2365282475948334,0,0,0,-1,-1,3378.7606145,running,2,2022-06-30T09:23:04.341+02:00,2022-06-30T08:20:05.567+02:00,1052,1.411193,0,0,819.8695,0,0,2022-06-30T09:23:09.437+02:00
2022-06-30T09:23:11.807+02:00,3386.225351541667,0.491241455078125,0.609954833984375,0.4390411376953125,3386.215399541667,2.18951166390672,1.055649193662348,-0.9579198299569613,4.665826797485352,-0.8225446343421936,-1.775209188461304,0.306634247303009,-0.6165499687194824,0.8893787860870361,XArbitraryZVertical,0.5797354554003117,0.1490345640359148,-0.5750811803343204,-0.5576533448896278,0.5005706548690796,0.8179967999458313,-0.283390998840332,0,0,0,-1,-1,3378.7606145,running,2,2022-06-30T09:23:04.341+02:00,2022-06-30T08:20:05.567+02:00,1052,1.411193,0,0,819.8695,0,0,2022-06-30T09:23:09.437+02:00
2022-06-30T09:23:11.817+02:00,3386.235302541667,-0.2217559814453125,0.88641357421875,-0.2411041259765625,3386.225351541667,2.128503606703338,0.9956634388775243,-0.9542239746387535,1.948032855987549,-1.022913575172424,-1.330831170082092,0.5441887378692627,-1.117515921592712,0.7256810069084167,XArbitraryZVertical,0.5666764080862348,0.1470084158698754,-0.5761015798147899,-0.5704152186017772,0.4852146804332733,0.8158652782440186,-0.3145327568054199,0,0,0,-1,-1,3378.7606145,running,2,2022-06-30T09:23:04.341+02:00,2022-06-30T08:20:05.567+02:00,1052,1.411193,0,0,819.8695,0,0,2022-06-30T09:23:09.437+02:00
2022-06-30T09:23:11.827+02:00,3386.245254541667,-0.2548370361328125,1.296157836914062,-0.6802825927734375,3386.235302541667,2.091379784666755,0.9591321148068648,-0.9558107808629158,1.697263240814209,-0.2037800252437592,-1.334336161613464,0.01889851689338684,-0.2068266272544861,0.7703419923782349,XArbitraryZVertical,0.5590531594591639,0.1476795740296123,-0.5752758934716921,-0.5785396052892445,0.4723426401615143,0.816781759262085,-0.3313006162643433,0,0,0,-1,-1,3378.7606145,running,2,2022-06-30T09:23:04.341+02:00,2022-06-30T08:20:05.567+02:00,1052,1.411193,0,0,819.8695,0,0,2022-06-30T09:23:09.437+02:00
2022-06-30T09:23:11.836+02:00,3386.255205666667,-0.0995941162109375,1.561416625976562,-0.623291015625,3386.245254541667,2.04878974331118,0.9248341344056249,-0.9536518573843887,2.586249113082886,0.2379460781812668,-1.22518265247345,-0.683867335319519,0.07087957859039307,0.1072596907615662,XArbitraryZVertical,0.552080098008003,0.1450025843120296,-0.5729835490808854,-0.5881086018610657,0.4621110856533051,0.8155342936515808,-0.3483636379241943,0,0,0,-1,-1,3378.7606145,running,2,2022-06-30T09:23:04.341+02:00,2022-06-30T08:20:05.567+02:00,1052,1.411193,0,0,819.8695,0,0,2022-06-30T09:23:09.437+02:00
2022-06-30T09:23:11.846+02:00,3386.265157666667,0.0591583251953125,1.303207397460938,-0.297027587890625,3386.255205666667,1.994302299743919,0.8828272373764698,-0.9452269927365301,3.479527235031128,0.2006152272224426,-1.435212016105652,-0.7072033882141113,0.485528290271759,-0.3084703087806702,XArbitraryZVertical,0.542862255058574,0.1392641988402128,-0.5706321176497396,-0.6002375527293574,0.4523660838603973,0.8106298446655273,-0.371812105178833,0,0,0,-1,-1,3378.7606145,running,2,2022-06-30T09:23:04.341+02:00,2022-06-30T08:20:05.567+02:00,1052,1.411193,0,0,819.8695,0,0,2022-06-30T09:23:09.437+02:00
2022-06-30T09:23:11.856+02:00,3386.275108666667,0.21124267578125,1.101760864257812,-0.00933837890625,3386.265157666667,1.92717758355203,0.8300986158815895,-0.9319118516437053,4.244772911071777,0.079069584608078,-1.757248878479004,-0.539662778377533,0.7586554288864136,-0.220905601978302,XArbitraryZVertical,0.5304331263568652,0.1320912301923651,-0.5680324410627409,-0.6152493167828098,0.4400683641433716,0.802761435508728,-0.4023852050304413,0,0,0,-1,-1,3378.7606145,running,2,2022-06-30T09:23:04.341+02:00,2022-06-30T08:20:05.567+02:00,1052,1.411193,0,0,819.8695,0,0,2022-06-30T09:23:09.437+02:00
2022-06-30T09:23:11.866+02:00,3386.285060666667,0.2186279296875,0.8778076171875,0.118682861328125,3386.275108666667,1.853517493144111,0.7709084044169463,-0.9147649480843516,4.495963096618652,-0.1434223502874374,-1.985177397727966,-0.36586594581604,0.5107884407043457,0.1404955983161926,XArbitraryZVertical,0.5154537888873919,0.1246832369852592,-0.5651459551249149,-0.631958472782801,0.425024002790451,0.7924192547798157,-0.4375229775905609,0,0,0,-1,-1,3378.7606145,running,2,2022-06-30T09:23:04.341+02:00,2022-06-30T08:20:05.567+02:00,1052,1.411193,0,0,819.8695,0,0,2022-06-30T09:23:09.437+02:00
2022-06-30T09:23:11.877+02:00,3386.295011666667,0.1768951416015625,0.6403656005859375,0.013916015625,3386.285060666667,1.778839332776923,0.7104046365837589,-0.8967289494440485,4.370681762695312,-0.1659188717603683,-2.456256151199341,-0.1958035528659821,0.3204717040061951,0.4638430178165436,XArbitraryZVertical,0.4994197286515492,0.118276439927439,-0.5612838593213638,-0.6492695966655634,0.4070458710193634,0.7812893986701965,-0.4731812477111816,0,0,0,-1,-1,3378.7606145,running,2,2022-06-30T09:23:04.341+02:00,2022-06-30T08:20:05.567+02:00,1052,1.411193,0,0,819.8695,0,0,2022-06-30T09:23:09.437+02:00
2022-06-30T09:23:11.886+02:00,3386.304962666667,0.1532745361328125,0.4769134521484375,-0.2201080322265625,3386.295011666667,1.704585186239674,0.6517107441634261,-0.8825942168365155,3.69480562210083,-0.01639222726225853,-3.040928840637207,-0.1666207909584045,0.1054186820983887,0.6236570477485657,XArbitraryZVertical,0.484252332986234,0.1140731837262593,-0.5548522439762915,-0.6668028461858759,0.3852483332157135,0.7723891735076904,-0.5049739480018616,0,0,0,-1,-1,3378.7606145,running,2,2022-06-30T09:23:04.341+02:00,2022-06-30T08:20:05.567+02:00,1052,1.411193,0,0,819.8695,0,0,2022-06-30T09:23:09.437+02:00
2022-06-30T09:23:11.896+02:00,3386.314914666667,0.0150909423828125,0.4953460693359375,-0.462646484375,3386.304962666667,1.633952110325856,0.59841264157597,-0.8748251816927581,2.870776176452637,0.2422848790884018,-3.363966941833496,-0.1842746436595917,-0.1270655393600464,0.5436384677886963,XArbitraryZVertical,0.4717127996730639,0.1123649808704822,-0.5456364620846768,-0.6834779252549766,0.3611694276332855,0.7674314379692078,-0.529722273349762,0,0,0,-1,-1,3378.7606145,running,2,2022-06-30T09:23:04.341+02:00,2022-06-30T08:20:05.567+02:00,1052,1.411193,0,0,819.8695,0,0,2022-06-30T09:23:09.437+02:00
2022-06-30T09:23:11.906+02:00,3386.324865666667,-0.1474609375,0.6500701904296875,-0.6546478271484375,3386.314914666667,1.56712840247921,0.5509832322526359,-0.8723632549753262,2.286598443984985,0.523152232170105,-3.610824108123779,-0.1833621859550476,-0.288936972618103,0.3277503848075867,XArbitraryZVertical,0.4620194035513545,0.1122894865922621,-0.5341898555782528,-0.6989780911357445,0.3366363644599915,0.7658506631851196,-0.5478582978248596,0,0,0,-1,-1,3378.7606145,running,2,2022-06-30T09:23:04.341+02:00,2022-06-30T08:20:05.567+02:00,1052,1.411193,0,0,819.8695,0,0,2022-06-30T09:23:09.437+02:00
2022-06-30T09:23:11.916+02:00,3386.334817666667,-0.2376708984375,0.7959442138671875,-0.7256317138671875,3386.324865666667,1.49993504355249,0.5059176459377174,-0.8723398278581396,2.13349986076355,0.7532896399497986,-3.889721393585205,-0.2965314984321594,-0.2704893350601196,0.09983700513839722,XArbitraryZVertical,0.4539056805651362,0.1128182313507566,-0.520773942429276,-0.7141682336434796,0.3116221129894257,0.7658356428146362,-0.5624833703041077,0,0,0,-1,-1,3378.7606145,running,2,2022-06-30T09:23:04.341+02:00,2022-06-30T08:20:05.567+02:00,1052,1.411193,0,0,819.8695,0,0,2022-06-30T09:23:09.437+02:00
2022-06-30T09:23:11.926+02:00,3386.344768666667,-0.345001220703125,0.9597015380859375,-0.7751922607421875,3386.334817666667,1.428806477616801,0.4598197492513655,-0.8717810488161998,2.259029865264893,0.9363308548927307,-4.211005687713623,-0.4330221116542816,-0.1154056787490845,-0.07801848649978638,XArbitraryZVertical,0.4459304712009357,0.113275622706095,-0.5055854555384057,-0.729861737562436,0.2855608463287354,0.7654761672019958,-0.5766292810440063,0,0,0,-1,-1,3378.7606145,running,2,2022-06-30T09:23:04.341+02:00,2022-06-30T08:20:05.567+02:00,1052,1.411193,0,0,819.8695,0,0,2022-06-30T09:23:09.437+02:00
2022-06-30T09:23:11.936+02:00,3386.354720666667,-0.4481658935546875,1.0489501953125,-0.718658447265625,3386.344768666667,1.35161201997054,0.4111431893566064,-0.8685640953113498,2.560323715209961,1.150522470474243,-4.588290691375732,-0.4958194494247437,0.03254222869873047,-0.1335364580154419,XArbitraryZVertical,0.4371993290521259,0.1131776419603428,-0.4885018230620213,-0.746601410032407,0.2581481635570526,0.7634022235870361,-0.5920951366424561,0,0,0,-1,-1,3378.7606145,running,2,2022-06-30T09:23:04.341+02:00,2022-06-30T08:20:05.567+02:00,1052,1.411193,0,0,819.8695,0,0,2022-06-30T09:23:09.437+02:00
2022-06-30T09:23:11.946+02:00,3386.364671666667,-0.4864959716796875,0.9243316650390625,-0.6335601806640625,3386.354720666667,1.267859318201016,0.3596006699149938,-0.861631208381972,2.793671846389771,1.29547381401062,-5.010255813598633,-0.5741593241691589,0.2007958889007568,-0.1656442284584045,XArbitraryZVertical,0.4272951630095269,0.1124494453698457,-0.4693444860594889,-0.7645192573089974,0.2291577309370041,0.758905827999115,-0.6095479130744934,0,0,0,-1,-1,3378.7606145,running,2,2022-06-30T09:23:04.341+02:00,2022-06-30T08:20:05.567+02:00,1052,1.411193,0,0,819.8695,0,0,2022-06-30T09:23:09.437+02:00
2022-06-30T09:23:11.956+02:00,3386.374623666667,-0.5262451171875,0.7910614013671875,-0.5909271240234375,3386.364671666667,1.179587373250182,0.3061733615205361,-0.8530898736560512,2.554354429244995,1.391712188720703,-5.377722263336182,-0.6463925838470459,0.2956343293190002,-0.09158480167388916,XArbitraryZVertical,0.4170235071501228,0.1120474571509481,-0.4480030159398988,-0.7828346261283176,0.1982263177633286,0.7533161044120789,-0.6270735263824463,0,0,0,-1,-1,3378.7606145,running,2,2022-06-30T09:23:04.341+02:00,2022-06-30T08:20:05.567+02:00,1052,1.411193,0,0,819.8695,0,0,2022-06-30T09:23:09.437+02:00
2022-06-30T09:23:11.966+02:00,3386.384574666667,-0.595062255859375,0.8113861083984375,-0.5079803466796875,3386.374623666667,1.090912400557821,0.2544754921645239,-0.8465031434308,1.937247633934021,1.630863547325134,-5.535669803619385,-0.6532994508743286,0.1753638386726379,0.00770723819732666,XArbitraryZVertical,0.4083131872188532,0.1124575585479609,-0.4246476009369951,-0.8001924817567293,0.1668030470609665,0.7489679455757141,-0.6412672996520996,0,0,0,-1,-1,3378.7606145,running,2,2022-06-30T09:23:04.341+02:00,2022-06-30T08:20:05.567+02:00,1052,1.411193,0,0,819.8695,0,0,2022-06-30T09:23:09.437+02:00
2022-06-30T09:23:11.976+02:00,3386.394525666667,-0.630767822265625,0.855926513671875,-0.443115234375,3386.384574666667,1.004428806652994,0.2076979634886365,-0.8440961558529684,1.14599883556366,1.964815139770508,-5.5793137550354,-0.663251519203186,0.04369062185287476,0.05920076370239258,XArbitraryZVertical,0.402634873003235,0.1132310911291961,-0.3995430013916176,-0.8157384781393809,0.1370059698820114,0.7473708987236023,-0.6501277685165405,0,0,0,-1,-1,3378.7606145,running,2,2022-06-30T09:23:04.341+02:00,2022-06-30T08:20:05.567+02:00,1052,1.411193,0,0,819.8695,0,0,2022-06-30T09:23:09.437+02:00
2022-06-30T09:23:11.986+02:00,3386.404477666667,-0.62213134765625,0.9555816650390625,-0.4429168701171875,3386.394525666667,0.9198485745114617,0.1655583049745638,-0.8476402629083468,0.2420704513788223,2.282203435897827,-5.622695922851562,-0.7041217684745789,0.06166529655456543,0.1447253823280334,XArbitraryZVertical,0.4007044177249526,0.1143815054813189,-0.3727520481035316,-0.8291012251420632,0.1090590953826904,0.7497209310531616,-0.6527056694030762,0,0,0,-1,-1,3378.7606145,running,2,2022-06-30T09:23:04.341+02:00,2022-06-30T08:20:05.567+02:00,1052,1.411193,0,0,819.8695,0,0,2022-06-30T09:23:09.437+02:00
2022-06-30T09:23:11.996+02:00,3386.414428666667,-0.6353912353515625,1.117996215820312,-0.48431396484375,3386.404477666667,0.8365584072175781,0.1271076863361461,-0.8579998488927381,-0.7158873081207275,2.593936204910278,-5.560278415679932,-0.7136669158935547,0.09939050674438477,0.2055611610412598,XArbitraryZVertical,0.4027935820133972,0.1158410633151519,-0.3444943193314065,-0.8400368427296535,0.08289867639541626,0.756536066532135,-0.648676335811615,0,0,0,-1,-1,3386.403970666667,unknown,2,2022-06-30T09:23:11.984+02:00,2022-06-30T08:20:05.567+02:00,1052,1.411193,0,0,819.8695,0,0,2022-06-30T09:23:11.984+02:00
2022-06-30T09:23:12.005+02:00,3386.424380666667,-0.6419219970703125,1.2603759765625,-0.579193115234375,3386.414428666667,0.7543110867619561,0.09203568141764649,-0.8757336168430502,-1.633395552635193,2.966676473617554,-5.469425678253174,-0.6809913516044617,0.187568187713623,0.1948063373565674,XArbitraryZVertical,0.4091331788698654,0.117253842007951,-0.3150461970677042,-0.8482968670822943,0.05885957181453705,0.7680135369300842,-0.6377231478691101,0,0,0,-1,-1,3386.403970666667,unknown,2,2022-06-30T09:23:11.984+02:00,2022-06-30T08:20:05.567+02:00,1052,1.411193,0,0,819.8695,0,0,2022-06-30T09:23:11.984+02:00
2022-06-30T09:23:12.015+02:00,3386.434331666667,-0.6028594970703125,1.430465698242188,-0.6476593017578125,3386.424380666667,0.6712998613511855,0.05944036570851226,-0.8992888997024455,-2.248870849609375,3.420215845108032,-5.381764888763428,-0.6723517179489136,0.3351115584373474,0.1367540955543518,XArbitraryZVertical,0.4190243538301565,0.1178328550456494,-0.2843167201448772,-0.8542235985736716,0.03696005046367645,0.7828846573829651,-0.621068000793457,0,0,0,-1,-1,3386.403970666667,unknown,2,2022-06-30T09:23:11.984+02:00,2022-06-30T08:20:05.567+02:00,1052,1.411193,0,0,819.8695,0,0,2022-06-30T09:23:11.984+02:00
2022-06-30T09:23:12.025+02:00,3386.444283666667,-0.5359649658203125,1.618377685546875,-0.6598052978515625,3386.434331666667,0.5868665454775234,0.02891100320408223,-0.9252324454112031,-2.44788384437561,3.861078023910522,-5.203558921813965,-0.6593142747879028,0.4616153240203857,0.02220445871353149,XArbitraryZVertical,0.4309116638197291,0.1166891741026432,-0.2526353530952911,-0.8584137725007436,0.01739185303449631,0.7987606525421143,-0.6013975739479065,0,0,0,-1,-1,3386.403970666667,unknown,2,2022-06-30T09:23:11.984+02:00,2022-06-30T08:20:05.567+02:00,1052,1.411193,0,0,819.8695,0,0,2022-06-30T09:23:11.984+02:00
2022-06-30T09:23:12.036+02:00,3386.454234666667,-0.5012664794921875,1.738174438476562,-0.6922454833984375,3386.444283666667,0.5020766746997516,0.001010490717548507,-0.9493533253362159,-2.194636344909668,4.263125896453857,-4.953578472137451,-0.6034482717514038,0.6174265742301941,-0.06545042991638184,XArbitraryZVertical,0.4428361293589143,0.1131005811000872,-0.2207220745907217,-0.8616184798742893,0.0005883168196305633,0.8130391836166382,-0.5822088718414307,0,0,0,-1,-1,3386.403970666667,unknown,2,2022-06-30T09:23:11.984+02:00,2022-06-30T08:20:05.567+02:00,1052,1.411193,0,0,819.8695,0,0,2022-06-30T09:23:11.984+02:00
2022-06-30T09:23:12.045+02:00,3386.464185666667,-0.453277587890625,1.811996459960938,-0.712615966796875,3386.454234666667,0.41749933107357,-0.0237684465654681,-0.967173895708066,-1.443452119827271,4.664454936981201,-4.78814697265625,-0.522475004196167,0.7950928211212158,-0.09233713150024414,XArbitraryZVertical,0.4526514336390097,0.1066424381448715,-0.1888662323871494,-0.8649066994062191,-0.01349037699401379,0.8232848048210144,-0.5674681663513184,0,0,0,-1,-1,3386.403970666667,unknown,2,2022-06-30T09:23:11.984+02:00,2022-06-30T08:20:05.567+02:00,1052,1.411193,0,0,819.8695,0,0,2022-06-30T09:23:11.984+02:00
2022-06-30T09:23:12.056+02:00,3386.474137666667,-0.3676605224609375,1.914138793945312,-0.657958984375,3386.464185666667,0.3332252791277832,-0.04531571249484388,-0.9748660777985952,-0.4427686035633087,4.973639488220215,-4.703325748443604,-0.4758408665657043,0.91054767370224,-0.1315427422523499,XArbitraryZVertical,0.4584353346658286,0.0973942655082341,-0.1569550094817316,-0.8693196530458247,-0.02542605437338352,0.8276267051696777,-0.5607028007507324,0,0,0,-1,-1,3386.403970666667,unknown,2,2022-06-30T09:23:11.984+02:00,2022-06-30T08:20:05.567+02:00,1052,1.411193,0,0,819.8695,0,0,2022-06-30T09:23:11.984+02:00
2022-06-30T09:23:12.077+02:00,3386.484088666667,-0.3520660400390625,1.95135498046875,-0.593536376953125,3386.474137666667,0.2516488038553,-0.0622625468215448,-0.9721468618177284,0.4843049347400665,5.163280010223389,-4.509149074554443,-0.4182140231132507,0.9858989715576172,-0.1501806974411011,XArbitraryZVertical,0.4597863904109543,0.08589991415772831,-0.1253295006062221,-0.8749343842302821,-0.0350639782845974,0.8260974287986755,-0.5624353885650635,0,0,0,-1,-1,3386.403970666667,unknown,2,2022-06-30T09:23:11.984+02:00,2022-06-30T08:20:05.567+02:00,1052,1.411193,0,0,819.8695,0,0,2022-06-30T09:23:11.984+02:00
2022-06-30T09:23:12.082+02:00,3386.494040666667,-0.418121337890625,1.977142333984375,-0.4720916748046875,3386.484088666667,0.1758041638493719,-0.07304784909678243,-0.9599349170044663,1.356027960777283,5.202529907226562,-4.312036991119385,-0.3257998824119568,1.094984531402588,-0.08591532707214355,XArbitraryZVertical,0.4568172859858223,0.07277435116377995,-0.09461379746201617,-0.8815158154386096,-0.04186104610562325,0.8191542625427246,-0.5720437169075012,0,0,0,-1,-1,3386.403970666667,unknown,2,2022-06-30T09:23:11.984+02:00,2022-06-30T08:20:05.567+02:00,1052,1.411193,0,0,819.8695,0,0,2022-06-30T09:23:11.984+02:00
2022-06-30T09:23:12.085+02:00,3386.503991666667,-0.4680938720703125,1.911209106445312,-0.41131591796875,3386.494040666667,0.1052113913116435,-0.07876343751884408,-0.9408685879846106,1.753028869628906,5.201207637786865,-4.201243877410889,-0.3057159185409546,1.143284797668457,-0.006276369094848633,XArbitraryZVertical,0.4504500711657258,0.05886139958127602,-0.06465463011437587,-0.8885099655953049,-0.04635051637887955,0.8080700635910034,-0.5872601270675659,0,0,0,-1,-1,3386.403970666667,unknown,2,2022-06-30T09:23:11.984+02:00,2022-06-30T08:20:05.567+02:00,1052,1.411193,0,0,819.8695,0,0,2022-06-30T09:23:11.984+02:00
2022-06-30T09:23:12.095+02:00,3386.513943666667,-0.42767333984375,1.794174194335938,-0.3121337890625,3386.503991666667,0.03923731328699686,-0.07960920903731254,-0.9205538751606815,1.635020971298218,5.26924467086792,-3.997698545455933,-0.3699788451194763,1.181205272674561,0.1313703060150146,XArbitraryZVertical,0.4430595635421798,0.04435291438166904,-0.03523486919517776,-0.8947008186751396,-0.04814288765192032,0.7959370613098145,-0.6034621000289917,0,0,0,-1,-1,3386.403970666667,unknown,2,2022-06-30T09:23:11.984+02:00,2022-06-30T08:20:05.567+02:00,1052,1.411193,0,0,819.8695,0,0,2022-06-30T09:23:11.984+02:00
2022-06-30T09:23:12.105+02:00,3386.523894666667,-0.350616455078125,1.714202880859375,-0.1880645751953125,3386.513943666667,-0.02098268689906953,-0.0744999113097032,-0.9036585069460176,1.142365455627441,5.305282592773438,-3.635780572891235,-0.4220407903194427,1.125613212585449,0.2057077288627625,XArbitraryZVertical,0.4366365258672087,0.02892494096912406,-0.006827301128403337,-0.8991470268500548,-0.0460534505546093,0.7855958342552185,-0.617023766040802,0,0,0,-1,-1,3386.403970666667,unknown,2,2022-06-30T09:23:11.984+02:00,2022-06-30T08:20:05.567+02:00,1052,1.411193,0,0,819.8695,0,0,2022-06-30T09:23:11.984+02:00
2022-06-30T09:23:12.115+02:00,3386.533846666667,-0.3339080810546875,1.726058959960938,-0.174102783203125,3386.523894666667,-0.07474584182155246,-0.06418816612861736,-0.8928203535796345,0.5458832383155823,5.213335990905762,-3.251967668533325,-0.3874413669109344,1.01533031463623,0.3137924075126648,XArbitraryZVertical,0.4322880477451077,0.01280081440797892,0.01984134029462794,-0.9014264837587125,-0.0402323342859745,0.7788438200950623,-0.6259263753890991,0,0,0,-1,-1,3386.403970666667,unknown,2,2022-06-30T09:23:11.984+02:00,2022-06-30T08:20:05.567+02:00,1052,1.411193,0,0,819.8695,0,0,2022-06-30T09:23:11.984+02:00
2022-06-30T09:23:12.125+02:00,3386.543797666667,-0.338409423828125,1.799957275390625,-0.325714111328125,3386.533846666667,-0.1235105630563003,-0.05035992603273499,-0.8882633237467852,0.05576097220182419,5.192747592926025,-2.960326910018921,-0.3188651502132416,0.938225269317627,0.4418962001800537,XArbitraryZVertical,0.4301220040531668,-0.003817997566722598,0.04491352366343315,-0.9016447944512748,-0.03175163269042969,0.7759774923324585,-0.6299609541893005,0,0,0,-1,-1,3386.403970666667,unknown,2,2022-06-30T09:23:11.984+02:00,2022-06-30T08:20:05.567+02:00,1052,1.411193,0,0,819.8695,0,0,2022-06-30T09:23:11.984+02:00
2022-06-30T09:23:12.135+02:00,3386.553748666667,-0.376800537109375,1.90338134765625,-0.501708984375,3386.543797666667,-0.1678735625133023,-0.03299490905663013,-0.8863862286134846,0.2149029672145844,5.206821918487549,-2.684981107711792,-0.3130522668361664,0.9512666463851929,0.4577690362930298,XArbitraryZVertical,0.4285078034557396,-0.02109670914911604,0.06867876493348474,-0.9006771046005786,-0.02085612714290619,0.7747921347618103,-0.6318719983100891,0,0,0,-1,-1,3386.403970666667,unknown,2,2022-06-30T09:23:11.984+02:00,2022-06-30T08:20:05.567+02:00,1052,1.411193,0,0,819.8695,0,0,2022-06-30T09:23:11.984+02:00
2022-06-30T09:23:12.145+02:00,3386.563700666667,-0.4016876220703125,2.047744750976562,-0.6129608154296875,3386.553748666667,-0.2084262111956449,-0.01268268550603025,-0.8788017748566287,1.253362059593201,5.160305500030518,-2.541890621185303,-0.3303174376487732,1.029982328414917,0.3123086094856262,XArbitraryZVertical,0.4236778855574975,-0.03854309204367597,0.09145809849820191,-0.9003593832233444,-0.008092278614640236,0.7699748873710632,-0.6380229592323303,0,0,0,-1,-1,3386.403970666667,unknown,2,2022-06-30T09:23:11.984+02:00,2022-06-30T08:20:05.567+02:00,1052,1.411193,0,0,819.8695,0,0,2022-06-30T09:23:11.984+02:00
2022-06-30T09:23:12.155+02:00,3386.573651666667,-0.3656158447265625,1.995819091796875,-0.70501708984375,3386.563700666667,-0.2468365321959863,0.008462291722632964,-0.8590541080756031,2.751423358917236,4.954296588897705,-2.426633358001709,-0.3823279440402985,1.146156072616577,0.1514214873313904,XArbitraryZVertical,0.4127959520545395,-0.05508308058725947,0.1136702541115224,-0.902022499721833,0.005527114495635033,0.7572250962257385,-0.6531307101249695,0,0,0,-1,-1,3386.403970666667,unknown,2,2022-06-30T09:23:11.984+02:00,2022-06-30T08:20:05.567+02:00,1052,1.411193,0,0,819.8695,0,0,2022-06-30T09:23:11.984+02:00
2022-06-30T09:23:12.165+02:00,3386.583603666667,-0.337005615234375,1.793380737304688,-0.668212890625,3386.573651666667,-0.2827155341432105,0.02907783314210664,-0.8239581098149802,4.356442451477051,4.549646377563477,-2.233507871627808,-0.4214383363723755,1.313904047012329,0.0660737156867981,XArbitraryZVertical,0.394510818789494,-0.06959780948297119,0.1348492516482136,-0.9062742296740753,0.01975042559206486,0.7338404059410095,-0.6790347099304199,0,0,0,-1,-1,3386.403970666667,unknown,2,2022-06-30T09:23:11.984+02:00,2022-06-30T08:20:05.567+02:00,1052,1.411193,0,0,819.8695,0,0,2022-06-30T09:23:11.984+02:00
2022-06-30T09:23:12.175+02:00,3386.593554666667,-0.306060791015625,1.577316284179688,-0.603973388671875,3386.583603666667,-0.3162349081619181,0.04784664520784205,-0.775525519843646,5.468702793121338,4.061791896820068,-2.08198618888855,-0.3997681140899658,1.295727491378784,0.008218765258789062,XArbitraryZVertical,0.3698075527674529,-0.08139005960280941,0.1546596438616914,-0.9125231499788522,0.03415201976895332,0.7000914216041565,-0.7132360935211182,0,0,0,-1,-1,3386.403970666667,unknown,2,2022-06-30T09:23:11.984+02:00,2022-06-30T08:20:05.567+02:00,1052,1.411193,0,0,819.8695,0,0,2022-06-30T09:23:11.984+02:00
2022-06-30T09:23:12.185+02:00,3386.603506666667,-0.2196197509765625,1.524459838867188,-0.6181182861328125,3386.593554666667,-0.3481214269277256,0.06436278031501787,-0.7195962333898508,5.948586940765381,3.616108655929565,-1.973281145095825,-0.3853778839111328,1.134299516677856,0.08230161666870117,XArbitraryZVertical,0.3413700772439875,-0.09060413637451575,0.173167363535004,-0.9193859497075186,0.04837202653288841,0.6590810418128967,-0.7505147457122803,0,0,0,-1,-1,3386.403970666667,unknown,2,2022-06-30T09:23:11.984+02:00,2022-06-30T08:20:05.567+02:00,1052,1.411193,0,0,819.8695,0,0,2022-06-30T09:23:11.984+02:00
2022-06-30T09:23:12.195+02:00,3386.613457666667,-0.2038421630859375,1.687362670898438,-0.6429595947265625,3386.603506666667,-0.3781804735367103,0.07915047537548758,-0.6607523436939222,6.199635982513428,3.208588123321533,-1.819653630256653,-0.3684875071048737,0.9636049866676331,0.1830853223800659,XArbitraryZVertical,0.3113325215661242,-0.09768617979076206,0.1902671286942143,-0.9259201115393739,0.06242650747299194,0.6137109994888306,-0.78705894947052,0,0,0,-1,-1,3386.403970666667,unknown,2,2022-06-30T09:23:11.984+02:00,2022-06-30T08:20:05.567+02:00,1052,1.411193,0,0,819.8695,0,0,2022-06-30T09:23:11.984+02:00
2022-06-30T09:23:12.205+02:00,3386.623408666667,-0.1620941162109375,1.82196044921875,-0.658935546875,3386.613457666667,-0.4068511874117418,0.09252284133470096,-0.5991544881824067,6.537598133087158,2.865702629089355,-1.773432612419128,-0.2959175407886505,0.9605151414871216,0.2041621208190918,XArbitraryZVertical,0.2797952998652609,-0.1028313530884617,0.2061872126433042,-0.9320017540563881,0.0762975737452507,0.5639444589614868,-0.8222805857658386,0,0,0,-1,-1,3386.403970666667,unknown,2,2022-06-30T09:23:11.984+02:00,2022-06-30T08:20:05.567+02:00,1052,1.411193,0,0,819.8695,0,0,2022-06-30T09:23:11.984+02:00
2022-06-30T09:23:12.214+02:00,3386.633360666667,-0.03753662109375,1.759719848632812,-0.6469268798828125,3386.623408666667,-0.4351005645759871,0.1035902782511027,-0.5336228555452655,7.057032585144043,2.381774187088013,-1.685860157012939,-0.2928710579872131,1.178706526756287,0.2133947610855103,XArbitraryZVertical,0.2463181574807245,-0.1055939330776465,0.2212502592910962,-0.9376703624811019,0.08902869373559952,0.508655846118927,-0.8563545942306519,0,0,0,-1,-1,3386.403970666667,unknown,2,2022-06-30T09:23:11.984+02:00,2022-06-30T08:20:05.567+02:00,1052,1.411193,0,0,819.8695,0,0,2022-06-30T09:23:11.984+02:00
2022-06-30T09:23:12.224+02:00,3386.643311666667,0.03985595703125,1.743972778320312,-0.6563568115234375,3386.633360666667,-0.4624740174251414,0.1117288535609869,-0.4625627184963585,7.674007892608643,1.905012130737305,-1.592578172683716,-0.2618739008903503,1.375717163085938,0.2303962111473083,XArbitraryZVertical,0.2103200115930779,-0.1053543304297106,0.2351896550851044,-0.9430545307263497,0.09977957606315613,0.4462429881095886,-0.8893319368362427,0,0,0,-1,-1,3386.403970666667,unknown,2,2022-06-30T09:23:11.984+02:00,2022-06-30T08:20:05.567+02:00,1052,1.411193,0,0,819.8695,0,0,2022-06-30T09:23:11.984+02:00
2022-06-30T09:23:12.234+02:00,3386.653263666667,0.1482391357421875,1.692276000976562,-0.69342041015625,3386.643311666667,-0.4894118326301002,0.1177107120125571,-0.3859479010079896,8.132251739501953,1.52653980255127,-1.537668466567993,-0.1463373005390167,1.383281946182251,0.2731041312217712,XArbitraryZVertical,0.1717567713230603,-0.1023916246564465,0.2483069358161256,-0.9478181774438527,0.1088004931807518,0.3764374852180481,-0.9200311303138733,0,0,0,-1,-1,3386.403970666667,unknown,2,2022-06-30T09:23:11.984+02:00,2022-06-30T08:20:05.567+02:00,1052,1.411193,0,0,819.8695,0,0,2022-06-30T09:23:11.984+02:00
2022-06-30T09:23:12.244+02:00,3386.663214666667,0.211395263671875,1.58154296875,-0.7556304931640625,3386.653263666667,-0.515298456936448,0.1220383084606587,-0.3061484136818262,8.362332344055176,1.120893478393555,-1.384742736816406,-0.07621929049491882,1.442584037780762,0.2900528907775879,XArbitraryZVertical,0.1318128498103658,-0.09705898096611099,0.2603512723044707,-0.9515367046249925,0.1160750761628151,0.3013883829116821,-0.9464098811149597,0,0,0,-1,-1,3386.403970666667,unknown,2,2022-06-30T09:23:11.984+02:00,2022-06-30T08:20:05.567+02:00,1052,1.411193,0,0,819.8695,0,0,2022-06-30T09:23:11.984+02:00
2022-06-30T09:23:12.254+02:00,3386.673166666667,0.182891845703125,1.552413940429688,-0.842559814453125,3386.663214666667,-0.5389715226938263,0.1257527892775125,-0.224506604708211,8.505825996398926,0.9186188578605652,-1.141156554222107,0.02596492320299149,1.469650268554688,0.2737852931022644,XArbitraryZVertical,0.09113775875609238,-0.08995012707390281,0.270821971897568,-0.9540745623568219,0.1222740411758423,0.2226253747940063,-0.9672057628631592,0,0,0,-1,-1,3386.403970666667,unknown,2,2022-06-30T09:23:11.984+02:00,2022-06-30T08:20:05.567+02:00,1052,1.411193,0,0,819.8695,0,0,2022-06-30T09:23:11.984+02:00
2022-06-30T09:23:12.264+02:00,3386.683117666667,0.2747955322265625,1.469833374023438,-0.925689697265625,3386.673166666667,-0.5605398898361529,0.1306507943078381,-0.1411630745344698,8.618620872497559,0.8503820300102234,-0.9447196125984192,0.08241157233715057,1.440847873687744,0.2259845733642578,XArbitraryZVertical,0.04961446658470112,-0.0820417180592201,0.2797618291955688,-0.9552700986863674,0.1289835274219513,0.1406947076320648,-0.9816151261329651,0,0,0,-1,-1,3386.403970666667,unknown,2,2022-06-30T09:23:11.984+02:00,2022-06-30T08:20:05.567+02:00,1052,1.411193,0,0,819.8695,0,0,2022-06-30T09:23:11.984+02:00
2022-06-30T09:23:12.274+02:00,3386.693069666667,0.339111328125,1.302276611328125,-0.972137451171875,3386.683117666667,-0.5800130155600006,0.1362088342136262,-0.05692821019435108,8.689740180969238,0.6457507014274597,-0.6570260524749756,0.04732359945774078,1.495516061782837,0.1465731263160706,XArbitraryZVertical,0.007756498373568796,-0.07330324339381775,0.2870358651642737,-0.9550795774671667,0.1355680823326111,0.05689746513962746,-0.9891329407691956,0,0,0,-1,-1,3386.403970666667,unknown,2,2022-06-30T09:23:11.984+02:00,2022-06-30T08:20:05.567+02:00,1052,1.411193,0,0,819.8695,0,0,2022-06-30T09:23:11.984+02:00
2022-06-30T09:23:12.285+02:00,3386.703020666667,0.3799285888671875,1.153182983398438,-1.000396728515625,3386.693069666667,-0.5971186654196774,0.141619736533679,0.02796265719820044,8.664692878723145,0.5172457098960876,-0.385465681552887,0.133703738451004,1.49779200553894,0.06391197443008423,XArbitraryZVertical,-0.03413771833123439,-0.06351209486471007,0.2924323703286428,-0.9535639955899283,0.1410916447639465,-0.02795901335775852,-0.9896016716957092,0,0,0,-1,-1,3386.403970666667,unknown,2,2022-06-30T09:23:11.984+02:00,2022-06-30T08:20:05.567+02:00,1052,1.411193,0,0,819.8695,0,0,2022-06-30T09:23:11.984+02:00
