loggingTime(txt),accelerometerTimestamp_sinceReboot(s),accelerometerAccelerationX(G),accelerometerAccelerationY(G),accelerometerAccelerationZ(G),motionTimestamp_sinceReboot(s),motionYaw(rad),motionRoll(rad),motionPitch(rad),motionRotationRateX(rad/s),motionRotationRateY(rad/s),motionRotationRateZ(rad/s),motionUserAccelerationX(G),motionUserAccelerationY(G),motionUserAccelerationZ(G),motionAttitudeReferenceFrame(txt),motionQuaternionX(R),motionQuaternionY(R),motionQuaternionZ(R),motionQuaternionW(R),motionGravityX(G),motionGravityY(G),motionGravityZ(G),motionMagneticFieldX(µT),motionMagneticFieldY(µT),motionMagneticFieldZ(µT),motionHeading(°),motionMagneticFieldCalibrationAccuracy(Z),activityTimestamp_sinceReboot(s),activity(txt),activityActivityConfidence(Z),activityActivityStartDate(txt),pedometerStartDate(txt),pedometerNumberofSteps(N),pedometerAverageActivePace(s/m),pedometerCurrentPace(s/m),pedometerCurrentCadence(steps/s),pedometerDistance(m),pedometerFloorAscended(N),pedometerFloorDescended(N),pedometerEndDate(txt)
2022-06-30T09:23:18.800+02:00,3393.201311375,0.2556915283203125,-0.2656707763671875,-0.935821533203125,3393.191360375,2.457590725341275,0.2170765903681921,0.2608131066525814,-0.05262123048305511,0.03169488906860352,0.02959614060819149,-0.1527480930089951,0.07839277386665344,0.01082730293273926,XArbitraryZVertical,0.05783085330010188,-0.1578062160531084,-0.9333139116876978,-0.3172980040042308,0.2080918699502945,-0.257866233587265,-0.943505585193634,0,0,0,-1,-1,3388.95154675,running,2,2022-06-30T09:23:14.532+02:00,2022-06-30T08:20:05.567+02:00,1052,1.411193,0,0,819.8695,0,0,2022-06-30T09:23:17.081+02:00
2022-06-30T09:23:18.803+02:00,3393.211263375,0.248809814453125,-0.295745849609375,-0.93341064453125,3393.201311375,2.45821648401377,0.2170096393198363,0.2600070999412922,-0.1381023079156876,0.03880952298641205,0.03412511199712753,0.001674085855484009,0.008751004934310913,-0.01217997074127197,XArbitraryZVertical,0.05798742303652524,-0.1574051223892344,-0.9334495948222769,-0.3170694636095133,0.2080733925104141,-0.2570874094963074,-0.9437221884727478,0,0,0,-1,-1,3388.95154675,running,2,2022-06-30T09:23:14.532+02:00,2022-06-30T08:20:05.567+02:00,1052,1.411193,0,0,819.8695,0,0,2022-06-30T09:23:17.081+02:00
2022-06-30T09:23:18.803+02:00,3393.221214375,0.212127685546875,-0.3048553466796875,-0.935089111328125,3393.211263375,2.458870551177501,0.2173349136002553,0.2584096034052525,-0.2074405550956726,0.07311375439167023,0.02037145011126995,0.04722306132316589,-0.01012709736824036,0.008232653141021729,XArbitraryZVertical,0.05846486411389756,-0.1566994664171446,-0.9336117410167655,-0.3168538898775852,0.2084686309099197,-0.2555432915687561,-0.9440542459487915,0,0,0,-1,-1,3388.95154675,running,2,2022-06-30T09:23:14.532+02:00,2022-06-30T08:20:05.567+02:00,1052,1.411193,0,0,819.8695,0,0,2022-06-30T09:23:17.081+02:00
2022-06-30T09:23:18.812+02:00,3393.231166375,0.1201629638671875,-0.2551116943359375,-0.93017578125,3393.221214375,2.459892524325722,0.2181651918261248,0.2561755821382767,-0.2621951401233673,0.1786170154809952,0.1237212792038918,0.03943455219268799,-0.04236263036727905,0.01102513074874878,XArbitraryZVertical,0.05931539716812943,-0.1557682742882645,-0.9338430451745615,-0.3164729500296954,0.2093754261732101,-0.2533828020095825,-0.9444358348846436,0,0,0,-1,-1,3388.95154675,running,2,2022-06-30T09:23:14.532+02:00,2022-06-30T08:20:05.567+02:00,1052,1.411193,0,0,819.8695,0,0,2022-06-30T09:23:17.081+02:00
2022-06-30T09:23:18.822+02:00,3393.241117375,0.1916351318359375,-0.193084716796875,-0.9380340576171875,3393.231166375,2.461845644429299,0.2198016881259086,0.2537215716454946,-0.3164332807064056,0.21291583776474,0.09051774442195892,0.00107218325138092,-0.05384683609008789,0.009606778621673584,XArbitraryZVertical,0.06065124658944493,-0.1548336293774546,-0.9342043358762031,-0.315610835030564,0.211055651307106,-0.2510081231594086,-0.9446959495544434,0,0,0,-1,-1,3388.95154675,running,2,2022-06-30T09:23:14.532+02:00,2022-06-30T08:20:05.567+02:00,1052,1.411193,0,0,819.8695,0,0,2022-06-30T09:23:17.081+02:00
2022-06-30T09:23:18.832+02:00,3393.251069375,0.24053955078125,-0.192352294921875,-0.94085693359375,3393.241117375,2.462438999017054,0.2214082575924294,0.2510936758142657,-0.192857563495636,0.1263633668422699,-0.05297203734517097,-0.09255412220954895,-0.006647810339927673,0.01482009887695312,XArbitraryZVertical,0.06189640828880268,-0.1538534223818373,-0.9343559314180067,-0.3153997902340376,0.2127172201871872,-0.2484634816646576,-0.9449959397315979,0,0,0,-1,-1,3388.95154675,running,2,2022-06-30T09:23:14.532+02:00,2022-06-30T08:20:05.567+02:00,1052,1.411193,0,0,819.8695,0,0,2022-06-30T09:23:17.081+02:00
2022-06-30T09:23:18.842+02:00,3393.261019,0.203338623046875,-0.22784423828125,-0.92913818359375,3393.251069375,2.462324853386359,0.2222333987747049,0.249741567467372,-0.06701022386550903,0.04986061155796051,-0.02307056449353695,-0.02193546295166016,0.05406925082206726,0.007112741470336914,XArbitraryZVertical,0.06250402291440699,-0.1533616707700514,-0.934366591625031,-0.315487618742003,0.2135707587003708,-0.2471535503864288,-0.945146918296814,0,0,0,-1,-1,3388.95154675,running,2,2022-06-30T09:23:14.532+02:00,2022-06-30T08:20:05.567+02:00,1052,1.411193,0,0,819.8695,0,0,2022-06-30T09:23:17.081+02:00
2022-06-30T09:23:18.852+02:00,3393.27097,0.1737213134765625,-0.2352752685546875,-0.9180450439453125,3393.261019,2.462352208865228,0.2222077056119832,0.2490909905775918,-0.03320804983377457,0.03980451449751854,-0.02333768084645271,0.02695783972740173,0.05417120456695557,0.004452049732208252,XArbitraryZVertical,0.06260518048218962,-0.1530557899087762,-0.9343978207261825,-0.3155240998907672,0.2135818749666214,-0.2465231120586395,-0.945309042930603,0,0,0,-1,-1,3388.95154675,running,2,2022-06-30T09:23:14.532+02:00,2022-06-30T08:20:05.567+02:00,1052,1.411193,0,0,819.8695,0,0,2022-06-30T09:23:17.081+02:00
2022-06-30T09:23:18.862+02:00,3393.280922,0.17034912109375,-0.2206878662109375,-0.932373046875,3393.27097,2.462385544208181,0.2218465227739345,0.2483161365432362,-0.05093544721603394,0.06300830841064453,-0.03205816820263863,-0.009943604469299316,0.01792827248573303,0.01643389463424683,XArbitraryZVertical,0.06257129251936143,-0.1526392990050417,-0.9344451399172677,-0.3155920836803318,0.2132823914289474,-0.2457720935344696,-0.9455721378326416,0,0,0,-1,-1,3388.95154675,running,2,2022-06-30T09:23:14.532+02:00,2022-06-30T08:20:05.567+02:00,1052,1.411193,0,0,819.8695,0,0,2022-06-30T09:23:17.081+02:00
2022-06-30T09:23:18.872+02:00,3393.290873,0.1864776611328125,-0.1983642578125,-0.9450836181640625,3393.280922,2.462267891714705,0.2225912452283439,0.247750515103409,-0.05310459434986115,0.08170876652002335,-0.01915941387414932,-0.04029570519924164,0.009948909282684326,0.0275033712387085,XArbitraryZVertical,0.0630068303743761,-0.1524988249476765,-0.9344256451569813,-0.3156312121946233,0.2140171676874161,-0.2452237755060196,-0.9455484747886658,0,0,0,-1,-1,3388.95154675,running,2,2022-06-30T09:23:14.532+02:00,2022-06-30T08:20:05.567+02:00,1052,1.411193,0,0,819.8695,0,0,2022-06-30T09:23:17.081+02:00
2022-06-30T09:23:18.882+02:00,3393.300825,0.19622802734375,-0.196380615234375,-0.954315185546875,3393.290873,2.462130322786897,0.2236410916824744,0.2474381571180574,-0.01399234309792519,0.07736541330814362,-0.01619824394583702,-0.04467743635177612,0.02423349022865295,0.01302480697631836,XArbitraryZVertical,0.06354017762211669,-0.1525243596995988,-0.9343830270502805,-0.3156380625041814,0.2150267064571381,-0.2449209541082382,-0.9453979134559631,0,0,0,-1,-1,3388.95154675,running,2,2022-06-30T09:23:14.532+02:00,2022-06-30T08:20:05.567+02:00,1052,1.411193,0,0,819.8695,0,0,2022-06-30T09:23:17.081+02:00
2022-06-30T09:23:18.892+02:00,3393.310776,0.1969451904296875,-0.2057952880859375,-0.94775390625,3393.300825,2.461879062734659,0.2245705618918274,0.2478675457913004,0.05239067226648331,0.05543827638030052,-0.01742463000118732,-0.02940407395362854,0.04697337746620178,1.138448715209961e-05,XArbitraryZVertical,0.06388184798042233,-0.152877670889542,-0.9342968967833575,-0.3156532829162713,0.2158818989992142,-0.2453372329473495,-0.9450950622558594,0,0,0,-1,-1,3388.95154675,running,2,2022-06-30T09:23:14.532+02:00,2022-06-30T08:20:05.567+02:00,1052,1.411193,0,0,819.8695,0,0,2022-06-30T09:23:17.081+02:00
2022-06-30T09:23:18.902+02:00,3393.320728,0.191253662109375,-0.23748779296875,-0.9417877197265625,3393.310776,2.461506116332218,0.2250738800430344,0.2488389923505011,0.07927981019020081,0.02646521292626858,-0.02401994913816452,-0.02007609605789185,0.0498986691236496,-0.009561717510223389,XArbitraryZVertical,0.06392234696608093,-0.1534183189230827,-0.9341835818860577,-0.3157180022438502,0.2163042575120926,-0.2462788820266724,-0.9447535276412964,0,0,0,-1,-1,3388.95154675,running,2,2022-06-30T09:23:14.532+02:00,2022-06-30T08:20:05.567+02:00,1052,1.411193,0,0,819.8695,0,0,2022-06-30T09:23:17.081+02:00
2022-06-30T09:23:18.912+02:00,3393.330679,0.183685302734375,-0.2573394775390625,-0.9246978759765625,3393.320728,2.461264548338536,0.2247639679000141,0.2495631591198494,0.05164206027984619,0.01660912111401558,-0.01973279193043709,-0.01902630925178528,0.04118576645851135,-0.003107607364654541,XArbitraryZVertical,0.06363518686126274,-0.1537119620640847,-0.9341266510962417,-0.3158017410515815,0.2159716635942459,-0.246980682015419,-0.944646418094635,0,0,0,-1,-1,3388.95154675,running,2,2022-06-30T09:23:14.532+02:00,2022-06-30T08:20:05.567+02:00,1052,1.411193,0,0,819.8695,0,0,2022-06-30T09:23:17.081+02:00
2022-06-30T09:23:18.922+02:00,3393.34063,0.17828369140625,-0.264739990234375,-0.902435302734375,3393.330679,2.461068247464865,0.2248588363345164,0.2493451295382283,-0.02357033453881741,0.0229182094335556,-0.01983855292201042,-0.02481946349143982,0.00928199291229248,0.002890586853027344,XArbitraryZVertical,0.06370172110227416,-0.1536323816510204,-0.9341012493862587,-0.315902023303179,0.2160732746124268,-0.2467693984508514,-0.9446783661842346,0,0,0,-1,-1,3388.95154675,running,2,2022-06-30T09:23:14.532+02:00,2022-06-30T08:20:05.567+02:00,1052,1.411193,0,0,819.8695,0,0,2022-06-30T09:23:17.081+02:00
2022-06-30T09:23:18.932+02:00,3393.350582,0.17755126953125,-0.2664337158203125,-0.8893280029296875,3393.34063,2.460950677764862,0.2253363720858985,0.2482626028201837,-0.1096189320087433,0.03047413006424904,-0.0267286840826273,-0.03289845585823059,-0.01161888241767883,0.02013695240020752,XArbitraryZVertical,0.06410097313786647,-0.1532110170238289,-0.9341101801408621,-0.3159994181694624,0.2165839225053787,-0.2457202076911926,-0.9448348879814148,0,0,0,-1,-1,3388.95154675,running,2,2022-06-30T09:23:14.532+02:00,2022-06-30T08:20:05.567+02:00,1052,1.411193,0,0,819.8695,0,0,2022-06-30T09:23:17.081+02:00
2022-06-30T09:23:18.942+02:00,3393.360533,0.1791229248046875,-0.260162353515625,-0.887603759765625,3393.350582,2.460972311404816,0.2255061859682124,0.2465437410245436,-0.1923104226589203,0.03294521942734718,-0.04292626306414604,-0.03855463862419128,-0.02068592607975006,0.04277300834655762,XArbitraryZVertical,0.06447605326006811,-0.1524422889717205,-0.9341754367335617,-0.3161019148445646,0.2168384939432144,-0.2440536767244339,-0.9452083706855774,0,0,0,-1,-1,3388.95154675,running,2,2022-06-30T09:23:14.532+02:00,2022-06-30T08:20:05.567+02:00,1052,1.411193,0,0,819.8695,0,0,2022-06-30T09:23:17.081+02:00
2022-06-30T09:23:18.952+02:00,3393.370485,0.175201416015625,-0.237884521484375,-0.886566162109375,3393.360533,2.461170612113554,0.2253097117725307,0.2443030684333246,-0.2484498620033264,0.03226957470178604,-0.04166152700781822,-0.03922297060489655,-0.02455316483974457,0.05645352602005005,XArbitraryZVertical,0.06478259645441702,-0.1513684527209179,-0.9342998824086912,-0.3161876089115484,0.2167744040489197,-0.2418801486492157,-0.9457815885543823,0,0,0,-1,-1,3388.95154675,running,2,2022-06-30T09:23:14.532+02:00,2022-06-30T08:20:05.567+02:00,1052,1.411193,0,0,819.8695,0,0,2022-06-30T09:23:17.081+02:00
2022-06-30T09:23:18.962+02:00,3393.380436,0.1743621826171875,-0.200042724609375,-0.8858184814453125,3393.370485,2.461516897221063,0.2250401218423575,0.2415916687310941,-0.240974485874176,0.04485199227929115,-0.03302602469921112,-0.03754191100597382,-0.02091355621814728,0.0588720440864563,XArbitraryZVertical,0.06514623474351762,-0.1500601524460959,-0.9344668292001127,-0.3162431174735443,0.2166649699211121,-0.2392483800649643,-0.9464758634567261,0,0,0,-1,-1,3388.95154675,running,2,2022-06-30T09:23:14.532+02:00,2022-06-30T08:20:05.567+02:00,1052,1.411193,0,0,819.8695,0,0,2022-06-30T09:23:17.081+02:00
2022-06-30T09:23:18.972+02:00,3393.390388,0.1918487548828125,-0.1721343994140625,-0.9042816162109375,3393.380436,2.461804451219618,0.2250981169934771,0.2389930052432337,-0.1915145367383957,0.04219682142138481,-0.02974474616348743,-0.04165633022785187,-0.001159742474555969,0.06049990653991699,XArbitraryZVertical,0.06563872764537673,-0.1488573057843085,-0.9346080273779133,-0.3162926332082883,0.2168578952550888,-0.2367243766784668,-0.9470661282539368,0,0,0,-1,-1,3388.95154675,running,2,2022-06-30T09:23:14.532+02:00,2022-06-30T08:20:05.567+02:00,1052,1.411193,0,0,819.8695,0,0,2022-06-30T09:23:17.081+02:00
2022-06-30T09:23:18.982+02:00,3393.400339,0.202301025390625,-0.172943115234375,-0.9207916259765625,3393.390388,2.46192470087297,0.225096551447434,0.2370391845906632,-0.1236927434802055,-0.0008385549299418926,-0.02979208528995514,-0.04259690642356873,0.03478330373764038,0.06169694662094116,XArbitraryZVertical,0.06598051032596211,-0.1479487120719892,-0.9346994521563083,-0.3163776981323896,0.2169592380523682,-0.2348256409168243,-0.9475154876708984,0,0,0,-1,-1,3388.95154675,running,2,2022-06-30T09:23:14.532+02:00,2022-06-30T08:20:05.567+02:00,1052,1.411193,0,0,819.8695,0,0,2022-06-30T09:23:17.081+02:00
2022-06-30T09:23:18.991+02:00,3393.410291,0.2021026611328125,-0.1897430419921875,-0.925628662109375,3393.400339,2.461842823935682,0.2247652319971415,0.2357748117368831,-0.07539258897304535,-0.03272112086415291,-0.04070145636796951,-0.02486239373683929,0.06146243214607239,0.0435943603515625,XArbitraryZVertical,0.06603547020776086,-0.147313659869052,-0.934743722821356,-0.3165314526727804,0.2167112976312637,-0.2335964292287827,-0.9478759765625,0,0,0,-1,-1,3388.95154675,running,2,2022-06-30T09:23:14.532+02:00,2022-06-30T08:20:05.567+02:00,1052,1.411193,0,0,819.8695,0,0,2022-06-30T09:23:17.081+02:00
2022-06-30T09:23:19.001+02:00,3393.420242,0.19580078125,-0.1938629150390625,-0.934051513671875,3393.410291,2.461582340060975,0.2242757202946093,0.2350747741819205,-0.06374405324459076,-0.03957842290401459,-0.04863787442445755,-0.01398241519927979,0.05997297167778015,0.02734947204589844,XArbitraryZVertical,0.06590703198171567,-0.1469206436458826,-0.9347441786554858,-0.3167395622556613,0.2162835896015167,-0.2329156994819641,-0.9481411576271057,0,0,0,-1,-1,3388.95154675,running,2,2022-06-30T09:23:14.532+02:00,2022-06-30T08:20:05.567+02:00,1052,1.411193,0,0,819.8695,0,0,2022-06-30T09:23:17.081+02:00
2022-06-30T09:23:19.011+02:00,3393.430193,0.182098388671875,-0.2143402099609375,-0.9399261474609375,3393.420242,2.461316825793363,0.2237356033522963,0.2343736773529695,-0.1086193844676018,-0.03692644461989403,-0.05414183065295219,-0.0137048214673996,0.04249119758605957,0.02278816699981689,XArbitraryZVertical,0.0657548421522067,-0.1465192058710365,-0.9347453491568347,-0.3169535429638027,0.215807631611824,-0.2322338372468948,-0.9484168291091919,0,0,0,-1,-1,3388.95154675,running,2,2022-06-30T09:23:14.532+02:00,2022-06-30T08:20:05.567+02:00,1052,1.411193,0,0,819.8695,0,0,2022-06-30T09:23:17.081+02:00
2022-06-30T09:23:19.021+02:00,3393.440145,0.17877197265625,-0.21551513671875,-0.9530487060546875,3393.430193,2.46102275044617,0.2233235622637399,0.2333408503389774,-0.1434388905763626,-0.01663209311664104,-0.07045662403106689,-0.01966889202594757,0.03736661374568939,0.01468753814697266,XArbitraryZVertical,0.0657171587477116,-0.1459853083054888,-0.9347496758883636,-0.3171950911294388,0.2154698371887207,-0.2312291115522385,-0.9487391114234924,0,0,0,-1,-1,3388.95154675,running,2,2022-06-30T09:23:14.532+02:00,2022-06-30T08:20:05.567+02:00,1052,1.411193,0,0,819.8695,0,0,2022-06-30T09:23:17.081+02:00
2022-06-30T09:23:19.031+02:00,3393.450096,0.16796875,-0.2015838623046875,-0.9425048828125,3393.440145,2.460682225165573,0.2231683539915935,0.2321858078806716,-0.151408925652504,0.005293179769068956,-0.07416746765375137,-0.03328299522399902,0.01576539874076843,0.009106159210205078,XArbitraryZVertical,0.06581714862219835,-0.1454370300945778,-0.934742259327225,-0.3174480524157527,0.2153815478086472,-0.2301052212715149,-0.9490323662757874,0,0,0,-1,-1,3388.95154675,running,2,2022-06-30T09:23:14.532+02:00,2022-06-30T08:20:05.567+02:00,1052,1.411193,0,0,819.8695,0,0,2022-06-30T09:23:17.081+02:00
2022-06-30T09:23:19.041+02:00,3393.460048,0.155364990234375,-0.2136688232421875,-0.9198150634765625,3393.450096,2.460248909072639,0.2231337200155773,0.2307821139063304,-0.1805084943771362,0.001235055038705468,-0.09545811265707016,-0.03664779663085938,0.01322422921657562,-0.003694891929626465,XArbitraryZVertical,0.06600945310325217,-0.1447958077340952,-0.9347245258858314,-0.3177530773157274,0.2154199331998825,-0.2287389785051346,-0.9493538737297058,0,0,0,-1,-1,3388.95154675,running,2,2022-06-30T09:23:14.532+02:00,2022-06-30T08:20:05.567+02:00,1052,1.411193,0,0,819.8695,0,0,2022-06-30T09:23:17.081+02:00
2022-06-30T09:23:19.051+02:00,3393.469999,0.128204345703125,-0.2374420166015625,-0.9054718017578125,3393.460048,2.45966606311571,0.2229737515853572,0.2289183066587984,-0.2014001905918121,-0.01401580311357975,-0.1203544065356255,-0.0473930686712265,0.0253407210111618,0.007297515869140625,XArbitraryZVertical,0.06621133965348111,-0.143926524039846,-0.9347028472604012,-0.3181696816766144,0.2153619676828384,-0.2269241809844971,-0.9498023986816406,0,0,0,-1,-1,3388.95154675,running,2,2022-06-30T09:23:14.532+02:00,2022-06-30T08:20:05.567+02:00,1052,1.411193,0,0,819.8695,0,0,2022-06-30T09:23:17.081+02:00
2022-06-30T09:23:19.061+02:00,3393.479951,0.1077117919921875,-0.2664794921875,-0.903564453125,3393.469999,2.458864308713886,0.2228568432309191,0.2263673442933582,-0.2508630752563477,0.001453240402042866,-0.1529170125722885,-0.06001302599906921,0.01077061891555786,0.03057396411895752,XArbitraryZVertical,0.06653580399051212,-0.1427531348671651,-0.9346675042557112,-0.3187336571093883,0.2153781652450562,-0.2244390249252319,-0.9503890872001648,0,0,0,-1,-1,3388.95154675,running,2,2022-06-30T09:23:14.532+02:00,2022-06-30T08:20:05.567+02:00,1052,1.411193,0,0,819.8695,0,0,2022-06-30T09:23:17.081+02:00
2022-06-30T09:23:19.071+02:00,3393.489902,0.097320556640625,-0.2628021240234375,-0.9023284912109375,3393.479951,2.457832535058366,0.223155146757438,0.2229914811831746,-0.3105658292770386,0.02812453173100948,-0.1870321035385132,-0.08762361109256744,-0.01629360020160675,0.04558640718460083,XArbitraryZVertical,0.06718019749541845,-0.141271711304625,-0.9346076499403636,-0.3194335882546849,0.2158281058073044,-0.2211480140686035,-0.9510582685470581,0,0,0,-1,-1,3388.95154675,running,2,2022-06-30T09:23:14.532+02:00,2022-06-30T08:20:05.567+02:00,1052,1.411193,0,0,819.8695,0,0,2022-06-30T09:23:17.081+02:00
2022-06-30T09:23:19.081+02:00,3393.499854,0.082794189453125,-0.2345428466796875,-0.9041748046875,3393.489902,2.456596464859562,0.2237736304748709,0.2190119831604356,-0.3663389980792999,0.04898764938116074,-0.2138452380895615,-0.108897939324379,-0.04921376705169678,0.04821068048477173,XArbitraryZVertical,0.06806491684247121,-0.1395692830178569,-0.9345204850211358,-0.3202486430121717,0.2166098654270172,-0.2172653079032898,-0.9517751932144165,0,0,0,-1,-1,3388.95154675,running,2,2022-06-30T09:23:14.532+02:00,2022-06-30T08:20:05.567+02:00,1052,1.411193,0,0,819.8695,0,0,2022-06-30T09:23:17.081+02:00
2022-06-30T09:23:19.096+02:00,3393.509805,0.067413330078125,-0.232086181640625,-0.8981475830078125,3393.499854,2.455342796093216,0.2244569058155421,0.2144911149383633,-0.4438974559307098,0.04381978511810303,-0.2259138971567154,-0.1201558411121368,-0.04995149374008179,0.05024623870849609,XArbitraryZVertical,0.06907366029261451,-0.1376278674917004,-0.9344404087998107,-0.3211053919066705,0.2174765467643738,-0.2128502279520035,-0.9525747895240784,0,0,0,-1,-1,3388.95154675,running,2,2022-06-30T09:23:14.532+02:00,2022-06-30T08:20:05.567+02:00,1052,1.411193,0,0,819.8695,0,0,2022-06-30T09:23:17.081+02:00
2022-06-30T09:23:19.113+02:00,3393.519756,0.0488739013671875,-0.2392578125,-0.8951873779296875,3393.509805,2.454075161768106,0.2250680182012665,0.2091935529787055,-0.5112928748130798,0.04901118203997612,-0.2582520544528961,-0.1355128884315491,-0.02687133848667145,0.04935264587402344,XArbitraryZVertical,0.07018358267785542,-0.1353163619970646,-0.9343778496680318,-0.3220277374260678,0.2183072119951248,-0.2076711058616638,-0.9535275101661682,0,0,0,-1,-1,3388.95154675,running,2,2022-06-30T09:23:14.532+02:00,2022-06-30T08:20:05.567+02:00,1052,1.411193,0,0,819.8695,0,0,2022-06-30T09:23:17.081+02:00
2022-06-30T09:23:19.116+02:00,3393.529708,0.0444183349609375,-0.208648681640625,-0.869964599609375,3393.519756,2.45255878307858,0.2257683114168759,0.2035671675605998,-0.5362908840179443,0.05733675882220268,-0.294160008430481,-0.1518195271492004,-0.02992165088653564,0.0563504695892334,XArbitraryZVertical,0.07137783619864725,-0.132876521278403,-0.9342733750825648,-0.3230825798374384,0.2192330062389374,-0.2021641284227371,-0.9544980525970459,0,0,0,-1,-1,3388.95154675,running,2,2022-06-30T09:23:14.532+02:00,2022-06-30T08:20:05.567+02:00,1052,1.411193,0,0,819.8695,0,0,2022-06-30T09:23:17.081+02:00
2022-06-30T09:23:19.121+02:00,3393.539659,0.038848876953125,-0.2050933837890625,-0.8677215576171875,3393.529708,2.450788544930272,0.2266390334350017,0.197462429518222,-0.5702729225158691,0.05161420628428459,-0.3217087388038635,-0.171463206410408,-0.04307568073272705,0.06030422449111938,XArbitraryZVertical,0.07272099316530885,-0.1302530089288964,-0.9341252557390273,-0.3242773695453096,0.2203372418880463,-0.1961816996335983,-0.9554916024208069,0,0,0,-1,-1,3388.95154675,running,2,2022-06-30T09:23:14.532+02:00,2022-06-30T08:20:05.567+02:00,1052,1.411193,0,0,819.8695,0,0,2022-06-30T09:23:17.081+02:00
2022-06-30T09:23:19.131+02:00,3393.549611,0.06109619140625,-0.2002716064453125,-0.8365020751953125,3393.539659,2.44863458265963,0.2274306708906659,0.191364133032893,-0.5251486301422119,0.02181103825569153,-0.3706776201725006,-0.1769407391548157,-0.01844996213912964,0.08650004863739014,XArbitraryZVertical,0.07400575929693366,-0.127635421331492,-0.9339063076181172,-0.3256553767917445,0.2213592082262039,-0.1901983022689819,-0.9564647078514099,0,0,0,-1,-1,3388.95154675,running,2,2022-06-30T09:23:14.532+02:00,2022-06-30T08:20:05.567+02:00,1052,1.411193,0,0,819.8695,0,0,2022-06-30T09:23:17.081+02:00
2022-06-30T09:23:19.141+02:00,3393.559562,0.052947998046875,-0.213104248046875,-0.863372802734375,3393.549611,2.445817374700161,0.2280171658059295,0.1856700133531692,-0.462251216173172,0.006813845131546259,-0.4346771836280823,-0.1833123415708542,-0.02048788964748383,0.08965259790420532,XArbitraryZVertical,0.07508831329654951,-0.1251984898986513,-0.9335652596539267,-0.3273268948213784,0.2221613526344299,-0.1846050769090652,-0.9573741555213928,0,0,0,-1,-1,3388.95154675,running,2,2022-06-30T09:23:14.532+02:00,2022-06-30T08:20:05.567+02:00,1052,1.411193,0,0,819.8695,0,0,2022-06-30T09:23:17.081+02:00
2022-06-30T09:23:19.151+02:00,3393.569514,0.069122314453125,-0.2547149658203125,-0.899200439453125,3393.559562,2.442150585877995,0.2286700897539906,0.1803558195777419,-0.4310818612575531,-0.009718792513012886,-0.5149016976356506,-0.161909282207489,-0.02089157700538635,0.1216687560081482,XArbitraryZVertical,0.07608991666488292,-0.1229832571942438,-0.9330623483297572,-0.3293633558178166,0.223005622625351,-0.1793796271085739,-0.9581708908081055,0,0,0,-1,-1,3388.95154675,running,2,2022-06-30T09:23:14.532+02:00,2022-06-30T08:20:05.567+02:00,1052,1.411193,0,0,819.8695,0,0,2022-06-30T09:23:17.081+02:00
2022-06-30T09:23:19.161+02:00,3393.579465,0.0816192626953125,-0.2616119384765625,-0.9208984375,3393.569514,2.437992501958485,0.229082060483319,0.1747591589100878,-0.4816763699054718,-0.05711442977190018,-0.5371367931365967,-0.1706766784191132,-0.03923286497592926,0.09566879272460938,XArbitraryZVertical,0.07700692613648275,-0.1206197493660785,-0.9324815073932111,-0.3316610858907729,0.2236248254776001,-0.1738709658384323,-0.9590415954589844,0,0,0,-1,-1,3388.95154675,running,2,2022-06-30T09:23:14.532+02:00,2022-06-30T08:20:05.567+02:00,1052,1.411193,0,0,819.8695,0,0,2022-06-30T09:23:17.081+02:00
2022-06-30T09:23:19.171+02:00,3393.589416,0.068267822265625,-0.244659423828125,-0.95159912109375,3393.579465,2.433908844535454,0.2290289020008696,0.1685217459496649,-0.5672680139541626,-0.0769408643245697,-0.5377408266067505,-0.1546932607889175,-0.08698932826519012,0.0608905553817749,XArbitraryZVertical,0.07783397768511326,-0.1178828093480281,-0.9319305249416241,-0.3339926743337965,0.2238157093524933,-0.1677252203226089,-0.9600910544395447,0,0,0,-1,-1,3388.95154675,running,2,2022-06-30T09:23:14.532+02:00,2022-06-30T08:20:05.567+02:00,1052,1.411193,0,0,819.8695,0,0,2022-06-30T09:23:17.081+02:00
2022-06-30T09:23:19.180+02:00,3393.599368,0.0857086181640625,-0.2342529296875,-1.013031005859375,3393.589416,2.429801329680965,0.2291425802545131,0.1614574277895247,-0.616550624370575,-0.03179946169257164,-0.5868170261383057,-0.142568975687027,-0.100854679942131,0.04029703140258789,XArbitraryZVertical,0.07889431990948982,-0.1147951790955323,-0.9313689870523713,-0.3363771309998979,0.2241883873939514,-0.1607568562030792,-0.9611955285072327,0,0,0,-1,-1,3388.95154675,running,2,2022-06-30T09:23:14.532+02:00,2022-06-30T08:20:05.567+02:00,1052,1.411193,0,0,819.8695,0,0,2022-06-30T09:23:17.081+02:00
2022-06-30T09:23:19.191+02:00,3393.609319,0.115386962890625,-0.1986083984375,-1.05267333984375,3393.599368,2.425191978058908,0.2297116724285254,0.1542722475533879,-0.5778644680976868,-0.001870057778432965,-0.627968966960907,-0.1567246168851852,-0.09099796414375305,0.01056855916976929,XArbitraryZVertical,0.08017205806274394,-0.1117524083284572,-0.9306885761387726,-0.3389731424126934,0.224992573261261,-0.1536610275506973,-0.9621676802635193,0,0,0,-1,-1,3388.95154675,running,2,2022-06-30T09:23:14.532+02:00,2022-06-30T08:20:05.567+02:00,1052,1.411193,0,0,819.8695,0,0,2022-06-30T09:23:17.081+02:00
2022-06-30T09:23:19.200+02:00,3393.619271,0.1331634521484375,-0.2290802001953125,-1.078033447265625,3393.609319,2.420303535417276,0.230293100190652,0.1473742606907131,-0.5595048069953918,-0.02746965549886227,-0.6327931880950928,-0.1400798112154007,-0.08741113543510437,-0.04998522996902466,XArbitraryZVertical,0.08140249953290007,-0.1088611328946244,-0.92993609254689,-0.3416751832488787,0.2257885336875916,-0.146841362118721,-0.9630457758903503,0,0,0,-1,-1,3388.95154675,running,2,2022-06-30T09:23:14.532+02:00,2022-06-30T08:20:05.567+02:00,1052,1.411193,0,0,819.8695,0,0,2022-06-30T09:23:17.081+02:00
2022-06-30T09:23:19.210+02:00,3393.629222,0.135345458984375,-0.2821044921875,-1.08526611328125,3393.619271,2.415345475577854,0.230570308781229,0.1404744223703791,-0.5584150552749634,-0.04512987658381462,-0.6470256447792053,-0.110894575715065,-0.05859509110450745,-0.08872675895690918,XArbitraryZVertical,0.08250194938746756,-0.1059251556671663,-0.9291646502016576,-0.3444218064253989,0.2262816578149796,-0.1400128751993179,-0.9639465808868408,0,0,0,-1,-1,3388.95154675,running,2,2022-06-30T09:23:14.532+02:00,2022-06-30T08:20:05.567+02:00,1052,1.411193,0,0,819.8695,0,0,2022-06-30T09:23:17.081+02:00
2022-06-30T09:23:19.220+02:00,3393.639174,0.1263275146484375,-0.227020263671875,-1.02935791015625,3393.629222,2.410186591813927,0.2309422244509779,0.1335763197302171,-0.5731318593025208,-0.01099441014230251,-0.6650708913803101,-0.09369224309921265,-0.09590032696723938,-0.1132538914680481,XArbitraryZVertical,0.08364877437681793,-0.1030198125450798,-0.9283351445208388,-0.3472518106614953,0.2268558293581009,-0.1331794410943985,-0.9647796154022217,0,0,0,-1,-1,3388.95154675,running,2,2022-06-30T09:23:14.532+02:00,2022-06-30T08:20:05.567+02:00,1052,1.411193,0,0,819.8695,0,0,2022-06-30T09:23:17.081+02:00
2022-06-30T09:23:19.230+02:00,3393.649125,0.109619140625,-0.1585235595703125,-1.013641357421875,3393.639174,2.405160419190734,0.2317069968427445,0.1260792477729744,-0.6678780317306519,0.03242789953947067,-0.6490727066993713,-0.0924709141254425,-0.1563585847616196,-0.119715690612793,XArbitraryZVertical,0.08510791138184172,-0.09990697988520668,-0.927497239272781,-0.3500344879625542,0.2278164774179459,-0.125745490193367,-0.9655504822731018,0,0,0,-1,-1,3388.95154675,running,2,2022-06-30T09:23:14.532+02:00,2022-06-30T08:20:05.567+02:00,1052,1.411193,0,0,819.8695,0,0,2022-06-30T09:23:17.081+02:00
2022-06-30T09:23:19.240+02:00,3393.659077,0.09033203125,-0.1382598876953125,-1.016677856445312,3393.649125,2.400654319476321,0.2326148358355092,0.1176553346811315,-0.7715764045715332,0.03919413313269615,-0.6212160587310791,-0.1026013791561127,-0.1096357628703117,-0.06301820278167725,XArbitraryZVertical,0.08684281415392696,-0.09637663704732788,-0.9267284946944812,-0.3526248876028868,0.2289290279150009,-0.1173840761184692,-0.9663397669792175,0,0,0,-1,-1,3388.95154675,running,2,2022-06-30T09:23:14.532+02:00,2022-06-30T08:20:05.567+02:00,1052,1.411193,0,0,819.8695,0,0,2022-06-30T09:23:17.081+02:00
2022-06-30T09:23:19.250+02:00,3393.669028,0.0845947265625,-0.0920867919921875,-1.062332153320312,3393.659077,2.396550411985198,0.233577319489174,0.108520412623773,-0.819398820400238,0.07794924825429916,-0.6018975377082825,-0.1204783320426941,-0.05021560937166214,-0.04651957750320435,XArbitraryZVertical,0.08876695012252654,-0.09251772778848269,-0.926006494992705,-0.3550673829879149,0.2300976067781448,-0.1083075329661369,-0.9671217799186707,0,0,0,-1,-1,3388.95154675,running,2,2022-06-30T09:23:14.532+02:00,2022-06-30T08:20:05.567+02:00,1052,1.411193,0,0,819.8695,0,0,2022-06-30T09:23:17.081+02:00
2022-06-30T09:23:19.260+02:00,3393.678979,0.1627044677734375,0.02386474609375,-1.037460327148438,3393.669028,2.3925173308921,0.2352477067981842,0.09968148054945114,-0.7094318866729736,0.1797908097505569,-0.5922584533691406,-0.1415946781635284,-0.03874297440052032,-0.04904860258102417,XArbitraryZVertical,0.09098154247362299,-0.0889253476558852,-0.9252374164448324,-0.3574221356719011,0.231926828622818,-0.09951648116111755,-0.9676292538642883,0,0,0,-1,-1,3388.95154675,running,2,2022-06-30T09:23:14.532+02:00,2022-06-30T08:20:05.567+02:00,1052,1.411193,0,0,819.8695,0,0,2022-06-30T09:23:17.081+02:00
2022-06-30T09:23:19.270+02:00,3393.688931,0.26544189453125,0.089324951171875,-1.080596923828125,3393.678979,2.388377213270592,0.2376639504220111,0.0922102868251037,-0.5481237173080444,0.2220075130462646,-0.5572011470794678,-0.1498378366231918,-6.698071956634521e-06,-0.09457051753997803,XArbitraryZVertical,0.09329644561696702,-0.08611003598750813,-0.9243878193052587,-0.3597053846194507,0.2344326823949814,-0.09207966923713684,-0.9677616953849792,0,0,0,-1,-1,3388.95154675,running,2,2022-06-30T09:23:14.532+02:00,2022-06-30T08:20:05.567+02:00,1052,1.411193,0,0,819.8695,0,0,2022-06-30T09:23:17.081+02:00
2022-06-30T09:23:19.280+02:00,3393.698882,0.3488616943359375,0.072174072265625,-1.145477294921875,3393.688931,2.384093501910802,0.2402443559929878,0.08693232341797888,-0.2685497105121613,0.2231357544660568,-0.5389789342880249,-0.07433687150478363,0.1106880381703377,-0.06984823942184448,XArbitraryZVertical,0.09528430348762916,-0.08434963401766288,-0.9234865530800109,-0.361909741759633,0.2370414584875107,-0.08682286739349365,-0.967612087726593,0,0,0,-1,-1,3388.95154675,running,2,2022-06-30T09:23:14.532+02:00,2022-06-30T08:20:05.567+02:00,1052,1.411193,0,0,819.8695,0,0,2022-06-30T09:23:17.081+02:00
2022-06-30T09:23:19.290+02:00,3393.708834,0.4239959716796875,-0.0088653564453125,-1.195770263671875,3393.698882,2.378898862448441,0.2427386683269979,0.08436614008305868,0.005773704964667559,0.1888148039579391,-0.5964345335960388,0.02593499422073364,0.1735914647579193,-0.1133660078048706,XArbitraryZVertical,0.09669512601579522,-0.08387251405783921,-0.9224170574414731,-0.3643657329224163,0.2395070046186447,-0.08426609635353088,-0.9672309160232544,0,0,0,-1,-1,3388.95154675,running,2,2022-06-30T09:23:14.532+02:00,2022-06-30T08:20:05.567+02:00,1052,1.411193,0,0,819.8695,0,0,2022-06-30T09:23:17.081+02:00
2022-06-30T09:23:19.300+02:00,3393.718785,0.452301025390625,-0.06842041015625,-1.195709228515625,3393.708834,2.372595455527778,0.2449611980868524,0.08393427403434708,0.1974790990352631,0.1597504168748856,-0.6443125605583191,0.1071968972682953,0.1560102552175522,-0.1787458658218384,XArbitraryZVertical,0.09753536499634345,-0.08438685983729151,-0.9211548215615402,-0.3672051116566701,0.2416649162769318,-0.08383575826883316,-0.9667314291000366,0,0,0,-1,-1,3388.95154675,running,2,2022-06-30T09:23:14.532+02:00,2022-06-30T08:20:05.567+02:00,1052,1.411193,0,0,819.8695,0,0,2022-06-30T09:23:17.081+02:00
2022-06-30T09:23:19.310+02:00,3393.728737,0.428314208984375,-0.1332550048828125,-1.165069580078125,3393.718785,2.365839119004366,0.2470623201026979,0.08438228540067304,0.187901571393013,0.1577716767787933,-0.6468923687934875,0.1803096830844879,0.07541725784540176,-0.2295852899551392,XArbitraryZVertical,0.09813102721963377,-0.08531002411995528,-0.9198081702711673,-0.3701965333796829,0.2436863929033279,-0.08428218215703964,-0.9661849737167358,0,0,0,-1,-1,3388.95154675,running,2,2022-06-30T09:23:14.532+02:00,2022-06-30T08:20:05.567+02:00,1052,1.411193,0,0,819.8695,0,0,2022-06-30T09:23:17.081+02:00
2022-06-30T09:23:19.320+02:00,3393.738688,0.3982391357421875,-0.1658477783203125,-1.127609252929688,3393.728737,2.359167475020326,0.2494558268399823,0.08413730759955955,0.0934654027223587,0.2132311016321182,-0.6641128063201904,0.2062977850437164,0.01561808586120605,-0.2300902605056763,XArbitraryZVertical,0.09899203100160349,-0.08597152840146968,-0.91844930114915,-0.3731760329272897,0.2460033446550369,-0.08403807133436203,-0.9656189680099487,0,0,0,-1,-1,3388.95154675,running,2,2022-06-30T09:23:14.532+02:00,2022-06-30T08:20:05.567+02:00,1052,1.411193,0,0,819.8695,0,0,2022-06-30T09:23:17.081+02:00
2022-06-30T09:23:19.330+02:00,3393.74864,0.3701934814453125,-0.133331298828125,-1.10235595703125,3393.738688,2.35267854189395,0.2524587688453946,0.08283139604153238,-0.02548441663384438,0.2840546667575836,-0.653681755065918,0.1793851852416992,-0.05051786452531815,-0.2000882625579834,XArbitraryZVertical,0.1003415547441858,-0.08626076150925339,-0.9170778598838512,-0.3761101720646193,0.2489291429519653,-0.08273670822381973,-0.9649813175201416,0,0,0,-1,-1,3388.95154675,running,2,2022-06-30T09:23:14.532+02:00,2022-06-30T08:20:05.567+02:00,1052,1.411193,0,0,819.8695,0,0,2022-06-30T09:23:17.081+02:00
2022-06-30T09:23:19.340+02:00,3393.758591,0.34808349609375,-0.10870361328125,-1.062469482421875,3393.74864,2.346788192759095,0.2560098933366347,0.08048709594850385,-0.1373547613620758,0.335650235414505,-0.6062210202217102,0.1458364427089691,-0.08544712513685226,-0.163332998752594,XArbitraryZVertical,0.1021684616865587,-0.0861596695875451,-0.9157729011405319,-0.3788114127345183,0.2524027526378632,-0.08040022104978561,-0.9642762541770935,0,0,0,-1,-1,3388.95154675,running,2,2022-06-30T09:23:14.532+02:00,2022-06-30T08:20:05.567+02:00,1052,1.411193,0,0,819.8695,0,0,2022-06-30T09:23:17.081+02:00
2022-06-30T09:23:19.350+02:00,3393.768542,0.3267669677734375,-0.122283935546875,-1.02838134765625,3393.758591,2.341618755121849,0.259868234862668,0.07710561218510315,-0.2527742981910706,0.3644973337650299,-0.5708638429641724,0.1140037775039673,-0.05630163103342056,-0.1388034820556641,XArbitraryZVertical,0.1043702964115218,-0.08561905357765491,-0.9145679270476818,-0.3812370515628572,0.25618976354599,-0.07702923566102982,-0.9635524153709412,0,0,0,-1,-1,3388.95154675,running,2,2022-06-30T09:23:14.532+02:00,2022-06-30T08:20:05.567+02:00,1052,1.411193,0,0,819.8695,0,0,2022-06-30T09:23:17.081+02:00
2022-06-30T09:23:19.360+02:00,3393.778494,0.281463623046875,-0.1943817138671875,-1.005081176757812,3393.768542,2.336984987616291,0.2639033583741353,0.07248887303361018,-0.4165022373199463,0.382265567779541,-0.5691630244255066,0.08791786432266235,-0.03627777844667435,-0.09962558746337891,XArbitraryZVertical,0.1069206198913665,-0.08453421523711804,-0.9134300846824314,-0.3834937775335392,0.2601657211780548,-0.07242540270090103,-0.9628438949584961,0,0,0,-1,-1,3388.95154675,running,2,2022-06-30T09:23:14.532+02:00,2022-06-30T08:20:05.567+02:00,1052,1.411193,0,0,819.8695,0,0,2022-06-30T09:23:17.081+02:00
2022-06-30T09:23:19.370+02:00,3393.788445,0.237213134765625,-0.2879791259765625,-1.024398803710938,3393.778494,2.332636153953616,0.2683112398254524,0.06592128040195476,-0.6343791484832764,0.4539104700088501,-0.6221168041229248,0.0622393786907196,-0.05640996247529984,-0.06625568866729736,XArbitraryZVertical,0.1100414869418189,-0.08263194922840436,-0.9122873556752685,-0.3857391482489855,0.2645276784896851,-0.06587354838848114,-0.9621256589889526,0,0,0,-1,-1,3388.95154675,running,2,2022-06-30T09:23:14.532+02:00,2022-06-30T08:20:05.567+02:00,1052,1.411193,0,0,819.8695,0,0,2022-06-30T09:23:17.081+02:00
2022-06-30T09:23:19.380+02:00,3393.798397,0.1987152099609375,-0.288848876953125,-1.060745239257812,3393.788445,2.328385564367152,0.2737493337812593,0.0570575663796136,-0.8590946197509766,0.603446900844574,-0.6730137467384338,0.0115605890750885,-0.1373546719551086,-0.04388386011123657,XArbitraryZVertical,0.114096167120149,-0.07989624361372602,-0.9110482381895653,-0.3880588362079511,0.2699031233787537,-0.05702661350369453,-0.9611973166465759,0,0,0,-1,-1,3388.95154675,running,2,2022-06-30T09:23:14.532+02:00,2022-06-30T08:20:05.567+02:00,1052,1.411193,0,0,819.8695,0,0,2022-06-30T09:23:17.081+02:00
2022-06-30T09:23:19.390+02:00,3393.808348,0.1767730712890625,-0.2199249267578125,-1.10540771484375,3393.798397,2.324457522571126,0.2808362227589098,0.04587726163070608,-1.087080121040344,0.792549192905426,-0.70013427734375,-0.03965437412261963,-0.2421175241470337,-0.06458574533462524,XArbitraryZVertical,0.119380668970059,-0.07643122031934631,-0.9096948626266838,-0.3903354185107564,0.2768675982952118,-0.04586116969585419,-0.9598130583763123,0,0,0,-1,-1,3388.95154675,running,2,2022-06-30T09:23:14.532+02:00,2022-06-30T08:20:05.567+02:00,1052,1.411193,0,0,819.8695,0,0,2022-06-30T09:23:17.081+02:00
2022-06-30T09:23:19.399+02:00,3393.8183,0.1917266845703125,-0.177978515625,-1.13909912109375,3393.808348,2.320993239481677,0.2898166649060875,0.0325828466204062,-1.281790256500244,0.9860031008720398,-0.7267765402793884,-0.08690959215164185,-0.2562713623046875,-0.102957546710968,XArbitraryZVertical,0.1259689853005548,-0.07237394770501622,-0.9082083418576226,-0.3924940894559544,0.2856248617172241,-0.03257708251476288,-0.9577876329421997,0,0,0,-1,-1,3388.95154675,running,2,2022-06-30T09:23:14.532+02:00,2022-06-30T08:20:05.567+02:00,1052,1.411193,0,0,819.8695,0,0,2022-06-30T09:23:17.081+02:00
2022-06-30T09:23:19.410+02:00,3393.828251,0.2501220703125,-0.1827239990234375,-1.131744384765625,3393.8183,2.317812746854992,0.3004184501886376,0.01725620467707377,-1.48382556438446,1.131239414215088,-0.7826361060142517,-0.1191027164459229,-0.2026691436767578,-0.1503371596336365,XArbitraryZVertical,0.1337092062067899,-0.06772431358951907,-0.9065305511690827,-0.3946361412628909,0.2958758771419525,-0.01725534908473492,-0.9550705552101135,0,0,0,-1,-1,3388.95154675,running,2,2022-06-30T09:23:14.532+02:00,2022-06-30T08:20:05.567+02:00,1052,1.411193,0,0,819.8695,0,0,2022-06-30T09:23:17.081+02:00
2022-06-30T09:23:19.419+02:00,3393.838203,0.3235931396484375,-0.1965789794921875,-1.078170776367188,3393.828251,2.314862877394603,0.3123844628326031,-0.0003305765763952519,-1.727139353752136,1.271228909492493,-0.8516700267791748,-0.1156018376350403,-0.1783086657524109,-0.1874956488609314,XArbitraryZVertical,0.142521535696355,-0.06233701987134169,-0.9046161248487977,-0.3968267768059786,0.3073285520076752,0.0003305765567347407,-0.9516034126281738,0,0,0,-1,-1,3388.95154675,running,2,2022-06-30T09:23:14.532+02:00,2022-06-30T08:20:05.567+02:00,1052,1.411193,0,0,819.8695,0,0,2022-06-30T09:23:17.081+02:00
2022-06-30T09:23:19.429+02:00,3393.848154,0.3865966796875,-0.20806884765625,-1.04998779296875,3393.838203,2.312256430785267,0.3257170612001214,-0.02132773625788836,-2.136995315551758,1.423518657684326,-0.9789137244224548,-0.06979331374168396,-0.204049676656723,-0.1845383048057556,XArbitraryZVertical,0.1526292011426003,-0.05568930787073361,-0.9023914461053318,-0.3991150730241289,0.3199154436588287,0.02132611908018589,-0.9472060799598694,0,0,0,-1,-1,3388.95154675,running,2,2022-06-30T09:23:14.532+02:00,2022-06-30T08:20:05.567+02:00,1052,1.411193,0,0,819.8695,0,0,2022-06-30T09:23:17.081+02:00
2022-06-30T09:23:19.439+02:00,3393.858105,0.4496612548828125,-0.1509857177734375,-0.9601898193359375,3393.848154,2.310274142185173,0.3407590027889956,-0.0473214312079356,-2.70719051361084,1.621965765953064,-1.099248051643372,-0.01023522019386292,-0.2438823133707047,-0.1367245316505432,XArbitraryZVertical,0.1644900779689297,-0.04711594276566008,-0.8997316426362935,-0.4015050107777343,0.3338284194469452,0.04730377346277237,-0.9414461851119995,0,0,0,-1,-1,3388.95154675,running,2,2022-06-30T09:23:14.532+02:00,2022-06-30T08:20:05.567+02:00,1052,1.411193,0,0,819.8695,0,0,2022-06-30T09:23:17.081+02:00
2022-06-30T09:23:19.449+02:00,3393.868057,0.4900360107421875,-0.0493927001953125,-0.8616943359375,3393.858105,2.310358797131446,0.3579366232243303,-0.08039314764935779,-3.567365407943726,1.839917302131653,-1.154748320579529,0.03738588094711304,-0.2883749902248383,-0.1163910627365112,XArbitraryZVertical,0.1786940975286215,-0.03563864088353488,-0.8966395031302103,-0.4035292898126475,0.3492108583450317,0.08030657470226288,-0.9335966110229492,0,0,0,-1,-1,3388.95154675,running,2,2022-06-30T09:23:14.532+02:00,2022-06-30T08:20:05.567+02:00,1052,1.411193,0,0,819.8695,0,0,2022-06-30T09:23:17.081+02:00
2022-06-30T09:23:19.459+02:00,3393.878008,0.5190582275390625,0.1011505126953125,-0.7216796875,3393.868057,2.314097599052447,0.3780551056308523,-0.121857326324301,-4.491725921630859,2.139653205871582,-1.133392691612244,0.08328479528427124,-0.2725412547588348,-0.0376971960067749,XArbitraryZVertical,0.195774142405937,-0.02064541318492592,-0.8930422472262004,-0.4046255031028276,0.3663764894008636,0.121555969119072,-0.922492504119873,0,0,0,-1,-1,3388.95154675,running,2,2022-06-30T09:23:14.532+02:00,2022-06-30T08:20:05.567+02:00,1052,1.411193,0,0,819.8695,0,0,2022-06-30T09:23:17.081+02:00
2022-06-30T09:23:19.469+02:00,3393.88796,0.5513916015625,0.2364501953125,-0.6529388427734375,3393.878008,2.322780374948347,0.4022904365921456,-0.1716531017649036,-5.379964828491211,2.483288049697876,-1.072797298431396,0.1042630672454834,-0.2202036529779434,0.04494941234588623,XArbitraryZVertical,0.2160402710138651,-0.002185688154359914,-0.8887360752895259,-0.404314408792543,0.3857729732990265,0.1708113849163055,-0.9066436290740967,0,0,0,-1,-1,3388.95154675,running,2,2022-06-30T09:23:14.532+02:00,2022-06-30T08:20:05.567+02:00,1052,1.411193,0,0,819.8695,0,0,2022-06-30T09:23:17.081+02:00
2022-06-30T09:23:19.479+02:00,3393.897911,0.614715576171875,0.372833251953125,-0.57769775390625,3393.88796,2.336690049197955,0.4315023402444188,-0.2272478578850053,-5.947509765625,2.819374561309814,-0.9446848034858704,0.1115751266479492,-0.124146044254303,0.1633056402206421,XArbitraryZVertical,0.2390851486848546,0.01859279763171506,-0.8834694695866699,-0.4024605003244211,0.4074831306934357,0.2252969890832901,-0.8849852085113525,0,0,0,-1,-1,3388.95154675,running,2,2022-06-30T09:23:14.532+02:00,2022-06-30T08:20:05.567+02:00,1052,1.411193,0,0,819.8695,0,0,2022-06-30T09:23:17.081+02:00
2022-06-30T09:23:19.489+02:00,3393.907863,0.6741180419921875,0.41937255859375,-0.531982421875,3393.897911,2.356342520104822,0.4657881276661756,-0.2870485325338694,-6.530542373657227,3.057044267654419,-0.8284977078437805,0.1206411123275757,-0.04667216539382935,0.203971803188324,XArbitraryZVertical,0.2642890595122226,0.04118326663722438,-0.8770911048842575,-0.3989567423164264,0.4307504892349243,0.2831227481365204,-0.8569104671478271,0,0,0,-1,-1,3388.95154675,running,2,2022-06-30T09:23:14.532+02:00,2022-06-30T08:20:05.567+02:00,1052,1.411193,0,0,819.8695,0,0,2022-06-30T09:23:17.081+02:00
2022-06-30T09:23:19.499+02:00,3393.917814,0.7193145751953125,0.4971466064453125,-0.4277801513671875,3393.907863,2.382293287123494,0.5054814789982608,-0.3499440792510423,-6.943280220031738,3.289952993392944,-0.6791775226593018,0.1598350405693054,0.02998840808868408,0.2442153096199036,XArbitraryZVertical,0.2911707111360452,0.06529294066230605,-0.8694244353121678,-0.3937736722704712,0.454880565404892,0.3428452908992767,-0.8219128847122192,0,0,0,-1,-1,3388.95154675,running,2,2022-06-30T09:23:14.532+02:00,2022-06-30T08:20:05.567+02:00,1052,1.411193,0,0,819.8695,0,0,2022-06-30T09:23:17.081+02:00
2022-06-30T09:23:19.509+02:00,3393.927765,0.740875244140625,0.5944976806640625,-0.3228302001953125,3393.917814,2.415556165458535,0.5518173270813698,-0.4138902454782943,-7.294342994689941,3.530264616012573,-0.4327301979064941,0.1941471695899963,0.01719892024993896,0.2476868629455566,XArbitraryZVertical,0.3194363381210653,0.09014351316812125,-0.8604039764348854,-0.3867037403103532,0.4799709320068359,0.4021741151809692,-0.7796691656112671,0,0,0,-1,-1,3388.95154675,running,2,2022-06-30T09:23:14.532+02:00,2022-06-30T08:20:05.567+02:00,1052,1.411193,0,0,819.8695,0,0,2022-06-30T09:23:17.081+02:00
2022-06-30T09:23:19.519+02:00,3393.937717,0.73016357421875,0.6515960693359375,-0.2479095458984375,3393.927765,2.457925816548428,0.6063614191475126,-0.4775749769433539,-7.610228538513184,3.749114990234375,-0.1389723569154739,0.2131960391998291,0.03752017021179199,0.3020058870315552,XArbitraryZVertical,0.348972512449862,0.1154352325713939,-0.8499870884539074,-0.3773791815074986,0.5061185359954834,0.4596268236637115,-0.7297857999801636,0,0,0,-1,-1,3388.95154675,running,2,2022-06-30T09:23:14.532+02:00,2022-06-30T08:20:05.567+02:00,1052,1.411193,0,0,819.8695,0,0,2022-06-30T09:23:17.081+02:00
2022-06-30T09:23:19.529+02:00,3393.947668,0.697113037109375,0.6677703857421875,-0.1594085693359375,3393.937717,2.510164444848068,0.6700026216147437,-0.5391325415574201,-7.777005195617676,3.922992944717407,0.1377148926258087,0.2079716324806213,0.08110624551773071,0.3498086929321289,XArbitraryZVertical,0.3793270541575856,0.1406829924365746,-0.8381263187903742,-0.3658736326516376,0.5329035520553589,0.5133917927742004,-0.6726385354995728,0,0,0,-1,-1,3388.95154675,running,2,2022-06-30T09:23:14.532+02:00,2022-06-30T08:20:05.567+02:00,1052,1.411193,0,0,819.8695,0,0,2022-06-30T09:23:17.081+02:00
2022-06-30T09:23:19.539+02:00,3393.95762,0.6393585205078125,0.65350341796875,-0.1046600341796875,3393.947668,2.572226981882034,0.742964927420212,-0.5963579040765935,-7.786209583282471,4.02303409576416,0.3958050012588501,0.170457661151886,0.08996361494064331,0.3614329695701599,XArbitraryZVertical,0.409894675790428,0.1652732910557518,-0.8248737308160744,-0.3524973710157897,0.559705913066864,0.5616328120231628,-0.6093422174453735,0,0,0,-1,-1,3388.95154675,running,2,2022-06-30T09:23:14.532+02:00,2022-06-30T08:20:05.567+02:00,1052,1.411193,0,0,819.8695,0,0,2022-06-30T09:23:17.081+02:00
2022-06-30T09:23:19.549+02:00,3393.967571,0.5750732421875,0.629486083984375,-0.030853271484375,3393.95762,2.64358743051587,0.8249746333557376,-0.6474493288570462,-7.707646369934082,4.096643447875977,0.6118704080581665,0.1112331748008728,0.06461673974990845,0.3818405270576477,XArbitraryZVertical,0.4401609750131976,0.1887695614228496,-0.8103269783560213,-0.3376307437099872,0.5858798027038574,0.6031538844108582,-0.5412487387657166,0,0,0,-1,-1,3388.95154675,running,2,2022-06-30T09:23:14.532+02:00,2022-06-30T08:20:05.567+02:00,1052,1.411193,0,0,819.8695,0,0,2022-06-30T09:23:17.081+02:00
2022-06-30T09:23:19.559+02:00,3393.977523,0.5187530517578125,0.639312744140625,0.0914459228515625,3393.967571,2.723312028132534,0.9157277477966015,-0.6907078346731413,-7.48357105255127,4.208379745483398,0.8586801886558533,0.02811306715011597,0.01642078161239624,0.3649193346500397,XArbitraryZVertical,0.4699159456844697,0.2106882075772535,-0.7945759701656275,-0.3216185429381992,0.6112453937530518,0.6370829343795776,-0.4695789515972137,0,0,0,-1,-1,3388.95154675,running,2,2022-06-30T09:23:14.532+02:00,2022-06-30T08:20:05.567+02:00,1052,1.411193,0,0,819.8695,0,0,2022-06-30T09:23:17.081+02:00
2022-06-30T09:23:19.569+02:00,3393.987474,0.5078887939453125,0.73297119140625,0.2298583984375,3393.977523,2.808488271780835,1.013787542134451,-0.7237609628732922,-6.969868659973145,4.362852096557617,1.096318364143372,-0.06098020076751709,-0.03272122144699097,0.3652750551700592,XArbitraryZVertical,0.4990517151897799,0.2299639713747588,-0.7778259858029277,-0.3050421434953514,0.6360533833503723,0.6622075438499451,-0.3961279094219208,0,0,0,-1,-1,3388.95154675,running,2,2022-06-30T09:23:14.532+02:00,2022-06-30T08:20:05.567+02:00,1052,1.411193,0,0,819.8695,0,0,2022-06-30T09:23:17.081+02:00
2022-06-30T09:23:19.580+02:00,3393.997426,0.564666748046875,0.8016510009765625,0.3551483154296875,3393.987474,2.89429536209444,1.115377266009655,-0.7458141951560634,-6.352383136749268,4.467339038848877,1.221348404884338,-0.1409164667129517,-0.03925710916519165,0.41452357172966,XArbitraryZVertical,0.5272162554938665,0.2459764637273852,-0.76035362040017,-0.2887922157660294,0.6596693992614746,0.6785700917243958,-0.3230772018432617,0,0,0,-1,-1,3388.95154675,running,2,2022-06-30T09:23:14.532+02:00,2022-06-30T08:20:05.567+02:00,1052,1.411193,0,0,819.8695,0,0,2022-06-30T09:23:17.081+02:00
2022-06-30T09:23:19.589+02:00,3394.007377,0.62835693359375,0.7734832763671875,0.4805145263671875,3393.997426,2.976031875538773,1.215965450617385,-0.7575805011812617,-5.59577465057373,4.507508754730225,1.356638550758362,-0.1733549237251282,0.04580575227737427,0.4822683036327362,XArbitraryZVertical,0.5540013522288441,0.2586073660300512,-0.7425401541933019,-0.2735670069866221,0.6812435984611511,0.6871656775474548,-0.2524094581604004,0,0,0,-1,-1,3388.95154675,running,2,2022-06-30T09:23:14.532+02:00,2022-06-30T08:20:05.567+02:00,1052,1.411193,0,0,819.8695,0,0,2022-06-30T09:23:17.081+02:00
2022-06-30T09:23:19.598+02:00,3394.017328,0.6372528076171875,0.6597900390625,0.5673675537109375,3394.007377,3.050450811338825,1.311622750473036,-0.7598536461618656,-4.930246829986572,4.40664529800415,1.477619886398315,-0.1360588073730469,0.1128358840942383,0.5409368872642517,XArbitraryZVertical,0.5791202136885552,0.2678165486473101,-0.7249716124875686,-0.259442303903758,0.7007255554199219,0.6888153553009033,-0.1857881546020508,0,0,0,-1,-1,3388.95154675,running,2,2022-06-30T09:23:14.532+02:00,2022-06-30T08:20:05.567+02:00,1052,1.411193,0,0,819.8695,0,0,2022-06-30T09:23:17.081+02:00
2022-06-30T09:23:19.608+02:00,3394.02728,0.5948028564453125,0.472076416015625,0.678619384765625,3394.017328,3.117748031497277,1.400751178563003,-0.7554818352665637,-4.466817378997803,4.208828449249268,1.457707405090332,-0.08908563852310181,0.08784407377243042,0.6037022471427917,XArbitraryZVertical,0.6023868787042262,0.2748389044695811,-0.7078117548123907,-0.2461632980105786,0.717442512512207,0.685639500617981,-0.1231872513890266,0,0,0,-1,-1,3388.95154675,running,2,2022-06-30T09:23:14.532+02:00,2022-06-30T08:20:05.567+02:00,1052,1.411193,0,0,819.8695,0,0,2022-06-30T09:23:17.081+02:00
2022-06-30T09:23:19.618+02:00,3394.037231,0.58251953125,0.500152587890625,1.012466430664062,3394.02728,-3.107548492734312,1.481217832428432,-0.7469022677614262,-3.748345375061035,4.021698951721191,1.341740608215332,-0.09360224008560181,-0.01957863569259644,0.6330125331878662,XArbitraryZVertical,0.6235560989131642,0.2799205361568277,-0.6912769944432277,-0.234432526314722,0.7308549880981445,0.6793689131736755,-0.06564456969499588,0,0,0,-1,-1,3388.95154675,running,2,2022-06-30T09:23:14.532+02:00,2022-06-30T08:20:05.567+02:00,1052,1.411193,0,0,819.8695,0,0,2022-06-30T09:23:17.081+02:00
2022-06-30T09:23:19.628+02:00,3394.047183,0.65679931640625,0.504913330078125,1.315017700195312,3394.037231,-3.05904492527242,1.552653142619475,-0.7363897239899571,-3.353722095489502,3.732433080673218,1.161608338356018,-0.1459735035896301,-0.1995408535003662,0.6920613050460815,XArbitraryZVertical,0.6425505580431381,0.2835630842751771,-0.6755120252952409,-0.2245091047002309,0.7407762408256531,0.6716174483299255,-0.01344151515513659,0,0,0,-1,-1,3388.95154675,running,2,2022-06-30T09:23:14.532+02:00,2022-06-30T08:20:05.567+02:00,1052,1.411193,0,0,819.8695,0,0,2022-06-30T09:23:17.081+02:00
2022-06-30T09:23:19.638+02:00,3394.057134,0.7939910888671875,0.465484619140625,1.660736083984375,3394.047183,-3.018024418655739,1.614738630702128,-0.7252390213387961,-2.7679443359375,3.213580131530762,0.9920638203620911,-0.1650991439819336,-0.16316157579422,0.9795936346054077,XArbitraryZVertical,0.6590569286580739,0.2864970949291549,-0.6610305724116544,-0.215874867078248,0.7476184964179993,0.6633143424987793,0.0328732393682003,0,0,0,-1,-1,3394.051207,running,2,2022-06-30T09:23:19.632+02:00,2022-06-30T08:20:05.567+02:00,1052,1.411193,0,0,819.8695,0,0,2022-06-30T09:23:19.631+02:00
2022-06-30T09:23:19.648+02:00,3394.067086,0.9364166259765625,0.3214569091796875,1.8280029296875,3394.057134,-2.985676085766259,1.663559688648215,-0.7152468954293955,-2.320647716522217,2.248640060424805,0.6585918664932251,-0.09488648176193237,-0.1508903503417969,1.245088577270508,XArbitraryZVertical,0.6719023371307318,0.2889844999738728,-0.6491796132724484,-0.2088087199634048,0.751685619354248,0.6558037996292114,0.0699295848608017,0,0,0,-1,-1,3394.051207,running,2,2022-06-30T09:23:19.632+02:00,2022-06-30T08:20:05.567+02:00,1052,1.411193,0,0,819.8695,0,0,2022-06-30T09:23:19.631+02:00
2022-06-30T09:23:19.658+02:00,3394.077037,0.867828369140625,0.16290283203125,1.828353881835938,3394.067086,-2.956438605928891,1.69821807705091,-0.7082810414885299,-2.264488935470581,0.844111442565918,0.230247750878334,0.04066693782806396,-0.1850444674491882,1.564223766326904,XArbitraryZVertical,0.6799132101378258,0.2932139214095077,-0.6410678738582063,-0.2019295709919682,0.7533239126205444,0.6505292057991028,0.09651275724172592,0,0,0,-1,-1,3394.051207,running,2,2022-06-30T09:23:19.632+02:00,2022-06-30T08:20:05.567+02:00,1052,1.411193,0,0,819.8695,0,0,2022-06-30T09:23:19.631+02:00
2022-06-30T09:23:19.668+02:00,3394.086989,0.523040771484375,0.309234619140625,1.750534057617188,3394.077037,-2.927439532356126,1.717979530033646,-0.7056820884927307,-2.237840414047241,-0.6525589823722839,-0.3481034636497498,0.1834766864776611,-0.3270961046218872,1.716376066207886,XArbitraryZVertical,0.6823435957194334,0.3003679011964477,-0.6374152587892852,-0.1946490008433602,0.7529398202896118,0.648553192615509,0.1116273179650307,0,0,0,-1,-1,3394.051207,running,2,2022-06-30T09:23:19.632+02:00,2022-06-30T08:20:05.567+02:00,1052,1.411193,0,0,819.8695,0,0,2022-06-30T09:23:19.631+02:00
2022-06-30T09:23:19.678+02:00,3394.09694,0.2015838623046875,0.561676025390625,1.477005004882812,3394.086989,-2.896080282534586,1.724398194406586,-0.7092615503087547,-2.33863353729248,-2.143698930740356,-1.082858920097351,0.1179192662239075,-0.4883705377578735,1.712252378463745,XArbitraryZVertical,0.6790010135900801,0.3114620324752007,-0.6379667817340088,-0.1869428139222081,0.749908983707428,0.6512736082077026,0.1161019504070282,0,0,0,-1,-1,3394.051207,running,2,2022-06-30T09:23:19.632+02:00,2022-06-30T08:20:05.567+02:00,1052,1.411193,0,0,819.8695,0,0,2022-06-30T09:23:19.631+02:00
2022-06-30T09:23:19.688+02:00,3394.106891,0.0850830078125,0.9154815673828125,1.419235229492188,3394.09694,-2.866408808678143,1.714862028559174,-0.7205143792838175,-1.725283980369568,-3.688647747039795,-1.830560088157654,-0.220641016960144,-0.3505365252494812,1.642647981643677,XArbitraryZVertical,0.6692957000847174,0.3255556646333167,-0.6431482530735523,-0.1800476112503151,0.7436816692352295,0.6597713232040405,0.1078864485025406,0,0,0,-1,-1,3394.051207,running,2,2022-06-30T09:23:19.632+02:00,2022-06-30T08:20:05.567+02:00,1052,1.411193,0,0,819.8695,0,0,2022-06-30T09:23:19.631+02:00
2022-06-30T09:23:19.698+02:00,3394.116843,0.12359619140625,0.980560302734375,1.100006103515625,3394.106891,-2.844864916893506,1.68469253915004,-0.7398711299705318,-0.9546329379081726,-5.244076251983643,-2.40742826461792,-0.5321866273880005,-0.1125165820121765,1.393068552017212,XArbitraryZVertical,0.6525044140177402,0.3408906828048295,-0.6537413945177145,-0.1750823702844011,0.7337703704833984,0.6741927266120911,0.08393693715333939,0,0,0,-1,-1,3394.051207,running,2,2022-06-30T09:23:19.632+02:00,2022-06-30T08:20:05.567+02:00,1052,1.411193,0,0,819.8695,0,0,2022-06-30T09:23:19.631+02:00
2022-06-30T09:23:19.708+02:00,3394.126794,0.2686309814453125,0.8663330078125,1.04522705078125,3394.116843,-2.837321210378622,1.630553056041401,-0.765187019047681,0.3466261625289917,-6.657398700714111,-2.752585411071777,-0.6348826289176941,0.2228097319602966,1.376161575317383,XArbitraryZVertical,0.6286934023177498,0.3553612779954926,-0.669929712349799,-0.1722125128076268,0.7199654579162598,0.6926718950271606,0.04307406395673752,0,0,0,-1,-1,3394.051207,running,2,2022-06-30T09:23:19.632+02:00,2022-06-30T08:20:05.567+02:00,1052,1.411193,0,0,819.8695,0,0,2022-06-30T09:23:19.631+02:00
2022-06-30T09:23:19.718+02:00,3394.136746,0.2734832763671875,0.4864959716796875,0.9404144287109375,3394.126794,-2.848390771877726,1.549775624143782,-0.7935706892449019,1.227011799812317,-8.001571655273438,-2.890523195266724,-0.5775534510612488,0.2676985263824463,1.114747405052185,XArbitraryZVertical,0.59802320315534,0.3674205145468702,-0.6914158616223371,-0.1712151026707986,0.701149582862854,0.712861955165863,-0.01474082749336958,0,0,0,-1,-1,3394.051207,running,2,2022-06-30T09:23:19.632+02:00,2022-06-30T08:20:05.567+02:00,1052,1.411193,0,0,819.8695,0,0,2022-06-30T09:23:19.631+02:00
2022-06-30T09:23:19.728+02:00,3394.146697,0.0758056640625,0.03912353515625,0.2550048828125,3394.136746,-2.872575144465636,1.446341652650951,-0.8213828175739958,1.787148356437683,-9.244977951049805,-2.940971612930298,-0.4073097705841064,0.1342446208000183,1.129788637161255,XArbitraryZVertical,0.5611161808450811,0.3779789986754826,-0.7165910020085307,-0.1696402862358128,0.6759406924247742,0.7320885062217712,-0.08456101268529892,0,0,0,-1,-1,3394.051207,running,2,2022-06-30T09:23:19.632+02:00,2022-06-30T08:20:05.567+02:00,1052,1.411193,0,0,819.8695,0,0,2022-06-30T09:23:19.631+02:00
2022-06-30T09:23:19.738+02:00,3394.156649,-0.600860595703125,0.6677703857421875,-1.022491455078125,3394.146697,-2.91801157219145,1.316930059990391,-0.8456366324972181,3.427981376647949,-9.894379615783691,-2.945235967636108,-0.3685135245323181,-0.2618974447250366,1.106990218162537,XArbitraryZVertical,0.5183281847828195,0.3847703770294495,-0.7447880000873198,-0.1690519630394312,0.6419968605041504,0.7483935356140137,-0.1665752977132797,0,0,0,-1,-1,3394.051207,running,2,2022-06-30T09:23:19.632+02:00,2022-06-30T08:20:05.567+02:00,1052,1.411193,0,0,819.8695,0,0,2022-06-30T09:23:19.631+02:00
2022-06-30T09:23:19.748+02:00,3394.1666,-2.041122436523438,0.860565185546875,-0.8620452880859375,3394.156649,-2.985866723124122,1.168403201242896,-0.8583320956441423,4.178012847900391,-9.424554824829102,-2.29377269744873,-0.5256814956665039,-0.717629611492157,0.5110085606575012,XArbitraryZVertical,0.4729981402390002,0.3850599496949031,-0.7740594168178516,-0.1698048386610404,0.6014872193336487,0.7567533254623413,-0.256003201007843,0,0,0,-1,-1,3394.051207,running,2,2022-06-30T09:23:19.632+02:00,2022-06-30T08:20:05.567+02:00,1052,1.411193,0,0,819.8695,0,0,2022-06-30T09:23:19.631+02:00
2022-06-30T09:23:19.758+02:00,3394.176552,-8.087310791015625,4.285140991210938,-12.00201416015625,3394.1666,-3.061504798809305,1.04925133881611,-0.8473048698146162,6.938521862030029,2.285483598709106,0.8224602341651917,-1.174852848052979,-0.08172839879989624,-0.6926664113998413,XArbitraryZVertical,0.4419971385950416,0.3737997072940883,-0.7966055153153648,-0.1741607670030714,0.5739922523498535,0.7494989633560181,-0.3298246264457703,0,0,0,-1,-1,3394.051207,running,2,2022-06-30T09:23:19.632+02:00,2022-06-30T08:20:05.567+02:00,1052,1.411193,0,0,819.8695,0,0,2022-06-30T09:23:19.631+02:00
2022-06-30T09:23:19.768+02:00,3394.186503,1.118057250976562,1.503631591796875,-10.92514038085938,3394.176552,-3.037388305956823,1.105007326558088,-0.8435293881426744,-6.740897655487061,3.66106128692627,-0.6576069593429565,-2.635127067565918,0.1135711669921875,-0.563450813293457,XArbitraryZVertical,0.4600317459358562,0.3729259913976065,-0.7867547765672975,-0.1741092913190069,0.5940045714378357,0.7469941973686218,-0.2985939979553223,0,0,0,-1,-1,3394.051207,running,2,2022-06-30T09:23:19.632+02:00,2022-06-30T08:20:05.567+02:00,1052,1.411193,0,0,819.8695,0,0,2022-06-30T09:23:19.631+02:00
2022-06-30T09:23:19.778+02:00,3394.196454,-0.8635101318359375,2.681671142578125,-4.940185546875,3394.186503,-3.006870191556489,1.139030425874487,-0.8730830808166986,-0.2011079788208008,-1.2603839635849,-2.083100080490112,-8.670817375183105,3.518827676773071,-11.73315715789795,XArbitraryZVertical,0.4635794874187302,0.3881569149462222,-0.7767989879259289,-0.1761009283987352,0.5835065841674805,0.766313374042511,-0.2688565254211426,0,0,0,-1,-1,3394.051207,running,2,2022-06-30T09:23:19.632+02:00,2022-06-30T08:20:05.567+02:00,1052,1.411193,0,0,819.8695,0,0,2022-06-30T09:23:19.631+02:00
2022-06-30T09:23:19.788+02:00,3394.206406,0.152862548828125,1.200042724609375,-0.439208984375,3394.196454,-3.029423693352379,1.120930274093961,-0.885682650649454,1.840596199035645,1.727831363677979,-1.409103989601135,0.5482524633407593,0.7292846441268921,-10.64998722076416,XArbitraryZVertical,0.4592024154368974,0.3893027801924071,-0.7768690685351842,-0.1845292403846439,0.5698047876358032,0.7743471264839172,-0.2751529812812805,0,0,0,-1,-1,3394.051207,running,2,2022-06-30T09:23:19.632+02:00,2022-06-30T08:20:05.567+02:00,1052,1.411193,0,0,819.8695,0,0,2022-06-30T09:23:19.631+02:00
2022-06-30T09:23:19.798+02:00,3394.216357,0.6978912353515625,1.461013793945312,1.585494995117188,3394.206406,-3.07598378600875,1.113088857564182,-0.87932666116821,3.86639142036438,3.580579996109009,0.08576430380344391,-1.435543298721313,1.911361575126648,-4.658403396606445,XArbitraryZVertical,0.4659049855246871,0.3768841941948869,-0.7752944716887458,-0.1995226783651944,0.5720332264900208,0.7703096866607666,-0.2817817032337189,0,0,0,-1,-1,3394.051207,running,2,2022-06-30T09:23:19.632+02:00,2022-06-30T08:20:05.567+02:00,1052,1.411193,0,0,819.8695,0,0,2022-06-30T09:23:19.631+02:00
2022-06-30T09:23:19.808+02:00,3394.226309,0.3244476318359375,1.671966552734375,-0.1837615966796875,3394.216357,-3.132408766101352,1.109228640880106,-0.8545303452764211,4.439919471740723,3.817875385284424,1.027668714523315,-0.4350035190582275,0.4457802772521973,-0.1468023061752319,XArbitraryZVertical,0.4776513658929789,0.3544658839837926,-0.7746752629768754,-0.2146657035480617,0.5878660678863525,0.7542626261711121,-0.2924062311649323,0,0,0,-1,-1,3394.051207,running,2,2022-06-30T09:23:19.632+02:00,2022-06-30T08:20:05.567+02:00,1052,1.411193,0,0,819.8695,0,0,2022-06-30T09:23:19.631+02:00
2022-06-30T09:23:19.818+02:00,3394.23626,-0.862152099609375,0.6951904296875,-2.424362182617188,3394.226309,3.111034879211986,1.114946297704764,-0.830268364118036,2.537449836730957,3.326245069503784,0.9758403301239014,0.09210669994354248,0.7229015231132507,1.882506012916565,XArbitraryZVertical,0.4892802764176635,0.3348127038372756,-0.7731664414115214,-0.2252089181443714,0.6057845950126648,0.7381124496459961,-0.2970105409622192,0,0,0,-1,-1,3394.051207,running,2,2022-06-30T09:23:19.632+02:00,2022-06-30T08:20:05.567+02:00,1052,1.411193,0,0,819.8695,0,0,2022-06-30T09:23:19.631+02:00
2022-06-30T09:23:19.827+02:00,3394.246212,-1.233489990234375,0.8255462646484375,-2.422271728515625,3394.23626,3.086987063855505,1.136546553578988,-0.8154927058422825,1.633081912994385,4.504598140716553,0.3170355260372162,-0.2974372506141663,0.9439033269882202,0.1046532988548279,XArbitraryZVertical,0.5029958085685954,0.3206056276179919,-0.7676192369371183,-0.2344525969618331,0.6218848824501038,0.7280634641647339,-0.2884145081043243,0,0,0,-1,-1,3394.051207,running,2,2022-06-30T09:23:19.632+02:00,2022-06-30T08:20:05.567+02:00,1052,1.411193,0,0,819.8695,0,0,2022-06-30T09:23:19.631+02:00
2022-06-30T09:23:19.837+02:00,3394.256163,-0.8045806884765625,0.7355194091796875,-1.688064575195312,3394.246212,3.071964558629469,1.173286131881228,-0.8110844988210552,0.8105124831199646,4.880026340484619,-0.273845374584198,-1.497164249420166,-0.02984386682510376,-2.157744646072388,XArbitraryZVertical,0.5197955637407106,0.310650972064279,-0.7571885613248457,-0.2448960717126319,0.6350120902061462,0.7250345349311829,-0.266617089509964,0,0,0,-1,-1,3394.051207,running,2,2022-06-30T09:23:19.632+02:00,2022-06-30T08:20:05.567+02:00,1052,1.411193,0,0,819.8695,0,0,2022-06-30T09:23:19.631+02:00
2022-06-30T09:23:19.847+02:00,3394.266116,-0.4733428955078125,0.9248504638671875,-0.7470703125,3394.256163,3.055432252738493,1.209616210582095,-0.8108196331473909,1.41907000541687,4.834635734558105,-0.4201812744140625,-1.877946853637695,0.1006944179534912,-2.178827285766602,XArbitraryZVertical,0.5360012139335595,0.301630023665616,-0.7455718047521779,-0.2566023895242061,0.6444568037986755,0.7248520851135254,-0.2434440553188324,0,0,0,-1,-1,3394.051207,running,2,2022-06-30T09:23:19.632+02:00,2022-06-30T08:20:05.567+02:00,1052,1.411193,0,0,819.8695,0,0,2022-06-30T09:23:19.631+02:00
2022-06-30T09:23:19.857+02:00,3394.276067,-0.3676910400390625,1.091873168945312,-0.3365631103515625,3394.266116,3.028493210304759,1.240166795193326,-0.8084260602132988,2.206360340118408,5.244419574737549,-0.3955365121364594,-1.457812309265137,0.01231861114501953,-1.46385645866394,XArbitraryZVertical,0.5515096991606799,0.2893669809949611,-0.7341319758362258,-0.2704702583865148,0.6532315015792847,0.7232010364532471,-0.2242076098918915,0,0,0,-1,-1,3394.051207,running,2,2022-06-30T09:23:19.632+02:00,2022-06-30T08:20:05.567+02:00,1052,1.411193,0,0,819.8695,0,0,2022-06-30T09:23:19.631+02:00
2022-06-30T09:23:19.867+02:00,3394.286018,-0.37841796875,1.100601196289062,-0.274566650390625,3394.276067,2.992212569860342,1.267978447661754,-0.8053484248175193,2.738864660263062,5.574441909790039,-0.5769816637039185,-1.134677886962891,0.2037785649299622,-0.5404513478279114,XArbitraryZVertical,0.5670243263999895,0.2741790486204763,-0.7218416985157702,-0.2867992967366185,0.6613348722457886,0.7210720777511597,-0.206618532538414,0,0,0,-1,-1,3394.051207,running,2,2022-06-30T09:23:19.632+02:00,2022-06-30T08:20:05.567+02:00,1052,1.411193,0,0,819.8695,0,0,2022-06-30T09:23:19.631+02:00
2022-06-30T09:23:19.877+02:00,3394.29597,-0.5225830078125,1.117965698242188,-0.0718536376953125,3394.286018,2.951025409273688,1.292657160714877,-0.8038403206390469,2.792537212371826,5.337350845336914,-0.7526777982711792,-1.034968137741089,0.3718469738960266,-0.1460280120372772,XArbitraryZVertical,0.5814628243724805,0.2581349147203941,-0.7089378994183181,-0.3044245551241286,0.6672768592834473,0.7200263738632202,-0.190534695982933,0,0,0,-1,-1,3394.051207,running,2,2022-06-30T09:23:19.632+02:00,2022-06-30T08:20:05.567+02:00,1052,1.411193,0,0,819.8695,0,0,2022-06-30T09:23:19.631+02:00
2022-06-30T09:23:19.887+02:00,3394.305921,-0.6578216552734375,1.110427856445312,0.087677001953125,3394.29597,2.910035133337669,1.315134238236508,-0.8048291473704008,2.661718368530273,5.140589714050293,-0.960401713848114,-1.049119710922241,0.379889190196991,-0.0992569774389267,XArbitraryZVertical,0.5944133775389014,0.2429363928513881,-0.6957289403785898,-0.3218942142843925,0.6707015633583069,0.7207121849060059,-0.1753092855215073,0,0,0,-1,-1,3394.051207,running,2,2022-06-30T09:23:19.632+02:00,2022-06-30T08:20:05.567+02:00,1052,1.411193,0,0,819.8695,0,0,2022-06-30T09:23:19.631+02:00
2022-06-30T09:23:19.897+02:00,3394.315873,-0.564208984375,0.951324462890625,0.2451171875,3394.305921,2.869836142912751,1.336607366534177,-0.8095083367943229,2.547353029251099,5.021821975708008,-1.322616934776306,-1.193606734275818,0.3940178751945496,0.0882304310798645,XArbitraryZVertical,0.6062046354695703,0.2290722973908635,-0.6817513065968713,-0.3394954324379485,0.6710236072540283,0.723948061466217,-0.1600836515426636,0,0,0,-1,-1,3394.051207,running,2,2022-06-30T09:23:19.632+02:00,2022-06-30T08:20:05.567+02:00,1052,1.411193,0,0,819.8695,0,0,2022-06-30T09:23:19.631+02:00
2022-06-30T09:23:19.907+02:00,3394.325824,-0.38800048828125,0.8328399658203125,0.372772216796875,3394.315873,2.828235723220009,1.35565658674256,-0.8185722957108652,2.668942451477051,4.897792339324951,-1.728699803352356,-1.325334787368774,0.3802570700645447,0.2335433810949326,XArbitraryZVertical,0.6166293993684441,0.2164143652525005,-0.6669066316078703,-0.3580065469473304,0.6675129532814026,0.7301710844039917,-0.1458660066127777,0,0,0,-1,-1,3394.051207,running,2,2022-06-30T09:23:19.632+02:00,2022-06-30T08:20:05.567+02:00,1052,1.411193,0,0,819.8695,0,0,2022-06-30T09:23:19.631+02:00
2022-06-30T09:23:19.917+02:00,3394.335776,-0.302520751953125,0.9598388671875,0.3864288330078125,3394.325824,2.781565330276091,1.369490188586391,-0.8313860536289156,3.050599813461304,4.783010482788086,-2.117921829223633,-1.224453926086426,0.2124586701393127,0.3798537850379944,XArbitraryZVertical,0.6252658241286826,0.2041433583486054,-0.651434989464566,-0.3781542223575363,0.6602447032928467,0.7388660907745361,-0.1347362697124481,0,0,0,-1,-1,3394.051207,running,2,2022-06-30T09:23:19.632+02:00,2022-06-30T08:20:05.567+02:00,1052,1.411193,0,0,819.8695,0,0,2022-06-30T09:23:19.631+02:00
2022-06-30T09:23:19.927+02:00,3394.345727,-0.334014892578125,1.3153076171875,0.319976806640625,3394.335776,2.726529318677083,1.375448189210159,-0.8480339238504845,3.533522129058838,4.644250392913818,-2.6075279712677,-1.036878824234009,0.0828588604927063,0.5011671185493469,XArbitraryZVertical,0.6316546169013385,0.191872816777474,-0.6353424457280238,-0.4006710898092429,0.6488782167434692,0.7499814033508301,-0.1283945292234421,0,0,0,-1,-1,3394.051207,running,2,2022-06-30T09:23:19.632+02:00,2022-06-30T08:20:05.567+02:00,1052,1.411193,0,0,819.8695,0,0,2022-06-30T09:23:19.631+02:00
2022-06-30T09:23:19.937+02:00,3394.355678,-0.4882659912109375,1.553009033203125,0.2871246337890625,3394.345727,2.661827418945148,1.371490954152537,-0.8674193925458338,4.049075126647949,4.40041446685791,-2.837097644805908,-0.9365140795707703,0.1971768140792847,0.5144875049591064,XArbitraryZVertical,0.6354398587337096,0.1794073923868479,-0.618953985599241,-0.4253530063344337,0.6339930891990662,0.7626623511314392,-0.1280583441257477,0,0,0,-1,-1,3394.051207,running,2,2022-06-30T09:23:19.632+02:00,2022-06-30T08:20:05.567+02:00,1052,1.411193,0,0,819.8695,0,0,2022-06-30T09:23:19.631+02:00
2022-06-30T09:23:19.947+02:00,3394.36563,-0.5818634033203125,1.673004150390625,0.365570068359375,3394.355678,2.586710353345158,1.356073862072939,-0.8866218042541152,4.591785430908203,4.116455554962158,-2.915896892547607,-0.9515345096588135,0.5403669476509094,0.454648494720459,XArbitraryZVertical,0.6364595966519571,0.1660827480553492,-0.6029276596992301,-0.4514577816983438,0.6175194978713989,0.7749410271644592,-0.1346714049577713,0,0,0,-1,-1,3394.051207,running,2,2022-06-30T09:23:19.632+02:00,2022-06-30T08:20:05.567+02:00,1052,1.411193,0,0,819.8695,0,0,2022-06-30T09:23:19.631+02:00
2022-06-30T09:23:19.957+02:00,3394.375581,-0.55157470703125,1.740921020507812,0.5504913330078125,3394.36563,2.502691044752165,1.329860905473673,-0.9045138945885801,4.807316303253174,3.794690608978271,-2.960133075714111,-1.088481426239014,0.7668845653533936,0.4346027970314026,XArbitraryZVertical,0.6348952990412999,0.1522137269212978,-0.5873545551586531,-0.478281971006296,0.6002151370048523,0.7861248254776001,-0.1474778801202774,0,0,0,-1,-1,3394.051207,running,2,2022-06-30T09:23:19.632+02:00,2022-06-30T08:20:05.567+02:00,1052,1.411193,0,0,819.8695,0,0,2022-06-30T09:23:19.631+02:00
2022-06-30T09:23:19.967+02:00,3394.385533,-0.4956817626953125,1.742416381835938,0.714141845703125,3394.375581,2.417214754351666,1.298085577089924,-0.9212003386144508,4.42156457901001,3.417703628540039,-2.950506448745728,-1.164375424385071,0.8766763210296631,0.5284864902496338,XArbitraryZVertical,0.6317754752208251,0.1392898792187288,-0.5721495526559566,-0.5040864807557799,0.582511842250824,0.7963282465934753,-0.1629161536693573,0,0,0,-1,-1,3394.051207,running,2,2022-06-30T09:23:19.632+02:00,2022-06-30T08:20:05.567+02:00,1052,1.411193,0,0,819.8695,0,0,2022-06-30T09:23:19.631+02:00
2022-06-30T09:23:19.977+02:00,3394.395484,-0.417144775390625,1.692840576171875,0.9129486083984375,3394.385533,2.339252439302835,1.267787886076319,-0.9381297540547294,3.5364990234375,3.061064004898071,-2.975896596908569,-1.115934729576111,0.9344676733016968,0.7269304990768433,XArbitraryZVertical,0.6285995916910007,0.1290080275553935,-0.5570871633327329,-0.5271370014901241,0.564359724521637,0.8064536452293396,-0.176438957452774,0,0,0,-1,-1,3394.051207,running,2,2022-06-30T09:23:19.632+02:00,2022-06-30T08:20:05.567+02:00,1052,1.411193,0,0,819.8695,0,0,2022-06-30T09:23:19.631+02:00
2022-06-30T09:23:19.987+02:00,3394.405436,-0.3127288818359375,1.6214599609375,1.0423583984375,3394.395484,2.276118707317917,1.24532833935942,-0.957640881928814,2.264854907989502,2.729819536209106,-3.049226999282837,-1.040922522544861,0.9245802760124207,0.8981437087059021,XArbitraryZVertical,0.6268520578431102,0.122701437604867,-0.5418329425131344,-0.5462763646291624,0.5452404022216797,0.8178362846374512,-0.1840017139911652,0,0,0,-1,-1,3394.051207,running,2,2022-06-30T09:23:19.632+02:00,2022-06-30T08:20:05.567+02:00,1052,1.411193,0,0,819.8695,0,0,2022-06-30T09:23:19.631+02:00
2022-06-30T09:23:19.997+02:00,3394.415387,-0.2885894775390625,1.6590576171875,0.877105712890625,3394.405436,2.228636173020313,1.231385203955307,-0.9810173115437872,1.425441145896912,2.33466362953186,-3.174188137054443,-0.9415932297706604,0.8617773652076721,1.09811806678772,XArbitraryZVertical,0.626785565483162,0.120644995459164,-0.526465496839356,-0.5616217012089516,0.5244482755661011,0.8310636281967163,-0.1851692795753479,0,0,0,-1,-1,3394.051207,running,2,2022-06-30T09:23:19.632+02:00,2022-06-30T08:20:05.567+02:00,1052,1.411193,0,0,819.8695,0,0,2022-06-30T09:23:19.631+02:00
2022-06-30T09:23:20.007+02:00,3394.425339,-0.27874755859375,1.84625244140625,0.548583984375,3394.415387,2.184637291092535,1.21609226033811,-1.006825910239,1.440150618553162,2.022236585617065,-3.318487644195557,-0.8139996528625488,0.7763209342956543,1.228013396263123,XArbitraryZVertical,0.6265061195991736,0.1210895035925185,-0.511314547450975,-0.5756605848771992,0.5012704730033875,0.8451393842697144,-0.1856548339128494,0,0,0,-1,-1,3394.051207,running,2,2022-06-30T09:23:19.632+02:00,2022-06-30T08:20:05.567+02:00,1052,1.411193,0,0,819.8695,0,0,2022-06-30T09:23:19.631+02:00
2022-06-30T09:23:20.017+02:00,3394.43529,-0.24786376953125,2.041946411132812,0.2879791259765625,3394.425339,2.128518169042432,1.18737677717094,-1.030821116672941,2.459718704223633,1.828586101531982,-3.305803537368774,-0.7653752565383911,0.8013364672660828,1.069433212280273,XArbitraryZVertical,0.6238355896573603,0.1211013072689962,-0.4968682323994743,-0.5910039870487241,0.4767854511737823,0.8577214479446411,-0.1923272609710693,0,0,0,-1,-1,3394.051207,running,2,2022-06-30T09:23:19.632+02:00,2022-06-30T08:20:05.567+02:00,1052,1.411193,0,0,819.8695,0,0,2022-06-30T09:23:19.631+02:00
2022-06-30T09:23:20.026+02:00,3394.445241,-0.119232177734375,2.248062133789062,0.1839447021484375,3394.43529,2.043731378765637,1.131517524890384,-1.047869120869374,4.111717224121094,1.644810676574707,-3.272799015045166,-0.7307509183883667,0.9798917174339294,0.7609802484512329,XArbitraryZVertical,0.6163219384734755,0.1181068063144291,-0.4836218814137488,-0.6101704925611739,0.4520029723644257,0.8663610219955444,-0.2123961001634598,0,0,0,-1,-1,3394.051207,running,2,2022-06-30T09:23:19.632+02:00,2022-06-30T08:20:05.567+02:00,1052,1.411193,0,0,819.8695,0,0,2022-06-30T09:23:19.631+02:00
2022-06-30T09:23:20.036+02:00,3394.455193,0.04888916015625,2.244354248046875,0.2713623046875,3394.445241,1.925867178474603,1.044396848641134,-1.053566280999552,5.748358249664307,1.407705903053284,-3.195765972137451,-0.675397515296936,1.172754526138306,0.5364148616790771,XArbitraryZVertical,0.6027944645988045,0.1114497152446334,-0.4717971359067166,-0.6337391232685025,0.4275333285331726,0.8691921830177307,-0.2484355866909027,0,0,0,-1,-1,3394.051207,running,2,2022-06-30T09:23:19.632+02:00,2022-06-30T08:20:05.567+02:00,1052,1.411193,0,0,819.8695,0,0,2022-06-30T09:23:19.631+02:00
2022-06-30T09:23:20.046+02:00,3394.465144,0.206787109375,1.981674194335938,0.48028564453125,3394.455193,1.785181312082093,0.9349012168696207,-1.045160097755715,6.831954479217529,1.114693164825439,-3.126618146896362,-0.5229215025901794,1.383057475090027,0.4819411039352417,XArbitraryZVertical,0.5836099287445414,0.1019869040633355,-0.4612739574270595,-0.6604728917243554,0.4036889374256134,0.8650048971176147,-0.2979962527751923,0,0,0,-1,-1,3394.051207,running,2,2022-06-30T09:23:19.632+02:00,2022-06-30T08:20:05.567+02:00,1052,1.411193,0,0,819.8695,0,0,2022-06-30T09:23:19.631+02:00
2022-06-30T09:23:20.056+02:00,3394.475096,0.3383026123046875,1.691726684570312,0.4761810302734375,3394.465144,1.64200232561103,0.8213034046146582,-1.024671074960587,6.951860904693604,0.8132134675979614,-3.089147329330444,-0.3313153088092804,1.389811038970947,0.6251991987228394,XArbitraryZVertical,0.5609401769125957,0.0918025874156872,-0.4514664802406865,-0.6878200638354519,0.380204051733017,0.8545433878898621,-0.3538368046283722,0,0,0,-1,-1,3394.051207,running,2,2022-06-30T09:23:19.632+02:00,2022-06-30T08:20:05.567+02:00,1052,1.411193,0,0,819.8695,0,0,2022-06-30T09:23:19.631+02:00
2022-06-30T09:23:20.066+02:00,3394.485047,0.432708740234375,1.666656494140625,0.4066314697265625,3394.475096,1.513732563148994,0.7191877714747741,-0.9983197430335611,6.294248580932617,0.5305340886116028,-3.045489072799683,-0.1500812470912933,1.141112327575684,0.8878405094146729,XArbitraryZVertical,0.5378886238047187,0.08305688940860552,-0.4418461884324325,-0.7131264510037488,0.3568679392337799,0.8405619263648987,-0.4075547754764557,0,0,0,-1,-1,3394.051207,running,2,2022-06-30T09:23:19.632+02:00,2022-06-30T08:20:05.567+02:00,1052,1.411193,0,0,819.8695,0,0,2022-06-30T09:23:19.631+02:00
2022-06-30T09:23:20.076+02:00,3394.494999,0.3910980224609375,1.848403930664062,0.227630615234375,3394.485047,1.405954641395358,0.6333007652063499,-0.9716670874171254,5.371675968170166,0.2547307014465332,-2.94158935546875,0.004567354917526245,0.865899920463562,0.9307478070259094,XArbitraryZVertical,0.5165453523007532,0.07679542225011519,-0.4323332521399749,-0.7350995780913523,0.3337348997592926,0.8258269429206848,-0.4545667171478271,0,0,0,-1,-1,3394.051207,running,2,2022-06-30T09:23:19.632+02:00,2022-06-30T08:20:05.567+02:00,1052,1.411193,0,0,819.8695,0,0,2022-06-30T09:23:19.631+02:00
2022-06-30T09:23:20.086+02:00,3394.50495,0.2915802001953125,1.880233764648438,-0.0097503662109375,3394.494999,1.314259733580387,0.5595461449735565,-0.9459732480986019,4.941862106323242,0.03502818197011948,-2.951104640960693,0.1222139596939087,0.8555900454521179,0.9023776054382324,XArbitraryZVertical,0.4968138724153363,0.0728215525948553,-0.4230428347473846,-0.7542596860877844,0.3104943633079529,0.8110666275024414,-0.495745986700058,0,0,0,-1,-1,3394.051207,running,2,2022-06-30T09:23:19.632+02:00,2022-06-30T08:20:05.567+02:00,1052,1.411193,0,0,819.8695,0,0,2022-06-30T09:23:19.631+02:00
2022-06-30T09:23:20.101+02:00,3394.514901,0.3343658447265625,1.830703735351562,-0.2416839599609375,3394.50495,1.228025024880396,0.4905094559705022,-0.9167202324668245,5.433262825012207,0.02557527087628841,-3.040171146392822,0.1044829487800598,1.054793834686279,0.7643193602561951,XArbitraryZVertical,0.4762857362887273,0.06933650631532257,-0.4134081296248981,-0.7729413126920568,0.2866146862506866,0.7936103940010071,-0.5366886854171753,0,0,0,-1,-1,3394.051207,running,2,2022-06-30T09:23:19.632+02:00,2022-06-30T08:20:05.567+02:00,1052,1.411193,0,0,819.8695,0,0,2022-06-30T09:23:19.631+02:00
2022-06-30T09:23:20.106+02:00,3394.524853,0.4044342041015625,1.826644897460938,-0.417388916015625,3394.514901,1.142100075081249,0.423735518978098,-0.8767352140254056,6.55818510055542,0.04590983688831329,-3.101174354553223,0.02857008576393127,1.111579418182373,0.5733414888381958,XArbitraryZVertical,0.4520447995334929,0.06410596222528051,-0.4033682735761092,-0.7929944012349063,0.2630097270011902,0.7686545848846436,-0.5830918550491333,0,0,0,-1,-1,3394.051207,running,2,2022-06-30T09:23:19.632+02:00,2022-06-30T08:20:05.567+02:00,1052,1.411193,0,0,819.8695,0,0,2022-06-30T09:23:19.631+02:00
2022-06-30T09:23:20.116+02:00,3394.534804,0.42816162109375,1.688430786132812,-0.6226654052734375,3394.524853,1.056571235052932,0.3595020526133191,-0.8227401508227197,7.808942317962646,-0.03651094436645508,-3.264535188674927,0.09506019949913025,1.097691416740417,0.3950465321540833,XArbitraryZVertical,0.422387466064341,0.05677679302750096,-0.3928147380247573,-0.8148998309190775,0.23930524289608,0.7330124974250793,-0.636730432510376,0,0,0,-1,-1,3394.051207,running,2,2022-06-30T09:23:19.632+02:00,2022-06-30T08:20:05.567+02:00,1052,1.411193,0,0,819.8695,0,0,2022-06-30T09:23:19.631+02:00
2022-06-30T09:23:20.126+02:00,3394.544756,0.4730224609375,1.761428833007812,-0.595977783203125,3394.534804,0.9728931736065322,0.2994196825800854,-0.7529318671947409,9.33658504486084,-0.08145923912525177,-3.416772365570068,0.1892010122537613,1.142863988876343,0.2798330187797546,XArbitraryZVertical,0.3861984114446449,0.04732677051535079,-0.3814136902841259,-0.8385312657127881,0.2152327746152878,0.6837810277938843,-0.6972219347953796,0,0,0,-1,-1,3394.051207,running,2,2022-06-30T09:23:19.632+02:00,2022-06-30T08:20:05.567+02:00,1052,1.411193,0,0,819.8695,0,0,2022-06-30T09:23:19.631+02:00
2022-06-30T09:23:20.140+02:00,3394.554707,0.4649200439453125,1.559478759765625,-0.5860595703125,3394.544756,0.8947897955414006,0.2467874342109363,-0.666724492638024,10.48123741149902,-0.2838972210884094,-3.378149747848511,0.2361855506896973,1.070015668869019,0.1393765211105347,XArbitraryZVertical,0.3430884344090462,0.03562803709483759,-0.3693825199471544,-0.8628890383673371,0.1919756531715393,0.6184152364730835,-0.7620419263839722,0,0,0,-1,-1,3394.051207,running,2,2022-06-30T09:23:19.632+02:00,2022-06-30T08:20:05.567+02:00,1052,1.411193,0,0,819.8695,0,0,2022-06-30T09:23:19.631+02:00
2022-06-30T09:23:20.146+02:00,3394.564659,0.517822265625,1.218109130859375,-0.6030120849609375,3394.554707,0.8242035785716855,0.2022495971912248,-0.567361178036954,11.53377342224121,-0.4219291210174561,-3.483726024627686,0.3036209344863892,1.22402036190033,0.2301549911499023,XArbitraryZVertical,0.2939676548528761,0.0227299318257698,-0.356672709799808,-0.8864823124888995,0.1694011092185974,0.5374085307121277,-0.8261327147483826,0,0,0,-1,-1,3394.051207,running,2,2022-06-30T09:23:19.632+02:00,2022-06-30T08:20:05.567+02:00,1052,1.411193,0,0,819.8695,0,0,2022-06-30T09:23:19.631+02:00
2022-06-30T09:23:20.156+02:00,3394.57461,0.5339813232421875,1.005889892578125,-0.7862548828125,3394.564659,0.7601337998248997,0.1658793513366351,-0.4574593248527328,12.10422801971436,-0.5693320631980896,-3.474699735641479,0.3167779445648193,1.117808818817139,0.2988028526306152,XArbitraryZVertical,0.2397698659965564,0.008898498792945513,-0.3426346099793235,-0.9083131216639241,0.1481416672468185,0.4416700899600983,-0.88486248254776,0,0,0,-1,-1,3394.051207,running,2,2022-06-30T09:23:19.632+02:00,2022-06-30T08:20:05.567+02:00,1052,1.411193,0,0,819.8695,0,0,2022-06-30T09:23:19.631+02:00
2022-06-30T09:23:20.166+02:00,3394.584562,0.4413604736328125,0.8352813720703125,-1.001251220703125,3394.57461,0.7047633725289714,0.1378650820695351,-0.3441688925881866,11.84598445892334,-0.7043857574462891,-3.19338321685791,0.388452410697937,0.8806947469711304,0.3294121623039246,XArbitraryZVertical,0.1837538282417471,-0.004731659556706735,-0.3281592538565312,-0.9265654619246111,0.1293694227933884,0.337414413690567,-0.9324243068695068,0,0,0,-1,-1,3394.051207,running,2,2022-06-30T09:23:19.632+02:00,2022-06-30T08:20:05.567+02:00,1052,1.411193,0,0,819.8695,0,0,2022-06-30T09:23:19.631+02:00
2022-06-30T09:23:20.176+02:00,3394.594513,0.291259765625,0.673675537109375,-1.203079223632812,3394.584562,0.6587524964318218,0.1168435438873463,-0.2363571005133223,10.66810321807861,-0.8461554050445557,-2.85064959526062,0.4206441938877106,0.7717273831367493,0.1793136596679688,XArbitraryZVertical,0.1301295260954228,-0.01679325242099295,-0.3141346390290755,-0.9402679865233131,0.1133366972208023,0.2341625690460205,-0.9655686020851135,0,0,0,-1,-1,3394.051207,running,2,2022-06-30T09:23:19.632+02:00,2022-06-30T08:20:05.567+02:00,1052,1.411193,0,0,819.8695,0,0,2022-06-30T09:23:19.631+02:00
2022-06-30T09:23:20.186+02:00,3394.604464,0.1296844482421875,0.84857177734375,-1.370346069335938,3394.594513,0.6207400621715776,0.1015746904875921,-0.1412132013324248,9.152912139892578,-0.7514001727104187,-2.530967473983765,0.3409692645072937,0.6945370435714722,-0.0163082480430603,XArbitraryZVertical,0.08255630427965624,-0.02670118844792913,-0.3008469265834389,-0.9497171981677939,0.1003907769918442,0.1407443434000015,-0.9849430322647095,0,0,0,-1,-1,3394.051207,running,2,2022-06-30T09:23:19.632+02:00,2022-06-30T08:20:05.567+02:00,1052,1.411193,0,0,819.8695,0,0,2022-06-30T09:23:19.631+02:00
2022-06-30T09:23:20.196+02:00,3394.614416,0.127593994140625,1.123306274414062,-1.572540283203125,3394.604464,0.5887340787097513,0.09248717737804439,-0.05894253428518633,7.989852428436279,-0.4326728582382202,-2.255313634872437,0.1990643441677094,0.6147671341896057,-0.2090823650360107,XArbitraryZVertical,0.04157559969826526,-0.03567923987286002,-0.2883945690414713,-0.9559430157640751,0.09219499677419662,0.05890841037034988,-0.9939969182014465,0,0,0,-1,-1,3394.051207,running,2,2022-06-30T09:23:19.632+02:00,2022-06-30T08:20:05.567+02:00,1052,1.411193,0,0,819.8695,0,0,2022-06-30T09:23:19.631+02:00
2022-06-30T09:23:20.206+02:00,3394.624367,0.3136138916015625,1.175048828125,-1.49249267578125,3394.614416,0.5606427700416463,0.08854467140074744,0.01551895775216671,7.504415035247803,-0.270670086145401,-2.006428003311157,0.04126565158367157,0.8640900850296021,-0.3743835687637329,XArbitraryZVertical,0.004794994927506303,-0.04467370392966628,-0.2767150943649342,-0.9599010741912058,0.08841836452484131,-0.01551833469420671,-0.9959625601768494,0,0,0,-1,-1,3394.051207,running,2,2022-06-30T09:23:19.632+02:00,2022-06-30T08:20:05.567+02:00,1052,1.411193,0,0,819.8695,0,0,2022-06-30T09:23:19.631+02:00
2022-06-30T09:23:20.216+02:00,3394.634319,0.4258880615234375,0.9738616943359375,-1.275436401367188,3394.624367,0.5357618075932302,0.08626382528451926,0.08730020637536239,7.284430027008057,-0.4895983040332794,-1.713093876838684,0.04176478832960129,1.210495591163635,-0.5800527930259705,XArbitraryZVertical,-0.03063866398102813,-0.05308033765846471,-0.2660048867658156,-0.9620213807015964,0.08582877367734909,-0.08718936145305634,-0.9924874901771545,0,0,0,-1,-1,3394.051207,running,2,2022-06-30T09:23:19.632+02:00,2022-06-30T08:20:05.567+02:00,1052,1.411193,0,0,819.8695,0,0,2022-06-30T09:23:19.631+02:00
2022-06-30T09:23:20.225+02:00,3394.64427,0.3737335205078125,0.4900360107421875,-1.287750244140625,3394.634319,0.5137933264350157,0.08230471826462143,0.1553081250838746,6.667290210723877,-0.8015258312225342,-1.513936042785645,0.2323911339044571,1.329733371734619,-0.5078731775283813,XArbitraryZVertical,-0.06454516421210313,-0.05936457793623844,-0.2561869326256052,-0.9626411703675727,0.08122231811285019,-0.1546845287084579,-0.9846195578575134,0,0,0,-1,-1,3394.051207,running,2,2022-06-30T09:23:19.632+02:00,2022-06-30T08:20:05.567+02:00,1052,1.411193,0,0,819.8695,0,0,2022-06-30T09:23:19.631+02:00
2022-06-30T09:23:20.235+02:00,3394.654222,0.304046630859375,0.3430633544921875,-1.344375610351562,3394.64427,0.4937632348339351,0.0785676107893731,0.216399354413017,5.873010635375977,-0.6477252244949341,-1.450901627540588,0.3492313623428345,1.188575983047485,-0.30177241563797,XArbitraryZVertical,-0.09509195746652763,-0.06423024230204781,-0.2468772858920081,-0.9622284801349577,0.07665624469518661,-0.2147143483161926,-0.9736639857292175,0,0,0,-1,-1,3394.051207,running,2,2022-06-30T09:23:19.632+02:00,2022-06-30T08:20:05.567+02:00,1052,1.411193,0,0,819.8695,0,0,2022-06-30T09:23:19.631+02:00
2022-06-30T09:23:20.245+02:00,3394.664173,0.381927490234375,0.286346435546875,-1.410812377929688,3394.654222,0.4750804513710448,0.07830097656858795,0.2697598853483889,5.134898662567139,-0.3315286934375763,-1.323465585708618,0.2983409762382507,0.7565359473228455,-0.32686847448349,XArbitraryZVertical,-0.1214686005055281,-0.06931445400820281,-0.238112197436626,-0.9611157887761369,0.07539211958646774,-0.2665000259876251,-0.960881769657135,0,0,0,-1,-1,3394.051207,running,2,2022-06-30T09:23:19.632+02:00,2022-06-30T08:20:05.567+02:00,1052,1.411193,0,0,819.8695,0,0,2022-06-30T09:23:19.631+02:00
2022-06-30T09:23:20.255+02:00,3394.674125,0.4220123291015625,0.1611785888671875,-1.556060791015625,3394.664173,0.4583735123465091,0.08054164391675736,0.3174794055433565,4.724239826202393,-0.2118209898471832,-1.12127947807312,0.2276122868061066,0.6552362442016602,-0.3974300026893616,XArbitraryZVertical,-0.1447841847097339,-0.07459724911490011,-0.2303450273378974,-0.9593821180050017,0.07643389701843262,-0.312172919511795,-0.9469456076622009,0,0,0,-1,-1,3394.051207,running,2,2022-06-30T09:23:19.632+02:00,2022-06-30T08:20:05.567+02:00,1052,1.411193,0,0,819.8695,0,0,2022-06-30T09:23:19.631+02:00
2022-06-30T09:23:20.265+02:00,3394.684076,0.39959716796875,0.0947113037109375,-1.568939208984375,3394.674125,0.4431553251945035,0.0844281686668067,0.3631800576150021,4.693318367004395,-0.01599928922951221,-1.00844407081604,0.3030997216701508,0.6415950059890747,-0.4793701171875,XArbitraryZVertical,-0.1668994697036991,-0.08014641173728868,-0.2233979351634621,-0.956981971330269,0.07882735133171082,-0.3552486598491669,-0.9314422607421875,0,0,0,-1,-1,3394.051207,running,2,2022-06-30T09:23:19.632+02:00,2022-06-30T08:20:05.567+02:00,1052,1.411193,0,0,819.8695,0,0,2022-06-30T09:23:19.631+02:00
2022-06-30T09:23:20.276+02:00,3394.694027,0.3954620361328125,0.0084381103515625,-1.53460693359375,3394.684076,0.4284011846907643,0.09057826465323045,0.4086344861598913,4.63281774520874,0.1134430393576622,-0.9220547080039978,0.3390050530433655,0.558535099029541,-0.6421583890914917,XArbitraryZVertical,-0.1886349506228788,-0.08640400648980505,-0.216907514335273,-0.9538880727751134,0.08300682902336121,-0.3973566293716431,-0.9139024019241333,0,0,0,-1,-1,3394.051207,running,2,2022-06-30T09:23:19.632+02:00,2022-06-30T08:20:05.567+02:00,1052,1.411193,0,0,819.8695,0,0,2022-06-30T09:23:19.631+02:00
2022-06-30T09:23:20.285+02:00,3394.703979,0.3199462890625,0.076568603515625,-1.464736938476562,3394.694027,0.4139660673954965,0.09843838476578662,0.4535123215174678,4.585126399993896,0.2668890655040741,-0.864277720451355,0.3112519383430481,0.5328366756439209,-0.6743771433830261,XArbitraryZVertical,-0.2099007573885444,-0.09306257185276029,-0.2108296945718477,-0.9501747448471608,0.08834478259086609,-0.4381254911422729,-0.8945620656013489,0,0,0,-1,-1,3394.051207,running,2,2022-06-30T09:23:19.632+02:00,2022-06-30T08:20:05.567+02:00,1052,1.411193,0,0,819.8695,0,0,2022-06-30T09:23:19.631+02:00
2022-06-30T09:23:20.295+02:00,3394.71393,0.3521881103515625,0.0446319580078125,-1.39178466796875,3394.703979,0.3989521617786995,0.1089603892292118,0.4976749770565196,4.509827136993408,0.453850269317627,-0.8836430311203003,0.2999080121517181,0.4858218431472778,-0.6611229777336121,XArbitraryZVertical,-0.2305778189698978,-0.1004584167147407,-0.2049122217788726,-0.9459139050038592,0.09555359929800034,-0.4773838520050049,-0.8734839558601379,0,0,0,-1,-1,3394.051207,running,2,2022-06-30T09:23:19.632+02:00,2022-06-30T08:20:05.567+02:00,1052,1.411193,0,0,819.8695,0,0,2022-06-30T09:23:19.631+02:00
2022-06-30T09:23:20.305+02:00,3394.723882,0.371917724609375,-0.011260986328125,-1.33197021484375,3394.71393,0.3830693278352073,0.1220084439119056,0.5403228105458519,4.293714046478271,0.5805914998054504,-0.876250684261322,0.2155778110027313,0.5909813046455383,-0.6135690212249756,XArbitraryZVertical,-0.2503341621212244,-0.1083921820758946,-0.1990930480723323,-0.9412470484274469,0.1043680608272552,-0.5144128203392029,-0.8511678576469421,0,0,0,-1,-1,3394.051207,running,2,2022-06-30T09:23:19.632+02:00,2022-06-30T08:20:05.567+02:00,1052,1.411193,0,0,819.8695,0,0,2022-06-30T09:23:19.631+02:00
2022-06-30T09:23:20.315+02:00,3394.733833,0.366119384765625,0.00341796875,-1.279296875,3394.723882,0.366714204032239,0.1374153485891221,0.5801196953482282,3.98455810546875,0.7676783800125122,-0.8458229303359985,0.2376152575016022,0.5927558541297913,-0.5632719993591309,XArbitraryZVertical,-0.268556916181233,-0.1167084807311986,-0.193609068065508,-0.9363609404034426,0.1145724207162857,-0.5481240749359131,-0.8285126090049744,0,0,0,-1,-1,3394.051207,running,2,2022-06-30T09:23:19.632+02:00,2022-06-30T08:20:05.567+02:00,1052,1.411193,0,0,819.8695,0,0,2022-06-30T09:23:19.631+02:00
2022-06-30T09:23:20.325+02:00,3394.743785,0.3739166259765625,-0.0016937255859375,-1.206039428710938,3394.733833,0.3501832817583459,0.155270618441277,0.6165769642502599,3.655580282211304,0.9409494996070862,-0.7960053086280823,0.2457462102174759,0.5669847130775452,-0.5259226560592651,XArbitraryZVertical,-0.2850156259228756,-0.1254684529815094,-0.1886589930883218,-0.9313600283429538,0.1261710822582245,-0.5782458186149597,-0.8060474991798401,0,0,0,-1,-1,3394.051207,running,2,2022-06-30T09:23:19.632+02:00,2022-06-30T08:20:05.567+02:00,1052,1.411193,0,0,819.8695,0,0,2022-06-30T09:23:19.631+02:00
2022-06-30T09:23:20.335+02:00,3394.753736,0.4012451171875,-0.031768798828125,-1.120864868164062,3394.743785,0.3337858218241385,0.1751618923830779,0.6492547060775691,3.23635196685791,1.110064268112183,-0.7418473362922668,0.2273088097572327,0.6080107688903809,-0.494950532913208,XArbitraryZVertical,-0.2995470795196142,-0.1345302189273844,-0.1843504251570277,-0.9263844536114558,0.1388101428747177,-0.6045929193496704,-0.784346342086792,0,0,0,-1,-1,3394.051207,running,2,2022-06-30T09:23:19.632+02:00,2022-06-30T08:20:05.567+02:00,1052,1.411193,0,0,819.8695,0,0,2022-06-30T09:23:19.631+02:00
2022-06-30T09:23:20.345+02:00,3394.763688,0.403167724609375,-0.0862884521484375,-1.112152099609375,3394.753736,0.3180232948810286,0.1969257791319147,0.6771103617343808,2.710044384002686,1.31336784362793,-0.6760813593864441,0.2214249968528748,0.6248496770858765,-0.4417163729667664,XArbitraryZVertical,-0.3116641574671097,-0.143888597299504,-0.1808679970982217,-0.9216552489100265,0.1524912118911743,-0.6265435218811035,-0.7643230557441711,0,0,0,-1,-1,3394.051207,running,2,2022-06-30T09:23:19.632+02:00,2022-06-30T08:20:05.567+02:00,1052,1.411193,0,0,819.8695,0,0,2022-06-30T09:23:19.631+02:00
2022-06-30T09:23:20.355+02:00,3394.773639,0.363739013671875,-0.0717926025390625,-1.099090576171875,3394.763688,0.3030448457280049,0.2208026066008312,0.6998437072497919,2.247697353363037,1.571310877799988,-0.6557594537734985,0.2337124049663544,0.6123292446136475,-0.3744932413101196,XArbitraryZVertical,-0.3212105372328123,-0.1537464980456586,-0.1782714217753771,-0.9172814372130703,0.1675322949886322,-0.644098162651062,-0.7463716268539429,0,0,0,-1,-1,3394.051207,running,2,2022-06-30T09:23:19.632+02:00,2022-06-30T08:20:05.567+02:00,1052,1.411193,0,0,819.8695,0,0,2022-06-30T09:23:19.631+02:00
2022-06-30T09:23:20.365+02:00,3394.78359,0.399810791015625,-0.1187896728515625,-1.111984252929688,3394.773639,0.2882352189092698,0.2473828201303479,0.718435348856904,1.927499771118164,1.826633810997009,-0.6724894046783447,0.2188222408294678,0.5719189643859863,-0.3822343945503235,XArbitraryZVertical,-0.3286513443972625,-0.1644064573161318,-0.1763473996072087,-0.9131595829548245,0.1843450367450714,-0.6582075357437134,-0.7299176454544067,0,0,0,-1,-1,3394.051207,running,2,2022-06-30T09:23:19.632+02:00,2022-06-30T08:20:05.567+02:00,1052,1.411193,0,0,819.8695,0,0,2022-06-30T09:23:19.631+02:00
2022-06-30T09:23:20.375+02:00,3394.793542,0.4464569091796875,-0.1768341064453125,-1.113739013671875,3394.78359,0.273031488820761,0.2770455755883311,0.7344852091981741,1.787227034568787,2.105045557022095,-0.6949451565742493,0.1607422977685928,0.5984124541282654,-0.3852155804634094,XArbitraryZVertical,-0.3347569296336042,-0.1760690416709083,-0.174916442300473,-0.9090333680020861,0.2029962837696075,-0.6702051758766174,-0.7138749957084656,0,0,0,-1,-1,3394.051207,running,2,2022-06-30T09:23:19.632+02:00,2022-06-30T08:20:05.567+02:00,1052,1.411193,0,0,819.8695,0,0,2022-06-30T09:23:19.631+02:00
2022-06-30T09:23:20.385+02:00,3394.803493,0.42657470703125,-0.21612548828125,-1.0914306640625,3394.793542,0.2568658410135645,0.3103608242880001,0.7489540240491771,1.688346028327942,2.393655776977539,-0.7616192698478699,0.1761333048343658,0.5620832443237305,-0.4145743846893311,XArbitraryZVertical,-0.3399899361001045,-0.188949451810119,-0.1738412411747075,-0.9047012551847594,0.2236770689487457,-0.6808730363845825,-0.6974098682403564,0,0,0,-1,-1,3394.051207,running,2,2022-06-30T09:23:19.632+02:00,2022-06-30T08:20:05.567+02:00,1052,1.411193,0,0,819.8695,0,0,2022-06-30T09:23:19.631+02:00
2022-06-30T09:23:20.395+02:00,3394.813445,0.4250335693359375,-0.215423583984375,-1.021102905273438,3394.803493,0.2391839978321454,0.3479913029463995,0.7617240974373817,1.561286330223083,2.737008571624756,-0.8473596572875977,0.1996854245662689,0.5133358240127563,-0.4334675073623657,XArbitraryZVertical,-0.344318912503707,-0.2032455038515706,-0.1729780789916995,-0.9001191226173808,0.2467710822820663,-0.6901701092720032,-0.6802715063095093,0,0,0,-1,-1,3394.051207,running,2,2022-06-30T09:23:19.632+02:00,2022-06-30T08:20:05.567+02:00,1052,1.411193,0,0,819.8695,0,0,2022-06-30T09:23:19.631+02:00
2022-06-30T09:23:20.405+02:00,3394.823396,0.4480133056640625,-0.1947174072265625,-0.9452667236328125,3394.813445,0.2204171149049671,0.3903552413065139,0.7723953589618934,1.403056740760803,3.155456781387329,-0.9147064685821533,0.1540323793888092,0.4817272424697876,-0.4290695190429688,XArbitraryZVertical,-0.3475156877082416,-0.2192082457497138,-0.172558706181968,-0.8952118322747759,0.2725419104099274,-0.6978529095649719,-0.662361204624176,0,0,0,-1,-1,3394.051207,running,2,2022-06-30T09:23:19.632+02:00,2022-06-30T08:20:05.567+02:00,1052,1.411193,0,0,819.8695,0,0,2022-06-30T09:23:19.631+02:00
2022-06-30T09:23:20.415+02:00,3394.833348,0.40435791015625,-0.1838531494140625,-0.877288818359375,3394.823396,0.2006314693380585,0.4377511333596963,0.7804828217175611,1.218209028244019,3.586263179779053,-1.036942958831787,0.1238182187080383,0.4881989359855652,-0.3775309920310974,XArbitraryZVertical,-0.3493586666230658,-0.2369864134405887,-0.1725928867036299,-0.8899424899194013,0.3012149035930634,-0.703622579574585,-0.6435719132423401,0,0,0,-1,-1,3394.051207,running,2,2022-06-30T09:23:19.632+02:00,2022-06-30T08:20:05.567+02:00,1052,1.411193,0,0,819.8695,0,0,2022-06-30T09:23:19.631+02:00
2022-06-30T09:23:20.425+02:00,3394.843299,0.3485870361328125,-0.1820831298828125,-0.7649688720703125,3394.833348,0.1798069441681569,0.4903021224153974,0.7851010591274629,0.9023746252059937,4.01481294631958,-1.196879386901855,0.114942729473114,0.5121790766716003,-0.32127845287323,XArbitraryZVertical,-0.3494765497279831,-0.2566553697325913,-0.1729430633822381,-0.8843556660212656,0.3330701589584351,-0.7068966627120972,-0.6239883303642273,0,0,0,-1,-1,3394.051207,running,2,2022-06-30T09:23:19.632+02:00,2022-06-30T08:20:05.567+02:00,1052,1.411193,0,0,819.8695,0,0,2022-06-30T09:23:19.631+02:00
2022-06-30T09:23:20.434+02:00,3394.853251,0.2933807373046875,-0.1723175048828125,-0.6985321044921875,3394.843299,0.1598183620536146,0.546674499904743,0.7845726921646717,0.397071897983551,4.480649948120117,-1.329267859458923,0.03646522760391235,0.5226695537567139,-0.2727387547492981,XArbitraryZVertical,-0.347023230224857,-0.2780285031856312,-0.1738938872291673,-0.8786557736785631,0.3678922653198242,-0.7065228223800659,-0.6045500636100769,0,0,0,-1,-1,3394.051207,running,2,2022-06-30T09:23:19.632+02:00,2022-06-30T08:20:05.567+02:00,1052,1.411193,0,0,819.8695,0,0,2022-06-30T09:23:19.631+02:00
2022-06-30T09:23:20.444+02:00,3394.863202,0.2419281005859375,-0.0880279541015625,-0.6061248779296875,3394.853251,0.1418867314889372,0.6065052080562373,0.7779751326740819,-0.1121719032526016,4.992061614990234,-1.540782451629639,-0.05744457244873047,0.5197551846504211,-0.1796814799308777,XArbitraryZVertical,-0.3414497964307583,-0.3012777987222874,-0.1755651654696348,-0.8728233343479649,0.4060311913490295,-0.701838493347168,-0.5852874517440796,0,0,0,-1,-1,3394.051207,running,2,2022-06-30T09:23:19.632+02:00,2022-06-30T08:20:05.567+02:00,1052,1.411193,0,0,819.8695,0,0,2022-06-30T09:23:19.631+02:00
2022-06-30T09:23:20.454+02:00,3394.873153,0.1663818359375,-0.122467041015625,-0.55535888671875,3394.863202,0.1265841919691294,0.6691578335273207,0.7653382874493079,-0.6076490879058838,5.451102256774902,-1.748964548110962,-0.1539663374423981,0.5204632878303528,-0.1329037547111511,XArbitraryZVertical,-0.3327190465222714,-0.3263185619352244,-0.1777891248440181,-0.8667210616055869,0.4473466873168945,-0.6927809715270996,-0.5656284689903259,0,0,0,-1,-1,3394.051207,running,2,2022-06-30T09:23:19.632+02:00,2022-06-30T08:20:05.567+02:00,1052,1.411193,0,0,819.8695,0,0,2022-06-30T09:23:19.631+02:00
2022-06-30T09:23:20.464+02:00,3394.883105,0.0870819091796875,-0.1619110107421875,-0.4729461669921875,3394.873153,0.114868891101196,0.7339507187090264,0.7466089554669875,-1.187672972679138,5.955553531646729,-1.988104224205017,-0.2497090101242065,0.5911255478858948,-0.06110793352127075,XArbitraryZVertical,-0.320673199093275,-0.3530724882576602,-0.1805248780937559,-0.8601855749985184,0.4916367530822754,-0.6791536808013916,-0.5450170636177063,0,0,0,-1,-1,3394.051207,running,2,2022-06-30T09:23:19.632+02:00,2022-06-30T08:20:05.567+02:00,1052,1.411193,0,0,819.8695,0,0,2022-06-30T09:23:19.631+02:00
2022-06-30T09:23:20.474+02:00,3394.893056,0.02618408203125,-0.123321533203125,-0.3690948486328125,3394.883105,0.1085880695309795,0.8003895605673914,0.7212699453665924,-1.829206824302673,6.551690101623535,-2.22766375541687,-0.3725335597991943,0.5378716588020325,-0.03236466646194458,XArbitraryZVertical,-0.3047252771329287,-0.3816350639006936,-0.1840385657684169,-0.8530105501569077,0.5389150381088257,-0.6603388786315918,-0.522994339466095,0,0,0,-1,-1,3394.051207,running,2,2022-06-30T09:23:19.632+02:00,2022-06-30T08:20:05.567+02:00,1052,1.411193,0,0,819.8695,0,0,2022-06-30T09:23:19.631+02:00
2022-06-30T09:23:20.484+02:00,3394.903008,-0.0147552490234375,-0.0445709228515625,-0.181365966796875,3394.893056,0.1090380111900337,0.8682990858777301,0.6895117689354017,-2.512769222259521,7.14802074432373,-2.45104193687439,-0.5017944574356079,0.4742493629455566,0.02557623386383057,XArbitraryZVertical,-0.2845848272478477,-0.4120075102830131,-0.1884785807118307,-0.8448296123111987,0.5888760089874268,-0.6361605525016785,-0.4985225796699524,0,0,0,-1,-1,3394.051207,running,2,2022-06-30T09:23:19.632+02:00,2022-06-30T08:20:05.567+02:00,1052,1.411193,0,0,819.8695,0,0,2022-06-30T09:23:19.631+02:00
2022-06-30T09:23:20.494+02:00,3394.912959,-0.0174407958984375,-0.01263427734375,-0.0053253173828125,3394.903008,0.1176023388073654,0.9370942172674765,0.6518280092560477,-3.258729457855225,7.74606990814209,-2.668580532073975,-0.6144405603408813,0.4833189249038696,0.1016358733177185,XArbitraryZVertical,-0.2600326504957542,-0.4438665837395146,-0.194011463035989,-0.8352993958469199,0.6406243443489075,-0.606640636920929,-0.4707309603691101,0,0,0,-1,-1,3394.051207,running,2,2022-06-30T09:23:19.632+02:00,2022-06-30T08:20:05.567+02:00,1052,1.411193,0,0,819.8695,0,0,2022-06-30T09:23:19.631+02:00
2022-06-30T09:23:20.504+02:00,3394.922911,0.0070648193359375,-0.01776123046875,0.100799560546875,3394.912959,0.1354680449125349,1.006922533781624,0.6085118097150669,-4.063586235046387,8.401278495788574,-2.892693758010864,-0.7082344889640808,0.5270760059356689,0.257161557674408,XArbitraryZVertical,-0.2306544886031713,-0.477005915197788,-0.200766806861426,-0.8239881377797609,0.6934788823127747,-0.571647047996521,-0.4385277330875397,0,0,0,-1,-1,3394.051207,running,2,2022-06-30T09:23:19.632+02:00,2022-06-30T08:20:05.567+02:00,1052,1.411193,0,0,819.8695,0,0,2022-06-30T09:23:19.631+02:00
2022-06-30T09:23:20.514+02:00,3394.932862,0.0233917236328125,0.05694580078125,0.2303924560546875,3394.922911,0.1635382778252475,1.078630566042352,0.5603432784615184,-4.878431797027588,9.117278099060059,-3.106143712997437,-0.763975977897644,0.5188425779342651,0.3949465155601501,XArbitraryZVertical,-0.1961685284267963,-0.511255183084119,-0.2088842565023392,-0.8102489629581829,0.7465349435806274,-0.5314770340919495,-0.4002721011638641,0,0,0,-1,-1,3394.051207,running,2,2022-06-30T09:23:19.632+02:00,2022-06-30T08:20:05.567+02:00,1052,1.411193,0,0,819.8695,0,0,2022-06-30T09:23:19.631+02:00
2022-06-30T09:23:20.524+02:00,3394.942813,0.0629730224609375,0.1024169921875,0.3802490234375,3394.932862,0.2021042819086112,1.153539103088473,0.5086474964766605,-5.689456462860107,9.881582260131836,-3.306850671768188,-0.7914047241210938,0.4692350029945374,0.4547502398490906,XArbitraryZVertical,-0.1565725388876664,-0.5463602931616941,-0.218338098152631,-0.7932868619651968,0.7984693646430969,-0.4869964122772217,-0.3539509475231171,0,0,0,-1,-1,3394.051207,running,2,2022-06-30T09:23:19.632+02:00,2022-06-30T08:20:05.567+02:00,1052,1.411193,0,0,819.8695,0,0,2022-06-30T09:23:19.631+02:00
2022-06-30T09:23:20.534+02:00,3394.952765,0.187774658203125,0.1055145263671875,0.6258392333984375,3394.942813,0.2512689290848703,1.233378688799179,0.4548040465759123,-6.452669620513916,10.74905872344971,-3.530994176864624,-0.8243002891540527,0.4962319135665894,0.5277912616729736,XArbitraryZVertical,-0.1118672379628661,-0.5820533822628926,-0.2289480894980812,-0.7721933225569608,0.8476918935775757,-0.4392862915992737,-0.2973991632461548,0,0,0,-1,-1,3394.051207,running,2,2022-06-30T09:23:19.632+02:00,2022-06-30T08:20:05.567+02:00,1052,1.411193,0,0,819.8695,0,0,2022-06-30T09:23:19.631+02:00
2022-06-30T09:23:20.544+02:00,3394.962716,0.295928955078125,0.1041717529296875,0.9358367919921875,3394.952765,0.311841997586793,1.320322086245604,0.4007644233730968,-7.32587718963623,11.77587795257568,-3.646765470504761,-0.8290577530860901,0.4925391972064972,0.6084721684455872,XArbitraryZVertical,-0.06199104497134138,-0.6180981839883656,-0.2407898880434194,-0.7457425827628387,0.892030656337738,-0.3901222944259644,-0.2282234877347946,0,0,0,-1,-1,3394.051207,running,2,2022-06-30T09:23:19.632+02:00,2022-06-30T08:20:05.567+02:00,1052,1.411193,0,0,819.8695,0,0,2022-06-30T09:23:19.631+02:00
2022-06-30T09:23:20.554+02:00,3394.972668,0.393341064453125,0.12420654296875,1.406539916992188,3394.962716,0.3853038424813454,1.416855823518778,0.3492331491567185,-8.229774475097656,13.05960083007812,-3.7496337890625,-0.7407492399215698,0.447691798210144,0.7699161767959595,XArbitraryZVertical,-0.006808918747929335,-0.6541521046934201,-0.2541278499727498,-0.7123606892761695,0.92852383852005,-0.3421773612499237,-0.144077330827713,0,0,0,-1,-1,3394.051207,running,2,2022-06-30T09:23:19.632+02:00,2022-06-30T08:20:05.567+02:00,1052,1.411193,0,0,819.8695,0,0,2022-06-30T09:23:19.631+02:00
2022-06-30T09:23:20.564+02:00,3394.982619,0.4361724853515625,0.058929443359375,1.921478271484375,3394.972668,0.4725079863991812,1.526029359868893,0.3035744595959096,-9.243442535400391,14.45208835601807,-3.706231594085693,-0.6573891043663025,0.4031048119068146,0.9785420894622803,XArbitraryZVertical,0.05365283597981439,-0.6897597625890343,-0.2688204127148071,-0.6701405770667596,0.9533179402351379,-0.2989331185817719,-0.04270568490028381,0,0,0,-1,-1,3394.051207,running,2,2022-06-30T09:23:19.632+02:00,2022-06-30T08:20:05.567+02:00,1052,1.411193,0,0,819.8695,0,0,2022-06-30T09:23:19.631+02:00
2022-06-30T09:23:20.574+02:00,3394.992571,0.189422607421875,-0.0968475341796875,2.542861938476562,3394.982619,0.574935923087583,1.648385553190604,0.2693572749411953,-10.44977569580078,15.95602798461914,-3.513135194778442,-0.5677010416984558,0.3903184533119202,1.331822991371155,XArbitraryZVertical,0.1187740991550088,-0.7233608841738287,-0.285323508645465,-0.6174401241075551,0.9610421657562256,-0.2661119401454926,0.07471650838851929,0,0,0,-1,-1,3394.051207,running,2,2022-06-30T09:23:19.632+02:00,2022-06-30T08:20:05.567+02:00,1052,1.411193,0,0,819.8695,0,0,2022-06-30T09:23:19.631+02:00
2022-06-30T09:23:20.584+02:00,3395.002522,-0.2866973876953125,-0.3865966796875,3.182403564453125,3394.992571,0.6921804869525062,1.78653658900662,0.2510926874994737,-11.44816970825195,17.86433029174805,-3.470186710357666,-0.5100140571594238,0.3073920011520386,1.714120149612427,XArbitraryZVertical,0.1883761506349645,-0.7537859491854311,-0.3027492001919973,-0.5519638657111379,0.9461866617202759,-0.2484625279903412,0.2073576599359512,0,0,0,-1,-1,3394.051207,running,2,2022-06-30T09:23:19.632+02:00,2022-06-30T08:20:05.567+02:00,1052,1.411193,0,0,819.8695,0,0,2022-06-30T09:23:19.631+02:00
2022-06-30T09:23:20.594+02:00,3395.012474,-1.351959228515625,-0.9249420166015625,4.071945190429688,3395.002522,0.8161884355524509,1.944152489061515,0.2513144175688022,-11.63607597351074,19.96083641052246,-3.49177885055542,-0.7124362587928772,0.1518298983573914,2.189577102661133,XArbitraryZVertical,0.2604131445273672,-0.7802738392869147,-0.3169269302412943,-0.4721387720912247,0.901858925819397,-0.2486772984266281,0.3532845377922058,0,0,0,-1,-1,3394.051207,running,2,2022-06-30T09:23:19.632+02:00,2022-06-30T08:20:05.567+02:00,1052,1.411193,0,0,819.8695,0,0,2022-06-30T09:23:19.631+02:00
2022-06-30T09:23:20.604+02:00,3395.022425,-2.787506103515625,-2.2056884765625,5.178085327148438,3395.012474,0.9373992586412364,2.123448744754992,0.2687318220458669,-10.86588478088379,22.33832740783691,-3.984926223754883,-1.107283711433411,-0.1210875511169434,2.676297903060913,XArbitraryZVertical,0.332643296407215,-0.8014993178562123,-0.3225324460003783,-0.378047722746876,0.8205865025520325,-0.2655089795589447,0.5061054229736328,0,0,0,-1,-1,3394.051207,running,2,2022-06-30T09:23:19.632+02:00,2022-06-30T08:20:05.567+02:00,1052,1.411193,0,0,819.8695,0,0,2022-06-30T09:23:19.631+02:00
2022-06-30T09:23:20.614+02:00,3395.032376,-4.63800048828125,-3.934600830078125,5.96270751953125,3395.022425,1.050140689359199,2.3259669031826,0.2917515065479099,-9.16454029083252,24.63768768310547,-5.70294189453125,-2.049343109130859,-0.6373116970062256,3.415496587753296,XArbitraryZVertical,0.4053935224484932,-0.8147885537771713,-0.3121574562707555,-0.2726418608089825,0.6973841786384583,-0.287630170583725,0.6564486026763916,0,0,0,-1,-1,3394.051207,running,2,2022-06-30T09:23:19.632+02:00,2022-06-30T08:20:05.567+02:00,1052,1.411193,0,0,819.8695,0,0,2022-06-30T09:23:19.631+02:00
2022-06-30T09:23:20.624+02:00,3395.042328,-7.324356079101562,-4.659744262695312,7.732452392578125,3395.032376,1.158308410703981,2.551113394532093,0.3052661604087864,-6.138949871063232,26.98156929016113,-8.366975784301758,-3.318524360656738,-1.905141234397888,4.385815620422363,XArbitraryZVertical,0.4805225410396528,-0.8156180396320727,-0.279142171149738,-0.1610743791791396,0.5310185551643372,-0.3005470335483551,0.7922694087028503,0,0,0,-1,-1,3394.051207,running,2,2022-06-30T09:23:19.632+02:00,2022-06-30T08:20:05.567+02:00,1052,1.411193,0,0,819.8695,0,0,2022-06-30T09:23:19.631+02:00
2022-06-30T09:23:20.633+02:00,3395.052279,-10.72909545898438,-3.7060546875,11.52619934082031,3395.042328,1.271465550116258,2.793767136559143,0.3030503559482424,-3.351518630981445,28.41988945007324,-11.21084690093994,-4.963322162628174,-3.636167764663696,5.065431594848633,XArbitraryZVertical,0.5570931309790667,-0.7989275436508974,-0.2211912941764005,-0.04936220533157971,0.3253219425678253,-0.2984329462051392,0.8972759246826172,0,0,0,-1,-1,3394.051207,running,2,2022-06-30T09:23:19.632+02:00,2022-06-30T08:20:05.567+02:00,1052,1.411193,0,0,819.8695,0,0,2022-06-30T09:23:19.631+02:00
2022-06-30T09:23:20.643+02:00,3395.062231,-14.5279541015625,-2.014190673828125,15.62118530273438,3395.052279,1.41241153502818,3.030952520956399,0.2988696448840375,-2.093879461288452,26.85979270935059,-15.82149219512939,-7.42987585067749,-4.365303993225098,6.782625675201416,XArbitraryZVertical,0.6344746656268703,-0.7565417454538818,-0.1485803439024171,0.05486876541315622,0.1055199056863785,-0.2944401502609253,0.9498270153999329,0,0,0,-1,-1,3394.051207,running,2,2022-06-30T09:23:19.632+02:00,2022-06-30T08:20:05.567+02:00,1052,1.411193,0,0,819.8695,0,0,2022-06-30T09:23:19.631+02:00
2022-06-30T09:23:20.653+02:00,3395.072182,-13.43937683105469,0.246063232421875,18.30097961425781,3395.062231,1.619351857877423,-3.089820837207431,0.3130047568992023,-1.781274318695068,17.33352661132812,-23.82956314086914,-10.67986106872559,-3.398135662078857,10.5760612487793,XArbitraryZVertical,0.7177574694038145,-0.6781543749338783,-0.08895683397037954,0.1304520409681642,-0.04923437908291817,-0.3079187870025635,0.95013827085495,0,0,0,-1,-1,3394.051207,running,2,2022-06-30T09:23:19.632+02:00,2022-06-30T08:20:05.567+02:00,1052,1.411193,0,0,819.8695,0,0,2022-06-30T09:23:19.631+02:00
2022-06-30T09:23:20.663+02:00,3395.082134,-13.07882690429688,-0.133758544921875,16.26969909667969,3395.072182,1.890459683578475,-3.054699154160752,0.3664883483026124,-4.604047298431396,8.074605941772461,-27.93987083435059,-14.44693279266357,-1.655851125717163,14.69111633300781,XArbitraryZVertical,0.800941892115611,-0.5687940840427472,-0.07198089493952095,0.1725809253045986,-0.08102098852396011,-0.3583391904830933,0.9300692677497864,0,0,0,-1,-1,3394.051207,running,2,2022-06-30T09:23:19.632+02:00,2022-06-30T08:20:05.567+02:00,1052,1.411193,0,0,819.8695,0,0,2022-06-30T09:23:19.631+02:00
2022-06-30T09:23:20.674+02:00,3395.092085,-15.18190002441406,1.028411865234375,13.46369934082031,3395.082134,2.20886456966607,3.134279256883443,0.4085880453680398,0.1234450116753578,-2.839865922927856,-31.43117904663086,-13.44608783721924,0.6433776021003723,17.38332176208496,XArbitraryZVertical,0.8742949040921234,-0.44095079059114,-0.09441910913877291,0.1795993748624045,0.006711319088935852,-0.3973140120506287,0.9176583290100098,0,0,0,-1,-1,3394.051207,running,2,2022-06-30T09:23:19.632+02:00,2022-06-30T08:20:05.567+02:00,1052,1.411193,0,0,819.8695,0,0,2022-06-30T09:23:19.631+02:00
2022-06-30T09:23:20.684+02:00,3395.102037,-17.01638793945312,4.701370239257812,11.99394226074219,3395.092085,2.540182344772786,2.916536794836617,0.3245435851550652,10.08908653259277,-16.68435478210449,-31.82402610778809,-13.29033851623535,0.1851181089878082,15.34580516815186,XArbitraryZVertical,0.9312452525188157,-0.3077816123125319,-0.15339347396295,0.1205122112988883,0.2115110009908676,-0.3188762366771698,0.923894464969635,0,0,0,-1,-1,3394.051207,running,2,2022-06-30T09:23:19.632+02:00,2022-06-30T08:20:05.567+02:00,1052,1.411193,0,0,819.8695,0,0,2022-06-30T09:23:19.631+02:00
2022-06-30T09:23:20.693+02:00,3395.111988,-23.39016723632812,7.06842041015625,6.096282958984375,3395.102037,2.77894836890049,2.628147012611125,0.07780386218271272,18.95767974853516,-30.67574691772461,-30.2497673034668,-15.67159557342529,1.106137633323669,12.59527778625488,XArbitraryZVertical,0.948870070802036,-0.1840015927906787,-0.2563441298729282,-0.008752550965182513,0.4896955192089081,-0.07772538810968399,0.8684219717979431,0,0,0,-1,-1,3394.051207,running,2,2022-06-30T09:23:19.632+02:00,2022-06-30T08:20:05.567+02:00,1052,1.411193,0,0,819.8695,0,0,2022-06-30T09:23:19.631+02:00
2022-06-30T09:23:20.703+02:00,3395.121939,-32.05802917480469,15.15382385253906,-2.645355224609375,3395.111988,2.852606467854355,2.29430638249043,-0.285681913817231,30.50662803649902,-34.80060195922852,-26.61817932128906,-17.73549842834473,4.419558525085449,11.35875511169434,XArbitraryZVertical,0.9013366406635138,-0.07201447824350367,-0.3839714744991649,-0.1870082652803871,0.7191097140312195,0.2818118035793304,0.6351876258850098,0,0,0,-1,-1,3394.051207,running,2,2022-06-30T09:23:19.632+02:00,2022-06-30T08:20:05.567+02:00,1052,1.411193,0,0,819.8695,0,0,2022-06-30T09:23:19.631+02:00
2022-06-30T09:23:20.713+02:00,3395.131891,-27.06443786621094,31.89236450195312,10.01309204101562,3395.121939,2.636107962492984,1.844195571307161,-0.6216820035432864,34.93185043334961,-34.813232421875,-16.02175140380859,-24.17287445068359,6.48601770401001,5.876795291900635,XArbitraryZVertical,0.7807863293795897,-0.01080180132342554,-0.4959760067160669,-0.3798210410964512,0.7827080488204956,0.582403302192688,0.2194879353046417,0,0,0,-1,-1,3394.051207,running,2,2022-06-30T09:23:19.632+02:00,2022-06-30T08:20:05.567+02:00,1052,1.411193,0,0,819.8695,0,0,2022-06-30T09:23:19.631+02:00
2022-06-30T09:23:20.723+02:00,3395.141842,-29.26951599121094,26.64579772949219,32.00540161132812,3395.131891,2.194592813491887,1.214939452942601,-0.7091182104375012,34.90322494506836,-34.86130142211914,-1.060879111289978,-32.76941680908203,14.50265979766846,-2.380946397781372,XArbitraryZVertical,0.6063854877414053,0.0096081391673033,-0.5949386001362486,-0.5274963775554328,0.7113877534866333,0.6511648297309875,-0.2644086480140686,0,0,0,-1,-1,3394.051207,running,2,2022-06-30T09:23:19.632+02:00,2022-06-30T08:20:05.567+02:00,1052,1.411193,0,0,819.8695,0,0,2022-06-30T09:23:19.631+02:00
2022-06-30T09:23:20.733+02:00,3395.151794,-28.83367919921875,-29.04000854492188,28.00749206542969,3395.141842,1.867462718814977,0.7365603273833711,-0.4911073618083227,34.76691818237305,-13.72717952728271,2.864139795303345,-27.65678977966309,31.42076301574707,10.6663236618042,XArbitraryZVertical,0.415618034557372,-0.02541802774215787,-0.6753911882312814,-0.6086560771913743,0.5923511981964111,0.4716026484966278,-0.653231143951416,0,0,0,-1,-1,3394.051207,running,2,2022-06-30T09:23:19.632+02:00,2022-06-30T08:20:05.567+02:00,1052,1.411193,0,0,819.8695,0,0,2022-06-30T09:23:19.631+02:00
2022-06-30T09:23:20.743+02:00,3395.161745,-7.543243408203125,-25.88589477539062,4.322235107421875,3395.151794,1.7494626722542,0.7018495619365636,-0.1386192229091635,33.00852203369141,6.028530120849609,23.18690299987793,-29.90895462036133,26.50762176513672,32.76172637939453,XArbitraryZVertical,0.3048627107518275,-0.1699900213627628,-0.7036085784157469,-0.6189484245460427,0.6394381523132324,0.1381757110357285,-0.7563242316246033,0,0,0,-1,-1,3394.051207,running,2,2022-06-30T09:23:19.632+02:00,2022-06-30T08:20:05.567+02:00,1052,1.411193,0,0,819.8695,0,0,2022-06-30T09:23:19.631+02:00
2022-06-30T09:23:20.753+02:00,3395.171697,-5.892990112304688,-7.890823364257812,-1.505157470703125,3395.161745,1.781859786758439,0.7593511479367508,0.1343326403476389,6.683819770812988,7.337750434875488,17.21878242492676,-29.51592826843262,-28.90607833862305,28.72624015808105,XArbitraryZVertical,0.2483745410895902,-0.2809550131426042,-0.7362854900999259,-0.563256613078539,0.6822486519813538,-0.1339289993047714,-0.7187487483024597,0,0,0,-1,-1,3394.051207,running,2,2022-06-30T09:23:19.632+02:00,2022-06-30T08:20:05.567+02:00,1052,1.411193,0,0,819.8695,0,0,2022-06-30T09:23:19.631+02:00
2022-06-30T09:23:20.763+02:00,3395.181648,-3.1484375,-5.265716552734375,-0.043426513671875,3395.171697,1.889472354976801,0.8307190425505289,0.2101313069585651,-6.831609725952148,8.462905883789062,8.931741714477539,-8.265417098999023,-25.67730522155762,4.981746673583984,XArbitraryZVertical,0.2689597177981202,-0.3128974088839234,-0.7621479979379036,-0.4988850177364965,0.7221738696098328,-0.2085883170366287,-0.6595117449760437,0,0,0,-1,-1,3394.051207,running,2,2022-06-30T09:23:19.632+02:00,2022-06-30T08:20:05.567+02:00,1052,1.411193,0,0,819.8695,0,0,2022-06-30T09:23:19.631+02:00
