loggingTime(txt),accelerometerTimestamp_sinceReboot(s),accelerometerAccelerationX(G),accelerometerAccelerationY(G),accelerometerAccelerationZ(G),motionTimestamp_sinceReboot(s),motionYaw(rad),motionRoll(rad),motionPitch(rad),motionRotationRateX(rad/s),motionRotationRateY(rad/s),motionRotationRateZ(rad/s),motionUserAccelerationX(G),motionUserAccelerationY(G),motionUserAccelerationZ(G),motionAttitudeReferenceFrame(txt),motionQuaternionX(R),motionQuaternionY(R),motionQuaternionZ(R),motionQuaternionW(R),motionGravityX(G),motionGravityY(G),motionGravityZ(G),motionMagneticFieldX(µT),motionMagneticFieldY(µT),motionMagneticFieldZ(µT),motionHeading(°),motionMagneticFieldCalibrationAccuracy(Z),activityTimestamp_sinceReboot(s),activity(txt),activityActivityConfidence(Z),activityActivityStartDate(txt),pedometerStartDate(txt),pedometerNumberofSteps(N),pedometerAverageActivePace(s/m),pedometerCurrentPace(s/m),pedometerCurrentCadence(steps/s),pedometerDistance(m),pedometerFloorAscended(N),pedometerFloorDescended(N),pedometerEndDate(txt)
2022-06-30T09:23:26.411+02:00,3400.814161875,0.170196533203125,-0.182952880859375,-0.953643798828125,3400.804209875,2.920586312164014,0.1553020443381517,0.1815138843623242,-0.160375252366066,0.03975397348403931,-0.0959145799279213,-0.09056785702705383,0.07559967041015625,-0.004523217678070068,XArbitraryZVertical,0.06681787512150361,-0.09832758774746929,-0.9876030215887907,-0.1025058954705965,0.1521373838186264,-0.1805187910795212,-0.9717341065406799,0,0,0,-1,-1,3396.596293041667,running,2,2022-06-30T09:23:22.177+02:00,2022-06-30T08:20:05.567+02:00,1060,1.414949,0,0,825.5135,0,0,2022-06-30T09:23:24.721+02:00
2022-06-30T09:23:26.413+02:00,3400.824112875,0.1581878662109375,-0.175567626953125,-0.9430694580078125,3400.814161875,2.919999712027992,0.1556218377597717,0.1788077478108158,-0.3539409935474396,-0.01405253075063229,-0.09329856187105179,-0.0959891676902771,0.04737885296344757,0.003948509693145752,XArbitraryZVertical,0.06710489800882559,-0.09702939758988179,-0.9876712292371357,-0.1028973482131544,0.1525232940912247,-0.1778564602136612,-0.9721644520759583,0,0,0,-1,-1,3396.596293041667,running,2,2022-06-30T09:23:22.177+02:00,2022-06-30T08:20:05.567+02:00,1060,1.414949,0,0,825.5135,0,0,2022-06-30T09:23:24.721+02:00
2022-06-30T09:23:26.416+02:00,3400.834064875,0.1294708251953125,-0.1729278564453125,-0.95355224609375,3400.824112875,2.919714819135009,0.1557297995287686,0.1746742884363152,-0.444989413022995,0.04298731684684753,-0.09355741739273071,0.01745589077472687,-0.009165182709693909,0.01922214031219482,XArbitraryZVertical,0.06738572060311326,-0.09500628019605291,-0.9878159172921324,-0.1032120750002606,0.1527409702539444,-0.173787385225296,-0.9728659391403198,0,0,0,-1,-1,3396.596293041667,running,2,2022-06-30T09:23:22.177+02:00,2022-06-30T08:20:05.567+02:00,1060,1.414949,0,0,825.5135,0,0,2022-06-30T09:23:24.721+02:00
2022-06-30T09:23:26.425+02:00,3400.844015875,0.1455535888671875,-0.1629791259765625,-0.945587158203125,3400.834064875,2.919408035031021,0.1563405953863683,0.1703867711859507,-0.3736678659915924,0.07274379581212997,-0.1141244396567345,0.004738405346870422,-0.006003782153129578,0.03043007850646973,XArbitraryZVertical,0.06792321324653036,-0.09293364231505967,-0.987943916605467,-0.1035207279047245,0.1534497737884521,-0.1695635318756104,-0.9734995365142822,0,0,0,-1,-1,3396.596293041667,running,2,2022-06-30T09:23:22.177+02:00,2022-06-30T08:20:05.567+02:00,1060,1.414949,0,0,825.5135,0,0,2022-06-30T09:23:24.721+02:00
2022-06-30T09:23:26.435+02:00,3400.853967875,0.167572021484375,-0.1685943603515625,-0.9483642578125,3400.844015875,2.918348358488774,0.1570179903856168,0.1667578848316725,-0.2960931956768036,0.02752465568482876,-0.2011168748140335,-0.02473326027393341,-0.006941437721252441,0.02044451236724854,XArbitraryZVertical,0.06842123423050056,-0.09121497004778406,-0.9880014288876398,-0.1041705507618376,0.1542043834924698,-0.1659860908985138,-0.9739966988563538,0,0,0,-1,-1,3396.596293041667,running,2,2022-06-30T09:23:22.177+02:00,2022-06-30T08:20:05.567+02:00,1060,1.414949,0,0,825.5135,0,0,2022-06-30T09:23:24.721+02:00
2022-06-30T09:23:26.445+02:00,3400.863918875,0.1481781005859375,-0.1750335693359375,-0.9564971923828125,3400.853967875,2.916553233522837,0.1575725606599948,0.1635107669861337,-0.2240467816591263,0.01829296350479126,-0.2269375175237656,-0.00927436351776123,-0.0001956820487976074,0.02885109186172485,XArbitraryZVertical,0.06880484547253567,-0.08970384447168726,-0.9880069303659665,-0.1051735333826547,0.1548282653093338,-0.162783145904541,-0.9744382500648499,0,0,0,-1,-1,3396.596293041667,running,2,2022-06-30T09:23:22.177+02:00,2022-06-30T08:20:05.567+02:00,1060,1.414949,0,0,825.5135,0,0,2022-06-30T09:23:24.721+02:00
2022-06-30T09:23:26.455+02:00,3400.873869875,0.0398406982421875,-0.046722412109375,-0.917022705078125,3400.863918875,2.915359779985732,0.1584686110999864,0.1621541235540929,0.1690640300512314,0.1412564367055893,0.1182843297719955,0.01183627545833588,-0.007149606943130493,0.02615201473236084,XArbitraryZVertical,0.0692743277736115,-0.08912310401196712,-0.9879617481307518,-0.105782263588549,0.1557360589504242,-0.1614444404840469,-0.9745162725448608,0,0,0,-1,-1,3396.596293041667,running,2,2022-06-30T09:23:22.177+02:00,2022-06-30T08:20:05.567+02:00,1060,1.414949,0,0,825.5135,0,0,2022-06-30T09:23:24.721+02:00
2022-06-30T09:23:26.465+02:00,3400.883821875,0.1566314697265625,-0.1883087158203125,-0.9347686767578125,3400.873869875,2.916329619415061,0.1594720302125037,0.1636263439602184,0.0465933084487915,0.08927539736032486,0.03274915739893913,-0.008497506380081177,-0.01213608682155609,0.01762658357620239,XArbitraryZVertical,0.06972628689620833,-0.08986849088807926,-0.9879252698222448,-0.1051936791171763,0.1566759198904037,-0.1628971695899963,-0.9741237759590149,0,0,0,-1,-1,3396.596293041667,running,2,2022-06-30T09:23:22.177+02:00,2022-06-30T08:20:05.567+02:00,1060,1.414949,0,0,825.5135,0,0,2022-06-30T09:23:24.721+02:00
2022-06-30T09:23:26.475+02:00,3400.893772875,0.239837646484375,-0.267364501953125,-0.929412841796875,3400.883821875,2.915142878252651,0.1593328558517076,0.1634257743658819,0.07313942909240723,0.005984233692288399,-0.2369350492954254,-0.1167045086622238,0.1159771829843521,0.05715513229370117,XArbitraryZVertical,0.06961610671667497,-0.089803562768015,-0.9878747836933512,-0.1057949656796786,0.1565455198287964,-0.162699282169342,-0.9741778373718262,0,0,0,-1,-1,3396.596293041667,running,2,2022-06-30T09:23:22.177+02:00,2022-06-30T08:20:05.567+02:00,1060,1.414949,0,0,825.5135,0,0,2022-06-30T09:23:24.721+02:00
2022-06-30T09:23:26.485+02:00,3400.903724875,0.198699951171875,-0.2274932861328125,-0.9125213623046875,3400.893772875,2.913228160884807,0.1588052062027092,0.1633526138940489,-0.01724286377429962,-0.01871352270245552,-0.1430558562278748,0.000598415732383728,-0.02568130195140839,0.03950339555740356,XArbitraryZVertical,0.06927388626207905,-0.08980593464322036,-0.9877938618192176,-0.1067675414037261,0.1560333520174026,-0.162627100944519,-0.9742720723152161,0,0,0,-1,-1,3396.596293041667,running,2,2022-06-30T09:23:22.177+02:00,2022-06-30T08:20:05.567+02:00,1060,1.414949,0,0,825.5135,0,0,2022-06-30T09:23:24.721+02:00
2022-06-30T09:23:26.495+02:00,3400.913675875,0.1415252685546875,-0.16943359375,-0.91607666015625,3400.903724875,2.912039352893376,0.158761629216011,0.1623794941823785,-0.146778479218483,-0.03934450075030327,-0.1520392447710037,0.083822101354599,-0.1056973338127136,0.04502183198928833,XArbitraryZVertical,0.06925744995250099,-0.08936487338981705,-0.9877665587561476,-0.1073993627267465,0.1560158431529999,-0.1616668552160263,-0.9744346737861633,0,0,0,-1,-1,3396.596293041667,running,2,2022-06-30T09:23:22.177+02:00,2022-06-30T08:20:05.567+02:00,1060,1.414949,0,0,825.5135,0,0,2022-06-30T09:23:24.721+02:00
2022-06-30T09:23:26.505+02:00,3400.923627875,0.122283935546875,-0.119659423828125,-0.9318084716796875,3400.913675875,2.910525561594883,0.1585901050890996,0.1605114532241757,-0.1891732066869736,-0.04529930278658867,-0.1988121271133423,0.04280413687229156,-0.06766986846923828,0.06223654747009277,XArbitraryZVertical,0.06921799812175493,-0.08848681830885369,-0.9877569375247064,-0.1082365237580918,0.1558961272239685,-0.1598231047391891,-0.9747579097747803,0,0,0,-1,-1,3396.596293041667,running,2,2022-06-30T09:23:22.177+02:00,2022-06-30T08:20:05.567+02:00,1060,1.414949,0,0,825.5135,0,0,2022-06-30T09:23:24.721+02:00
2022-06-30T09:23:26.515+02:00,3400.933578875,0.1274871826171875,-0.1326751708984375,-0.9689178466796875,3400.923627875,2.908895909822657,0.1583340167475478,0.1584560940851555,-0.1745082437992096,-0.03317286446690559,-0.1948195099830627,-0.01417237520217896,-0.01163944602012634,0.05904346704483032,XArbitraryZVertical,0.06914437985192114,-0.08751567221402597,-0.9877489782673036,-0.1091426400615729,0.1556979566812515,-0.1577938348054886,-0.9751201272010803,0,0,0,-1,-1,3396.596293041667,running,2,2022-06-30T09:23:22.177+02:00,2022-06-30T08:20:05.567+02:00,1060,1.414949,0,0,825.5135,0,0,2022-06-30T09:23:24.721+02:00
2022-06-30T09:23:26.525+02:00,3400.943530875,0.116607666015625,-0.1593780517578125,-0.9813232421875,3400.933578875,2.907201767859351,0.1582357295134166,0.1567851299149087,-0.1149997785687447,-0.03697999939322472,-0.1897495985031128,-0.03335919976234436,0.0364844799041748,0.04358595609664917,XArbitraryZVertical,0.06912393108328643,-0.08674482544526191,-0.9877169975574382,-0.1100566441518303,0.1556434482336044,-0.1561435759067535,-0.9753944277763367,0,0,0,-1,-1,3396.596293041667,running,2,2022-06-30T09:23:22.177+02:00,2022-06-30T08:20:05.567+02:00,1060,1.414949,0,0,825.5135,0,0,2022-06-30T09:23:24.721+02:00
2022-06-30T09:23:26.535+02:00,3400.953481875,0.1650390625,-0.1740570068359375,-1.001876831054688,3400.943530875,2.905580192414511,0.1582460089087751,0.1554818806692219,-0.1178570836782455,-0.01820178329944611,-0.1833052784204483,-0.02819792926311493,0.02218133211135864,0.006675124168395996,XArbitraryZVertical,0.06913888375274699,-0.08615877901381272,-0.98767137311467,-0.1109139554350891,0.1556854099035263,-0.1548561900854111,-0.9755929708480835,0,0,0,-1,-1,3396.596293041667,running,2,2022-06-30T09:23:22.177+02:00,2022-06-30T08:20:05.567+02:00,1060,1.414949,0,0,825.5135,0,0,2022-06-30T09:23:24.721+02:00
2022-06-30T09:23:26.545+02:00,3400.963432875,0.1686859130859375,-0.1497344970703125,-0.9982757568359375,3400.953481875,2.90373700429858,0.158153166281768,0.1540344155423137,-0.1291497647762299,-0.04576899856328964,-0.2115332931280136,-0.03902199864387512,-0.005951717495918274,-0.00549548864364624,XArbitraryZVertical,0.06910335079132143,-0.08550357118080794,-0.9876204317585509,-0.1118913099222247,0.1556299775838852,-0.1534260213375092,-0.9758277535438538,0,0,0,-1,-1,3396.596293041667,running,2,2022-06-30T09:23:22.177+02:00,2022-06-30T08:20:05.567+02:00,1060,1.414949,0,0,825.5135,0,0,2022-06-30T09:23:24.721+02:00
2022-06-30T09:23:26.570+02:00,3400.973384875,0.1531982421875,-0.1161346435546875,-0.981597900390625,3400.963432875,2.902011450007081,0.1579313432727552,0.152424284380318,-0.1475282311439514,-0.04298732802271843,-0.1879371553659439,0.009587183594703674,-0.02222192287445068,-0.0257718563079834,XArbitraryZVertical,0.06902047117993645,-0.08475676114066531,-0.9875846941776325,-0.1128230981668722,0.155452162027359,-0.1518347561359406,-0.9761049151420593,0,0,0,-1,-1,3396.596293041667,running,2,2022-06-30T09:23:22.177+02:00,2022-06-30T08:20:05.567+02:00,1060,1.414949,0,0,825.5135,0,0,2022-06-30T09:23:24.721+02:00
2022-06-30T09:23:26.572+02:00,3400.983335875,0.154022216796875,-0.1231536865234375,-0.974456787109375,3400.973384875,2.900282968323846,0.1577229326907136,0.1505380323869857,-0.1725913137197495,-0.04278513416647911,-0.2124222069978714,0.01339277625083923,0.0002359151840209961,-0.02185732126235962,XArbitraryZVertical,0.06896272112648824,-0.08387453187290647,-0.987555631025686,-0.1137674859950475,0.1552934348583221,-0.1499700993299484,-0.9764184355735779,0,0,0,-1,-1,3396.596293041667,running,2,2022-06-30T09:23:22.177+02:00,2022-06-30T08:20:05.567+02:00,1060,1.414949,0,0,825.5135,0,0,2022-06-30T09:23:24.721+02:00
2022-06-30T09:23:26.575+02:00,3400.993287875,0.15924072265625,-0.129974365234375,-0.9626922607421875,3400.983335875,2.898404986644346,0.1575454281966053,0.1485899174752555,-0.1539968550205231,-0.04117312282323837,-0.215994581580162,-0.001967102289199829,0.03190940618515015,-0.00486522912979126,XArbitraryZVertical,0.0689194275792018,-0.08296858885104434,-0.9875172619828556,-0.114786877880112,0.1551656574010849,-0.1480437368154526,-0.9767326712608337,0,0,0,-1,-1,3396.596293041667,running,2,2022-06-30T09:23:22.177+02:00,2022-06-30T08:20:05.567+02:00,1060,1.414949,0,0,825.5135,0,0,2022-06-30T09:23:24.721+02:00
2022-06-30T09:23:26.585+02:00,3401.003238875,0.1631317138671875,-0.135772705078125,-0.970306396484375,3400.993287875,2.896499347838475,0.1578091742161707,0.1474331257054382,-0.1292448341846466,-0.032208401709795,-0.2016118168830872,-0.001427561044692993,0.02374622225761414,0.002403378486633301,XArbitraryZVertical,0.069044192046641,-0.08247918750447039,-0.9874350874915041,-0.115767127544994,0.1554500758647919,-0.1468995958566666,-0.9768601655960083,0,0,0,-1,-1,3396.596293041667,running,2,2022-06-30T09:23:22.177+02:00,2022-06-30T08:20:05.567+02:00,1060,1.414949,0,0,825.5135,0,0,2022-06-30T09:23:24.721+02:00
2022-06-30T09:23:26.594+02:00,3401.013190875,0.1688995361328125,-0.17022705078125,-0.9925079345703125,3401.003238875,2.894737401137653,0.1577448547124134,0.1460696084934398,-0.1253028213977814,-0.03062515147030354,-0.1983039081096649,0.003822445869445801,0.01557670533657074,0.01437485218048096,XArbitraryZVertical,0.06902710268801383,-0.08186405821403524,-0.9873778326332462,-0.1166989583563072,0.1554185599088669,-0.1455507278442383,-0.9770670533180237,0,0,0,-1,-1,3396.596293041667,running,2,2022-06-30T09:23:22.177+02:00,2022-06-30T08:20:05.567+02:00,1060,1.414949,0,0,825.5135,0,0,2022-06-30T09:23:24.721+02:00
2022-06-30T09:23:26.604+02:00,3401.023141875,0.1698150634765625,-0.1628265380859375,-0.9947509765625,3401.013190875,2.893064730374515,0.1574522896870388,0.1445038999425117,-0.1139266639947891,-0.04540258273482323,-0.1785498559474945,0.007963761687278748,0.00822913646697998,0.007030010223388672,XArbitraryZVertical,0.06891509719612229,-0.0811327499019394,-0.9873385810169909,-0.1176046394106259,0.1551682502031326,-0.1440015137195587,-0.9773363471031189,0,0,0,-1,-1,3396.596293041667,running,2,2022-06-30T09:23:22.177+02:00,2022-06-30T08:20:05.567+02:00,1060,1.414949,0,0,825.5135,0,0,2022-06-30T09:23:24.721+02:00
2022-06-30T09:23:26.614+02:00,3401.033092875,0.1548309326171875,-0.14312744140625,-0.993072509765625,3401.023141875,2.891658121764367,0.1569686110049849,0.1428316744005237,-0.1737665683031082,-0.05605762451887131,-0.148924320936203,0.01416689157485962,-0.02788020670413971,-0.01486015319824219,XArbitraryZVertical,0.06872755765998569,-0.08032826929074607,-0.9873234217144689,-0.1183909571149262,0.1547329425811768,-0.142346516251564,-0.9776477813720703,0,0,0,-1,-1,3396.596293041667,running,2,2022-06-30T09:23:22.177+02:00,2022-06-30T08:20:05.567+02:00,1060,1.414949,0,0,825.5135,0,0,2022-06-30T09:23:24.721+02:00
2022-06-30T09:23:26.624+02:00,3401.043044875,0.1422271728515625,-0.133453369140625,-0.98809814453125,3401.033092875,2.890597876502389,0.1563990905372811,0.1405927304746227,-0.2493705004453659,-0.03658756986260414,-0.1389487981796265,0.01558998227119446,-0.02269618213176727,-0.01670283079147339,XArbitraryZVertical,0.06854931657687753,-0.07922710750854542,-0.9873474967078786,-0.119033653874225,0.1542253792285919,-0.140130028128624,-0.9780480861663818,0,0,0,-1,-1,3396.596293041667,running,2,2022-06-30T09:23:22.177+02:00,2022-06-30T08:20:05.567+02:00,1060,1.414949,0,0,825.5135,0,0,2022-06-30T09:23:24.721+02:00
2022-06-30T09:23:26.634+02:00,3401.052995875,0.128631591796875,-0.1266021728515625,-0.9872589111328125,3401.043044875,2.889652785445175,0.1564346408573171,0.1379798646461158,-0.2876260280609131,-0.002393114846199751,-0.1337734758853912,0.0005145668983459473,-0.005584657192230225,-0.01467156410217285,XArbitraryZVertical,0.06869969873425005,-0.07797351762795959,-0.9873671078372724,-0.1196112395707484,0.1543166637420654,-0.1375424563884735,-0.9784009456634521,0,0,0,-1,-1,3396.596293041667,running,2,2022-06-30T09:23:22.177+02:00,2022-06-30T08:20:05.567+02:00,1060,1.414949,0,0,825.5135,0,0,2022-06-30T09:23:24.721+02:00
2022-06-30T09:23:26.645+02:00,3401.062947875,0.12286376953125,-0.1083831787109375,-0.96075439453125,3401.052995875,2.888733376817972,0.1566885207819443,0.1350425467274947,-0.2813066840171814,0.008223153650760651,-0.1378450095653534,-0.01239995658397675,0.001179426908493042,-0.009341537952423096,XArbitraryZVertical,0.06898115149674429,-0.07657224064567321,-0.9873877925433351,-0.120181531246329,0.1546274274587631,-0.1346324682235718,-0.9787566065788269,0,0,0,-1,-1,3396.596293041667,running,2,2022-06-30T09:23:22.177+02:00,2022-06-30T08:20:05.567+02:00,1060,1.414949,0,0,825.5135,0,0,2022-06-30T09:23:24.721+02:00
2022-06-30T09:23:26.654+02:00,3401.072898875,0.1222686767578125,-0.115020751953125,-0.959442138671875,3401.062947875,2.887863203248887,0.1568562077565718,0.1317220772450036,-0.2774232625961304,0.01408050954341888,-0.1255651861429214,-0.0262286365032196,0.004739642143249512,-0.008092105388641357,XArbitraryZVertical,0.06924815495998075,-0.07497527269987467,-0.9874226635780498,-0.1207474135706719,0.1548605412244797,-0.1313415020704269,-0.9791668057441711,0,0,0,-1,-1,3396.596293041667,running,2,2022-06-30T09:23:22.177+02:00,2022-06-30T08:20:05.567+02:00,1060,1.414949,0,0,825.5135,0,0,2022-06-30T09:23:24.721+02:00
2022-06-30T09:23:26.664+02:00,3401.082850875,0.13818359375,-0.1143646240234375,-0.9600372314453125,3401.072898875,2.887081962813586,0.1570522719526554,0.1287033105749114,-0.2537367045879364,0.003548119449988008,-0.1157592236995697,-0.03224974870681763,0.01996542513370514,0.01876920461654663,XArbitraryZVertical,0.06951386206515968,-0.07352576653097932,-0.9874507455393594,-0.1212553818723504,0.1551138162612915,-0.1283482909202576,-0.9795235395431519,0,0,0,-1,-1,3396.596293041667,running,2,2022-06-30T09:23:22.177+02:00,2022-06-30T08:20:05.567+02:00,1060,1.414949,0,0,825.5135,0,0,2022-06-30T09:23:24.721+02:00
2022-06-30T09:23:26.674+02:00,3401.092801875,0.1543731689453125,-0.11566162109375,-0.970184326171875,3401.082850875,2.886465749983313,0.157301716340763,0.126146790003904,-0.2633062303066254,-0.009383924305438995,-0.08480184525251389,-0.03314006328582764,0.010792076587677,0.02036356925964355,XArbitraryZVertical,0.06978248943036379,-0.07230176740662733,-0.9874723410233845,-0.1216601590167379,0.155409038066864,-0.1258125007152557,-0.9798057079315186,0,0,0,-1,-1,3396.596293041667,running,2,2022-06-30T09:23:22.177+02:00,2022-06-30T08:20:05.567+02:00,1060,1.414949,0,0,825.5135,0,0,2022-06-30T09:23:24.721+02:00
2022-06-30T09:23:26.684+02:00,3401.102752875,0.16204833984375,-0.1180419921875,-0.9825592041015625,3401.092801875,2.886099800627298,0.157153318142291,0.1233632704868516,-0.2773503363132477,-0.01950518414378166,-0.08214563131332397,-0.01713396608829498,0.008686311542987823,0.0201336145401001,XArbitraryZVertical,0.06987915711208888,-0.07093287441804469,-0.9875272059467879,-0.1219653997067633,0.1553178429603577,-0.1230506077408791,-0.9801708459854126,0,0,0,-1,-1,3396.596293041667,running,2,2022-06-30T09:23:22.177+02:00,2022-06-30T08:20:05.567+02:00,1060,1.414949,0,0,825.5135,0,0,2022-06-30T09:23:24.721+02:00
2022-06-30T09:23:26.694+02:00,3401.112704875,0.1550750732421875,-0.134033203125,-0.9915618896484375,3401.102752875,2.885715936780995,0.1568843184480761,0.1204612055209206,-0.2902094125747681,-0.03483274206519127,-0.08713666349649429,-0.000735849142074585,0.004508793354034424,0.01037687063217163,XArbitraryZVertical,0.06992381887212135,-0.06949865694124614,-0.9875860626051411,-0.1222882763056834,0.155109316110611,-0.1201700866222382,-0.9805611968040466,0,0,0,-1,-1,3396.596293041667,running,2,2022-06-30T09:23:22.177+02:00,2022-06-30T08:20:05.567+02:00,1060,1.414949,0,0,825.5135,0,0,2022-06-30T09:23:24.721+02:00
2022-06-30T09:23:26.704+02:00,3401.122655875,0.1340179443359375,-0.1725921630859375,-1.018356323242188,3401.112704875,2.885211653565412,0.1564933692830943,0.1173684405009597,-0.3118391335010529,-0.04408793896436691,-0.1146018132567406,0.007265493273735046,-0.0009425133466720581,-0.001574993133544922,XArbitraryZVertical,0.06991711124446713,-0.0679669508737267,-0.9876442564433667,-0.1226822462561629,0.1547831445932388,-0.1170991584658623,-0.9809842109680176,0,0,0,-1,-1,3396.596293041667,running,2,2022-06-30T09:23:22.177+02:00,2022-06-30T08:20:05.567+02:00,1060,1.414949,0,0,825.5135,0,0,2022-06-30T09:23:24.721+02:00
2022-06-30T09:23:26.714+02:00,3401.132607875,0.1062774658203125,-0.198455810546875,-1.018585205078125,3401.122655875,2.884360381972439,0.1561446273944859,0.1139723086008562,-0.3444937467575073,-0.03361079841852188,-0.1608593165874481,0.000573381781578064,-0.02030713856220245,-0.01013654470443726,XArbitraryZVertical,0.06994033129386124,-0.06630011660723677,-0.9876841928999854,-0.1232581351781224,0.1545019745826721,-0.1137257218360901,-0.9814252853393555,0,0,0,-1,-1,3396.596293041667,running,2,2022-06-30T09:23:22.177+02:00,2022-06-30T08:20:05.567+02:00,1060,1.414949,0,0,825.5135,0,0,2022-06-30T09:23:24.721+02:00
2022-06-30T09:23:26.724+02:00,3401.142558875,0.0805206298828125,-0.2050018310546875,-1.025497436523438,3401.132607875,2.883205596306705,0.1560670890683088,0.1100631429475697,-0.3988845646381378,0.009804974310100079,-0.1946250200271606,-0.02047556638717651,-0.06275076419115067,-0.03648734092712402,XArbitraryZVertical,0.07012286005447917,-0.06440741911245043,-0.987704205029581,-0.1239959082912561,0.1544937938451767,-0.10984106361866,-0.9818689227104187,0,0,0,-1,-1,3396.596293041667,running,2,2022-06-30T09:23:22.177+02:00,2022-06-30T08:20:05.567+02:00,1060,1.414949,0,0,825.5135,0,0,2022-06-30T09:23:24.721+02:00
2022-06-30T09:23:26.734+02:00,3401.152510875,0.0657501220703125,-0.1998138427734375,-1.01385498046875,3401.142558875,2.881786104325139,0.1565708868508902,0.1056664868616999,-0.4421233832836151,0.06974899768829346,-0.2225189656019211,-0.04878450930118561,-0.09298551082611084,-0.03632664680480957,XArbitraryZVertical,0.0706185861548914,-0.06231981617034058,-0.9876930900995798,-0.1248661495979225,0.1550622433423996,-0.1054699644446373,-0.9822584986686707,0,0,0,-1,-1,3396.596293041667,running,2,2022-06-30T09:23:22.177+02:00,2022-06-30T08:20:05.567+02:00,1060,1.414949,0,0,825.5135,0,0,2022-06-30T09:23:24.721+02:00
2022-06-30T09:23:26.744+02:00,3401.162461875,0.053558349609375,-0.2799224853515625,-0.9840545654296875,3401.152510875,2.880174847811522,0.157457636998394,0.1005071272833609,-0.5423554182052612,0.07929772883653641,-0.2645809352397919,-0.07549554109573364,-0.1046634986996651,-0.04285240173339844,XArbitraryZVertical,0.07135132762075232,-0.05988739441619471,-0.9876657509347143,-0.1258523128235274,0.1560164541006088,-0.1003379970788956,-0.9826449751853943,0,0,0,-1,-1,3396.596293041667,running,2,2022-06-30T09:23:22.177+02:00,2022-06-30T08:20:05.567+02:00,1060,1.414949,0,0,825.5135,0,0,2022-06-30T09:23:24.721+02:00
2022-06-30T09:23:26.754+02:00,3401.172413875,0.0449371337890625,-0.351959228515625,-0.9802093505859375,3401.162461875,2.878206595049101,0.1582683657768157,0.09393857394514614,-0.7186771631240845,0.05592449381947517,-0.3301628828048706,-0.09116314351558685,-0.1060130447149277,-0.03070718050003052,XArbitraryZVertical,0.07213457865170732,-0.05676883136785787,-0.9876361225647031,-0.1270779001156653,0.1569135636091232,-0.09380047768354416,-0.9831477999687195,0,0,0,-1,-1,3396.596293041667,running,2,2022-06-30T09:23:22.177+02:00,2022-06-30T08:20:05.567+02:00,1060,1.414949,0,0,825.5135,0,0,2022-06-30T09:23:24.721+02:00
2022-06-30T09:23:26.764+02:00,3401.182364875,-0.0044403076171875,-0.374664306640625,-0.97393798828125,3401.172413875,2.876251721909738,0.159019919830373,0.08489742407436995,-1.033833146095276,0.07501900941133499,-0.3402898907661438,-0.1042215973138809,-0.1951266825199127,-0.0002277493476867676,XArbitraryZVertical,0.07306154054298759,-0.05242731836559452,-0.987636524623719,-0.1284040283685824,0.1577802449464798,-0.08479547500610352,-0.983826756477356,0,0,0,-1,-1,3396.596293041667,running,2,2022-06-30T09:23:22.177+02:00,2022-06-30T08:20:05.567+02:00,1060,1.414949,0,0,825.5135,0,0,2022-06-30T09:23:24.721+02:00
2022-06-30T09:23:26.774+02:00,3401.192315875,-0.0592498779296875,-0.422760009765625,-0.9928741455078125,3401.182364875,2.87464739933066,0.1600971982772589,0.07218593656140412,-1.43356454372406,0.1407247930765152,-0.402552455663681,-0.114061564207077,-0.2798356413841248,0.004431486129760742,XArbitraryZVertical,0.07441359069625056,-0.04628395503586076,-0.9876726917688288,-0.1297043660412891,0.1589990109205246,-0.07212325930595398,-0.9846408367156982,0,0,0,-1,-1,3396.596293041667,running,2,2022-06-30T09:23:22.177+02:00,2022-06-30T08:20:05.567+02:00,1060,1.414949,0,0,825.5135,0,0,2022-06-30T09:23:24.721+02:00
2022-06-30T09:23:26.784+02:00,3401.202267875,-0.059539794921875,-0.4227447509765625,-0.9576568603515625,3401.192315875,2.872598491629473,0.1619930244159608,0.05572746874774561,-1.769536852836609,0.2196049094200134,-0.5295906066894531,-0.1654751151800156,-0.318965345621109,0.01143783330917358,XArbitraryZVertical,0.07642258868444303,-0.03836290457472474,-0.9876390250375046,-0.1313667499594859,0.1610350757837296,-0.05569862946867943,-0.9853757619857788,0,0,0,-1,-1,3396.596293041667,running,2,2022-06-30T09:23:22.177+02:00,2022-06-30T08:20:05.567+02:00,1060,1.414949,0,0,825.5135,0,0,2022-06-30T09:23:24.721+02:00
2022-06-30T09:23:26.793+02:00,3401.212218875,-0.0847320556640625,-0.3790435791015625,-0.9961090087890625,3401.202267875,2.87018459199709,0.164431255794019,0.03583327457892831,-2.101219654083252,0.2635539770126343,-0.5988982915878296,-0.2228357940912247,-0.3869340717792511,-0.006995797157287598,XArbitraryZVertical,0.07893937513919211,-0.02879947872118879,-0.9875001829139163,-0.1333515394766273,0.1635861992835999,-0.03582560643553734,-0.9858783483505249,0,0,0,-1,-1,3396.596293041667,running,2,2022-06-30T09:23:22.177+02:00,2022-06-30T08:20:05.567+02:00,1060,1.414949,0,0,825.5135,0,0,2022-06-30T09:23:24.721+02:00
2022-06-30T09:23:26.803+02:00,3401.222170875,-0.0926513671875,-0.2896575927734375,-1.072952270507812,3401.212218875,2.867489813064505,0.1676962041643933,0.01289197844064129,-2.354298114776611,0.4087401330471039,-0.7039083242416382,-0.2264369577169418,-0.4098528027534485,0.02823317050933838,XArbitraryZVertical,0.08208528381857237,-0.01780497329466756,-0.9871961489204198,-0.1356051887225648,0.1668974459171295,-0.01289162132889032,-0.9858899712562561,0,0,0,-1,-1,3396.596293041667,running,2,2022-06-30T09:23:22.177+02:00,2022-06-30T08:20:05.567+02:00,1060,1.414949,0,0,825.5135,0,0,2022-06-30T09:23:24.721+02:00
2022-06-30T09:23:26.813+02:00,3401.232121875,-0.061798095703125,-0.2542877197265625,-1.116485595703125,3401.222170875,2.86427070753405,0.1726646650045359,-0.01281610802469402,-2.648681879043579,0.5904918313026428,-0.8074584007263184,-0.2565256655216217,-0.3918589949607849,-0.01105940341949463,XArbitraryZVertical,0.0862781811661332,-0.005594670238367652,-0.9866167616249581,-0.1382467022627209,0.1717938929796219,0.01281575672328472,-0.9850495457649231,0,0,0,-1,-1,3396.596293041667,running,2,2022-06-30T09:23:22.177+02:00,2022-06-30T08:20:05.567+02:00,1060,1.414949,0,0,825.5135,0,0,2022-06-30T09:23:24.721+02:00
2022-06-30T09:23:26.823+02:00,3401.242073875,-0.0004119873046875,-0.25189208984375,-1.136154174804688,3401.232121875,2.860626608386626,0.1790958856321705,-0.04168734881775569,-2.917337894439697,0.7280969619750977,-0.9323646426200867,-0.2706363201141357,-0.3313325345516205,-0.08980190753936768,XArbitraryZVertical,0.09143473059250183,0.008034995229075517,-0.9857059926994554,-0.1412755826637439,0.1779852211475372,0.04167527705430984,-0.9831502437591553,0,0,0,-1,-1,3396.596293041667,running,2,2022-06-30T09:23:22.177+02:00,2022-06-30T08:20:05.567+02:00,1060,1.414949,0,0,825.5135,0,0,2022-06-30T09:23:24.721+02:00
2022-06-30T09:23:26.833+02:00,3401.252024875,0.0445404052734375,-0.1998443603515625,-1.0728759765625,3401.242073875,2.856564763912635,0.1862768866757254,-0.07313328439109694,-3.183956861495972,0.7605838179588318,-1.003767728805542,-0.2465042471885681,-0.3273554742336273,-0.136411726474762,XArbitraryZVertical,0.09716940601559221,0.0228303259134973,-0.9844299872436062,-0.1446874902730785,0.1847064346075058,0.07306811213493347,-0.9800737500190735,0,0,0,-1,-1,3396.596293041667,running,2,2022-06-30T09:23:22.177+02:00,2022-06-30T08:20:05.567+02:00,1060,1.414949,0,0,825.5135,0,0,2022-06-30T09:23:24.721+02:00
2022-06-30T09:23:26.843+02:00,3401.261975875,0.0274658203125,-0.188018798828125,-1.006759643554688,3401.252024875,2.852831612660968,0.1936295164854983,-0.1084093700135552,-3.636490345001221,0.812962532043457,-1.081560969352722,-0.1917039453983307,-0.3600888848304749,-0.1606026291847229,XArbitraryZVertical,0.1032759400860187,0.03947588422132812,-0.9827610001385942,-0.1481779169045593,0.1912922263145447,0.1081971451640129,-0.9755514860153198,0,0,0,-1,-1,3396.596293041667,running,2,2022-06-30T09:23:22.177+02:00,2022-06-30T08:20:05.567+02:00,1060,1.414949,0,0,825.5135,0,0,2022-06-30T09:23:24.721+02:00
2022-06-30T09:23:26.853+02:00,3401.271928666667,0.067108154296875,-0.0201416015625,-0.9259796142578125,3401.261975875,2.849154816629656,0.2020839602426105,-0.147773264288973,-3.989042520523071,1.007696032524109,-1.175294995307922,-0.1539831757545471,-0.3470800518989563,-0.103902280330658,XArbitraryZVertical,0.1102219939320067,0.05800267797413394,-0.9805127486586425,-0.1519265816459832,0.1985238492488861,0.1472360342741013,-0.9689735770225525,0,0,0,-1,-1,3396.596293041667,running,2,2022-06-30T09:23:22.177+02:00,2022-06-30T08:20:05.567+02:00,1060,1.414949,0,0,825.5135,0,0,2022-06-30T09:23:24.721+02:00
2022-06-30T09:23:26.863+02:00,3401.281879666667,0.0998382568359375,0.15155029296875,-0.8823394775390625,3401.271928666667,2.846587437514617,0.2128986810846771,-0.1912043422153616,-4.463805198669434,1.275286316871643,-1.098107933998108,-0.1799773275852203,-0.3780598640441895,-0.0471494197845459,XArbitraryZVertical,0.1185644617507353,0.07834175542181632,-0.9775605237682067,-0.155501114801791,0.2074434161186218,0.1900414228439331,-0.9596101045608521,0,0,0,-1,-1,3396.596293041667,running,2,2022-06-30T09:23:22.177+02:00,2022-06-30T08:20:05.567+02:00,1060,1.414949,0,0,825.5135,0,0,2022-06-30T09:23:24.721+02:00
2022-06-30T09:23:26.873+02:00,3401.291831666667,0.1468658447265625,0.2356109619140625,-0.9156951904296875,3401.281879666667,2.846189679501697,0.2268374570601022,-0.2386631591684691,-4.761004447937012,1.563667774200439,-1.077025055885315,-0.1514139920473099,-0.2565451562404633,0.02078408002853394,XArbitraryZVertical,0.1285545885924799,0.1004587439745264,-0.9737850963613419,-0.1585063404840536,0.218522384762764,0.2364038974046707,-0.9467635154724121,0,0,0,-1,-1,3396.596293041667,running,2,2022-06-30T09:23:22.177+02:00,2022-06-30T08:20:05.567+02:00,1060,1.414949,0,0,825.5135,0,0,2022-06-30T09:23:24.721+02:00
2022-06-30T09:23:26.883+02:00,3401.301782666667,0.2764434814453125,0.3653106689453125,-0.9630279541015625,3401.291831666667,2.846176929082351,0.2441400670858193,-0.2869382189686128,-4.651237010955811,1.923214554786682,-1.184673309326172,-0.1320006549358368,-0.1314662992954254,0.04833358526229858,XArbitraryZVertical,0.1400893529444605,0.1226316870909009,-0.9691019804556104,-0.1617957890189358,0.2318391501903534,0.2830169498920441,-0.9306728839874268,0,0,0,-1,-1,3396.596293041667,running,2,2022-06-30T09:23:22.177+02:00,2022-06-30T08:20:05.567+02:00,1060,1.414949,0,0,825.5135,0,0,2022-06-30T09:23:24.721+02:00
2022-06-30T09:23:26.893+02:00,3401.311734666667,0.3863983154296875,0.459381103515625,-1.027130126953125,3401.301782666667,2.845884158595248,0.2644322933989408,-0.3333033851134578,-4.336194515228271,2.174152851104736,-1.194117426872253,-0.1001116633415222,-0.09155508875846863,-0.00357431173324585,XArbitraryZVertical,0.1528101317148496,0.1434877024527775,-0.9636518162846577,-0.1656370102449272,0.2469777762889862,0.3271664083003998,-0.9121206998825073,0,0,0,-1,-1,3396.596293041667,running,2,2022-06-30T09:23:22.177+02:00,2022-06-30T08:20:05.567+02:00,1060,1.414949,0,0,825.5135,0,0,2022-06-30T09:23:24.721+02:00
2022-06-30T09:23:26.903+02:00,3401.321685666667,0.443572998046875,0.5091400146484375,-1.115264892578125,3401.311734666667,2.845547237618455,0.2869282112720261,-0.3755035996752481,-3.785314559936523,2.38470196723938,-1.178672194480896,0.01315546035766602,-0.001430094242095947,-0.07073843479156494,XArbitraryZVertical,0.1661689055354317,0.1619976071592339,-0.9577650161685496,-0.1697965214812394,0.2632882595062256,0.3667410910129547,-0.8922893404960632,0,0,0,-1,-1,3396.596293041667,running,2,2022-06-30T09:23:22.177+02:00,2022-06-30T08:20:05.567+02:00,1060,1.414949,0,0,825.5135,0,0,2022-06-30T09:23:24.721+02:00
2022-06-30T09:23:26.913+02:00,3401.331636666667,0.5038299560546875,0.493255615234375,-1.10113525390625,3401.321685666667,2.844047507533221,0.3110668593240394,-0.4118995961848503,-3.132650852203369,2.593828201293945,-1.242514491081238,0.1059235334396362,0.059030681848526,-0.1547463536262512,XArbitraryZVertical,0.179904059404816,0.1773210692167909,-0.9516735813972872,-0.1746686905769624,0.280474990606308,0.4003507792949677,-0.8723835349082947,0,0,0,-1,-1,3396.596293041667,running,2,2022-06-30T09:23:22.177+02:00,2022-06-30T08:20:05.567+02:00,1060,1.414949,0,0,825.5135,0,0,2022-06-30T09:23:24.721+02:00
2022-06-30T09:23:26.923+02:00,3401.341588666667,0.5489044189453125,0.42694091796875,-1.03021240234375,3401.331636666667,2.84070878957398,0.3363950542554016,-0.4430392914955476,-2.651633024215698,2.781024694442749,-1.317260503768921,0.1453557312488556,0.08045303821563721,-0.2624495625495911,XArbitraryZVertical,0.1939350310232043,0.1896883197474538,-0.9454215930207837,-0.1805151714219308,0.2982175052165985,0.4286873042583466,-0.8528150916099548,0,0,0,-1,-1,3396.596293041667,running,2,2022-06-30T09:23:22.177+02:00,2022-06-30T08:20:05.567+02:00,1060,1.414949,0,0,825.5135,0,0,2022-06-30T09:23:24.721+02:00
2022-06-30T09:23:26.933+02:00,3401.351539666667,0.5663604736328125,0.371368408203125,-0.8961944580078125,3401.341588666667,2.836620465033092,0.3631475352856015,-0.471545917247971,-2.536293506622314,2.976131200790405,-1.325308322906494,0.1873779296875,0.03899189829826355,-0.2683672308921814,XArbitraryZVertical,0.2084432409010293,0.2004184061100606,-0.9388452953671454,-0.1869580389305984,0.3164522349834442,0.4542640447616577,-0.8327677845954895,0,0,0,-1,-1,3396.596293041667,running,2,2022-06-30T09:23:22.177+02:00,2022-06-30T08:20:05.567+02:00,1060,1.414949,0,0,825.5135,0,0,2022-06-30T09:23:24.721+02:00
2022-06-30T09:23:26.943+02:00,3401.361491666667,0.605804443359375,0.34307861328125,-0.7355499267578125,3401.351539666667,2.834012626336098,0.3927466999286604,-0.5008821271935009,-2.819396734237671,3.239257097244263,-1.26720666885376,0.2131916880607605,-0.05325824022293091,-0.219838559627533,XArbitraryZVertical,0.224030051008715,0.2112433636550307,-0.9315617351124391,-0.1933379523620039,0.3357129395008087,0.4801994860172272,-0.8103735446929932,0,0,0,-1,-1,3396.596293041667,running,2,2022-06-30T09:23:22.177+02:00,2022-06-30T08:20:05.567+02:00,1060,1.414949,0,0,825.5135,0,0,2022-06-30T09:23:24.721+02:00
2022-06-30T09:23:26.953+02:00,3401.371442666667,0.6663360595703125,0.3915863037109375,-0.5547943115234375,3401.361491666667,2.835247849635273,0.4270574537551159,-0.5335497355862669,-3.321317434310913,3.539146661758423,-1.125127077102661,0.2097363770008087,-0.1372241973876953,-0.112515389919281,XArbitraryZVertical,0.2413288586199248,0.2234300847462369,-0.9231579729166186,-0.1990444885549688,0.3566242754459381,0.5085929036140442,-0.7836787700653076,0,0,0,-1,-1,3396.596293041667,running,2,2022-06-30T09:23:22.177+02:00,2022-06-30T08:20:05.567+02:00,1060,1.414949,0,0,825.5135,0,0,2022-06-30T09:23:24.721+02:00
2022-06-30T09:23:26.963+02:00,3401.381394666667,0.7121734619140625,0.4900360107421875,-0.353851318359375,3401.371442666667,2.842862877615951,0.4676848863630705,-0.5705388530770492,-3.965783596038818,3.825804710388184,-0.9127224087715149,0.2263891398906708,-0.1970067024230957,0.01568365097045898,XArbitraryZVertical,0.2606145058915367,0.2376204090628092,-0.9133718172685985,-0.2033924804843183,0.3794154822826385,0.5400856137275696,-0.7512332201004028,0,0,0,-1,-1,3396.596293041667,running,2,2022-06-30T09:23:22.177+02:00,2022-06-30T08:20:05.567+02:00,1060,1.414949,0,0,825.5135,0,0,2022-06-30T09:23:24.721+02:00
2022-06-30T09:23:26.973+02:00,3401.391345666667,0.7627716064453125,0.532470703125,-0.157623291015625,3401.381394666667,2.858566190317328,0.5155989799982441,-0.6121452012811248,-4.654232978820801,4.046273231506348,-0.7219671607017517,0.2628106772899628,-0.1830378174781799,0.1572270393371582,XArbitraryZVertical,0.2817677138877809,0.254158326962715,-0.901961838575031,-0.2060956971237982,0.4035255610942841,0.5746244788169861,-0.7120209932327271,0,0,0,-1,-1,3396.596293041667,running,2,2022-06-30T09:23:22.177+02:00,2022-06-30T08:20:05.567+02:00,1060,1.414949,0,0,825.5135,0,0,2022-06-30T09:23:24.721+02:00
2022-06-30T09:23:26.982+02:00,3401.401296666667,0.7973175048828125,0.56683349609375,-0.0370941162109375,3401.391345666667,2.883692549238518,0.5715394974476741,-0.6577405679476839,-5.291563987731934,4.199162006378174,-0.5371302366256714,0.2840968072414398,-0.1212940216064453,0.3117506504058838,XArbitraryZVertical,0.3044214621499706,0.2729959085655548,-0.8887795717249158,-0.2070550158446477,0.4280768036842346,0.6113303303718567,-0.6656016111373901,0,0,0,-1,-1,3396.596293041667,running,2,2022-06-30T09:23:22.177+02:00,2022-06-30T08:20:05.567+02:00,1060,1.414949,0,0,825.5135,0,0,2022-06-30T09:23:24.721+02:00
2022-06-30T09:23:26.992+02:00,3401.411248666667,0.806884765625,0.66815185546875,0.0521697998046875,3401.401296666667,2.919637780385933,0.636433201305717,-0.7057983795409121,-5.850975036621094,4.29175329208374,-0.3163706958293915,0.3104301691055298,-0.1161707043647766,0.4544646739959717,XArbitraryZVertical,0.3281417587387281,0.2937331908134774,-0.8738048798762439,-0.2061771831657485,0.4523415863513947,0.6486417055130005,-0.612087607383728,0,0,0,-1,-1,3396.596293041667,running,2,2022-06-30T09:23:22.177+02:00,2022-06-30T08:20:05.567+02:00,1060,1.414949,0,0,825.5135,0,0,2022-06-30T09:23:24.721+02:00
2022-06-30T09:23:27.002+02:00,3401.421199666667,0.7883148193359375,0.755950927734375,0.1222991943359375,3401.411248666667,2.969054327636465,0.7124483726759813,-0.7545354454875401,-6.442224502563477,4.371593475341797,-0.005846637301146984,0.321046769618988,-0.1181164979934692,0.5142766237258911,XArbitraryZVertical,0.3527550310786821,0.3160359580687663,-0.857000490640926,-0.2030649005958364,0.476270854473114,0.6849502921104431,-0.5513703227043152,0,0,0,-1,-1,3396.596293041667,running,2,2022-06-30T09:23:22.177+02:00,2022-06-30T08:20:05.567+02:00,1060,1.414949,0,0,825.5135,0,0,2022-06-30T09:23:24.721+02:00
2022-06-30T09:23:27.012+02:00,3401.431151666667,0.7511138916015625,0.8170013427734375,0.16656494140625,3401.421199666667,3.035014159125878,0.8026961652709912,-0.8018994046184645,-6.954962730407715,4.465783596038818,0.3273790180683136,0.3067720532417297,-0.05052608251571655,0.5352736711502075,XArbitraryZVertical,0.3783027642111398,0.3396105041741665,-0.8382038944475358,-0.1973980152544768,0.5001128315925598,0.7186781167984009,-0.4831034541130066,0,0,0,-1,-1,3396.596293041667,running,2,2022-06-30T09:23:22.177+02:00,2022-06-30T08:20:05.567+02:00,1060,1.414949,0,0,825.5135,0,0,2022-06-30T09:23:24.721+02:00
2022-06-30T09:23:27.022+02:00,3401.441102666667,0.6900482177734375,0.908355712890625,0.2333831787109375,3401.431151666667,3.117507480327631,0.9081421906427579,-0.8443067911905349,-7.069639205932617,4.566161155700684,0.6417508125305176,0.2646456360816956,0.008440256118774414,0.530953586101532,XArbitraryZVertical,0.4045251205765388,0.3633627227114811,-0.8175498769211971,-0.1895760261385468,0.5236691832542419,0.7475108504295349,-0.4086539149284363,0,0,0,-1,-1,3396.596293041667,running,2,2022-06-30T09:23:22.177+02:00,2022-06-30T08:20:05.567+02:00,1060,1.414949,0,0,825.5135,0,0,2022-06-30T09:23:24.721+02:00
2022-06-30T09:23:27.032+02:00,3401.451054666667,0.6385650634765625,1.093292236328125,0.3476409912109375,3401.441102666667,-3.072738190640387,1.024491283462164,-0.8766877681850768,-6.631643295288086,4.653697490692139,0.9338181018829346,0.2045217752456665,0.04837727546691895,0.4989113807678223,XArbitraryZVertical,0.4307991513973182,0.3850183124823869,-0.7959300085191228,-0.1807443267423222,0.5465921759605408,0.7686242461204529,-0.3323459923267365,0,0,0,-1,-1,3396.596293041667,running,2,2022-06-30T09:23:22.177+02:00,2022-06-30T08:20:05.567+02:00,1060,1.414949,0,0,825.5135,0,0,2022-06-30T09:23:24.721+02:00
2022-06-30T09:23:27.042+02:00,3401.461005666667,0.589141845703125,1.131332397460938,0.3095855712890625,3401.451054666667,-2.975815055792701,1.146155007553074,-0.8971083592936366,-6.162030220031738,4.696694374084473,1.185311555862427,0.1215839385986328,0.1268298029899597,0.4904154241085052,XArbitraryZVertical,0.4567354186257149,0.4035800676117799,-0.7739849045744086,-0.1716490531365517,0.5684643387794495,0.7815261483192444,-0.2570317685604095,0,0,0,-1,-1,3396.596293041667,running,2,2022-06-30T09:23:22.177+02:00,2022-06-30T08:20:05.567+02:00,1060,1.414949,0,0,825.5135,0,0,2022-06-30T09:23:24.721+02:00
2022-06-30T09:23:27.058+02:00,3401.470956666667,0.51654052734375,1.03619384765625,0.3006744384765625,3401.461005666667,-2.881635898525371,1.26681802705357,-0.9055568580896214,-5.384601593017578,4.70367956161499,1.429591655731201,0.04961621761322021,0.3065233826637268,0.5323951244354248,XArbitraryZVertical,0.4820619325632149,0.4186161502075635,-0.7522438023534562,-0.1628070757042034,0.5889488458633423,0.7867689728736877,-0.1847536265850067,0,0,0,-1,-1,3396.596293041667,running,2,2022-06-30T09:23:22.177+02:00,2022-06-30T08:20:05.567+02:00,1060,1.414949,0,0,825.5135,0,0,2022-06-30T09:23:24.721+02:00
2022-06-30T09:23:27.062+02:00,3401.480908666667,0.4097900390625,0.8739776611328125,0.345001220703125,3401.470956666667,-2.79865777800942,1.378642729325049,-0.9028744190456335,-4.504368305206299,4.660768985748291,1.620897889137268,-0.01881498098373413,0.3462220430374146,0.4278664588928223,XArbitraryZVertical,0.5064636059605916,0.429365113095263,-0.7315330498923884,-0.1549182363937189,0.6079567670822144,0.7851104140281677,-0.1182804331183434,0,0,0,-1,-1,3396.596293041667,running,2,2022-06-30T09:23:22.177+02:00,2022-06-30T08:20:05.567+02:00,1060,1.414949,0,0,825.5135,0,0,2022-06-30T09:23:24.721+02:00
2022-06-30T09:23:27.077+02:00,3401.490859666667,0.32342529296875,0.7464447021484375,0.58087158203125,3401.480908666667,-2.731224543389532,1.477434167625362,-0.8920581743943181,-3.511658430099487,4.601673603057861,1.738603234291077,-0.1085368394851685,0.257828414440155,0.3592036366462708,XArbitraryZVertical,0.5297398883917185,0.4360175326784028,-0.7121931783388153,-0.1484767515976979,0.6250773072242737,0.7783655524253845,-0.05852872505784035,0,0,0,-1,-1,3396.596293041667,running,2,2022-06-30T09:23:22.177+02:00,2022-06-30T08:20:05.567+02:00,1060,1.414949,0,0,825.5135,0,0,2022-06-30T09:23:24.721+02:00
2022-06-30T09:23:27.082+02:00,3401.500811666667,0.3190765380859375,0.77801513671875,0.9532623291015625,3401.490859666667,-2.683739898713923,1.559638802503241,-0.8759972957750854,-2.413312673568726,4.540804386138916,1.79606568813324,-0.2304013967514038,0.1057953834533691,0.3521449565887451,XArbitraryZVertical,0.5517256978574714,0.4382090030100612,-0.6947976193511242,-0.1443192154804535,0.6401914358139038,0.7681823968887329,-0.007143247872591019,0,0,0,-1,-1,3396.596293041667,running,2,2022-06-30T09:23:22.177+02:00,2022-06-30T08:20:05.567+02:00,1060,1.414949,0,0,825.5135,0,0,2022-06-30T09:23:24.721+02:00
2022-06-30T09:23:27.092+02:00,3401.510762666667,0.419036865234375,0.7293548583984375,1.3697509765625,3401.500811666667,-2.653412707604974,1.627173156891706,-0.8578975741503182,-1.654884338378906,4.36945629119873,1.75911283493042,-0.3295650482177734,-0.01002448797225952,0.5440194606781006,XArbitraryZVertical,0.5722790980516552,0.4369472741241739,-0.6791995768824451,-0.1423434655807142,0.6529902815818787,0.756469190120697,0.03685257211327553,0,0,0,-1,-1,3396.596293041667,running,2,2022-06-30T09:23:22.177+02:00,2022-06-30T08:20:05.567+02:00,1060,1.414949,0,0,825.5135,0,0,2022-06-30T09:23:24.721+02:00
2022-06-30T09:23:27.102+02:00,3401.520714666667,0.5550384521484375,0.6199798583984375,1.760299682617188,3401.510762666667,-2.635323982814218,1.682600297473365,-0.8395909827513994,-1.095255017280579,4.007699489593506,1.693583607673645,-0.3445218205451965,0.03364521265029907,0.8787591457366943,XArbitraryZVertical,0.5910536140972937,0.4334829160821084,-0.6653248050762421,-0.1417436393192633,0.663598358631134,0.7443700432777405,0.07450362294912338,0,0,0,-1,-1,3396.596293041667,running,2,2022-06-30T09:23:22.177+02:00,2022-06-30T08:20:05.567+02:00,1060,1.414949,0,0,825.5135,0,0,2022-06-30T09:23:24.721+02:00
2022-06-30T09:23:27.112+02:00,3401.530665666667,0.7218475341796875,0.466278076171875,1.991439819335938,3401.520714666667,-2.623250705569705,1.72807917013634,-0.8227532904229103,-1.095371127128601,3.303070306777954,1.426319122314453,-0.2527728676795959,-0.003666460514068604,1.263207316398621,XArbitraryZVertical,0.6072011949068765,0.429626326506076,-0.6532490551162397,-0.1413991169325746,0.6718096733093262,0.7330214381217957,0.1065441444516182,0,0,0,-1,-1,3396.596293041667,running,2,2022-06-30T09:23:22.177+02:00,2022-06-30T08:20:05.567+02:00,1060,1.414949,0,0,825.5135,0,0,2022-06-30T09:23:24.721+02:00
2022-06-30T09:23:27.122+02:00,3401.540617666667,0.8023223876953125,0.314697265625,2.080810546875,3401.530665666667,-2.6069145566082,1.767601880879732,-0.8080416669778859,-1.690945386886597,2.228564500808716,1.090201854705811,-0.1225399374961853,-0.1029556393623352,1.625200271606445,XArbitraryZVertical,0.619790749382922,0.4282632385834735,-0.6427306148008043,-0.1390951137519592,0.677578330039978,0.7229354977607727,0.1350999474525452,0,0,0,-1,-1,3396.596293041667,running,2,2022-06-30T09:23:22.177+02:00,2022-06-30T08:20:05.567+02:00,1060,1.414949,0,0,825.5135,0,0,2022-06-30T09:23:24.721+02:00
2022-06-30T09:23:27.132+02:00,3401.550568666667,0.7208404541015625,0.32275390625,2.01177978515625,3401.540617666667,-2.580800565003268,1.802225796059528,-0.795085837977284,-2.477546215057373,0.961281418800354,0.6560482978820801,0.04029220342636108,-0.2476456165313721,1.830830693244934,XArbitraryZVertical,0.6281397262145922,0.4309817972697627,-0.6339771821123572,-0.1332971436088227,0.6815552115440369,0.7139236927032471,0.1606096476316452,0,0,0,-1,-1,3396.596293041667,running,2,2022-06-30T09:23:22.177+02:00,2022-06-30T08:20:05.567+02:00,1060,1.414949,0,0,825.5135,0,0,2022-06-30T09:23:24.721+02:00
2022-06-30T09:23:27.142+02:00,3401.560519666667,0.5211639404296875,0.481658935546875,1.891357421875,3401.550568666667,-2.542279691094818,1.832941552574535,-0.7842147649712622,-3.317101955413818,-0.2443704456090927,0.1408791244029999,0.1185651421546936,-0.3915721774101257,1.897345304489136,XArbitraryZVertical,0.6319099575584449,0.438660042827401,-0.6268751245109153,-0.1236721762350565,0.6837571859359741,0.7062695026397705,0.1834656596183777,0,0,0,-1,-1,3396.596293041667,running,2,2022-06-30T09:23:22.177+02:00,2022-06-30T08:20:05.567+02:00,1060,1.414949,0,0,825.5135,0,0,2022-06-30T09:23:24.721+02:00
2022-06-30T09:23:27.152+02:00,3401.570471666667,0.307525634765625,0.724639892578125,1.7694091796875,3401.560519666667,-2.493633304448713,1.859834064218655,-0.7752052394871208,-3.849973201751709,-1.204001903533936,-0.2818188667297363,0.03619217872619629,-0.3771088719367981,1.808189868927002,XArbitraryZVertical,0.6315591836703456,0.4504755639158583,-0.6211970322173452,-0.1109908024916635,0.6846480965614319,0.6998626589775085,0.2035904675722122,0,0,0,-1,-1,3396.596293041667,running,2,2022-06-30T09:23:22.177+02:00,2022-06-30T08:20:05.567+02:00,1060,1.414949,0,0,825.5135,0,0,2022-06-30T09:23:24.721+02:00
2022-06-30T09:23:27.162+02:00,3401.580422666667,0.1644744873046875,0.888519287109375,1.76092529296875,3401.570471666667,-2.439753062212296,1.88051313872093,-0.7685439730129211,-3.873628854751587,-2.176244258880615,-0.738746702671051,-0.1635533571243286,-0.2134302854537964,1.672237873077393,XArbitraryZVertical,0.6271901941957725,0.4649649967598918,-0.6173634147760472,-0.09644956872470412,0.6847172379493713,0.6950892210006714,0.219119980931282,0,0,0,-1,-1,3396.596293041667,running,2,2022-06-30T09:23:22.177+02:00,2022-06-30T08:20:05.567+02:00,1060,1.414949,0,0,825.5135,0,0,2022-06-30T09:23:24.721+02:00
2022-06-30T09:23:27.172+02:00,3401.590374666667,0.1744842529296875,0.9765777587890625,1.850173950195312,3401.580422666667,-2.388511258205371,1.889098537305046,-0.7670789056208568,-3.192341804504395,-3.242365598678589,-1.270569086074829,-0.3762516975402832,0.03060472011566162,1.544100761413574,XArbitraryZVertical,0.6180801521756362,0.480240944239117,-0.6169328470052036,-0.08209482256331652,0.6837773323059082,0.6940351724624634,0.2253088802099228,0,0,0,-1,-1,3396.596293041667,running,2,2022-06-30T09:23:22.177+02:00,2022-06-30T08:20:05.567+02:00,1060,1.414949,0,0,825.5135,0,0,2022-06-30T09:23:24.721+02:00
2022-06-30T09:23:27.182+02:00,3401.600325666667,0.2499847412109375,1.018951416015625,1.873748779296875,3401.590374666667,-2.347621306631512,1.879526476376205,-0.7734632809989628,-2.0351243019104,-4.410115718841553,-1.757495045661926,-0.5171926021575928,0.1899018287658691,1.543523192405701,XArbitraryZVertical,0.6035983020872561,0.494338364851982,-0.6216566448784299,-0.06958263986319184,0.6816670298576355,0.6986173987388611,0.2174026519060135,0,0,0,-1,-1,3396.596293041667,running,2,2022-06-30T09:23:22.177+02:00,2022-06-30T08:20:05.567+02:00,1060,1.414949,0,0,825.5135,0,0,2022-06-30T09:23:24.721+02:00
2022-06-30T09:23:27.191+02:00,3401.610277666667,0.28839111328125,0.90966796875,1.758590698242188,3401.600325666667,-2.319560576425549,1.848533255194433,-0.7877628085200559,-0.9538667798042297,-5.796183586120605,-2.1401047706604,-0.5039153695106506,0.2678008675575256,1.656758904457092,XArbitraryZVertical,0.5833024725411808,0.5064247454978155,-0.632348269915406,-0.05854872833552217,0.6783995628356934,0.7087768316268921,0.1934155970811844,0,0,0,-1,-1,3396.596293041667,running,2,2022-06-30T09:23:22.177+02:00,2022-06-30T08:20:05.567+02:00,1060,1.414949,0,0,825.5135,0,0,2022-06-30T09:23:24.721+02:00
2022-06-30T09:23:27.201+02:00,3401.620228666667,0.1930084228515625,0.926666259765625,1.727752685546875,3401.610277666667,-2.307728702367086,1.791905599615868,-0.8089988740735105,0.3717199265956879,-7.274043083190918,-2.382306337356567,-0.4234349131584167,0.2953548431396484,1.72237503528595,XArbitraryZVertical,0.5567309246846385,0.5154976421266052,-0.6495940555347213,-0.04837896230008554,0.673419713973999,0.7235965132713318,0.1513742804527283,0,0,0,-1,-1,3396.596293041667,running,2,2022-06-30T09:23:22.177+02:00,2022-06-30T08:20:05.567+02:00,1060,1.414949,0,0,825.5135,0,0,2022-06-30T09:23:24.721+02:00
2022-06-30T09:23:27.211+02:00,3401.630179666667,-0.221343994140625,0.7182159423828125,1.207870483398438,3401.620228666667,-2.311034079384491,1.709250419987946,-0.8337079775207441,0.8067288994789124,-8.843047142028809,-2.390411615371704,-0.3773120045661926,0.1692392826080322,1.665828466415405,XArbitraryZVertical,0.5238663658532062,0.5214838913368172,-0.6724800266035047,-0.03727450060798846,0.6657032370567322,0.7404287457466125,0.09276283532381058,0,0,0,-1,-1,3396.596293041667,running,2,2022-06-30T09:23:22.177+02:00,2022-06-30T08:20:05.567+02:00,1060,1.414949,0,0,825.5135,0,0,2022-06-30T09:23:24.721+02:00
2022-06-30T09:23:27.221+02:00,3401.640131666667,-0.879638671875,0.5465545654296875,0.363861083984375,3401.630179666667,-2.320544710484515,1.607285989635401,-0.8579914319841622,0.9400877952575684,-10.12087249755859,-2.368373394012451,-0.4605144858360291,0.1701355576515198,1.703895807266235,XArbitraryZVertical,0.4850398827584984,0.5259895657571921,-0.698253363362455,-0.02266061416912598,0.6535229682922363,0.7565305829048157,0.02385742217302322,0,0,0,-1,-1,3396.596293041667,running,2,2022-06-30T09:23:22.177+02:00,2022-06-30T08:20:05.567+02:00,1060,1.414949,0,0,825.5135,0,0,2022-06-30T09:23:24.721+02:00
2022-06-30T09:23:27.231+02:00,3401.650082666667,-1.944580078125,1.078628540039062,-0.89337158203125,3401.640131666667,-2.33999594865622,1.488649047815239,-0.8812018600697904,1.469663977622986,-10.5377025604248,-2.293514490127563,-0.8554228544235229,-0.05328822135925293,1.260076403617859,XArbitraryZVertical,0.4418205157346838,0.5279128346909705,-0.7253005523303249,-0.006465461888838347,0.6340789198875427,0.7715041041374207,-0.05220534279942513,0,0,0,-1,-1,3396.596293041667,running,2,2022-06-30T09:23:22.177+02:00,2022-06-30T08:20:05.567+02:00,1060,1.414949,0,0,825.5135,0,0,2022-06-30T09:23:24.721+02:00
2022-06-30T09:23:27.241+02:00,3401.660034666667,-2.860687255859375,1.428207397460938,-2.078170776367188,3401.650082666667,-2.367697034213818,1.368261467852442,-0.898580433656766,1.507122397422791,-9.182598114013672,-1.568389773368835,-1.489631295204163,-0.2358892560005188,0.4891238510608673,XArbitraryZVertical,0.4001712184123301,0.5265281256861237,-0.7500306788185663,0.0092220412722733,0.6099926829338074,0.7824437022209167,-0.1252622604370117,0,0,0,-1,-1,3396.596293041667,running,2,2022-06-30T09:23:22.177+02:00,2022-06-30T08:20:05.567+02:00,1060,1.414949,0,0,825.5135,0,0,2022-06-30T09:23:24.721+02:00
2022-06-30T09:23:27.251+02:00,3401.669985666667,-5.15106201171875,0.8756866455078125,-2.33734130859375,3401.660034666667,-2.401963528963692,1.255438200693119,-0.9051054616475749,2.444662094116211,-8.354881286621094,-0.9065939784049988,-2.531725883483887,0.2921383380889893,-0.7018172740936279,XArbitraryZVertical,0.3645539584108611,0.5208872155075914,-0.7715036413305126,0.0236487272422925,0.5871460437774658,0.7864903211593628,-0.1915538460016251,0,0,0,-1,-1,3396.596293041667,running,2,2022-06-30T09:23:22.177+02:00,2022-06-30T08:20:05.567+02:00,1060,1.414949,0,0,825.5135,0,0,2022-06-30T09:23:24.721+02:00
2022-06-30T09:23:27.261+02:00,3401.679937666667,-6.522369384765625,0.6764678955078125,-15.39820861816406,3401.669985666667,-2.434485370574661,1.188845827534165,-0.9054540222457904,-0.7043817043304443,8.294662475585938,0.3889055848121643,-3.433530569076538,0.6415019035339355,-1.84807276725769,XArbitraryZVertical,0.3469910307457122,0.5143427274095875,-0.7837458187201098,0.02813099674201931,0.5728434920310974,0.786705493927002,-0.2300975620746613,0,0,0,-1,-1,3396.596293041667,running,2,2022-06-30T09:23:22.177+02:00,2022-06-30T08:20:05.567+02:00,1060,1.414949,0,0,825.5135,0,0,2022-06-30T09:23:24.721+02:00
2022-06-30T09:23:27.271+02:00,3401.689888666667,1.655105590820312,0.99169921875,-9.95166015625,3401.679937666667,-2.368706419295072,1.267940895576521,-0.9432690248816136,-6.026987075805664,1.636522054672241,-4.556944847106934,-5.711484909057617,0.06620484590530396,-2.162226676940918,XArbitraryZVertical,0.3508011887486169,0.5379418486489312,-0.7662288629616589,0.02122474043397216,0.5604233145713806,0.8094817996025085,-0.1751141846179962,0,0,0,-1,-1,3396.596293041667,running,2,2022-06-30T09:23:22.177+02:00,2022-06-30T08:20:05.567+02:00,1060,1.414949,0,0,825.5135,0,0,2022-06-30T09:23:24.721+02:00
2022-06-30T09:23:27.281+02:00,3401.699840666667,-1.6971435546875,1.81463623046875,-3.57720947265625,3401.689888666667,-2.319247740259932,1.303223334388998,-0.9904366227386472,-2.631263732910156,-0.8545233607292175,-3.019031524658203,-7.051182270050049,-0.1597975492477417,-15.25323581695557,XArbitraryZVertical,0.3381132159564904,0.559636655872138,-0.7564710571120697,0.01542737087376849,0.5288131833076477,0.8362654447555542,-0.1449725329875946,0,0,0,-1,-1,3401.689455666667,running,2,2022-06-30T09:23:27.270+02:00,2022-06-30T08:20:05.567+02:00,1060,1.420687,0,0,825.5135,0,0,2022-06-30T09:23:27.270+02:00
2022-06-30T09:23:27.291+02:00,3401.709791666667,0.470672607421875,1.117340087890625,1.21990966796875,3401.699840666667,-2.305128687603132,1.326120974239311,-1.011905519583659,-0.2629117369651794,3.293625116348267,-1.189918875694275,1.140652656555176,0.1438552737236023,-9.823212623596191,XArbitraryZVertical,0.3368791679734692,0.5677047468405602,-0.7511119071382517,0.0073851592121274,0.514453113079071,0.8478437662124634,-0.128447487950325,0,0,0,-1,-1,3401.689455666667,running,2,2022-06-30T09:23:27.270+02:00,2022-06-30T08:20:05.567+02:00,1060,1.420687,0,0,825.5135,0,0,2022-06-30T09:23:27.270+02:00
2022-06-30T09:23:27.301+02:00,3401.719742666667,0.4935150146484375,2.467910766601562,0.624664306640625,3401.709791666667,-2.342712495450765,1.337019967775132,-1.015262113259065,4.401947975158691,4.873027324676514,-0.5872839093208313,-2.210194826126099,0.9650174379348755,-3.455035924911499,XArbitraryZVertical,0.3506622637090377,0.5620937884325207,-0.7489782449308204,-0.01087482352894461,0.513051450252533,0.8496187925338745,-0.1221731007099152,0,0,0,-1,-1,3401.689455666667,running,2,2022-06-30T09:23:27.270+02:00,2022-06-30T08:20:05.567+02:00,1060,1.420687,0,0,825.5135,0,0,2022-06-30T09:23:27.270+02:00
2022-06-30T09:23:27.311+02:00,3401.729694666667,-0.8749847412109375,2.0352783203125,-1.911880493164062,3401.719742666667,-2.440701097249541,1.293661230082445,-1.007712586510541,5.051985740661621,3.329886198043823,-0.6016343832015991,-0.0427558422088623,0.2717272043228149,1.365957498550415,XArbitraryZVertical,0.3634157968204337,0.5430518034456342,-0.7562478046544955,-0.03336340459362133,0.5134286880493164,0.8456130623817444,-0.1460473984479904,0,0,0,-1,-1,3401.689455666667,running,2,2022-06-30T09:23:27.270+02:00,2022-06-30T08:20:05.567+02:00,1060,1.420687,0,0,825.5135,0,0,2022-06-30T09:23:27.270+02:00
2022-06-30T09:23:27.321+02:00,3401.739645666667,-2.128005981445312,0.6334991455078125,-3.137619018554688,3401.729694666667,-2.518865325749854,1.266632920064401,-1.001266725281904,3.895190477371216,5.05048942565918,-0.8480985164642334,-0.0209689736366272,1.62575626373291,0.7861634492874146,XArbitraryZVertical,0.3756987302586597,0.5273529705292557,-0.7601702966983116,-0.0537646160458567,0.514484167098999,0.8421547412872314,-0.1614986211061478,0,0,0,-1,-1,3401.689455666667,running,2,2022-06-30T09:23:27.270+02:00,2022-06-30T08:20:05.567+02:00,1060,1.420687,0,0,825.5135,0,0,2022-06-30T09:23:27.270+02:00
2022-06-30T09:23:27.331+02:00,3401.749597666667,-1.353897094726562,0.7466888427734375,-1.919204711914062,3401.739645666667,-2.592630131062677,1.26323079015852,-1.0025285769609,2.923526048660278,6.451545238494873,-1.839907884597778,-1.387902975082397,1.19244384765625,-1.748953819274902,XArbitraryZVertical,0.3933061980748009,0.5136605495184894,-0.7581945496044259,-0.08126649362296322,0.5129184722900391,0.84283447265625,-0.1629261523485184,0,0,0,-1,-1,3401.689455666667,running,2,2022-06-30T09:23:27.270+02:00,2022-06-30T08:20:05.567+02:00,1060,1.420687,0,0,825.5135,0,0,2022-06-30T09:23:27.270+02:00
2022-06-30T09:23:27.341+02:00,3401.759548666667,-1.34466552734375,0.7368927001953125,-0.6320953369140625,3401.749597666667,-2.638084319894912,1.286087193952518,-1.016305727292877,1.292502641677856,5.930323123931885,-2.124058723449707,-2.633320808410645,-0.2166695594787598,-2.989733219146729,XArbitraryZVertical,0.4103560584712707,0.5076073538013357,-0.749794590223285,-0.1084012988911871,0.5053148865699768,0.850168764591217,-0.1478853523731232,0,0,0,-1,-1,3401.689455666667,running,2,2022-06-30T09:23:27.270+02:00,2022-06-30T08:20:05.567+02:00,1060,1.420687,0,0,825.5135,0,0,2022-06-30T09:23:27.270+02:00
2022-06-30T09:23:27.351+02:00,3401.769500666667,-1.121551513671875,1.404922485351562,-0.0976104736328125,3401.759548666667,-2.668370212574214,1.320402631120198,-1.033649887760004,0.7423803210258484,6.287800788879395,-2.075305700302124,-1.849626541137695,-0.1124834418296814,-1.792415738105774,XArbitraryZVertical,0.4268338219690354,0.5043993236622126,-0.7386068164182814,-0.1336196225718445,0.4957294464111328,0.8591722846031189,-0.1267884224653244,0,0,0,-1,-1,3401.689455666667,running,2,2022-06-30T09:23:27.270+02:00,2022-06-30T08:20:05.567+02:00,1060,1.420687,0,0,825.5135,0,0,2022-06-30T09:23:27.270+02:00
2022-06-30T09:23:27.361+02:00,3401.779451666667,-0.8304290771484375,1.601654052734375,-0.430694580078125,3401.769500666667,-2.687663362246282,1.36994983210311,-1.053040990775395,0.3611684739589691,6.973937034606934,-2.139574527740479,-1.829647660255432,-0.1320394277572632,-0.5333565473556519,XArbitraryZVertical,0.4453672197571263,0.5022737447330726,-0.7239152150839583,-0.1591103961443151,0.4849822521209717,0.86893230676651,-0.09873825311660767,0,0,0,-1,-1,3401.689455666667,running,2,2022-06-30T09:23:27.270+02:00,2022-06-30T08:20:05.567+02:00,1060,1.420687,0,0,825.5135,0,0,2022-06-30T09:23:27.270+02:00
2022-06-30T09:23:27.371+02:00,3401.789402666667,-0.9721221923828125,1.576446533203125,-0.4688262939453125,3401.779451666667,-2.70474553829933,1.425609898771057,-1.07312346955779,0.6295688152313232,7.161704063415527,-2.057683229446411,-1.593910932540894,0.5262266993522644,-0.02854382991790771,XArbitraryZVertical,0.4649040385061569,0.4993307060411267,-0.7072056719654609,-0.1854542518045481,0.4723595380783081,0.8786959052085876,-0.06906615942716599,0,0,0,-1,-1,3401.689455666667,running,2,2022-06-30T09:23:27.270+02:00,2022-06-30T08:20:05.567+02:00,1060,1.420687,0,0,825.5135,0,0,2022-06-30T09:23:27.270+02:00
2022-06-30T09:23:27.381+02:00,3401.799354666667,-1.23699951171875,1.558029174804688,-0.1461944580078125,3401.789402666667,-2.731003434460991,1.473901193462599,-1.091538224861813,1.411890864372253,7.222601890563965,-1.923063516616821,-1.289386987686157,0.714316725730896,-0.3860836029052734,XArbitraryZVertical,0.4839842537552905,0.4934105806335959,-0.6907653542089158,-0.2124815023623656,0.4589578807353973,0.8873372673988342,-0.04461048170924187,0,0,0,-1,-1,3401.689455666667,running,2,2022-06-30T09:23:27.270+02:00,2022-06-30T08:20:05.567+02:00,1060,1.420687,0,0,825.5135,0,0,2022-06-30T09:23:27.270+02:00
2022-06-30T09:23:27.391+02:00,3401.809305666667,-1.271240234375,1.752609252929688,0.253570556640625,3401.799354666667,-2.776926944762923,1.505273818546768,-1.110263417235064,2.425782680511475,7.309674739837646,-2.161610841751099,-1.415594339370728,0.6806308627128601,-0.4397267699241638,XArbitraryZVertical,0.5015318250173401,0.4836489417648925,-0.6753271147259697,-0.2418324074820399,0.4434721171855927,0.8958157896995544,-0.02909905835986137,0,0,0,-1,-1,3401.689455666667,running,2,2022-06-30T09:23:27.270+02:00,2022-06-30T08:20:05.567+02:00,1060,1.420687,0,0,825.5135,0,0,2022-06-30T09:23:27.270+02:00
2022-06-30T09:23:27.400+02:00,3401.819257666667,-1.214324951171875,1.887237548828125,0.6146087646484375,3401.809305666667,-2.844117841507582,1.517152820127069,-1.131332768004373,3.065361022949219,7.210499286651611,-2.379568576812744,-1.661841869354248,0.6530492901802063,-0.1233820915222168,XArbitraryZVertical,0.5166765989622278,0.470785868860398,-0.6606280656792213,-0.2738185833174982,0.4248422980308533,0.9049800038337708,-0.02281191572546959,0,0,0,-1,-1,3401.689455666667,running,2,2022-06-30T09:23:27.270+02:00,2022-06-30T08:20:05.567+02:00,1060,1.420687,0,0,825.5135,0,0,2022-06-30T09:23:27.270+02:00
2022-06-30T09:23:27.410+02:00,3401.829208666667,-1.1068115234375,1.797515869140625,0.9329681396484375,3401.819257666667,-2.921089075089899,1.517781144671213,-1.154336756085281,3.038093090057373,6.981533527374268,-2.566609621047974,-1.675197601318359,0.8380826711654663,0.2750070095062256,XArbitraryZVertical,0.5295852084293341,0.4569699431157832,-0.6456819070692651,-0.3062891560046982,0.4039573073387146,0.9145268797874451,-0.02143595553934574,0,0,0,-1,-1,3401.689455666667,running,2,2022-06-30T09:23:27.270+02:00,2022-06-30T08:20:05.567+02:00,1060,1.420687,0,0,825.5135,0,0,2022-06-30T09:23:27.270+02:00
2022-06-30T09:23:27.420+02:00,3401.839160666667,-1.078292846679688,1.861282348632812,1.154708862304688,3401.829208666667,-3.001996438482887,1.51121316927201,-1.179234522728317,3.012580871582031,6.687389850616455,-2.784927845001221,-1.595280408859253,0.9629234671592712,0.6373347043991089,XArbitraryZVertical,0.5403337189595355,0.4434825373157311,-0.6300790240220481,-0.3381762518824066,0.3809553682804108,0.9243141412734985,-0.0227254219353199,0,0,0,-1,-1,3401.689455666667,running,2,2022-06-30T09:23:27.270+02:00,2022-06-30T08:20:05.567+02:00,1060,1.420687,0,0,825.5135,0,0,2022-06-30T09:23:27.270+02:00
2022-06-30T09:23:27.430+02:00,3401.849111666667,-1.107467651367188,1.9107666015625,1.078704833984375,3401.839160666667,-3.085541827972758,1.499448803382477,-1.205278492976095,2.827484130859375,6.579931259155273,-2.791658878326416,-1.463335275650024,0.863577127456665,0.9584489464759827,XArbitraryZVertical,0.5495518027153256,0.4304098656303933,-0.6135378122738001,-0.369203902915307,0.3565236032009125,0.9339388012886047,-0.02548032812774181,0,0,0,-1,-1,3401.689455666667,running,2,2022-06-30T09:23:27.270+02:00,2022-06-30T08:20:05.567+02:00,1060,1.420687,0,0,825.5135,0,0,2022-06-30T09:23:27.270+02:00
2022-06-30T09:23:27.441+02:00,3401.859062666667,-1.109848022460938,1.984161376953125,0.7678070068359375,3401.849111666667,3.105915394981363,1.478185200250483,-1.229831850265563,3.206368684768677,6.431825637817383,-2.646885395050049,-1.411256313323975,0.9188498854637146,1.185633897781372,XArbitraryZVertical,0.5577434682340222,0.4164852189711681,-0.5966691065925316,-0.3993097947055186,0.3329633474349976,0.9424325823783875,-0.03092457167804241,0,0,0,-1,-1,3401.689455666667,running,2,2022-06-30T09:23:27.270+02:00,2022-06-30T08:20:05.567+02:00,1060,1.420687,0,0,825.5135,0,0,2022-06-30T09:23:27.270+02:00
2022-06-30T09:23:27.450+02:00,3401.869014666667,-1.128997802734375,2.21923828125,0.5010528564453125,3401.859062666667,2.982432998727561,1.423806972495484,-1.251200248258724,4.297589778900146,6.114314556121826,-2.569268226623535,-1.41826343536377,0.9614044427871704,1.124720692634583,XArbitraryZVertical,0.5631224757378194,0.3998566231296145,-0.5813771710784,-0.4301261243486224,0.3107955455780029,0.9493623971939087,-0.04601551592350006,0,0,0,-1,-1,3401.689455666667,running,2,2022-06-30T09:23:27.270+02:00,2022-06-30T08:20:05.567+02:00,1060,1.420687,0,0,825.5135,0,0,2022-06-30T09:23:27.270+02:00
2022-06-30T09:23:27.460+02:00,3401.878965666667,-1.191329956054688,2.500289916992188,0.4834136962890625,3401.869014666667,2.80794956447229,1.316638935253387,-1.266249307238692,5.611263751983643,5.738876342773438,-2.51978063583374,-1.400077104568481,1.030178785324097,0.8432016372680664,XArbitraryZVertical,0.5640805417925595,0.379626177358258,-0.5687497308631621,-0.4628402068051614,0.2902287840843201,0.9539828896522522,-0.07539421319961548,0,0,0,-1,-1,3401.689455666667,running,2,2022-06-30T09:23:27.270+02:00,2022-06-30T08:20:05.567+02:00,1060,1.420687,0,0,825.5135,0,0,2022-06-30T09:23:27.270+02:00
2022-06-30T09:23:27.470+02:00,3401.888917666667,-1.208587646484375,2.687164306640625,0.6852264404296875,3401.878965666667,2.58707872356553,1.160894538082393,-1.270060421255137,6.506552696228027,5.340207099914551,-2.506239891052246,-1.400682091712952,1.264119625091553,0.6191039085388184,XArbitraryZVertical,0.5604061762425556,0.3562577760426462,-0.5584468906408344,-0.4971542824922807,0.2716840207576752,0.9551187753677368,-0.1180506274104118,0,0,0,-1,-1,3401.689455666667,running,2,2022-06-30T09:23:27.270+02:00,2022-06-30T08:20:05.567+02:00,1060,1.420687,0,0,825.5135,0,0,2022-06-30T09:23:27.270+02:00
2022-06-30T09:23:27.480+02:00,3401.898868666667,-1.098785400390625,2.784164428710938,0.91741943359375,3401.888917666667,2.35399523351748,0.9892698828795202,-1.260487445243361,6.6605224609375,4.86436939239502,-2.497727394104004,-1.44649076461792,1.548050761222839,0.6511443853378296,XArbitraryZVertical,0.5531826665805829,0.3318490056345654,-0.5492811578015909,-0.531183025893054,0.2551605105400085,0.9522392749786377,-0.1677303463220596,0,0,0,-1,-1,3401.689455666667,running,2,2022-06-30T09:23:27.270+02:00,2022-06-30T08:20:05.567+02:00,1060,1.420687,0,0,825.5135,0,0,2022-06-30T09:23:27.270+02:00
2022-06-30T09:23:27.490+02:00,3401.908820666667,-0.9467010498046875,2.739105224609375,1.04486083984375,3401.898868666667,2.146468988712396,0.8380518367255156,-1.240704469571148,5.995915412902832,4.345810890197754,-2.359856843948364,-1.449527263641357,1.741151928901672,0.9020413160324097,XArbitraryZVertical,0.5443706346848975,0.3086313553416467,-0.5402672629947152,-0.5625999085615838,0.2409393191337585,0.946012556552887,-0.2168145924806595,0,0,0,-1,-1,3401.689455666667,running,2,2022-06-30T09:23:27.270+02:00,2022-06-30T08:20:05.567+02:00,1060,1.420687,0,0,825.5135,0,0,2022-06-30T09:23:27.270+02:00
2022-06-30T09:23:27.500+02:00,3401.918771666667,-0.8017425537109375,2.48284912109375,1.076461791992188,3401.908820666667,1.985407681964383,0.7273040648244572,-1.218135075288271,4.802340030670166,3.922163724899292,-2.149238348007202,-1.328425645828247,1.845707774162292,1.175420522689819,XArbitraryZVertical,0.5364951141562136,0.2883965838860488,-0.5307935773683284,-0.5892865792917553,0.2296398431062698,0.9384568333625793,-0.2580007910728455,0,0,0,-1,-1,3401.689455666667,running,2,2022-06-30T09:23:27.270+02:00,2022-06-30T08:20:05.567+02:00,1060,1.420687,0,0,825.5135,0,0,2022-06-30T09:23:27.270+02:00
2022-06-30T09:23:27.510+02:00,3401.928723666667,-0.6086883544921875,2.2392578125,1.1055908203125,3401.918771666667,1.865173592648062,0.6521305359042296,-1.199001278925824,3.58447527885437,3.564484834671021,-2.029410362243652,-1.167174458503723,1.80742871761322,1.333600282669067,XArbitraryZVertical,0.5308382606293092,0.271737270564776,-0.5204937838221961,-0.6111104404763855,0.2204730659723282,0.9316767454147339,-0.2887392044067383,0,0,0,-1,-1,3401.689455666667,running,2,2022-06-30T09:23:27.270+02:00,2022-06-30T08:20:05.567+02:00,1060,1.420687,0,0,825.5135,0,0,2022-06-30T09:23:27.270+02:00
2022-06-30T09:23:27.520+02:00,3401.938674666667,-0.4892425537109375,2.035140991210938,0.978912353515625,3401.928723666667,1.774410868892158,0.6014823767318819,-1.185896454747544,2.518003463745117,3.220359325408936,-1.897628784179688,-1.014206171035767,1.556013226509094,1.386033177375793,XArbitraryZVertical,0.5275557013889973,0.2586492870894849,-0.5095552855945745,-0.6286007406848636,0.2124633193016052,0.9268360137939453,-0.3095710575580597,0,0,0,-1,-1,3401.689455666667,running,2,2022-06-30T09:23:27.270+02:00,2022-06-30T08:20:05.567+02:00,1060,1.420687,0,0,825.5135,0,0,2022-06-30T09:23:27.270+02:00
2022-06-30T09:23:27.530+02:00,3401.948625666667,-0.4148712158203125,1.874801635742188,0.7314910888671875,3401.938674666667,1.702135260994304,0.5652761067182942,-1.17774962653725,1.931875109672546,2.955174446105957,-1.810787916183472,-0.8138447999954224,1.315511584281921,1.429015874862671,XArbitraryZVertical,0.5259959853364213,0.2482253378465625,-0.4984051554777723,-0.6428878655718837,0.2051561027765274,0.9237464666366577,-0.3234248161315918,0,0,0,-1,-1,3401.689455666667,running,2,2022-06-30T09:23:27.270+02:00,2022-06-30T08:20:05.567+02:00,1060,1.420687,0,0,825.5135,0,0,2022-06-30T09:23:27.270+02:00
2022-06-30T09:23:27.540+02:00,3401.958577666667,-0.34228515625,1.836685180664062,0.5190277099609375,3401.948625666667,1.637723829156065,0.5341429573275316,-1.17094621690966,1.885029673576355,2.731515884399414,-1.747756123542786,-0.6874270439147949,1.114021778106689,1.313968420028687,XArbitraryZVertical,0.524717013909212,0.239048453181034,-0.487533714310636,-0.6556210060074853,0.1981840878725052,0.9211193323135376,-0.33505579829216,0,0,0,-1,-1,3401.689455666667,running,2,2022-06-30T09:23:27.270+02:00,2022-06-30T08:20:05.567+02:00,1060,1.420687,0,0,825.5135,0,0,2022-06-30T09:23:27.270+02:00
2022-06-30T09:23:27.550+02:00,3401.968528666667,-0.29498291015625,1.895919799804688,0.383087158203125,3401.958577666667,1.575092223375554,0.5027113061782917,-1.161629548754596,2.208471298217773,2.527436971664429,-1.619423151016235,-0.6065546870231628,0.9573491811752319,1.080114841461182,XArbitraryZVertical,0.5223381603394405,0.229893524537623,-0.4775116699322005,-0.6680528112222801,0.1916830986738205,0.9174526333808899,-0.3486236333847046,0,0,0,-1,-1,3401.689455666667,running,2,2022-06-30T09:23:27.270+02:00,2022-06-30T08:20:05.567+02:00,1060,1.420687,0,0,825.5135,0,0,2022-06-30T09:23:27.270+02:00
2022-06-30T09:23:27.560+02:00,3401.978480666667,-0.2547454833984375,1.854629516601562,0.2867889404296875,3401.968528666667,1.513952797106679,0.4710851513471827,-1.146901905253937,2.734388113021851,2.363624572753906,-1.395647406578064,-0.5289615988731384,0.925191342830658,0.8855395913124084,XArbitraryZVertical,0.5181123605042292,0.2197811293267122,-0.4689089676924745,-0.6807204362239951,0.1866760551929474,0.9114940166473389,-0.3665116727352142,0,0,0,-1,-1,3401.689455666667,running,2,2022-06-30T09:23:27.270+02:00,2022-06-30T08:20:05.567+02:00,1060,1.420687,0,0,825.5135,0,0,2022-06-30T09:23:27.270+02:00
2022-06-30T09:23:27.570+02:00,3401.988431666667,-0.184478759765625,1.826629638671875,0.321624755859375,3401.978480666667,1.452871627643424,0.438554770565412,-1.124438944572175,3.613856792449951,2.235655069351196,-1.30138099193573,-0.4782894551753998,0.9938944578170776,0.7739185094833374,XArbitraryZVertical,0.5111914290213529,0.2080089720331319,-0.4618324650406884,-0.694353333473455,0.1833061426877975,0.9020255208015442,-0.3908311724662781,0,0,0,-1,-1,3401.689455666667,running,2,2022-06-30T09:23:27.270+02:00,2022-06-30T08:20:05.567+02:00,1060,1.420687,0,0,825.5135,0,0,2022-06-30T09:23:27.270+02:00
2022-06-30T09:23:27.580+02:00,3401.998383666667,-0.10455322265625,1.727767944335938,0.3591156005859375,3401.988431666667,1.389630644922621,0.4034726224718447,-1.093480542479018,4.301180839538574,2.093807935714722,-1.341694951057434,-0.4351116716861725,0.9663984775543213,0.7092976570129395,XArbitraryZVertical,0.5008624999100072,0.1946342109178856,-0.4557966189000564,-0.7095799849293974,0.1803657859563828,0.8882312178611755,-0.42250856757164,0,0,0,-1,-1,3401.689455666667,running,2,2022-06-30T09:23:27.270+02:00,2022-06-30T08:20:05.567+02:00,1060,1.420687,0,0,825.5135,0,0,2022-06-30T09:23:27.270+02:00
2022-06-30T09:23:27.589+02:00,3402.008334666667,-0.028472900390625,1.67425537109375,0.328643798828125,3401.998383666667,1.326750103463615,0.3684230398367008,-1.056327207697901,4.868722915649414,1.977005839347839,-1.431043148040771,-0.3616966009140015,0.9560757279396057,0.7806777954101562,XArbitraryZVertical,0.4877752803745059,0.1804129397640287,-0.4501391845251955,-0.7258795579820007,0.1772174090147018,0.8705540895462036,-0.4590528905391693,0,0,0,-1,-1,3401.689455666667,running,2,2022-06-30T09:23:27.270+02:00,2022-06-30T08:20:05.567+02:00,1060,1.420687,0,0,825.5135,0,0,2022-06-30T09:23:27.270+02:00
2022-06-30T09:23:27.600+02:00,3402.018285666667,0.0250701904296875,1.716598510742188,0.3073883056640625,3402.008334666667,1.265529533251273,0.3347190096942811,-1.013446560045347,5.323854446411133,1.830174088478088,-1.501267552375793,-0.2783120274543762,0.8791081309318542,0.8586999177932739,XArbitraryZVertical,0.4720199425641536,0.1655448696840976,-0.4446476349760175,-0.7430211823864236,0.1737584173679352,0.848659873008728,-0.4995841383934021,0,0,0,-1,-1,3401.689455666667,running,2,2022-06-30T09:23:27.270+02:00,2022-06-30T08:20:05.567+02:00,1060,1.420687,0,0,825.5135,0,0,2022-06-30T09:23:27.270+02:00
2022-06-30T09:23:27.609+02:00,3402.028237666667,0.042327880859375,1.671005249023438,0.229644775390625,3402.018285666667,1.208597024027264,0.3046788939575587,-0.9669379791958188,5.486853122711182,1.703818082809448,-1.528445482254028,-0.1988126635551453,0.8511046171188354,0.8703146576881409,XArbitraryZVertical,0.4544385091893964,0.1505002112092788,-0.4391888616429743,-0.7602292094758484,0.1703393459320068,0.8231508731842041,-0.5416706800460815,0,0,0,-1,-1,3401.689455666667,running,2,2022-06-30T09:23:27.270+02:00,2022-06-30T08:20:05.567+02:00,1060,1.420687,0,0,825.5135,0,0,2022-06-30T09:23:27.270+02:00
2022-06-30T09:23:27.619+02:00,3402.038188666667,0.0770263671875,1.632217407226562,0.13775634765625,3402.028237666667,1.156871150141617,0.2792336137228769,-0.9188768443214282,5.464703559875488,1.600610971450806,-1.547564268112183,-0.1421519666910172,0.9216779470443726,0.8906019330024719,XArbitraryZVertical,0.4358849126256508,0.1356377577141435,-0.4335809495482397,-0.7769261711361505,0.1672217398881912,0.7949206829071045,-0.5832135081291199,0,0,0,-1,-1,3401.689455666667,running,2,2022-06-30T09:23:27.270+02:00,2022-06-30T08:20:05.567+02:00,1060,1.420687,0,0,825.5135,0,0,2022-06-30T09:23:27.270+02:00
2022-06-30T09:23:27.641+02:00,3402.048140666667,0.1147003173828125,1.651397705078125,0.0838623046875,3402.038188666667,1.110956765253028,0.2590434601548685,-0.8714290900541738,5.251210689544678,1.547517895698547,-1.476054668426514,-0.1225687712430954,0.9057557582855225,0.851900577545166,XArbitraryZVertical,0.4173459939998914,0.1212207801991423,-0.4277574651442875,-0.7925600025071736,0.1648962497711182,0.7652496695518494,-0.6222556829452515,0,0,0,-1,-1,3401.689455666667,running,2,2022-06-30T09:23:27.270+02:00,2022-06-30T08:20:05.567+02:00,1060,1.420687,0,0,825.5135,0,0,2022-06-30T09:23:27.270+02:00
2022-06-30T09:23:27.645+02:00,3402.058091666667,0.144195556640625,1.690673828125,-0.0254058837890625,3402.048140666667,1.070654387726095,0.2439932696330037,-0.8247296427914014,5.182311534881592,1.497804760932922,-1.406514644622803,-0.08694750070571899,0.8978532552719116,0.79640793800354,XArbitraryZVertical,0.3990222711240747,0.1070302784390148,-0.4219390752403269,-0.807027371439307,0.1639734506607056,0.7343643307685852,-0.6586514711380005,0,0,0,-1,-1,3401.689455666667,running,2,2022-06-30T09:23:27.270+02:00,2022-06-30T08:20:05.567+02:00,1060,1.420687,0,0,825.5135,0,0,2022-06-30T09:23:27.270+02:00
2022-06-30T09:23:27.650+02:00,3402.068043666667,0.2212371826171875,1.720138549804688,-0.2161407470703125,3402.058091666667,1.033270376796936,0.2317837642513805,-0.7763684415003664,5.557194709777832,1.431524038314819,-1.391411542892456,-0.04919245839118958,0.95070481300354,0.7782459259033203,XArbitraryZVertical,0.3797680710647121,0.09265230200622374,-0.4160833021224364,-0.8210154555563733,0.1638923585414886,0.7006930708885193,-0.6943835020065308,0,0,0,-1,-1,3401.689455666667,running,2,2022-06-30T09:23:27.270+02:00,2022-06-30T08:20:05.567+02:00,1060,1.420687,0,0,825.5135,0,0,2022-06-30T09:23:27.270+02:00
2022-06-30T09:23:27.659+02:00,3402.077994666667,0.297821044921875,1.690200805664062,-0.2557220458984375,3402.068043666667,0.9968825535143897,0.220676297085569,-0.7212827409738606,6.4349045753479,1.285369753837585,-1.353504061698914,-0.02018202841281891,1.030325412750244,0.7073425054550171,XArbitraryZVertical,0.3573095632106881,0.07717328145537219,-0.4104550300259849,-0.835404701679451,0.1643771678209305,0.6603484749794006,-0.7327483296394348,0,0,0,-1,-1,3401.689455666667,running,2,2022-06-30T09:23:27.270+02:00,2022-06-30T08:20:05.567+02:00,1060,1.420687,0,0,825.5135,0,0,2022-06-30T09:23:27.270+02:00
2022-06-30T09:23:27.669+02:00,3402.087945666667,0.320037841796875,1.418533325195312,-0.352325439453125,3402.077994666667,0.9604974297630264,0.2092696644356016,-0.6571638110471704,7.381353378295898,1.068725109100342,-1.457032322883606,0.05675879120826721,1.109264850616455,0.5583140254020691,XArbitraryZVertical,0.3303035275634545,0.06059873898568681,-0.4050000268028555,-0.8504130187623614,0.1644779592752457,0.610873818397522,-0.7744547724723816,0,0,0,-1,-1,3401.689455666667,running,2,2022-06-30T09:23:27.270+02:00,2022-06-30T08:20:05.567+02:00,1060,1.420687,0,0,825.5135,0,0,2022-06-30T09:23:27.270+02:00
2022-06-30T09:23:27.679+02:00,3402.097897666667,0.4239044189453125,1.230545043945312,-0.4610595703125,3402.087945666667,0.9220528281814565,0.1968262768791055,-0.5832158386475056,8.398988723754883,0.9246049523353577,-1.699268102645874,0.1345892548561096,1.139489889144897,0.5628577470779419,XArbitraryZVertical,0.2980963461513845,0.04299599305580325,-0.3987265740876883,-0.8662027294089056,0.163231372833252,0.5507110357284546,-0.8185798525810242,0,0,0,-1,-1,3401.689455666667,running,2,2022-06-30T09:23:27.270+02:00,2022-06-30T08:20:05.567+02:00,1060,1.420687,0,0,825.5135,0,0,2022-06-30T09:23:27.270+02:00
2022-06-30T09:23:27.689+02:00,3402.107848666667,0.50738525390625,1.007064819335938,-0.6382293701171875,3402.097897666667,0.8835436509306319,0.1852156423602737,-0.5011545911214876,8.957489967346191,0.7172185182571411,-1.640650272369385,0.1585251837968826,0.9380949735641479,0.5097028017044067,XArbitraryZVertical,0.26149952760248,0.02457372697321856,-0.3916855515726644,-0.8818144424158672,0.1615122407674789,0.4804384708404541,-0.8620282411575317,0,0,0,-1,-1,3401.689455666667,running,2,2022-06-30T09:23:27.270+02:00,2022-06-30T08:20:05.567+02:00,1060,1.420687,0,0,825.5135,0,0,2022-06-30T09:23:27.270+02:00
2022-06-30T09:23:27.699+02:00,3402.117800666667,0.51123046875,0.934295654296875,-0.867767333984375,3402.107848666667,0.8491621328295382,0.1762192147305506,-0.415268228957164,9.090779304504395,0.5456815958023071,-1.349173188209534,0.2634952068328857,0.8271098136901855,0.4397783279418945,XArbitraryZVertical,0.2225836393296931,0.006129504682213796,-0.3849982531168469,-0.895653608201807,0.1604087948799133,0.4034353792667389,-0.9008378982543945,0,0,0,-1,-1,3401.689455666667,running,2,2022-06-30T09:23:27.270+02:00,2022-06-30T08:20:05.567+02:00,1060,1.420687,0,0,825.5135,0,0,2022-06-30T09:23:27.270+02:00
2022-06-30T09:23:27.709+02:00,3402.127751666667,0.447723388671875,1.102737426757812,-1.042572021484375,3402.117800666667,0.8201371138323257,0.1707223581171708,-0.3291535167634572,8.827524185180664,0.4638852775096893,-1.027961611747742,0.3466111421585083,0.6838228702545166,0.2943296432495117,XArbitraryZVertical,0.1832353162620434,-0.01205406703709476,-0.3790431832466373,-0.9069761606928272,0.1607736945152283,0.3232420980930328,-0.9325590133666992,0,0,0,-1,-1,3401.689455666667,running,2,2022-06-30T09:23:27.270+02:00,2022-06-30T08:20:05.567+02:00,1060,1.420687,0,0,825.5135,0,0,2022-06-30T09:23:27.270+02:00
2022-06-30T09:23:27.719+02:00,3402.137703666667,0.3664398193359375,1.23321533203125,-1.181289672851562,3402.127751666667,0.7959889547945468,0.1683970514882044,-0.2456039841131871,8.521272659301758,0.4439226090908051,-0.7355536222457886,0.3486573994159698,0.6911535263061523,0.08850246667861938,XArbitraryZVertical,0.1448683107586123,-0.02963538654453226,-0.3737925792595899,-0.9156495364699844,0.1625726521015167,0.243142232298851,-0.9562698602676392,0,0,0,-1,-1,3401.689455666667,running,2,2022-06-30T09:23:27.270+02:00,2022-06-30T08:20:05.567+02:00,1060,1.420687,0,0,825.5135,0,0,2022-06-30T09:23:27.270+02:00
2022-06-30T09:23:27.729+02:00,3402.147654666667,0.35894775390625,1.191513061523438,-1.251480102539062,3402.137703666667,0.7756766251435051,0.1686187551602548,-0.1636461510355214,8.394490242004395,0.4174345433712006,-0.4539816379547119,0.2821442186832428,0.9398207664489746,-0.06992524862289429,XArbitraryZVertical,0.1071332293962192,-0.04689416646448553,-0.3692126466231951,-0.921957450252907,0.1655787378549576,0.1629167199134827,-0.9726468324661255,0,0,0,-1,-1,3401.689455666667,running,2,2022-06-30T09:23:27.270+02:00,2022-06-30T08:20:05.567+02:00,1060,1.420687,0,0,825.5135,0,0,2022-06-30T09:23:27.270+02:00
2022-06-30T09:23:27.739+02:00,3402.157605666667,0.383819580078125,1.086181640625,-1.267959594726562,3402.147654666667,0.7582399762043025,0.1706766994088902,-0.08166805313885069,8.408778190612793,0.4060045182704926,-0.2049129754304886,0.197156235575676,1.151638150215149,-0.1991041898727417,XArbitraryZVertical,0.06930524130770736,-0.06406271638921419,-0.3652163995003511,-0.9261262716739354,0.1692831516265869,0.08157730102539062,-0.9821854829788208,0,0,0,-1,-1,3401.689455666667,running,2,2022-06-30T09:23:27.270+02:00,2022-06-30T08:20:05.567+02:00,1060,1.420687,0,0,825.5135,0,0,2022-06-30T09:23:27.270+02:00
2022-06-30T09:23:27.749+02:00,3402.167557666667,0.3816375732421875,1.04534912109375,-1.246734619140625,3402.157605666667,0.7428962053416145,0.1742125081149873,0.0005725457132936529,8.412491798400879,0.4256442487239838,-0.002612594282254577,0.185614749789238,1.19208562374115,-0.2666170001029968,XArbitraryZVertical,0.03131082152176706,-0.08116674645466676,-0.3616121983897338,-0.9282609451943729,0.1733325868844986,-0.0005725456867367029,-0.9848631620407104,0,0,0,-1,-1,3401.689455666667,running,2,2022-06-30T09:23:27.270+02:00,2022-06-30T08:20:05.567+02:00,1060,1.420687,0,0,825.5135,0,0,2022-06-30T09:23:27.270+02:00
2022-06-30T09:23:27.759+02:00,3402.177508666667,0.37530517578125,1.028854370117188,-1.137496948242188,3402.167557666667,0.7288349118141662,0.1799024256192606,0.08387817404074255,8.556344032287598,0.5656073093414307,0.1598906666040421,0.2055146545171738,1.16996157169342,-0.2875574827194214,XArbitraryZVertical,-0.007027454165308611,-0.09873966686052793,-0.3581709794902548,-0.9283936343087021,0.1783044934272766,-0.08377985656261444,-0.9804021716117859,0,0,0,-1,-1,3401.689455666667,running,2,2022-06-30T09:23:27.270+02:00,2022-06-30T08:20:05.567+02:00,1060,1.420687,0,0,825.5135,0,0,2022-06-30T09:23:27.270+02:00
2022-06-30T09:23:27.770+02:00,3402.187460666667,0.3745269775390625,0.80340576171875,-1.094451904296875,3402.177508666667,0.7152009863181823,0.1873093778076377,0.1678488667320231,8.495141983032227,0.5380014777183533,0.2426545172929764,0.1980381309986115,1.212410926818848,-0.2780336141586304,XArbitraryZVertical,-0.0455603471586143,-0.1165063129168665,-0.3546102976950639,-0.9266079358345567,0.1835990101099014,-0.16706183552742,-0.9687010645866394,0,0,0,-1,-1,3401.689455666667,running,2,2022-06-30T09:23:27.270+02:00,2022-06-30T08:20:05.567+02:00,1060,1.420687,0,0,825.5135,0,0,2022-06-30T09:23:27.270+02:00
2022-06-30T09:23:27.779+02:00,3402.197411666667,0.285491943359375,0.609161376953125,-1.101425170898438,3402.187460666667,0.7016167626743699,0.195455291749692,0.2502225481300585,8.218377113342285,0.5537562966346741,0.2813252210617065,0.1871398985385895,1.276473999023438,-0.18708735704422,XArbitraryZVertical,-0.08335669819873857,-0.133592028117222,-0.3507780193847223,-0.9231249080289788,0.1881648600101471,-0.2476195842027664,-0.9504096508026123,0,0,0,-1,-1,3401.689455666667,running,2,2022-06-30T09:23:27.270+02:00,2022-06-30T08:20:05.567+02:00,1060,1.420687,0,0,825.5135,0,0,2022-06-30T09:23:27.270+02:00
2022-06-30T09:23:27.788+02:00,3402.207363666667,0.2859649658203125,0.4910125732421875,-1.089920043945312,3402.197411666667,0.6880378599966991,0.2060096326790045,0.3282052236075776,7.626127243041992,0.79502272605896,0.2821140289306641,0.1808896958827972,1.125750303268433,-0.1678459644317627,XArbitraryZVertical,-0.1187662402766908,-0.1503048963578915,-0.3467920790496315,-0.9181711799084646,0.1936368644237518,-0.322344571352005,-0.9266060590744019,0,0,0,-1,-1,3401.689455666667,running,2,2022-06-30T09:23:27.270+02:00,2022-06-30T08:20:05.567+02:00,1060,1.420687,0,0,825.5135,0,0,2022-06-30T09:23:27.270+02:00
2022-06-30T09:23:27.799+02:00,3402.217314666667,0.3318023681640625,0.389617919921875,-1.09228515625,3402.207363666667,0.6751601335274515,0.2199594122177404,0.3993220964715112,6.831171035766602,1.062065958976746,0.3896917402744293,0.08446766436100006,0.9979552626609802,-0.2022985816001892,XArbitraryZVertical,-0.1503818796259556,-0.166799174620949,-0.3432041200634308,-0.9120165779133718,0.2010238617658615,-0.3887938559055328,-0.8991266489028931,0,0,0,-1,-1,3401.689455666667,running,2,2022-06-30T09:23:27.270+02:00,2022-06-30T08:20:05.567+02:00,1060,1.420687,0,0,825.5135,0,0,2022-06-30T09:23:27.270+02:00
2022-06-30T09:23:27.809+02:00,3402.227265666667,0.3626708984375,0.25872802734375,-1.058151245117188,3402.217314666667,0.6639761562675008,0.2365468662599906,0.4628565829674057,6.074543476104736,1.305369734764099,0.4899269938468933,0.07627534866333008,0.9375185370445251,-0.220056414604187,XArbitraryZVertical,-0.1778957766590004,-0.1828147642321201,-0.3406048556699502,-0.9049420782790389,0.2096892148256302,-0.4465059340000153,-0.8698636889457703,0,0,0,-1,-1,3401.689455666667,running,2,2022-06-30T09:23:27.270+02:00,2022-06-30T08:20:05.567+02:00,1060,1.420687,0,0,825.5135,0,0,2022-06-30T09:23:27.270+02:00
2022-06-30T09:23:27.818+02:00,3402.237217666667,0.3798828125,0.18853759765625,-1.042068481445312,3402.227265666667,0.6534983171379142,0.2555688716487511,0.5197006939034253,5.451490879058838,1.50537371635437,0.4975445866584778,0.1123832911252975,0.8862383365631104,-0.2525092959403992,XArbitraryZVertical,-0.2018278565920732,-0.1984377563706792,-0.3386722042076277,-0.8973232769747426,0.2194186598062515,-0.496620386838913,-0.8397759199142456,0,0,0,-1,-1,3401.689455666667,running,2,2022-06-30T09:23:27.270+02:00,2022-06-30T08:20:05.567+02:00,1060,1.420687,0,0,825.5135,0,0,2022-06-30T09:23:27.270+02:00
2022-06-30T09:23:27.828+02:00,3402.247168666667,0.381805419921875,0.0668487548828125,-0.977996826171875,3402.237217666667,0.6433923640433381,0.2767976811401884,0.5708753549908387,4.907911777496338,1.677422523498535,0.5331364274024963,0.1327278017997742,0.7990968227386475,-0.2487516403198242,XArbitraryZVertical,-0.2227244054547211,-0.2137614815297267,-0.3373352491117176,-0.8893283115096603,0.2299426943063736,-0.5403687953948975,-0.8093997240066528,0,0,0,-1,-1,3401.689455666667,running,2,2022-06-30T09:23:27.270+02:00,2022-06-30T08:20:05.567+02:00,1060,1.420687,0,0,825.5135,0,0,2022-06-30T09:23:27.270+02:00
2022-06-30T09:23:27.838+02:00,3402.257120666667,0.335601806640625,-0.0538177490234375,-0.9754180908203125,3402.247168666667,0.6339703775002151,0.2993801960525029,0.6160260402395696,4.218509674072266,1.796242713928223,0.5425905585289001,0.1391677409410477,0.7663338780403137,-0.2621917128562927,XArbitraryZVertical,-0.2405434152678846,-0.228474151974467,-0.3366714772849884,-0.8812438283895587,0.2407146543264389,-0.5777962803840637,-0.7798768281936646,0,0,0,-1,-1,3401.689455666667,running,2,2022-06-30T09:23:27.270+02:00,2022-06-30T08:20:05.567+02:00,1060,1.420687,0,0,825.5135,0,0,2022-06-30T09:23:27.270+02:00
2022-06-30T09:23:27.848+02:00,3402.267071666667,0.2817230224609375,-0.0106658935546875,-1.006622314453125,3402.257120666667,0.625128326335378,0.3239315514564426,0.654383649031452,3.566425800323486,2.087567806243896,0.4519610404968262,0.1292615234851837,0.6755190491676331,-0.2258386015892029,XArbitraryZVertical,-0.2548547158764328,-0.2428371922935865,-0.3366903388199943,-0.873337691950852,0.2525435090065002,-0.6086703538894653,-0.7521583437919617,0,0,0,-1,-1,3401.689455666667,running,2,2022-06-30T09:23:27.270+02:00,2022-06-30T08:20:05.567+02:00,1060,1.420687,0,0,825.5135,0,0,2022-06-30T09:23:27.270+02:00
2022-06-30T09:23:27.858+02:00,3402.277023541667,0.29425048828125,-0.0284881591796875,-1.017974853515625,3402.267071541667,0.6159682407911068,0.3518880248648898,0.6868275204136539,3.084103345870972,2.359264850616455,0.3631551563739777,0.06908077001571655,0.580269455909729,-0.2495393753051758,XArbitraryZVertical,-0.2659444805291981,-0.2575540873160805,-0.3371942170430988,-0.865586159716536,0.266520619392395,-0.6340872049331665,-0.7258788347244263,0,0,0,-1,-1,3401.689455666667,running,2,2022-06-30T09:23:27.270+02:00,2022-06-30T08:20:05.567+02:00,1060,1.420687,0,0,825.5135,0,0,2022-06-30T09:23:27.270+02:00
2022-06-30T09:23:27.868+02:00,3402.286974541667,0.30206298828125,-0.095733642578125,-0.9871826171875,3402.277023541667,0.606278826227696,0.3827648146821802,0.7151261349971093,2.758100748062134,2.583223819732666,0.2916873693466187,-0.0002637207508087158,0.6450467705726624,-0.3062477707862854,XArbitraryZVertical,-0.2747439133941944,-0.2726324620189022,-0.3380705932303075,-0.8578436060779679,0.2819863557815552,-0.6557126641273499,-0.7003746628761292,0,0,0,-1,-1,3401.689455666667,running,2,2022-06-30T09:23:27.270+02:00,2022-06-30T08:20:05.567+02:00,1060,1.420687,0,0,825.5135,0,0,2022-06-30T09:23:27.270+02:00
2022-06-30T09:23:27.878+02:00,3402.296926541667,0.32080078125,-0.16815185546875,-0.9471893310546875,3402.286974541667,0.5956390278729425,0.4170905228839863,0.7400848275164499,2.473627805709839,2.887438535690308,0.1958275586366653,-0.004881918430328369,0.645862340927124,-0.3428665399551392,XArbitraryZVertical,-0.2816034581034726,-0.2883492192013541,-0.3392265561350167,-0.8499880109643403,0.2991320192813873,-0.6743505597114563,-0.6751084327697754,0,0,0,-1,-1,3401.689455666667,running,2,2022-06-30T09:23:27.270+02:00,2022-06-30T08:20:05.567+02:00,1060,1.420687,0,0,825.5135,0,0,2022-06-30T09:23:27.270+02:00
2022-06-30T09:23:27.888+02:00,3402.306877541667,0.3120880126953125,-0.2334442138671875,-0.887969970703125,3402.296926541667,0.583994020768796,0.4553444601235972,0.7616052029272145,2.149043798446655,3.191880702972412,0.08570584654808044,-0.016213059425354,0.5943503975868225,-0.337194561958313,XArbitraryZVertical,-0.2864284822902533,-0.3049010041367039,-0.3406859815769547,-0.8419781900189031,0.318275660276413,-0.6900840401649475,-0.6499882340431213,0,0,0,-1,-1,3401.689455666667,running,2,2022-06-30T09:23:27.270+02:00,2022-06-30T08:20:05.567+02:00,1060,1.420687,0,0,825.5135,0,0,2022-06-30T09:23:27.270+02:00
2022-06-30T09:23:27.898+02:00,3402.316828541667,0.2595062255859375,-0.2747039794921875,-0.8092041015625,3402.306877541667,0.5717941324784466,0.4973338567489859,0.7790588788946414,1.751894235610962,3.528269290924072,-0.03877409547567368,-0.01868078112602234,0.5344582200050354,-0.3218162655830383,XArbitraryZVertical,-0.2889234609772611,-0.3222369144203853,-0.3425351107561134,-0.8338802535156361,0.3394811451435089,-0.7026100754737854,-0.6253731846809387,0,0,0,-1,-1,3401.689455666667,running,2,2022-06-30T09:23:27.270+02:00,2022-06-30T08:20:05.567+02:00,1060,1.420687,0,0,825.5135,0,0,2022-06-30T09:23:27.270+02:00
2022-06-30T09:23:27.908+02:00,3402.326780541667,0.205108642578125,-0.303558349609375,-0.7042999267578125,3402.316828541667,0.559642589804572,0.5428367896490593,0.791588567887114,1.267600536346436,3.871861696243286,-0.2114044576883316,-0.05091226100921631,0.478026270866394,-0.286271870136261,XArbitraryZVertical,-0.2886603409093652,-0.3403323168498372,-0.3448458766664266,-0.8257907682820551,0.3629999160766602,-0.7114704847335815,-0.6016982197761536,0,0,0,-1,-1,3401.689455666667,running,2,2022-06-30T09:23:27.270+02:00,2022-06-30T08:20:05.567+02:00,1060,1.420687,0,0,825.5135,0,0,2022-06-30T09:23:27.270+02:00
2022-06-30T09:23:27.918+02:00,3402.336731541667,0.14111328125,-0.3169097900390625,-0.59820556640625,3402.326780541667,0.5481897973109578,0.5912956047065266,0.7983812567220627,0.7371273040771484,4.219142436981201,-0.4137140810489655,-0.1295111179351807,0.4415233135223389,-0.2298216819763184,XArbitraryZVertical,-0.285266819709558,-0.3590703940217442,-0.3475899830564207,-0.8178462857368944,0.3890169858932495,-0.7162273526191711,-0.579382598400116,0,0,0,-1,-1,3401.689455666667,running,2,2022-06-30T09:23:27.270+02:00,2022-06-30T08:20:05.567+02:00,1060,1.420687,0,0,825.5135,0,0,2022-06-30T09:23:27.270+02:00
2022-06-30T09:23:27.928+02:00,3402.346683541667,0.118377685546875,-0.330078125,-0.5342559814453125,3402.336731541667,0.5380425828668441,0.6426186101040272,0.7992616183781669,0.2151373028755188,4.624460220336914,-0.6442261338233948,-0.2127410769462585,0.4132830500602722,-0.1461421251296997,XArbitraryZVertical,-0.2785635898416023,-0.3785806551204619,-0.3507694947233957,-0.8099629423960889,0.4178493916988373,-0.716841459274292,-0.5581580400466919,0,0,0,-1,-1,3401.689455666667,running,2,2022-06-30T09:23:27.270+02:00,2022-06-30T08:20:05.567+02:00,1060,1.420687,0,0,825.5135,0,0,2022-06-30T09:23:27.270+02:00
2022-06-30T09:23:27.938+02:00,3402.356634541667,0.1181640625,-0.2847747802734375,-0.4071197509765625,3402.346683541667,0.5297886062827998,0.6965783146506795,0.7943571170352576,-0.2907609641551971,5.011861801147461,-0.8770866990089417,-0.3084818720817566,0.3965034484863281,-0.06070607900619507,XArbitraryZVertical,-0.268513972039565,-0.3989365666026286,-0.3543438657584908,-0.8019914245502729,0.4495948553085327,-0.7134132385253906,-0.537499725818634,0,0,0,-1,-1,3401.689455666667,running,2,2022-06-30T09:23:27.270+02:00,2022-06-30T08:20:05.567+02:00,1060,1.420687,0,0,825.5135,0,0,2022-06-30T09:23:27.270+02:00
2022-06-30T09:23:27.948+02:00,3402.366586541667,0.08001708984375,-0.2584991455078125,-0.2957763671875,3402.356634541667,0.5247124624426057,0.7517942446945035,0.7836913874753416,-0.8607719540596008,5.343989849090576,-1.073174238204956,-0.3653651177883148,0.3758206963539124,-0.01685881614685059,XArbitraryZVertical,-0.2550797558629589,-0.4198042866929505,-0.3583620348442126,-0.7938988353115265,0.4837424755096436,-0.7058988809585571,-0.5173973441123962,0,0,0,-1,-1,3401.689455666667,running,2,2022-06-30T09:23:27.270+02:00,2022-06-30T08:20:05.567+02:00,1060,1.420687,0,0,825.5135,0,0,2022-06-30T09:23:27.270+02:00
2022-06-30T09:23:27.958+02:00,3402.376537541667,0.04412841796875,-0.2708740234375,-0.2254638671875,3402.366586541667,0.5245988742081634,0.8070961198380768,0.7673697029876815,-1.478943586349487,5.74197244644165,-1.239526510238647,-0.4016909003257751,0.4094696640968323,0.09065079689025879,XArbitraryZVertical,-0.2380749211466558,-0.4409477699337829,-0.3631035643866644,-0.7855197403404517,0.5198546648025513,-0.6942445039749146,-0.4977707862854004,0,0,0,-1,-1,3401.689455666667,running,2,2022-06-30T09:23:27.270+02:00,2022-06-30T08:20:05.567+02:00,1060,1.420687,0,0,825.5135,0,0,2022-06-30T09:23:27.270+02:00
2022-06-30T09:23:27.968+02:00,3402.386488541667,0.0030975341796875,-0.209320068359375,-0.15545654296875,3402.376537541667,0.5311563894314155,0.8620256498667291,0.7454216150680347,-2.223010540008545,6.185422897338867,-1.37347424030304,-0.4778173565864563,0.4197825193405151,0.1825066804885864,XArbitraryZVertical,-0.2171114198532203,-0.4622996425961736,-0.3688921958353702,-0.776569500513084,0.5578342080116272,-0.6782816648483276,-0.4782833456993103,0,0,0,-1,-1,3401.689455666667,running,2,2022-06-30T09:23:27.270+02:00,2022-06-30T08:20:05.567+02:00,1060,1.420687,0,0,825.5135,0,0,2022-06-30T09:23:27.270+02:00
2022-06-30T09:23:27.978+02:00,3402.396440541667,-0.0405120849609375,-0.1328125,-0.0585784912109375,3402.386488541667,0.5459992258733321,0.9160184747147914,0.7181978100040887,-2.957303762435913,6.644075870513916,-1.481956958770752,-0.5531332492828369,0.3871545791625977,0.2330957651138306,XArbitraryZVertical,-0.1919247913326079,-0.4836164761767797,-0.3760421076274545,-0.7667284281618031,0.597261369228363,-0.6580287218093872,-0.4585599601268768,0,0,0,-1,-1,3401.689455666667,running,2,2022-06-30T09:23:27.270+02:00,2022-06-30T08:20:05.567+02:00,1060,1.420687,0,0,825.5135,0,0,2022-06-30T09:23:27.270+02:00
2022-06-30T09:23:27.988+02:00,3402.406391541667,-0.0133514404296875,-0.1102142333984375,0.053863525390625,3402.396440541667,0.5688727602585264,0.9697181142114574,0.6866743063627778,-3.610138177871704,7.096101760864258,-1.577247500419617,-0.6347120404243469,0.4246485829353333,0.2819022536277771,XArbitraryZVertical,-0.1627072083140295,-0.5048235071711868,-0.384376909815667,-0.7556018631024696,0.6378093957901001,-0.633968710899353,-0.4373591840267181,0,0,0,-1,-1,3401.689455666667,running,2,2022-06-30T09:23:27.270+02:00,2022-06-30T08:20:05.567+02:00,1060,1.420687,0,0,825.5135,0,0,2022-06-30T09:23:27.270+02:00
2022-06-30T09:23:27.998+02:00,3402.416343541667,0.018402099609375,-0.1258697509765625,0.1392974853515625,3402.406391541667,0.5994514512444602,1.023917917946861,0.6521253287087201,-4.241250514984131,7.591011047363281,-1.64499831199646,-0.7193887233734131,0.4740644693374634,0.3547337055206299,XArbitraryZVertical,-0.1297756246898951,-0.5258346048233485,-0.3937620940205525,-0.7427030601756717,0.678876519203186,-0.6068769693374634,-0.4133125245571136,0,0,0,-1,-1,3401.689455666667,running,2,2022-06-30T09:23:27.270+02:00,2022-06-30T08:20:05.567+02:00,1060,1.420687,0,0,825.5135,0,0,2022-06-30T09:23:27.270+02:00
2022-06-30T09:23:28.007+02:00,3402.426294541667,0.022918701171875,-0.12347412109375,0.2530670166015625,3402.416343541667,0.6376936396991961,1.079390656162264,0.6151772736328137,-4.833746910095215,8.093669891357422,-1.740542650222778,-0.7333864569664001,0.4668890833854675,0.4392223358154297,XArbitraryZVertical,-0.09311263460038016,-0.5464892258661509,-0.4040349509483468,-0.7276231150762124,0.7200348973274231,-0.577103316783905,-0.385359138250351,0,0,0,-1,-1,3401.689455666667,running,2,2022-06-30T09:23:27.270+02:00,2022-06-30T08:20:05.567+02:00,1060,1.420687,0,0,825.5135,0,0,2022-06-30T09:23:27.270+02:00
2022-06-30T09:23:28.017+02:00,3402.436246541667,0.01416015625,-0.109283447265625,0.3613739013671875,3402.426294541667,0.6833590824779857,1.13720389763018,0.5766246823364192,-5.441788196563721,8.661718368530273,-1.80810809135437,-0.7423306703567505,0.4193277359008789,0.4914982318878174,XArbitraryZVertical,-0.052772492469146,-0.5666696457731375,-0.4149453392864704,-0.7098739597136452,0.7607326507568359,-0.5451974868774414,-0.3522011637687683,0,0,0,-1,-1,3401.689455666667,running,2,2022-06-30T09:23:27.270+02:00,2022-06-30T08:20:05.567+02:00,1060,1.420687,0,0,825.5135,0,0,2022-06-30T09:23:27.270+02:00
2022-06-30T09:23:28.027+02:00,3402.446197541667,0.0613861083984375,-0.100189208984375,0.4869842529296875,3402.436246541667,0.73689449327033,1.198417434981109,0.5373934221193414,-6.075475215911865,9.305957794189453,-1.872269511222839,-0.7772522568702698,0.3884244561195374,0.5656153559684753,XArbitraryZVertical,-0.00867030427307601,-0.5862170864513513,-0.4264243333361509,-0.6887937371238152,0.8001708388328552,-0.5118985772132874,-0.3125486969947815,0,0,0,-1,-1,3401.689455666667,running,2,2022-06-30T09:23:27.270+02:00,2022-06-30T08:20:05.567+02:00,1060,1.420687,0,0,825.5135,0,0,2022-06-30T09:23:27.270+02:00
2022-06-30T09:23:28.038+02:00,3402.456149541667,0.116424560546875,-0.0701141357421875,0.6654205322265625,3402.446197541667,0.7983400125718501,1.264153760561789,0.4987722096296796,-6.637582302093506,9.99029541015625,-1.890958428382874,-0.8230459690093994,0.3690643012523651,0.6264576315879822,XArbitraryZVertical,0.03904976823950635,-0.6049239901434162,-0.4382225560260234,-0.663704121233173,0.8372060656547546,-0.4783476889133453,-0.2650841772556305,0,0,0,-1,-1,3401.689455666667,running,2,2022-06-30T09:23:27.270+02:00,2022-06-30T08:20:05.567+02:00,1060,1.420687,0,0,825.5135,0,0,2022-06-30T09:23:27.270+02:00
2022-06-30T09:23:28.048+02:00,3402.466100541667,0.1522064208984375,-0.035186767578125,0.8779754638671875,3402.456149541667,0.8666970795674398,1.335962180683488,0.462377192895074,-7.083990097045898,10.76339626312256,-1.911778926849365,-0.8090436458587646,0.3458878397941589,0.6952328085899353,XArbitraryZVertical,0.08991497607513754,-0.6227285589806656,-0.4496987868409398,-0.6339523168494252,0.8704297542572021,-0.4460769295692444,-0.2082488834857941,0,0,0,-1,-1,3401.689455666667,running,2,2022-06-30T09:23:27.270+02:00,2022-06-30T08:20:05.567+02:00,1060,1.420687,0,0,825.5135,0,0,2022-06-30T09:23:27.270+02:00
2022-06-30T09:23:28.057+02:00,3402.476051541667,0.117706298828125,-0.1390838623046875,1.131973266601562,3402.466100541667,0.9416671437623684,1.414924620116878,0.4299195722910861,-7.547483921051025,11.589919090271,-1.863628149032593,-0.7815545797348022,0.3466836512088776,0.8065344095230103,XArbitraryZVertical,0.1435544886976943,-0.6394020527396214,-0.4603758416347884,-0.5988416762774387,0.8979792594909668,-0.4167976975440979,-0.1411142498254776,0,0,0,-1,-1,3401.689455666667,running,2,2022-06-30T09:23:27.270+02:00,2022-06-30T08:20:05.567+02:00,1060,1.420687,0,0,825.5135,0,0,2022-06-30T09:23:27.270+02:00
2022-06-30T09:23:28.067+02:00,3402.486003541667,0.1586151123046875,-0.2843017578125,1.464889526367188,3402.476051541667,1.023535729523287,1.502199547235573,0.4034667438448086,-8.056339263916016,12.57510185241699,-1.761868715286255,-0.7653359770774841,0.3574223816394806,0.9410145282745361,XArbitraryZVertical,0.1997354627233235,-0.6546648427695646,-0.4699163961752364,-0.5574032919012597,0.9175426363945007,-0.3926090896129608,-0.0630393773317337,0,0,0,-1,-1,3401.689455666667,running,2,2022-06-30T09:23:27.270+02:00,2022-06-30T08:20:05.567+02:00,1060,1.420687,0,0,825.5135,0,0,2022-06-30T09:23:27.270+02:00
2022-06-30T09:23:28.077+02:00,3402.495954541667,0.2095184326171875,-0.5626678466796875,1.820541381835938,3402.486003541667,1.113850845752875,1.59773600253038,0.385541941312499,-8.829590797424316,13.56368064880371,-1.506759643554688,-0.8085522055625916,0.2369776964187622,1.107013821601868,XArbitraryZVertical,0.2583098384040045,-0.6676493090891538,-0.4783984004292342,-0.5085818115257401,0.9262586236000061,-0.376061350107193,0.0249591451138258,0,0,0,-1,-1,3401.689455666667,running,2,2022-06-30T09:23:27.270+02:00,2022-06-30T08:20:05.567+02:00,1060,1.420687,0,0,825.5135,0,0,2022-06-30T09:23:27.270+02:00
2022-06-30T09:23:28.087+02:00,3402.505906541667,0.187591552734375,-0.93304443359375,2.17449951171875,3402.495954541667,1.213841928182275,1.701532949778207,0.3797736164929677,-9.702378273010254,14.77208232879639,-1.168790102005005,-0.7622076272964478,0.08640867471694946,1.343813419342041,XArbitraryZVertical,0.3188336567023655,-0.6774090642168215,-0.4858830903132785,-0.4509765318961702,0.9208229184150696,-0.3707102239131927,0.1210758835077286,0,0,0,-1,-1,3401.689455666667,running,2,2022-06-30T09:23:27.270+02:00,2022-06-30T08:20:05.567+02:00,1060,1.420687,0,0,825.5135,0,0,2022-06-30T09:23:27.270+02:00
2022-06-30T09:23:28.097+02:00,3402.515857541667,-0.101287841796875,-1.287033081054688,2.58251953125,3402.505906541667,1.322808590499476,1.815017888933013,0.389390424212639,-10.62663173675537,16.24685096740723,-0.7621734738349915,-0.6881693005561829,-0.1830430626869202,1.596841216087341,XArbitraryZVertical,0.3808473929232356,-0.6832314886858358,-0.4913406515634325,-0.3830592944927194,0.8976879715919495,-0.3796245455741882,0.2237000018358231,0,0,0,-1,-1,3401.689455666667,running,2,2022-06-30T09:23:27.270+02:00,2022-06-30T08:20:05.567+02:00,1060,1.420687,0,0,825.5135,0,0,2022-06-30T09:23:27.270+02:00
2022-06-30T09:23:28.107+02:00,3402.525809541667,-0.7816314697265625,-1.863128662109375,3.163101196289062,3402.515857541667,1.437962929262871,1.940632721254279,0.4181226371497064,-11.31922340393066,18.0691032409668,-0.2143860012292862,-0.6644723415374756,-0.5269986391067505,1.844175457954407,XArbitraryZVertical,0.4433285555676482,-0.6845595341500761,-0.4928925159893111,-0.3031419955366452,0.8520641326904297,-0.406045526266098,0.3303239345550537,0,0,0,-1,-1,3401.689455666667,running,2,2022-06-30T09:23:27.270+02:00,2022-06-30T08:20:05.567+02:00,1060,1.420687,0,0,825.5135,0,0,2022-06-30T09:23:27.270+02:00
2022-06-30T09:23:28.117+02:00,3402.535760541667,-2.005966186523438,-2.754486083984375,4.133331298828125,3402.525809541667,1.54667121837693,2.083088248045957,0.4652280657769668,-10.40535163879395,19.92208671569824,0.2579848766326904,-0.88027423620224,-0.8384062051773071,2.144439458847046,XArbitraryZVertical,0.5034324157732581,-0.6823458137254091,-0.4855680282373517,-0.2125647615211825,0.7789866924285889,-0.4486266374588013,0.4380800127983093,0,0,0,-1,-1,3401.689455666667,running,2,2022-06-30T09:23:27.270+02:00,2022-06-30T08:20:05.567+02:00,1060,1.420687,0,0,825.5135,0,0,2022-06-30T09:23:27.270+02:00
2022-06-30T09:23:28.127+02:00,3402.545711541667,-3.697250366210938,-4.270492553710938,4.857101440429688,3402.535760541667,1.631965142064983,2.252379779272566,0.5183042326628093,-7.964123725891113,22.25428771972656,-0.04963606595993042,-1.456212282180786,-1.367720603942871,2.615824699401855,XArbitraryZVertical,0.5601092935046615,-0.6781709965336224,-0.4613333785021578,-0.1163326790579185,0.6745811104774475,-0.4954077899456024,0.5472766160964966,0,0,0,-1,-1,3401.689455666667,running,2,2022-06-30T09:23:27.270+02:00,2022-06-30T08:20:05.567+02:00,1060,1.420687,0,0,825.5135,0,0,2022-06-30T09:23:27.270+02:00
2022-06-30T09:23:28.137+02:00,3402.555663541667,-5.322540283203125,-5.683502197265625,6.122604370117188,3402.545711541667,1.689629691789803,2.457171534162769,0.5569876140110392,-4.39218282699585,24.77960205078125,-1.519165754318237,-2.542630672454834,-2.225854396820068,3.475653886795044,XArbitraryZVertical,0.6160984068189201,-0.6702697496052302,-0.4132070572066224,-0.02052338475254557,0.5366648435592651,-0.5286315083503723,0.6576775908470154,0,0,0,-1,-1,3401.689455666667,running,2,2022-06-30T09:23:27.270+02:00,2022-06-30T08:20:05.567+02:00,1060,1.420687,0,0,825.5135,0,0,2022-06-30T09:23:27.270+02:00
2022-06-30T09:23:28.147+02:00,3402.565614541667,-7.616455078125,-5.97772216796875,8.12286376953125,3402.555663541667,1.733348988735494,2.689768454943717,0.5661385407401368,-1.098089456558228,26.54677963256836,-3.763448476791382,-4.065737247467041,-3.734115123748779,4.097814559936523,XArbitraryZVertical,0.6727505576161172,-0.6534908168211871,-0.3401477280161466,0.06823497433705497,0.3684872984886169,-0.5363770723342896,0.7592871189117432,0,0,0,-1,-1,3401.689455666667,running,2,2022-06-30T09:23:27.270+02:00,2022-06-30T08:20:05.567+02:00,1060,1.420687,0,0,825.5135,0,0,2022-06-30T09:23:27.270+02:00
2022-06-30T09:23:28.157+02:00,3402.575566541667,-11.22352600097656,-5.425765991210938,11.09358215332031,3402.565614541667,1.793840360634088,2.927192910382215,0.5480016988379435,0.990039587020874,27.49290084838867,-7.390954971313477,-5.504146099090576,-5.162519454956055,5.288580417633057,XArbitraryZVertical,0.729874736993966,-0.6199153424714686,-0.2483688909624413,0.1459477926304003,0.18160580098629,-0.520982563495636,0.8340243101119995,0,0,0,-1,-1,3401.689455666667,running,2,2022-06-30T09:23:27.270+02:00,2022-06-30T08:20:05.567+02:00,1060,1.420687,0,0,825.5135,0,0,2022-06-30T09:23:27.270+02:00
2022-06-30T09:23:28.167+02:00,3402.585517541667,-13.14427185058594,-3.973251342773438,13.87435913085938,3402.575566541667,1.914376926692265,3.129351334059443,0.5251897901697997,1.515600442886353,24.47726249694824,-14.49571514129639,-7.62704610824585,-5.476344585418701,7.257699966430664,XArbitraryZVertical,0.7886193851590176,-0.5573701441462582,-0.1543055624760052,0.2088248175370722,0.01059127785265446,-0.5013772249221802,0.865164041519165,0,0,0,-1,-1,3401.689455666667,running,2,2022-06-30T09:23:27.270+02:00,2022-06-30T08:20:05.567+02:00,1060,1.420687,0,0,825.5135,0,0,2022-06-30T09:23:27.270+02:00
2022-06-30T09:23:28.177+02:00,3402.595469541667,-12.27371215820312,-2.041183471679688,15.56497192382812,3402.585517541667,2.128052660561349,-3.05500725919652,0.5194771111121552,1.063362836837769,16.59675025939941,-22.04438400268555,-11.14845657348633,-4.929339408874512,10.22875499725342,XArbitraryZVertical,0.8495928747026414,-0.4589178327632928,-0.08796563089527226,0.2446397068132635,-0.07506909966468811,-0.4964262843132019,0.8648272752761841,0,0,0,-1,-1,3401.689455666667,running,2,2022-06-30T09:23:27.270+02:00,2022-06-30T08:20:05.567+02:00,1060,1.420687,0,0,825.5135,0,0,2022-06-30T09:23:27.270+02:00
2022-06-30T09:23:28.187+02:00,3402.605420541667,-12.73164367675781,-1.567245483398438,14.36790466308594,3402.595469541667,2.410258161661149,-3.07542255704386,0.5355392169586514,0.4380057454109192,7.534571647644043,-27.02652740478516,-13.0874080657959,-3.46294641494751,13.01624774932861,XArbitraryZVertical,0.9032415890707566,-0.3364677640362543,-0.06476406217572818,0.2583598917431028,-0.05686436221003532,-0.5103048086166382,0.8581118583679199,0,0,0,-1,-1,3401.689455666667,running,2,2022-06-30T09:23:27.270+02:00,2022-06-30T08:20:05.567+02:00,1060,1.420687,0,0,825.5135,0,0,2022-06-30T09:23:27.270+02:00
2022-06-30T09:23:28.197+02:00,3402.615371541667,-14.77705383300781,0.212860107421875,12.29397583007812,3402.605420541667,2.745395373261136,3.060818672907642,0.5106011889301386,5.090926647186279,-3.141285419464111,-31.0960750579834,-12.34410667419434,-1.552481412887573,14.69536590576172,XArbitraryZVertical,0.9458836691827631,-0.2002683004571776,-0.08796328089604481,0.2397067124671173,0.07039474695920944,-0.4887018501758575,0.869606614112854,0,0,0,-1,-1,3401.689455666667,running,2,2022-06-30T09:23:27.270+02:00,2022-06-30T08:20:05.567+02:00,1060,1.420687,0,0,825.5135,0,0,2022-06-30T09:23:27.270+02:00
2022-06-30T09:23:28.206+02:00,3402.625323541667,-17.20259094238281,3.4864501953125,9.13726806640625,3402.615371541667,3.076076289665802,2.825367474608036,0.3681733137211444,11.05629920959473,-15.76564693450928,-32.9431266784668,-13.02178478240967,-1.207333564758301,13.48117923736572,XArbitraryZVertical,0.969376082559678,-0.06060370573115632,-0.160631729707555,0.1755985164039999,0.2901412844657898,-0.3599117696285248,0.8867256045341492,0,0,0,-1,-1,3401.689455666667,running,2,2022-06-30T09:23:27.270+02:00,2022-06-30T08:20:05.567+02:00,1060,1.420687,0,0,825.5135,0,0,2022-06-30T09:23:27.270+02:00
2022-06-30T09:23:28.217+02:00,3402.635274541667,-22.12678527832031,5.459884643554688,2.932693481445312,3402.625323541667,-2.964488772439084,2.538981429442405,0.09648147424395058,17.07389068603516,-29.14442253112793,-34.49516296386719,-15.34121417999268,0.3091921210289001,11.47394943237305,XArbitraryZVertical,0.9513672668320079,0.07009931845880953,-0.2911882116781709,0.07208364911410484,0.5641598701477051,-0.09633185714483261,0.8200271725654602,0,0,0,-1,-1,3401.689455666667,running,2,2022-06-30T09:23:27.270+02:00,2022-06-30T08:20:05.567+02:00,1060,1.420687,0,0,825.5135,0,0,2022-06-30T09:23:27.270+02:00
2022-06-30T09:23:28.226+02:00,3402.645226541667,-32.06593322753906,13.59941101074219,-0.1261749267578125,3402.635274541667,-2.875204078005521,2.213531180979746,-0.2928840418859588,29.17134094238281,-34.75541687011719,-32.09001922607422,-17.96896362304688,3.197735786437988,8.563405990600586,XArbitraryZVertical,0.8681754405671743,0.1822153666686875,-0.4561732084606192,-0.0705336184977808,0.7663721442222595,0.2887146472930908,0.5738620758056641,0,0,0,-1,-1,3401.689455666667,running,2,2022-06-30T09:23:27.270+02:00,2022-06-30T08:20:05.567+02:00,1060,1.420687,0,0,825.5135,0,0,2022-06-30T09:23:27.270+02:00
2022-06-30T09:23:28.237+02:00,3402.655177541667,-24.66203308105469,30.67460632324219,8.038558959960938,3402.645226541667,-3.089180355289614,1.757436453693804,-0.676417055403904,34.94301223754883,-34.78868865966797,-23.5668888092041,-22.89306259155273,4.833881855010986,2.787991523742676,XArbitraryZVertical,0.7205085098107998,0.2306916655415963,-0.6084755348356592,-0.2395964239865786,0.7662777900695801,0.6260029673576355,0.1447023153305054,0,0,0,-1,-1,3401.689455666667,running,2,2022-06-30T09:23:27.270+02:00,2022-06-30T08:20:05.567+02:00,1060,1.420687,0,0,825.5135,0,0,2022-06-30T09:23:27.270+02:00
2022-06-30T09:23:28.246+02:00,3402.665129541667,-15.7489013671875,29.46949768066406,32.0059814453125,3402.655177541667,2.692198790910622,1.059724979545022,-0.8077898098295807,34.92362976074219,-34.83518218994141,-9.235357284545898,-32.66872406005859,12.87664985656738,0.2118495404720306,XArbitraryZVertical,0.5286227288113677,0.227037343817746,-0.7292444640937266,-0.3704248893534752,0.6027898192405701,0.7227615118026733,-0.3380241096019745,0,0,0,-1,-1,3401.689455666667,running,2,2022-06-30T09:23:27.270+02:00,2022-06-30T08:20:05.567+02:00,1060,1.420687,0,0,825.5135,0,0,2022-06-30T09:23:27.270+02:00
2022-06-30T09:23:28.256+02:00,3402.675080541667,-29.86141967773438,-25.72683715820312,29.29286193847656,3402.665129541667,2.353290153242389,0.5005684793128158,-0.5788681764033392,34.8763427734375,-30.04978370666504,-1.90019154548645,-25.06377029418945,30.12752914428711,8.772939682006836,XArbitraryZVertical,0.325365242130104,0.1641558483964563,-0.8301987485129002,-0.4218534472463142,0.4017361998558044,0.5470768809318542,-0.7343806624412537,0,0,0,-1,-1,3401.689455666667,running,2,2022-06-30T09:23:27.270+02:00,2022-06-30T08:20:05.567+02:00,1060,1.420687,0,0,825.5135,0,0,2022-06-30T09:23:27.270+02:00
2022-06-30T09:23:28.266+02:00,3402.685031541667,-10.48493957519531,-26.41593933105469,4.8792724609375,3402.675080541667,2.290228778873519,0.3837329785845578,-0.2414550636362914,29.51467132568359,3.725489616394043,17.71220016479492,-16.11242485046387,29.23038291931152,32.90635681152344,XArbitraryZVertical,0.2212293929677543,0.02950249311729537,-0.878053894969127,-0.423330219286037,0.3635240793228149,0.2391157299280167,-0.9003742933273315,0,0,0,-1,-1,3401.689455666667,running,2,2022-06-30T09:23:27.270+02:00,2022-06-30T08:20:05.567+02:00,1060,1.420687,0,0,825.5135,0,0,2022-06-30T09:23:27.270+02:00
2022-06-30T09:23:28.276+02:00,3402.694983541667,-5.510757446289062,-10.07354736328125,1.690963745117188,3402.685031541667,2.394631764492361,0.4707055516521627,-0.03877418818783995,3.120641469955444,10.63700580596924,15.91888523101807,-30.31459426879883,-25.76560211181641,30.18344116210938,XArbitraryZVertical,0.2239482230018668,-0.06751195546088479,-0.9035762521092666,-0.3589420589645226,0.453174352645874,0.03876447305083275,-0.8905786871910095,0,0,0,-1,-1,3401.689455666667,running,2,2022-06-30T09:23:27.270+02:00,2022-06-30T08:20:05.567+02:00,1060,1.420687,0,0,825.5135,0,0,2022-06-30T09:23:27.270+02:00
2022-06-30T09:23:28.286+02:00,3402.704934541667,-1.880828857421875,-8.19970703125,2.6273193359375,3402.694983541667,2.524664819067619,0.5757982574363667,-0.00553063692985058,-7.252408504486084,8.049875259399414,10.98837280273438,-11.0294361114502,-26.42146873474121,5.718017578125,XArbitraryZVertical,0.2713407768020015,-0.08367573471236157,-0.9133443424592685,-0.2918472638037081,0.5444961786270142,0.00553060881793499,-0.8387451171875,0,0,0,-1,-1,3401.689455666667,running,2,2022-06-30T09:23:27.270+02:00,2022-06-30T08:20:05.567+02:00,1060,1.420687,0,0,825.5135,0,0,2022-06-30T09:23:27.270+02:00
2022-06-30T09:23:28.296+02:00,3402.714886541667,-5.509689331054688,-4.517837524414062,2.777877807617188,3402.704934541667,2.675317881978739,0.6551982619278252,-0.008315001672696273,-10.55132961273193,7.991232395172119,14.05293464660645,-6.120052814483643,-10.08186149597168,2.483863592147827,XArbitraryZVertical,0.3139724008470894,-0.07050854962511982,-0.9208857769959672,-0.2200440970249413,0.6092954277992249,0.008314905688166618,-0.7928997278213501,0,0,0,-1,-1,3401.689455666667,running,2,2022-06-30T09:23:27.270+02:00,2022-06-30T08:20:05.567+02:00,1060,1.420687,0,0,825.5135,0,0,2022-06-30T09:23:27.270+02:00
2022-06-30T09:23:28.306+02:00,3402.724837541667,-4.308670043945312,-4.582794189453125,3.768539428710938,3402.714886541667,2.846908601274954,0.7432181756665024,-0.01644445464404551,-13.24550914764404,8.833614349365234,11.03138446807861,-2.557398080825806,-8.216150283813477,3.36351490020752,XArbitraryZVertical,0.3602932624800916,-0.04572903257765403,-0.9211792474353863,-0.1397375355297966,0.6765694618225098,0.01644371263682842,-0.7361952662467957,0,0,0,-1,-1,3401.689455666667,running,2,2022-06-30T09:23:27.270+02:00,2022-06-30T08:20:05.567+02:00,1060,1.420687,0,0,825.5135,0,0,2022-06-30T09:23:27.270+02:00
2022-06-30T09:23:28.316+02:00,3402.734789541667,-3.415878295898438,-3.045120239257812,3.898513793945312,3402.724837541667,3.021692345158194,0.8417906359788518,-0.03261217573089512,-14.32980060577393,9.462085723876953,11.3469934463501,-6.255129814147949,-4.550443649291992,3.443652153015137,XArbitraryZVertical,0.4086812204885583,-0.009620826150534606,-0.9105636228116303,-0.06132792669654102,0.7454405426979065,0.03260639682412148,-0.6657742261886597,0,0,0,-1,-1,3401.689455666667,running,2,2022-06-30T09:23:27.270+02:00,2022-06-30T08:20:05.567+02:00,1060,1.420687,0,0,825.5135,0,0,2022-06-30T09:23:27.270+02:00
2022-06-30T09:23:28.326+02:00,3402.744740541667,-2.646209716796875,-0.7190704345703125,2.262649536132812,3402.734789541667,-3.072406356831809,0.9247582993575587,-0.05346022101357422,-17.39266204833984,6.138100147247314,9.945187568664551,-5.106004238128662,-4.636228561401367,4.369707107543945,XArbitraryZVertical,0.4448252339273358,0.03932879919172631,-0.894551113466287,0.01902823976236348,0.7973345518112183,0.05343475937843323,-0.6011675000190735,0,0,0,-1,-1,3401.689455666667,running,2,2022-06-30T09:23:27.270+02:00,2022-06-30T08:20:05.567+02:00,1060,1.420687,0,0,825.5135,0,0,2022-06-30T09:23:27.270+02:00
