loggingTime(txt),accelerometerTimestamp_sinceReboot(s),accelerometerAccelerationX(G),accelerometerAccelerationY(G),accelerometerAccelerationZ(G),motionTimestamp_sinceReboot(s),motionYaw(rad),motionRoll(rad),motionPitch(rad),motionRotationRateX(rad/s),motionRotationRateY(rad/s),motionRotationRateZ(rad/s),motionUserAccelerationX(G),motionUserAccelerationY(G),motionUserAccelerationZ(G),motionAttitudeReferenceFrame(txt),motionQuaternionX(R),motionQuaternionY(R),motionQuaternionZ(R),motionQuaternionW(R),motionGravityX(G),motionGravityY(G),motionGravityZ(G),motionMagneticFieldX(µT),motionMagneticFieldY(µT),motionMagneticFieldZ(µT),motionHeading(°),motionMagneticFieldCalibrationAccuracy(Z),activityTimestamp_sinceReboot(s),activity(txt),activityActivityConfidence(Z),activityActivityStartDate(txt),pedometerStartDate(txt),pedometerNumberofSteps(N),pedometerAverageActivePace(s/m),pedometerCurrentPace(s/m),pedometerCurrentCadence(steps/s),pedometerDistance(m),pedometerFloorAscended(N),pedometerFloorDescended(N),pedometerEndDate(txt)
2022-06-30T09:28:12.147+02:00,3686.554259416667,0.0694732666015625,-0.3089447021484375,-0.9179534912109375,3686.549284416667,-2.095990690679447,0.09837600667573555,0.3718076260105967,-0.03169064596295357,-0.004883218556642532,-0.09334415942430496,-0.01319791376590729,0.05241739749908447,0.01051115989685059,XArbitraryZVertical,0.1340445278582302,-0.1358245471807223,-0.8459276273840747,0.4979862575340889,0.09150642156600952,-0.3633001446723938,-0.927167534828186,0,0,0,-1,-1,3684.509292875,unknown,2,2022-06-30T09:28:10.090+02:00,2022-06-30T08:20:05.567+02:00,1147,1.414602,0,0,894.856,0,0,2022-06-30T09:27:26.791+02:00
2022-06-30T09:28:12.148+02:00,3686.564210291667,0.09173583984375,-0.3457489013671875,-0.9147796630859375,3686.559235416667,-2.097268237287319,0.09933311193414235,0.3718337995989112,0.004962172824889421,0.006239086389541626,-0.1068024486303329,-0.0229191780090332,0.05437964200973511,0.009116649627685547,XArbitraryZVertical,0.1343689999800063,-0.1356832720532402,-0.8461789321075281,0.4975101102691301,0.09239283204078674,-0.3633245229721069,-0.9270700216293335,0,0,0,-1,-1,3684.509292875,unknown,2,2022-06-30T09:28:10.090+02:00,2022-06-30T08:20:05.567+02:00,1147,1.414602,0,0,894.856,0,0,2022-06-30T09:27:26.791+02:00
2022-06-30T09:28:12.155+02:00,3686.574161291667,0.11419677734375,-0.374847412109375,-0.9186859130859375,3686.569185291667,-2.098410752910006,0.09983016781969986,0.3719674631982749,-0.001496259123086929,-0.01545076258480549,-0.09246159344911575,-0.001112550497055054,0.0176999568939209,0.0121961236000061,XArbitraryZVertical,0.1345339845806496,-0.1356936746813684,-0.8464172453881256,0.4970570015020083,0.09284878522157669,-0.3634490370750427,-0.9269756674766541,0,0,0,-1,-1,3684.509292875,unknown,2,2022-06-30T09:28:10.090+02:00,2022-06-30T08:20:05.567+02:00,1147,1.414602,0,0,894.856,0,0,2022-06-30T09:27:26.791+02:00
2022-06-30T09:28:12.165+02:00,3686.584112291667,0.107330322265625,-0.3836517333984375,-0.915863037109375,3686.579136291667,-2.099115215278859,0.09966798639427345,0.3714210104236539,-0.0551329217851162,-0.04221902787685394,-0.05376382917165756,0.02147896587848663,-0.01190769672393799,0.008502423763275146,XArbitraryZVertical,0.1342861632013357,-0.1355474841227206,-0.8466536076534251,0.4967614578952629,0.09271819889545441,-0.3629399240016937,-0.9271882176399231,0,0,0,-1,-1,3684.509292875,unknown,2,2022-06-30T09:28:10.090+02:00,2022-06-30T08:20:05.567+02:00,1147,1.414602,0,0,894.856,0,0,2022-06-30T09:27:26.791+02:00
2022-06-30T09:28:12.175+02:00,3686.594063291667,0.1003570556640625,-0.3866424560546875,-0.9159088134765625,3686.589088291667,-2.099123884621517,0.09862238496321565,0.3696590832630521,-0.1303765475749969,-0.04514877498149872,-0.01317379251122475,0.01551921665668488,-0.0223543643951416,0.01205664873123169,XArbitraryZVertical,0.1334192187108837,-0.1350538106197826,-0.8468876124632233,0.4967304102866223,0.09181150048971176,-0.3612975776195526,-0.9279195666313171,0,0,0,-1,-1,3684.509292875,unknown,2,2022-06-30T09:28:10.090+02:00,2022-06-30T08:20:05.567+02:00,1147,1.414602,0,0,894.856,0,0,2022-06-30T09:27:26.791+02:00
2022-06-30T09:28:12.185+02:00,3686.604014291667,0.103546142578125,-0.396942138671875,-0.914703369140625,3686.599039291667,-2.098923451654646,0.09779384855480487,0.3675239979337723,-0.1949977427721024,-0.05043406039476395,-0.006038983818143606,0.00923968106508255,-0.02733674645423889,0.0128522515296936,XArbitraryZVertical,0.1325681669090122,-0.1343325234984905,-0.8470880115857267,0.4968121082942474,0.09111776202917099,-0.3593058884143829,-0.9287608861923218,0,0,0,-1,-1,3684.509292875,unknown,2,2022-06-30T09:28:10.090+02:00,2022-06-30T08:20:05.567+02:00,1147,1.414602,0,0,894.856,0,0,2022-06-30T09:27:26.791+02:00
2022-06-30T09:28:12.195+02:00,3686.613966291667,0.1050262451171875,-0.3948974609375,-0.91314697265625,3686.608990291667,-2.098774923301367,0.09735957571885688,0.3655969733101619,-0.2523779571056366,-0.04975202307105064,-0.00359233794733882,0.01276499032974243,-0.03943544626235962,0.01478451490402222,XArbitraryZVertical,0.1319302916709054,-0.1336057742419464,-0.8472549724142301,0.4968933328097125,0.0907815545797348,-0.3575068712234497,-0.9294877648353577,0,0,0,-1,-1,3684.509292875,unknown,2,2022-06-30T09:28:10.090+02:00,2022-06-30T08:20:05.567+02:00,1147,1.414602,0,0,894.856,0,0,2022-06-30T09:27:26.791+02:00
2022-06-30T09:28:12.205+02:00,3686.623917291667,0.105010986328125,-0.371185302734375,-0.904998779296875,3686.618941291667,-2.098594323178296,0.09683854839583181,0.3629631305660047,-0.307906448841095,-0.06257824599742889,-0.01154200732707977,0.01463865488767624,-0.03985175490379333,0.0173221230506897,XArbitraryZVertical,0.1310871963833124,-0.1325959120262081,-0.8474822556461069,0.4969993468547597,0.0903879851102829,-0.3550458550453186,-0.9304689168930054,0,0,0,-1,-1,3684.509292875,unknown,2,2022-06-30T09:28:10.090+02:00,2022-06-30T08:20:05.567+02:00,1147,1.414602,0,0,894.856,0,0,2022-06-30T09:27:26.791+02:00
2022-06-30T09:28:12.215+02:00,3686.633868291667,0.0939178466796875,-0.3433990478515625,-0.9061737060546875,3686.628892291667,-2.098412749125079,0.0959213058157395,0.3591252072475027,-0.3311116397380829,-0.07647675275802612,-0.03085551597177982,0.01534706354141235,-0.01973012089729309,0.02690231800079346,XArbitraryZVertical,0.1297853662075864,-0.1311688455324165,-0.8478406694494552,0.4971085068610823,0.08966432511806488,-0.3514553904533386,-0.9319009780883789,0,0,0,-1,-1,3684.509292875,unknown,2,2022-06-30T09:28:10.090+02:00,2022-06-30T08:20:05.567+02:00,1147,1.414602,0,0,894.856,0,0,2022-06-30T09:27:26.791+02:00
2022-06-30T09:28:12.225+02:00,3686.643819291667,0.0838623046875,-0.3271026611328125,-0.9001617431640625,3686.638843291667,-2.098395201333333,0.09483787521786792,0.3553582889752797,-0.2996881306171417,-0.07535329461097717,-0.05050528421998024,0.005138888955116272,0.004527032375335693,0.02713531255722046,XArbitraryZVertical,0.1284184692829932,-0.1298238629596322,-0.8482400829591735,0.4971351996989686,0.08877936005592346,-0.3479262888431549,-0.9333088994026184,0,0,0,-1,-1,3684.509292875,unknown,2,2022-06-30T09:28:10.090+02:00,2022-06-30T08:20:05.567+02:00,1147,1.414602,0,0,894.856,0,0,2022-06-30T09:27:26.791+02:00
2022-06-30T09:28:12.235+02:00,3686.653770291667,0.08837890625,-0.326812744140625,-0.90545654296875,3686.648795291667,-2.098754611923749,0.09428463523786393,0.3527419384871838,-0.2367264926433563,-0.08181972056627274,-0.06307833641767502,-0.004485711455345154,0.01836937665939331,0.03409934043884277,XArbitraryZVertical,0.1275291604843364,-0.1288636317971313,-0.8485946583071794,0.4970088321941339,0.08834840357303619,-0.3454722166061401,-0.9342609643936157,0,0,0,-1,-1,3684.509292875,unknown,2,2022-06-30T09:28:10.090+02:00,2022-06-30T08:20:05.567+02:00,1147,1.414602,0,0,894.856,0,0,2022-06-30T09:27:26.791+02:00
2022-06-30T09:28:12.245+02:00,3686.663721291667,0.0806732177734375,-0.34405517578125,-0.915008544921875,3686.658746291667,-2.099404986945491,0.09403138317310052,0.3511871506965255,-0.1739971190690994,-0.09289614856243134,-0.06712284684181213,0.0002171695232391357,0.0171998143196106,0.02936047315597534,XArbitraryZVertical,0.1270047111552327,-0.1283017603474772,-0.8489081529785734,0.4967529180125604,0.0881621241569519,-0.3440127372741699,-0.9348168969154358,0,0,0,-1,-1,3684.509292875,unknown,2,2022-06-30T09:28:10.090+02:00,2022-06-30T08:20:05.567+02:00,1147,1.414602,0,0,894.856,0,0,2022-06-30T09:27:26.791+02:00
2022-06-30T09:28:12.255+02:00,3686.673673291667,0.0762939453125,-0.3602447509765625,-0.918487548828125,3686.668697291667,-2.100064324286469,0.0936640181317886,0.3504113160447409,-0.1390447318553925,-0.09485703706741333,-0.05817408859729767,-0.007170021533966064,-0.0007712244987487793,0.02010625600814819,XArbitraryZVertical,0.1266193574321777,-0.1281022544697693,-0.8491627553203651,0.4964676543956104,0.0878436341881752,-0.3432841598987579,-0.9351146817207336,0,0,0,-1,-1,3684.509292875,unknown,2,2022-06-30T09:28:10.090+02:00,2022-06-30T08:20:05.567+02:00,1147,1.414602,0,0,894.856,0,0,2022-06-30T09:27:26.791+02:00
2022-06-30T09:28:12.265+02:00,3686.683624291667,0.075897216796875,-0.3670501708984375,-0.931671142578125,3686.678648291667,-2.100533211681938,0.09324252649241306,0.3500994233265294,-0.1053742542862892,-0.07693570852279663,-0.03367507457733154,-0.01116511225700378,-0.01725375652313232,0.01677072048187256,XArbitraryZVertical,0.1263351475199661,-0.1281028367081032,-0.8493328449644397,0.4962487094181554,0.08745944499969482,-0.3429912030696869,-0.9352582097053528,0,0,0,-1,-1,3684.509292875,unknown,2,2022-06-30T09:28:10.090+02:00,2022-06-30T08:20:05.567+02:00,1147,1.414602,0,0,894.856,0,0,2022-06-30T09:27:26.791+02:00
2022-06-30T09:28:12.274+02:00,3686.693575291667,0.080352783203125,-0.385009765625,-0.935302734375,3686.688599291667,-2.100691379322167,0.09296239305643346,0.3504348641766025,-0.06297406554222107,-0.05853592604398727,0.01602217555046082,-0.01128915697336197,-0.02374407649040222,0.003497064113616943,XArbitraryZVertical,0.1262869048481761,-0.1283261108318587,-0.8493606710101055,0.4961558425390064,0.08718676120042801,-0.3433062732219696,-0.9351680278778076,0,0,0,-1,-1,3684.509292875,unknown,2,2022-06-30T09:28:10.090+02:00,2022-06-30T08:20:05.567+02:00,1147,1.414602,0,0,894.856,0,0,2022-06-30T09:27:26.791+02:00
2022-06-30T09:28:12.285+02:00,3686.703526291667,-0.0400238037109375,-0.446990966796875,-0.8907318115234375,3686.698551291667,-2.100176712488756,0.0926850474433363,0.3500188902382617,-0.330057829618454,-0.003117651678621769,0.1074995622038841,-0.006587415933609009,-0.04209440946578979,3.170967102050781e-05,XArbitraryZVertical,0.1261018318432089,-0.1281841288564614,-0.8492866036745796,0.4963664034686924,0.08694060146808624,-0.3429155647754669,-0.935334324836731,0,0,0,-1,-1,3684.509292875,unknown,2,2022-06-30T09:28:10.090+02:00,2022-06-30T08:20:05.567+02:00,1147,1.414602,0,0,894.856,0,0,2022-06-30T09:27:26.791+02:00
2022-06-30T09:28:12.312+02:00,3686.713477291667,0.0621185302734375,-0.4403839111328125,-0.95709228515625,3686.708502291667,-2.099374688369961,0.09412581097051263,0.3458863037122621,-0.5382957458496094,0.2906095683574677,0.02227680943906307,-0.1284439563751221,-0.1079605221748352,0.04587924480438232,XArbitraryZVertical,0.1257674162584422,-0.1260043085975329,-0.8493538906768296,0.4968938982481383,0.08842054754495621,-0.3390306234359741,-0.9366109371185303,0,0,0,-1,-1,3684.509292875,unknown,2,2022-06-30T09:28:10.090+02:00,2022-06-30T08:20:05.567+02:00,1147,1.414602,0,0,894.856,0,0,2022-06-30T09:27:26.791+02:00
2022-06-30T09:28:12.315+02:00,3686.723429291667,0.2327728271484375,-0.3217010498046875,-0.9769744873046875,3686.718453291667,-2.097935715830121,0.09579403137299788,0.3407934834069827,-0.5365543961524963,0.1164166107773781,0.1533540636301041,-0.02802795916795731,-0.1061490178108215,-0.01892346143722534,XArbitraryZVertical,0.125335002323837,-0.123315819921412,-0.8493274498451426,0.4977221974300923,0.09014687687158585,-0.3342350423336029,-0.9381687045097351,0,0,0,-1,-1,3684.509292875,unknown,2,2022-06-30T09:28:10.090+02:00,2022-06-30T08:20:05.567+02:00,1147,1.414602,0,0,894.856,0,0,2022-06-30T09:27:26.791+02:00
2022-06-30T09:28:12.317+02:00,3686.733380291667,0.1839141845703125,-0.2964630126953125,-0.9861297607421875,3686.728404291667,-2.096232501311208,0.09519304622926435,0.3359880801289737,-0.4400872588157654,-0.07124755531549454,0.04859676212072372,0.1430385559797287,0.008000940084457397,-0.03716361522674561,XArbitraryZVertical,0.1240205879450853,-0.1212993741267757,-0.8493473182132921,0.4985122555509205,0.08973465859889984,-0.3297021687030792,-0.9398106932640076,0,0,0,-1,-1,3684.509292875,unknown,2,2022-06-30T09:28:10.090+02:00,2022-06-30T08:20:05.567+02:00,1147,1.414602,0,0,894.856,0,0,2022-06-30T09:27:26.791+02:00
2022-06-30T09:28:12.324+02:00,3686.743331291667,0.131561279296875,-0.2798919677734375,-0.97723388671875,3686.738355291667,-2.096215034332704,0.09391052064477289,0.3323617025344991,-0.2937218546867371,-0.1691014319658279,-0.1142793372273445,0.09527377784252167,0.02981320023536682,-0.04502040147781372,XArbitraryZVertical,0.1225976591106609,-0.1200633804523882,-0.8497252125018193,0.4985194300232896,0.08864078670740128,-0.3262763917446136,-0.9411091804504395,0,0,0,-1,-1,3684.509292875,unknown,2,2022-06-30T09:28:10.090+02:00,2022-06-30T08:20:05.567+02:00,1147,1.414602,0,0,894.856,0,0,2022-06-30T09:27:26.791+02:00
2022-06-30T09:28:12.334+02:00,3686.753282291667,0.07916259765625,-0.313201904296875,-0.9675140380859375,3686.748307291667,-2.097543965099836,0.0926434210736663,0.3297388330176599,-0.2114709317684174,-0.1577441096305847,-0.1729288101196289,0.04403456300497055,0.04390379786491394,-0.03516411781311035,XArbitraryZVertical,0.1213436507779822,-0.1193352501586846,-0.8503507044189694,0.4979342284445318,0.08752710372209549,-0.3237959444522858,-0.9420696496963501,0,0,0,-1,-1,3684.509292875,unknown,2,2022-06-30T09:28:10.090+02:00,2022-06-30T08:20:05.567+02:00,1147,1.414602,0,0,894.856,0,0,2022-06-30T09:27:26.791+02:00
2022-06-30T09:28:12.345+02:00,3686.763233291667,0.057281494140625,-0.338897705078125,-0.9659423828125,3686.758258291667,-2.098819740074561,0.09166017989321744,0.3276937430720551,-0.1798394322395325,-0.1186570078134537,-0.1018342897295952,-0.007498227059841156,0.008658260107040405,-0.02470123767852783,XArbitraryZVertical,0.1203540089180577,-0.1187795157160434,-0.850895613555584,0.4973760954339089,0.0866612121462822,-0.3218603432178497,-0.9428126811981201,0,0,0,-1,-1,3684.509292875,unknown,2,2022-06-30T09:28:10.090+02:00,2022-06-30T08:20:05.567+02:00,1147,1.414602,0,0,894.856,0,0,2022-06-30T09:27:26.791+02:00
2022-06-30T09:28:12.354+02:00,3686.773184291667,0.0493316650390625,-0.350128173828125,-0.9617919921875,3686.768209291667,-2.099293907367122,0.09079429802980142,0.3258889052824287,-0.1705367416143417,-0.08471634984016418,-0.03024612180888653,-0.02861545979976654,-0.01874688267707825,-0.02247792482376099,XArbitraryZVertical,0.119520320119117,-0.1182485702654394,-0.8512128078696316,0.4971608014791144,0.08589734882116318,-0.3201510310173035,-0.9434643387794495,0,0,0,-1,-1,3684.509292875,unknown,2,2022-06-30T09:28:10.090+02:00,2022-06-30T08:20:05.567+02:00,1147,1.414602,0,0,894.856,0,0,2022-06-30T09:27:26.791+02:00
2022-06-30T09:28:12.364+02:00,3686.783136291667,0.03253173828125,-0.344482421875,-0.9422454833984375,3686.778160291667,-2.099452896600301,0.09004808717350052,0.3240492800373991,-0.2028553485870361,-0.07474955916404724,-0.05169545114040375,-0.03591406345367432,-0.03172066807746887,-0.01767873764038086,XArbitraryZVertical,0.118747710173238,-0.1176537422770466,-0.8514461527538302,0.4970876432606505,0.08524611592292786,-0.3184076845645905,-0.9441131353378296,0,0,0,-1,-1,3684.509292875,unknown,2,2022-06-30T09:28:10.090+02:00,2022-06-30T08:20:05.567+02:00,1147,1.414602,0,0,894.856,0,0,2022-06-30T09:27:26.791+02:00
2022-06-30T09:28:12.374+02:00,3686.793087291667,0.021728515625,-0.3453521728515625,-0.9286041259765625,3686.788111291667,-2.10035384638309,0.08981659418262328,0.3216529955166506,-0.2538447380065918,-0.01728546246886253,-0.1555116027593613,-0.0525636300444603,-0.02834737300872803,0.002644717693328857,XArbitraryZVertical,0.1180159843568693,-0.1167355705769314,-0.8518769997203559,0.4967399857890914,0.08509575575590134,-0.3161351978778839,-0.9448900818824768,0,0,0,-1,-1,3684.509292875,unknown,2,2022-06-30T09:28:10.090+02:00,2022-06-30T08:20:05.567+02:00,1147,1.414602,0,0,894.856,0,0,2022-06-30T09:27:26.791+02:00
2022-06-30T09:28:12.384+02:00,3686.803038291667,0.01214599609375,-0.33331298828125,-0.9138946533203125,3686.798062291667,-2.10203184599822,0.09033774868253172,0.3189148234776621,-0.2691462934017181,0.0202928651124239,-0.2118525952100754,-0.06393703818321228,-0.03181606531143188,0.01710009574890137,XArbitraryZVertical,0.1174780176576693,-0.1155285369634906,-0.8524822810386843,0.4961107980160305,0.08566594868898392,-0.3135362863540649,-0.9457041621208191,0,0,0,-1,-1,3684.509292875,unknown,2,2022-06-30T09:28:10.090+02:00,2022-06-30T08:20:05.567+02:00,1147,1.414602,0,0,894.856,0,0,2022-06-30T09:27:26.791+02:00
2022-06-30T09:28:12.394+02:00,3686.812989291667,-0.0103607177734375,-0.3396148681640625,-0.8966522216796875,3686.808014291667,-2.104505510764648,0.09143775961081026,0.315905402635192,-0.304462194442749,0.05580265820026398,-0.3339497447013855,-0.07464555650949478,-0.02263596653938293,0.0326501727104187,XArbitraryZVertical,0.1170780498909078,-0.114106918102185,-0.8532705776132916,0.4951784127808488,0.08679194748401642,-0.3106772005558014,-0.9465447068214417,0,0,0,-1,-1,3684.509292875,unknown,2,2022-06-30T09:28:10.090+02:00,2022-06-30T08:20:05.567+02:00,1147,1.414602,0,0,894.856,0,0,2022-06-30T09:27:26.791+02:00
2022-06-30T09:28:12.404+02:00,3686.822940291667,0.0644989013671875,-0.3371124267578125,-0.930145263671875,3686.817965291667,-2.107371568651202,0.09330257260942805,0.3127922697690808,-0.2559732794761658,0.10260970890522,-0.2483843415975571,-0.09900692850351334,-0.03189840912818909,0.05068749189376831,XArbitraryZVertical,0.1169612851519905,-0.1124734332380779,-0.8541169162771675,0.4941194512307455,0.08864660561084747,-0.3077166080474854,-0.9473395943641663,0,0,0,-1,-1,3684.509292875,unknown,2,2022-06-30T09:28:10.090+02:00,2022-06-30T08:20:05.567+02:00,1147,1.414602,0,0,894.856,0,0,2022-06-30T09:27:26.791+02:00
2022-06-30T09:28:12.414+02:00,3686.832892291667,0.111083984375,-0.313629150390625,-0.940399169921875,3686.827916291667,-2.109147003287585,0.09502263395190277,0.3101028147701743,-0.2507430911064148,0.1229685097932816,-0.1418310105800629,-0.02585484832525253,-0.03195607662200928,0.01786094903945923,XArbitraryZVertical,0.1169499231630215,-0.1109939179191001,-0.8546667667070228,0.4935057662371926,0.09035415202379227,-0.3051565587520599,-0.9480061531066895,0,0,0,-1,-1,3684.509292875,unknown,2,2022-06-30T09:28:10.090+02:00,2022-06-30T08:20:05.567+02:00,1147,1.414602,0,0,894.856,0,0,2022-06-30T09:27:26.791+02:00
2022-06-30T09:28:12.424+02:00,3686.842843291667,0.12225341796875,-0.3257598876953125,-0.9622802734375,3686.837867291667,-2.110409370254446,0.09640787267761833,0.3076378022263774,-0.2169000506401062,0.07904594391584396,-0.1629289090633392,0.01934497803449631,-0.01082116365432739,0.00822681188583374,XArbitraryZVertical,0.1168801783013313,-0.1096634456358794,-0.8550906324283775,0.4930853917926838,0.09173940867185593,-0.3028081953525543,-0.948625922203064,0,0,0,-1,-1,3684.509292875,unknown,2,2022-06-30T09:28:10.090+02:00,2022-06-30T08:20:05.567+02:00,1147,1.414602,0,0,894.856,0,0,2022-06-30T09:27:26.791+02:00
2022-06-30T09:28:12.434+02:00,3686.852794291667,0.120025634765625,-0.35247802734375,-0.9838409423828125,3686.847818291667,-2.112495445855387,0.09762771505613937,0.3052064439392008,-0.2301258444786072,0.04924250394105911,-0.2709030508995056,0.02928581833839417,-0.02526998519897461,-0.01303696632385254,XArbitraryZVertical,0.1167048706654359,-0.1084360265045599,-0.8557231968709097,0.4923000966580204,0.09296799451112747,-0.3004900813102722,-0.9492431879043579,0,0,0,-1,-1,3684.509292875,unknown,2,2022-06-30T09:28:10.090+02:00,2022-06-30T08:20:05.567+02:00,1147,1.414602,0,0,894.856,0,0,2022-06-30T09:27:26.791+02:00
2022-06-30T09:28:12.444+02:00,3686.862745291667,0.1285552978515625,-0.3525543212890625,-0.9954833984375,3686.857770291667,-2.115114551105935,0.09867675127161064,0.3028971436434915,-0.1868766993284225,-0.0104089267551899,-0.2635076940059662,0.02599418163299561,-0.05419152975082397,-0.03400766849517822,XArbitraryZVertical,0.1164597310089334,-0.1073338147357871,-0.8564856750623728,0.491272644536349,0.09403184801340103,-0.2982867062091827,-0.9498331546783447,0,0,0,-1,-1,3684.509292875,unknown,2,2022-06-30T09:28:10.090+02:00,2022-06-30T08:20:05.567+02:00,1147,1.414602,0,0,894.856,0,0,2022-06-30T09:27:26.791+02:00
2022-06-30T09:28:12.454+02:00,3686.872696291667,0.07421875,-0.329498291015625,-0.9890594482421875,3686.867721291667,-2.117658214598408,0.09906629979418545,0.3008241995891094,-0.1815636903047562,-0.04838800057768822,-0.2645415067672729,0.03409289568662643,-0.05624702572822571,-0.04507356882095337,XArbitraryZVertical,0.1159954213322327,-0.1064903767989377,-0.8572476755514484,0.4902358941182128,0.0944627970457077,-0.2963075041770935,-0.9504097104072571,0,0,0,-1,-1,3684.509292875,unknown,2,2022-06-30T09:28:10.090+02:00,2022-06-30T08:20:05.567+02:00,1147,1.414602,0,0,894.856,0,0,2022-06-30T09:27:26.791+02:00
2022-06-30T09:28:12.464+02:00,3686.882648291667,0.0450439453125,-0.3036651611328125,-0.9945831298828125,3686.877672291667,-2.120324013308258,0.09950013938046222,0.2988149023511096,-0.1650183498859406,-0.0114606935530901,-0.2807233929634094,-0.02071491628885269,-0.03511065244674683,-0.03810018301010132,XArbitraryZVertical,0.1155610830605217,-0.1056695469333373,-0.8580301150933078,0.4891461829032906,0.09493406862020493,-0.2943878471851349,-0.9509591460227966,0,0,0,-1,-1,3684.509292875,unknown,2,2022-06-30T09:28:10.090+02:00,2022-06-30T08:20:05.567+02:00,1147,1.414602,0,0,894.856,0,0,2022-06-30T09:27:26.791+02:00
2022-06-30T09:28:12.474+02:00,3686.892599291667,0.0517578125,-0.2741851806640625,-1.002029418945312,3686.887623291667,-2.123035152132319,0.1004464262708777,0.2970982928386028,-0.1207344979047775,0.04858373478055,-0.2670898735523224,-0.05084008723497391,-0.01091849803924561,-0.04321271181106567,XArbitraryZVertical,0.1154162814799671,-0.104851927656572,-0.8587695797381879,0.4880575190649032,0.09588444232940674,-0.2927468717098236,-0.9513702988624573,0,0,0,-1,-1,3684.509292875,unknown,2,2022-06-30T09:28:10.090+02:00,2022-06-30T08:20:05.567+02:00,1147,1.414602,0,0,894.856,0,0,2022-06-30T09:27:26.791+02:00
2022-06-30T09:28:12.484+02:00,3686.902550291667,0.0738067626953125,-0.2674560546875,-1.00714111328125,3686.897574291667,-2.125627899187605,0.101938052696694,0.2960216956396845,-0.04013792425394058,0.09976523369550705,-0.2540274560451508,-0.04557722061872482,0.01753190159797668,-0.05049008131027222,XArbitraryZVertical,0.1156660934987683,-0.1041717517950689,-0.8593978885125959,0.4870368156542529,0.09733543545007706,-0.2917172610759735,-0.9515392184257507,0,0,0,-1,-1,3684.509292875,unknown,2,2022-06-30T09:28:10.090+02:00,2022-06-30T08:20:05.567+02:00,1147,1.414602,0,0,894.856,0,0,2022-06-30T09:27:26.791+02:00
2022-06-30T09:28:12.494+02:00,3686.912501291667,0.1024017333984375,-0.26995849609375,-1.007965087890625,3686.907525291667,-2.128257881532832,0.1037782908363514,0.2958068580957882,0.04909900948405266,0.1145180836319923,-0.2597804069519043,-0.02528565376996994,0.02405554056167603,-0.05572021007537842,XArbitraryZVertical,0.116269525352357,-0.103783443387561,-0.8599474584009482,0.4860050038167671,0.09909281879663467,-0.291511744260788,-0.951420783996582,0,0,0,-1,-1,3684.509292875,unknown,2,2022-06-30T09:28:10.090+02:00,2022-06-30T08:20:05.567+02:00,1147,1.414602,0,0,894.856,0,0,2022-06-30T09:27:26.791+02:00
2022-06-30T09:28:12.504+02:00,3686.922452291667,0.1224822998046875,-0.2828521728515625,-0.99725341796875,3686.917477291667,-2.131090184337335,0.1056817874623756,0.2962958477518482,0.1050240620970726,0.1040536761283875,-0.2735298871994019,0.001513518393039703,0.02202081680297852,-0.05687636137008667,XArbitraryZVertical,0.1170567100612785,-0.1036987944585849,-0.8604862303689171,0.484879107054661,0.10088861733675,-0.2919794619083405,-0.951088547706604,0,0,0,-1,-1,3684.509292875,unknown,2,2022-06-30T09:28:10.090+02:00,2022-06-30T08:20:05.567+02:00,1147,1.414602,0,0,894.856,0,0,2022-06-30T09:27:26.791+02:00
2022-06-30T09:28:12.514+02:00,3686.932403291667,0.1196136474609375,-0.3109588623046875,-0.9866485595703125,3686.927428291667,-2.134173428726716,0.1075077748104243,0.2971558881620394,0.1262438595294952,0.08498011529445648,-0.2992901206016541,0.01988456398248672,0.009949564933776855,-0.0466005802154541,XArbitraryZVertical,0.1178849499529413,-0.1038111802530549,-0.8610590247979458,0.4836360538888766,0.102598138153553,-0.2928019165992737,-0.9506527781486511,0,0,0,-1,-1,3684.509292875,unknown,2,2022-06-30T09:28:10.090+02:00,2022-06-30T08:20:05.567+02:00,1147,1.414602,0,0,894.856,0,0,2022-06-30T09:27:26.791+02:00
2022-06-30T09:28:12.523+02:00,3686.942355291667,0.1099395751953125,-0.34600830078125,-0.9663238525390625,3686.937379291667,-2.137533075007752,0.1092826619395858,0.2978923420107934,0.08648266643285751,0.07799935340881348,-0.32587730884552,0.01535231620073318,-0.01745301485061646,-0.03639388084411621,XArbitraryZVertical,0.1186475748240835,-0.1039012821653595,-0.8617081010167753,0.4822722936363275,0.1042617335915565,-0.2935060262680054,-0.9502545595169067,0,0,0,-1,-1,3684.509292875,unknown,2,2022-06-30T09:28:10.090+02:00,2022-06-30T08:20:05.567+02:00,1147,1.414602,0,0,894.856,0,0,2022-06-30T09:27:26.791+02:00
2022-06-30T09:28:12.533+02:00,3686.952306291667,0.0958404541015625,-0.3712158203125,-0.9509735107421875,3686.947330291667,-2.141032050840862,0.1111067423778941,0.2980032391857426,0.008372683078050613,0.08468734472990036,-0.3374066650867462,0.003948688507080078,-0.05239641666412354,-0.01629328727722168,XArbitraryZVertical,0.1192781135149293,-0.1037184485174455,-0.8624334064161251,0.4808574147812872,0.1059912890195847,-0.2936120331287384,-0.9500304460525513,0,0,0,-1,-1,3684.509292875,unknown,2,2022-06-30T09:28:10.090+02:00,2022-06-30T08:20:05.567+02:00,1147,1.414602,0,0,894.856,0,0,2022-06-30T09:27:26.791+02:00
2022-06-30T09:28:12.543+02:00,3686.962257291667,0.0809173583984375,-0.384918212890625,-0.948577880859375,3686.957281291667,-2.144484130477514,0.1130506821062759,0.2972934084423028,-0.07097693532705307,0.1081743836402893,-0.3383278846740723,-0.01202051341533661,-0.07828256487846375,-0.0009439587593078613,XArbitraryZVertical,0.1197729714087126,-0.1031489905534044,-0.8632015709692534,0.4794766255511694,0.1078613772988319,-0.2929334342479706,-0.9500294327735901,0,0,0,-1,-1,3684.509292875,unknown,2,2022-06-30T09:28:10.090+02:00,2022-06-30T08:20:05.567+02:00,1147,1.414602,0,0,894.856,0,0,2022-06-30T09:27:26.791+02:00
2022-06-30T09:28:12.553+02:00,3686.972208291667,0.0649566650390625,-0.373260498046875,-0.946533203125,3686.967233291667,-2.147895033318784,0.1151973692318582,0.2959755456014189,-0.1167460158467293,0.1266218423843384,-0.34544837474823,-0.029027059674263,-0.0932452380657196,0.00160062313079834,XArbitraryZVertical,0.1202190075198821,-0.102265366478926,-0.8639925076873386,0.478127782179471,0.1099448204040527,-0.2916731238365173,-0.9501783847808838,0,0,0,-1,-1,3684.509292875,unknown,2,2022-06-30T09:28:10.090+02:00,2022-06-30T08:20:05.567+02:00,1147,1.414602,0,0,894.856,0,0,2022-06-30T09:27:26.791+02:00
2022-06-30T09:28:12.563+02:00,3686.982159291667,0.0515289306640625,-0.3385009765625,-0.937469482421875,3686.977184291667,-2.151380157075909,0.1175128255302559,0.2941963169749952,-0.1585388034582138,0.1371003985404968,-0.3641517460346222,-0.04724821448326111,-0.08328986167907715,0.003902018070220947,XArbitraryZVertical,0.1206311672305308,-0.1011462484715556,-0.8648242116801631,0.4767563147819769,0.1122052818536758,-0.2899707853794098,-0.9504351019859314,0,0,0,-1,-1,3684.509292875,unknown,2,2022-06-30T09:28:10.090+02:00,2022-06-30T08:20:05.567+02:00,1147,1.414602,0,0,894.856,0,0,2022-06-30T09:27:26.791+02:00
2022-06-30T09:28:12.573+02:00,3686.992111291667,0.0321197509765625,-0.319061279296875,-0.927703857421875,3686.987135291667,-2.155087135312447,0.1199475031890258,0.2920368094415884,-0.1815559715032578,0.1446848213672638,-0.3983134329319,-0.06306427717208862,-0.05059775710105896,0.01330924034118652,XArbitraryZVertical,0.1210007128230344,-0.09984752989172836,-0.8657280877044744,0.4752937642471631,0.114593617618084,-0.2879033982753754,-0.950778603553772,0,0,0,-1,-1,3684.509292875,unknown,2,2022-06-30T09:28:10.090+02:00,2022-06-30T08:20:05.567+02:00,1147,1.414602,0,0,894.856,0,0,2022-06-30T09:27:26.791+02:00
2022-06-30T09:28:12.583+02:00,3687.002062291667,-0.0033721923828125,-0.33038330078125,-0.9187774658203125,3686.997086291667,-2.159258628318498,0.1225901615807136,0.2897424064950466,-0.1782046556472778,0.1559036523103714,-0.4637302458286285,-0.08506610989570618,-0.03335604071617126,0.02342182397842407,XArbitraryZVertical,0.1214119225372787,-0.09847014477993858,-0.8667363117552358,0.4736358489732617,0.1171862632036209,-0.2857053875923157,-0.9511255621910095,0,0,0,-1,-1,3684.509292875,unknown,2,2022-06-30T09:28:10.090+02:00,2022-06-30T08:20:05.567+02:00,1147,1.414602,0,0,894.856,0,0,2022-06-30T09:27:26.791+02:00
2022-06-30T09:28:12.593+02:00,3687.012013291667,-0.043426513671875,-0.3595428466796875,-0.8989410400390625,3687.007037291667,-2.164333878174448,0.12567988663478,0.2872797919887559,-0.195660874247551,0.1784662157297134,-0.5677943229675293,-0.1235840246081352,-0.04703891277313232,0.03267675638198853,XArbitraryZVertical,0.1219412958780079,-0.09697047020187861,-0.8679391666895007,0.4716023750108601,0.1202122420072556,-0.2833445370197296,-0.9514541029930115,0,0,0,-1,-1,3684.509292875,unknown,2,2022-06-30T09:28:10.090+02:00,2022-06-30T08:20:05.567+02:00,1147,1.414602,0,0,894.856,0,0,2022-06-30T09:27:26.791+02:00
2022-06-30T09:28:12.603+02:00,3687.021964291667,-0.0784759521484375,-0.3952178955078125,-0.86669921875,3687.016989291667,-2.170314328906786,0.1291688559360717,0.2842065692428538,-0.2775943577289581,0.1853097379207611,-0.6541558504104614,-0.1670687943696976,-0.07914707064628601,0.05294698476791382,XArbitraryZVertical,0.1224711915252581,-0.09516748243249436,-0.8693708055327833,0.4691890176279865,0.1236426830291748,-0.2803959250450134,-0.9518879055976868,0,0,0,-1,-1,3684.509292875,unknown,2,2022-06-30T09:28:10.090+02:00,2022-06-30T08:20:05.567+02:00,1147,1.414602,0,0,894.856,0,0,2022-06-30T09:27:26.791+02:00
2022-06-30T09:28:12.613+02:00,3687.031915291667,-0.1279144287109375,-0.4488067626953125,-0.835205078125,3687.026940291667,-2.177060499968634,0.1328682971433122,0.2798513187096749,-0.4284136891365051,0.1905108988285065,-0.7573733329772949,-0.205799400806427,-0.1190053224563599,0.08592629432678223,XArbitraryZVertical,0.122780561968608,-0.09280211740075023,-0.8710579957178208,0.4664447692207675,0.1273238509893417,-0.276212751865387,-0.9526253938674927,0,0,0,-1,-1,3684.509292875,unknown,2,2022-06-30T09:28:10.090+02:00,2022-06-30T08:20:05.567+02:00,1147,1.414602,0,0,894.856,0,0,2022-06-30T09:27:26.791+02:00
2022-06-30T09:28:12.623+02:00,3687.041867291667,-0.1739349365234375,-0.495330810546875,-0.806365966796875,3687.036891291667,-2.184730359690317,0.1369854174351977,0.2734997212170731,-0.6422367691993713,0.2192144393920898,-0.8908440470695496,-0.2593957781791687,-0.178704172372818,0.1186069250106812,XArbitraryZVertical,0.1228021791661077,-0.08951924382301701,-0.873073448058722,0.4633019414564045,0.1314817667007446,-0.2701027393341064,-0.9538118839263916,0,0,0,-1,-1,3684.509292875,unknown,2,2022-06-30T09:28:10.090+02:00,2022-06-30T08:20:05.567+02:00,1147,1.414602,0,0,894.856,0,0,2022-06-30T09:27:26.791+02:00
2022-06-30T09:28:12.633+02:00,3687.051818291667,-0.21502685546875,-0.5188140869140625,-0.7857208251953125,3687.046842291667,-2.193529257632863,0.1416623108249939,0.2646149991976274,-0.8952146768569946,0.2522506713867188,-1.050412654876709,-0.3102091550827026,-0.2337932586669922,0.149158775806427,XArbitraryZVertical,0.1224862474041822,-0.08505774359655709,-0.8754856381227504,0.4596598552377497,0.1362746357917786,-0.2615377008914948,-0.9555246233940125,0,0,0,-1,-1,3684.509292875,unknown,2,2022-06-30T09:28:10.090+02:00,2022-06-30T08:20:05.567+02:00,1147,1.414602,0,0,894.856,0,0,2022-06-30T09:27:26.791+02:00
2022-06-30T09:28:12.643+02:00,3687.061769291667,-0.25885009765625,-0.5477752685546875,-0.7976226806640625,3687.056793291667,-2.203550980362659,0.1469241787391067,0.2527814469840197,-1.176252603530884,0.2996877431869507,-1.221918702125549,-0.3567702174186707,-0.2687162756919861,0.1720682382583618,XArbitraryZVertical,0.1217724510492474,-0.0792274121972296,-0.8783274012500093,0.4554509752322389,0.1417437493801117,-0.2500979900360107,-0.9577890038490295,0,0,0,-1,-1,3687.054152291667,unknown,2,2022-06-30T09:28:12.635+02:00,2022-06-30T08:20:05.567+02:00,1147,1.414602,0,0,894.856,0,0,2022-06-30T09:27:26.791+02:00
2022-06-30T09:28:12.653+02:00,3687.071720291667,-0.2956695556640625,-0.586639404296875,-0.814178466796875,3687.066744291667,-2.214887539871208,0.1529555697258555,0.237930554401531,-1.444378018379211,0.3696649670600891,-1.409590840339661,-0.4069172143936157,-0.3120834231376648,0.1628592014312744,XArbitraryZVertical,0.1207552486664739,-0.07195322433541744,-0.8815871670560654,0.4506052969503524,0.1480675488710403,-0.2356919944286346,-0.9604818224906921,0,0,0,-1,-1,3687.054152291667,unknown,2,2022-06-30T09:28:12.635+02:00,2022-06-30T08:20:05.567+02:00,1147,1.414602,0,0,894.856,0,0,2022-06-30T09:27:26.791+02:00
2022-06-30T09:28:12.663+02:00,3687.081671291667,-0.3157501220703125,-0.6123199462890625,-0.8311614990234375,3687.076696291667,-2.22756651071009,0.1599335724025231,0.2201321186232569,-1.701857089996338,0.4572356045246124,-1.598819255828857,-0.4510787725448608,-0.3682810068130493,0.1492360830307007,XArbitraryZVertical,0.1195658464855078,-0.06322015051004024,-0.8852221342482784,0.445071922324467,0.1554096341133118,-0.2183585613965988,-0.9634144306182861,0,0,0,-1,-1,3687.054152291667,unknown,2,2022-06-30T09:28:12.635+02:00,2022-06-30T08:20:05.567+02:00,1147,1.414602,0,0,894.856,0,0,2022-06-30T09:27:26.791+02:00
2022-06-30T09:28:12.673+02:00,3687.091622291667,-0.331085205078125,-0.601806640625,-0.8442230224609375,3687.086647291667,-2.241402764572227,0.1677056144736391,0.1993854170415858,-1.971843004226685,0.5308943390846252,-1.759985566139221,-0.479363352060318,-0.4142531156539917,0.1352754235267639,XArbitraryZVertical,0.1181861305608017,-0.0530438016008238,-0.8891606605495375,0.4388756839109332,0.1636136472225189,-0.1980669647455215,-0.9664368033409119,0,0,0,-1,-1,3687.054152291667,unknown,2,2022-06-30T09:28:12.635+02:00,2022-06-30T08:20:05.567+02:00,1147,1.414602,0,0,894.856,0,0,2022-06-30T09:27:26.791+02:00
2022-06-30T09:28:12.683+02:00,3687.101574291667,-0.3549346923828125,-0.57208251953125,-0.8650054931640625,3687.096598291667,-2.256039268718053,0.1761148719200729,0.1755802511577029,-2.243223190307617,0.6206024885177612,-1.903747081756592,-0.5035969018936157,-0.4271272718906403,0.1251720786094666,XArbitraryZVertical,0.1165766842193342,-0.04138094539554617,-0.8932947521179447,0.4321135693686438,0.1725121438503265,-0.1746795028448105,-0.9693949818611145,0,0,0,-1,-1,3687.054152291667,unknown,2,2022-06-30T09:28:12.635+02:00,2022-06-30T08:20:05.567+02:00,1147,1.414602,0,0,894.856,0,0,2022-06-30T09:27:26.791+02:00
2022-06-30T09:28:12.693+02:00,3687.111525291667,-0.36126708984375,-0.527435302734375,-0.907012939453125,3687.106549291667,-2.271315995934925,0.1854256914958098,0.1489846645582882,-2.462900400161743,0.7673903703689575,-2.036088228225708,-0.5372568964958191,-0.4236485064029694,0.1069647073745728,XArbitraryZVertical,0.1149573020848219,-0.02828062889023395,-0.8975087187076505,0.4248094619839207,0.1823226064443588,-0.148434117436409,-0.9719700217247009,0,0,0,-1,-1,3687.054152291667,unknown,2,2022-06-30T09:28:12.635+02:00,2022-06-30T08:20:05.567+02:00,1147,1.414602,0,0,894.856,0,0,2022-06-30T09:27:26.791+02:00
2022-06-30T09:28:12.703+02:00,3687.121476291667,-0.3497314453125,-0.4630279541015625,-0.9583282470703125,3687.116500291667,-2.287110384294509,0.1961133938332339,0.120233701586511,-2.605876922607422,0.9606540203094482,-2.147239208221436,-0.5547186136245728,-0.4074912071228027,0.06673753261566162,XArbitraryZVertical,0.1137142262464191,-0.01392490872802096,-0.901667080517505,0.4169793195749464,0.1934519559144974,-0.1199442222714424,-0.9737503528594971,0,0,0,-1,-1,3687.054152291667,unknown,2,2022-06-30T09:28:12.635+02:00,2022-06-30T08:20:05.567+02:00,1147,1.414602,0,0,894.856,0,0,2022-06-30T09:27:26.791+02:00
2022-06-30T09:28:12.713+02:00,3687.131427291667,-0.327911376953125,-0.4192657470703125,-1.029296875,3687.126452291667,-2.303455190137127,0.208319403142244,0.08989711202881501,-2.709202527999878,1.147682547569275,-2.280727386474609,-0.5557118058204651,-0.3732519745826721,0.01610100269317627,XArbitraryZVertical,0.1130634616077716,0.001441494358600155,-0.9056989615972482,0.4085634551608598,0.2059808075428009,-0.08977607637643814,-0.9744291305541992,0,0,0,-1,-1,3687.054152291667,unknown,2,2022-06-30T09:28:12.635+02:00,2022-06-30T08:20:05.567+02:00,1147,1.414602,0,0,894.856,0,0,2022-06-30T09:27:26.791+02:00
2022-06-30T09:28:12.722+02:00,3687.141378291667,-0.30645751953125,-0.417755126953125,-1.068801879882812,3687.136403291667,-2.32066396507092,0.2218249915587586,0.05792331439795227,-2.830399990081787,1.321778059005737,-2.465410470962524,-0.547552227973938,-0.3613749146461487,-0.0554351806640625,XArbitraryZVertical,0.1129327762803637,0.01775966523950067,-0.9096404020201647,0.3993559310523901,0.2196412831544876,-0.05789092928171158,-0.9738615751266479,0,0,0,-1,-1,3687.054152291667,unknown,2,2022-06-30T09:28:12.635+02:00,2022-06-30T08:20:05.567+02:00,1147,1.414602,0,0,894.856,0,0,2022-06-30T09:27:26.791+02:00
2022-06-30T09:28:12.732+02:00,3687.151330291667,-0.27490234375,-0.3968505859375,-1.076614379882812,3687.146354291667,-2.339085252770838,0.2365499360463117,0.0241789063878854,-2.942082643508911,1.487188935279846,-2.674979209899902,-0.5407386422157288,-0.3935786485671997,-0.09693360328674316,XArbitraryZVertical,0.1133077164354917,0.03503279752438505,-0.9135167108090131,0.3891290251476332,0.2342815399169922,-0.02417655102908611,-0.9718681573867798,0,0,0,-1,-1,3687.054152291667,unknown,2,2022-06-30T09:28:12.635+02:00,2022-06-30T08:20:05.567+02:00,1147,1.414602,0,0,894.856,0,0,2022-06-30T09:27:26.791+02:00
2022-06-30T09:28:12.743+02:00,3687.161281291667,-0.2515411376953125,-0.3258056640625,-1.070266723632812,3687.156305291667,-2.35842373667127,0.2521725597417361,-0.01167319638247823,-3.118381500244141,1.638211369514465,-2.831892251968384,-0.5243933200836182,-0.4085235893726349,-0.1083076000213623,XArbitraryZVertical,0.114021844563312,0.05334498544465714,-0.9172325858169542,0.3779389244686651,0.2494913935661316,0.01167293172329664,-0.9683066606521606,0,0,0,-1,-1,3687.054152291667,unknown,2,2022-06-30T09:28:12.635+02:00,2022-06-30T08:20:05.567+02:00,1147,1.414602,0,0,894.856,0,0,2022-06-30T09:27:26.791+02:00
2022-06-30T09:28:12.752+02:00,3687.171232291667,-0.22491455078125,-0.2309722900390625,-1.053253173828125,3687.166256291667,-2.377943658304409,0.268758915797576,-0.05008685286064022,-3.336014032363892,1.831762194633484,-2.941001415252686,-0.5167428255081177,-0.3758716583251953,-0.1073744893074036,XArbitraryZVertical,0.1150419028298316,0.0729335127943901,-0.920581938372724,0.3660259161677475,0.2652021050453186,0.05006591230630875,-0.9628921151161194,0,0,0,-1,-1,3687.054152291667,unknown,2,2022-06-30T09:28:12.635+02:00,2022-06-30T08:20:05.567+02:00,1147,1.414602,0,0,894.856,0,0,2022-06-30T09:27:26.791+02:00
2022-06-30T09:28:12.762+02:00,3687.181183291667,-0.179168701171875,-0.1265716552734375,-1.085235595703125,3687.176207291667,-2.397225082217116,0.2869072024544733,-0.09099059783060473,-3.498488187789917,2.097488403320312,-3.028681516647339,-0.5067306756973267,-0.3218374252319336,-0.09809708595275879,XArbitraryZVertical,0.1166676497112071,0.09386514004919036,-0.9233772618787036,0.3534860720086506,0.2818165421485901,0.09086509048938751,-0.9551559686660767,0,0,0,-1,-1,3687.054152291667,unknown,2,2022-06-30T09:28:12.635+02:00,2022-06-30T08:20:05.567+02:00,1147,1.414602,0,0,894.856,0,0,2022-06-30T09:27:26.791+02:00
2022-06-30T09:28:12.772+02:00,3687.191134291667,-0.11309814453125,-0.0012664794921875,-1.124832153320312,3687.186159291667,-2.41621779323561,0.307018193833807,-0.1335623983076653,-3.560387849807739,2.378206729888916,-3.09661340713501,-0.4786942601203918,-0.2597373425960541,-0.1404862403869629,XArbitraryZVertical,0.1192439740970114,0.1157854157551341,-0.9255129939885577,0.3402946069916148,0.2995260059833527,0.1331656575202942,-0.9447492361068726,0,0,0,-1,-1,3687.054152291667,unknown,2,2022-06-30T09:28:12.635+02:00,2022-06-30T08:20:05.567+02:00,1147,1.414602,0,0,894.856,0,0,2022-06-30T09:27:26.791+02:00
2022-06-30T09:28:12.782+02:00,3687.201085291667,-0.04498291015625,0.134918212890625,-1.113067626953125,3687.196110291667,-2.434863082509813,0.3290715334490321,-0.1768349679842982,-3.538443326950073,2.6336989402771,-3.139495372772217,-0.4312226474285126,-0.1771813184022903,-0.1932470202445984,XArbitraryZVertical,0.1229289113942015,0.1381882805186579,-0.9269323343476138,0.326479689926098,0.3181248903274536,0.1759147793054581,-0.9315849542617798,0,0,0,-1,-1,3687.054152291667,unknown,2,2022-06-30T09:28:12.635+02:00,2022-06-30T08:20:05.567+02:00,1147,1.414602,0,0,894.856,0,0,2022-06-30T09:27:26.791+02:00
2022-06-30T09:28:12.794+02:00,3687.211037291667,0.0065765380859375,0.2624359130859375,-1.093170166015625,3687.206061291667,-2.453293376679277,0.3526745289526923,-0.2201616986916992,-3.447943687438965,2.837417602539062,-3.197370290756226,-0.3820540010929108,-0.08346924185752869,-0.1972674131393433,XArbitraryZVertical,0.1276477111683363,0.1606425767688697,-0.9276576317974576,0.3120118737947911,0.3370715379714966,0.2183874249458313,-0.9158000349998474,0,0,0,-1,-1,3687.054152291667,unknown,2,2022-06-30T09:28:12.635+02:00,2022-06-30T08:20:05.567+02:00,1147,1.414602,0,0,894.856,0,0,2022-06-30T09:27:26.791+02:00
2022-06-30T09:28:12.803+02:00,3687.220988291667,0.0235137939453125,0.37164306640625,-1.124465942382812,3687.216012291667,-2.471938591949609,0.3771909686170248,-0.2628642841772313,-3.260072231292725,2.982985496520996,-3.262868404388428,-0.3490818440914154,0.002588361501693726,-0.1954026818275452,XArbitraryZVertical,0.1332395031167699,0.1826570220009361,-0.9277928267116373,0.2967897605470709,0.3556587696075439,0.2598475217819214,-0.8977673053741455,0,0,0,-1,-1,3687.054152291667,unknown,2,2022-06-30T09:28:12.635+02:00,2022-06-30T08:20:05.567+02:00,1147,1.414602,0,0,894.856,0,0,2022-06-30T09:27:26.791+02:00
2022-06-30T09:28:12.812+02:00,3687.230939291667,0.0117950439453125,0.464996337890625,-1.111541748046875,3687.225963291667,-2.491162726045115,0.402073482970882,-0.3039346028178126,-2.961990594863892,3.10495662689209,-3.294489145278931,-0.3498771190643311,0.07236629724502563,-0.2463926672935486,XArbitraryZVertical,0.1396428557286924,0.2036254729639609,-0.9274556395276538,0.2808249909227054,0.3733913600444794,0.2992767691612244,-0.8780730962753296,0,0,0,-1,-1,3687.054152291667,unknown,2,2022-06-30T09:28:12.635+02:00,2022-06-30T08:20:05.567+02:00,1147,1.414602,0,0,894.856,0,0,2022-06-30T09:27:26.791+02:00
2022-06-30T09:28:12.822+02:00,3687.240890291667,-0.0024566650390625,0.5680084228515625,-1.054702758789062,3687.235915291667,-2.510814806785105,0.4274736345215761,-0.3426980341370443,-2.672829389572144,3.266802072525024,-3.258636236190796,-0.3786708116531372,0.128966897726059,-0.2544416189193726,XArbitraryZVertical,0.1470109074214583,0.2232438708855048,-0.9266568179904788,0.264305050180545,0.3904662728309631,0.3360294699668884,-0.8570999503135681,0,0,0,-1,-1,3687.054152291667,unknown,2,2022-06-30T09:28:12.635+02:00,2022-06-30T08:20:05.567+02:00,1147,1.414602,0,0,894.856,0,0,2022-06-30T09:27:26.791+02:00
2022-06-30T09:28:12.832+02:00,3687.250841291667,0.0058135986328125,0.6444091796875,-0.9862823486328125,3687.245866291667,-2.52990606142193,0.4542060913640816,-0.379393229026104,-2.479335784912109,3.473307132720947,-3.122222661972046,-0.4100056290626526,0.1976515054702759,-0.2199934720993042,XArbitraryZVertical,0.1555382338827472,0.2417711782507628,-0.9252242629528071,0.2476182352614611,0.4075494110584259,0.3703569173812866,-0.834709107875824,0,0,0,-1,-1,3687.054152291667,unknown,2,2022-06-30T09:28:12.635+02:00,2022-06-30T08:20:05.567+02:00,1147,1.414602,0,0,894.856,0,0,2022-06-30T09:27:26.791+02:00
2022-06-30T09:28:12.842+02:00,3687.260793291667,0.039581298828125,0.681488037109375,-0.8951263427734375,3687.255817291667,-2.547453638292505,0.4830652979053288,-0.4143459413834055,-2.325094938278198,3.69323992729187,-2.947668313980103,-0.4193762242794037,0.2418178915977478,-0.1756443381309509,XArbitraryZVertical,0.165360464566148,0.2594938114368418,-0.9229907574888397,0.2310996007757649,0.4251901805400848,0.4025913178920746,-0.8106377720832825,0,0,0,-1,-1,3687.054152291667,unknown,2,2022-06-30T09:28:12.635+02:00,2022-06-30T08:20:05.567+02:00,1147,1.414602,0,0,894.856,0,0,2022-06-30T09:27:26.791+02:00
2022-06-30T09:28:12.852+02:00,3687.270744291667,0.095947265625,0.7105560302734375,-0.79803466796875,3687.265768291667,-2.5631645616483,0.5141756953031971,-0.4477864529227993,-2.213973760604858,3.877766609191895,-2.78363823890686,-0.4037462174892426,0.2485167682170868,-0.1102718114852905,XArbitraryZVertical,0.1763814828329232,0.276518412827292,-0.9199316932472105,0.2148321189036833,0.4433279037475586,0.4329712986946106,-0.7848542928695679,0,0,0,-1,-1,3687.054152291667,unknown,2,2022-06-30T09:28:12.635+02:00,2022-06-30T08:20:05.567+02:00,1147,1.414602,0,0,894.856,0,0,2022-06-30T09:27:26.791+02:00
2022-06-30T09:28:12.862+02:00,3687.280695291667,0.161102294921875,0.7543487548828125,-0.6793975830078125,3687.275719291667,-2.576891786555678,0.5472958119006712,-0.4801181078150172,-2.157438039779663,4.011202335357666,-2.630413293838501,-0.3655983209609985,0.2486721277236938,-0.04064512252807617,XArbitraryZVertical,0.1883234258384376,0.2929840084625166,-0.9160541662030401,0.198845442301602,0.4615459740161896,0.461883932352066,-0.7573893070220947,0,0,0,-1,-1,3687.054152291667,unknown,2,2022-06-30T09:28:12.635+02:00,2022-06-30T08:20:05.567+02:00,1147,1.414602,0,0,894.856,0,0,2022-06-30T09:27:26.791+02:00
2022-06-30T09:28:12.872+02:00,3687.290646291667,0.2200164794921875,0.8137054443359375,-0.593170166015625,3687.285670291667,-2.588267384695264,0.5822243626563347,-0.5119176769909064,-2.175814390182495,4.094314098358154,-2.486962795257568,-0.318289190530777,0.2644988000392914,0.04877197742462158,XArbitraryZVertical,0.2008642303469862,0.3091422816050541,-0.9113243894396518,0.183227774437201,0.4793918430805206,0.4898499846458435,-0.7281692028045654,0,0,0,-1,-1,3687.054152291667,unknown,2,2022-06-30T09:28:12.635+02:00,2022-06-30T08:20:05.567+02:00,1147,1.414602,0,0,894.856,0,0,2022-06-30T09:27:26.791+02:00
2022-06-30T09:28:12.882+02:00,3687.300597291667,0.26702880859375,0.886444091796875,-0.5036163330078125,3687.295622291667,-2.596859914004192,0.6188691653748627,-0.5435384724203632,-2.236470699310303,4.137649536132812,-2.332169771194458,-0.2764938473701477,0.2965377569198608,0.1039776802062988,XArbitraryZVertical,0.2137472123109791,0.3251743370201149,-0.9057132284560957,0.1680996240068012,0.4965107142925262,0.5171677470207214,-0.6971475481987,0,0,0,-1,-1,3687.054152291667,unknown,2,2022-06-30T09:28:12.635+02:00,2022-06-30T08:20:05.567+02:00,1147,1.414602,0,0,894.856,0,0,2022-06-30T09:27:26.791+02:00
2022-06-30T09:28:12.892+02:00,3687.310548291667,0.302825927734375,0.9566802978515625,-0.433837890625,3687.305573291667,-2.602106546098705,0.6573747760549867,-0.5750880449857345,-2.326174974441528,4.16257381439209,-2.159127712249756,-0.2457223534584045,0.3425354957580566,0.1606499552726746,XArbitraryZVertical,0.2268258159387579,0.3411994285416035,-0.8991839239901972,0.153627589743489,0.5127515196800232,0.5439086556434631,-0.6642659902572632,0,0,0,-1,-1,3687.054152291667,unknown,2,2022-06-30T09:28:12.635+02:00,2022-06-30T08:20:05.567+02:00,1147,1.414602,0,0,894.856,0,0,2022-06-30T09:27:26.791+02:00
2022-06-30T09:28:12.902+02:00,3687.320500291667,0.3263092041015625,1.016510009765625,-0.356536865234375,3687.315524291667,-2.603717584285474,0.6980162791041138,-0.6060993504150768,-2.353843450546265,4.194624900817871,-1.955954551696777,-0.2253929972648621,0.3870143890380859,0.195817232131958,XArbitraryZVertical,0.2401354327473524,0.3570820116183934,-0.8917670646814211,0.1399252153870708,0.5282192826271057,0.5696659684181213,-0.6296548247337341,0,0,0,-1,-1,3687.054152291667,unknown,2,2022-06-30T09:28:12.635+02:00,2022-06-30T08:20:05.567+02:00,1147,1.414602,0,0,894.856,0,0,2022-06-30T09:27:26.791+02:00
2022-06-30T09:28:12.913+02:00,3687.330451291667,0.35504150390625,1.079635620117188,-0.296966552734375,3687.325475291667,-2.60209509456449,0.7408339825454475,-0.6355250793189574,-2.258366107940674,4.222071170806885,-1.740739107131958,-0.2168259620666504,0.4229099154472351,0.2373008131980896,XArbitraryZVertical,0.2538303325510832,0.3723593598528123,-0.883628348561867,0.1269635758782119,0.5431355237960815,0.5936001539230347,-0.5938373208045959,0,0,0,-1,-1,3687.054152291667,unknown,2,2022-06-30T09:28:12.635+02:00,2022-06-30T08:20:05.567+02:00,1147,1.414602,0,0,894.856,0,0,2022-06-30T09:27:26.791+02:00
2022-06-30T09:28:12.922+02:00,3687.340402291667,0.3914642333984375,1.12249755859375,-0.214508056640625,3687.335426291667,-2.598136616022923,0.7853121611361964,-0.6625078695416077,-2.096229314804077,4.238454818725586,-1.54708206653595,-0.2024301290512085,0.4645395278930664,0.2606016397476196,XArbitraryZVertical,0.2679176810010889,0.3865697749832936,-0.8750136313763155,0.1146089456765261,0.5574719309806824,0.6150960922241211,-0.557567834854126,0,0,0,-1,-1,3687.054152291667,unknown,2,2022-06-30T09:28:12.635+02:00,2022-06-30T08:20:05.567+02:00,1147,1.414602,0,0,894.856,0,0,2022-06-30T09:27:26.791+02:00
2022-06-30T09:28:12.931+02:00,3687.350353291667,0.4482421875,1.126419067382812,-0.1526947021484375,3687.345378291667,-2.592734277180887,0.8308967619832663,-0.686755212872871,-1.879141688346863,4.243109226226807,-1.388977885246277,-0.1796510815620422,0.4884662628173828,0.3068668246269226,XArbitraryZVertical,0.2823425303226689,0.3994939771098639,-0.8661091589803567,0.1026757790616781,0.5711156129837036,0.6340312957763672,-0.521374523639679,0,0,0,-1,-1,3687.054152291667,unknown,2,2022-06-30T09:28:12.635+02:00,2022-06-30T08:20:05.567+02:00,1147,1.414602,0,0,894.856,0,0,2022-06-30T09:27:26.791+02:00
2022-06-30T09:28:12.941+02:00,3687.360304291667,0.5170440673828125,1.102935791015625,-0.13037109375,3687.355329291667,-2.587078132634709,0.8765063283670637,-0.7080299657218451,-1.578992486000061,4.192498207092285,-1.257489204406738,-0.1355505585670471,0.4760807156562805,0.3333568871021271,XArbitraryZVertical,0.2969202583836864,0.4108684131583424,-0.8571737171262102,0.09098857384299555,0.5837931632995605,0.6503385305404663,-0.4860510230064392,0,0,0,-1,-1,3687.054152291667,unknown,2,2022-06-30T09:28:12.635+02:00,2022-06-30T08:20:05.567+02:00,1147,1.414602,0,0,894.856,0,0,2022-06-30T09:27:26.791+02:00
2022-06-30T09:28:12.951+02:00,3687.370256291667,0.5699005126953125,1.08355712890625,-0.062530517578125,3687.365280291667,-2.582373583625716,0.9206990853402569,-0.7262120459939259,-1.278562784194946,4.065406799316406,-1.158845543861389,-0.07813972234725952,0.4388936758041382,0.3221821784973145,XArbitraryZVertical,0.3113477520472044,0.4204594337168694,-0.848505738035814,0.07946470279453109,0.5951840877532959,0.6640421748161316,-0.4525528848171234,0,0,0,-1,-1,3687.054152291667,unknown,2,2022-06-30T09:28:12.635+02:00,2022-06-30T08:20:05.567+02:00,1147,1.414602,0,0,894.856,0,0,2022-06-30T09:27:26.791+02:00
2022-06-30T09:28:12.961+02:00,3687.380207291667,0.623870849609375,1.058212280273438,0.050506591796875,3687.375231291667,-2.577691687245832,0.9635005262083527,-0.7422337001598794,-1.213754653930664,3.909489393234253,-1.022975206375122,-0.03528696298599243,0.407621443271637,0.3580155968666077,XArbitraryZVertical,0.3253216801617719,0.4288274125819342,-0.8399980209894864,0.06838248585882052,0.605187714099884,0.6759357452392578,-0.4205456972122192,0,0,0,-1,-1,3687.054152291667,unknown,2,2022-06-30T09:28:12.635+02:00,2022-06-30T08:20:05.567+02:00,1147,1.414602,0,0,894.856,0,0,2022-06-30T09:27:26.791+02:00
2022-06-30T09:28:12.972+02:00,3687.390158291667,0.6603240966796875,0.9899444580078125,0.1180572509765625,3687.385182291667,-2.570885329134331,1.006498209239168,-0.7566655394041808,-1.222858905792236,3.801967620849609,-0.832967221736908,0.009472966194152832,0.3717116713523865,0.4393923282623291,XArbitraryZVertical,0.338959860047065,0.4366503704057402,-0.8312958475275177,0.05822311368604247,0.6143981218338013,0.6865006685256958,-0.3888853490352631,0,0,0,-1,-1,3687.054152291667,unknown,2,2022-06-30T09:28:12.635+02:00,2022-06-30T08:20:05.567+02:00,1147,1.414602,0,0,894.856,0,0,2022-06-30T09:27:26.791+02:00
2022-06-30T09:28:12.981+02:00,3687.400109291667,0.677886962890625,0.8941650390625,0.1583251953125,3687.395134291667,-2.561840508245567,1.04987096845849,-0.769177660372599,-1.200636029243469,3.662938356399536,-0.6442796587944031,0.03714168071746826,0.2943997979164124,0.4756344258785248,XArbitraryZVertical,0.3523682660486681,0.4439011763737951,-0.8224217001209079,0.04910102118842114,0.6231825947761536,0.6955446600914001,-0.3575766980648041,0,0,0,-1,-1,3687.054152291667,unknown,2,2022-06-30T09:28:12.635+02:00,2022-06-30T08:20:05.567+02:00,1147,1.414602,0,0,894.856,0,0,2022-06-30T09:27:26.791+02:00
2022-06-30T09:28:12.991+02:00,3687.410060291667,0.6809844970703125,0.83343505859375,0.1710357666015625,3687.405085291667,-2.550961305218694,1.092981129980131,-0.7799160335474833,-1.221230745315552,3.463841676712036,-0.5024628639221191,0.04654216766357422,0.1909453868865967,0.485259473323822,XArbitraryZVertical,0.3653426668481098,0.4506193689765202,-0.813503546011493,0.04097685270731049,0.6313450336456299,0.7032197117805481,-0.3269338309764862,0,0,0,-1,-1,3687.054152291667,unknown,2,2022-06-30T09:28:12.635+02:00,2022-06-30T08:20:05.567+02:00,1147,1.414602,0,0,894.856,0,0,2022-06-30T09:27:26.791+02:00
2022-06-30T09:28:13.001+02:00,3687.420011291667,0.6915283203125,0.801116943359375,0.2343292236328125,3687.415036291667,-2.538049717109539,1.135570970579022,-0.7892450815385977,-1.260625243186951,3.274104595184326,-0.3664385080337524,0.04226922988891602,0.1236132979393005,0.4680137932300568,XArbitraryZVertical,0.3776643663800374,0.4570348355717598,-0.8045736375029733,0.0339119047146446,0.6387154459953308,0.7098217010498047,-0.2969775795936584,0,0,0,-1,-1,3687.054152291667,unknown,2,2022-06-30T09:28:12.635+02:00,2022-06-30T08:20:05.567+02:00,1147,1.414602,0,0,894.856,0,0,2022-06-30T09:27:26.791+02:00
2022-06-30T09:28:13.011+02:00,3687.429963291667,0.7235565185546875,0.8158721923828125,0.324310302734375,3687.424987291667,-2.522869490473078,1.178103721835817,-0.7970265807102953,-1.334456562995911,3.104727268218994,-0.198967769742012,0.04588586091995239,0.08583563566207886,0.5017586946487427,XArbitraryZVertical,0.3894992818018645,0.4632232573210441,-0.7955711225979449,0.02794969472955258,0.6456426382064819,0.7152813076972961,-0.2674290537834167,0,0,0,-1,-1,3687.054152291667,unknown,2,2022-06-30T09:28:12.635+02:00,2022-06-30T08:20:05.567+02:00,1147,1.414602,0,0,894.856,0,0,2022-06-30T09:27:26.791+02:00
2022-06-30T09:28:13.021+02:00,3687.439914291667,0.7622833251953125,0.84783935546875,0.4398651123046875,3687.434938291667,-2.505378489020076,1.220772469998854,-0.8029754353044496,-1.381724715232849,2.954604864120483,-0.03172140941023827,0.07110297679901123,0.09644627571105957,0.5624926090240479,XArbitraryZVertical,0.4009787211815739,0.46917496502217,-0.7864825372274108,0.02315573704852317,0.6524537205696106,0.7194259166717529,-0.2381818294525146,0,0,0,-1,-1,3687.054152291667,unknown,2,2022-06-30T09:28:12.635+02:00,2022-06-30T08:20:05.567+02:00,1147,1.414602,0,0,894.856,0,0,2022-06-30T09:27:26.791+02:00
2022-06-30T09:28:13.031+02:00,3687.449865291667,0.803314208984375,0.8665618896484375,0.55645751953125,3687.444889291667,-2.486335248424341,1.263102722020314,-0.8073469003619325,-1.422752857208252,2.799550533294678,0.04733186215162277,0.1033384203910828,0.1253841519355774,0.6492693424224854,XArbitraryZVertical,0.4120427816617342,0.4748882660361443,-0.7773868919777646,0.0192801666229596,0.6589451432228088,0.7224553227424622,-0.2094037681818008,0,0,0,-1,-1,3687.054152291667,unknown,2,2022-06-30T09:28:12.635+02:00,2022-06-30T08:20:05.567+02:00,1147,1.414602,0,0,894.856,0,0,2022-06-30T09:27:26.791+02:00
2022-06-30T09:28:13.041+02:00,3687.459816291667,0.860382080078125,0.861053466796875,0.685882568359375,3687.454841291667,-2.465632410516732,1.305010639256499,-0.8106870513667782,-1.530773162841797,2.607451677322388,0.1206749826669693,0.1385068893432617,0.1418011784553528,0.737436056137085,XArbitraryZVertical,0.4225177707553312,0.4806138750299964,-0.7682615275496121,0.01622840068019751,0.6648074984550476,0.7247607111930847,-0.180978074669838,0,0,0,-1,-1,3687.054152291667,unknown,2,2022-06-30T09:28:12.635+02:00,2022-06-30T08:20:05.567+02:00,1147,1.414602,0,0,894.856,0,0,2022-06-30T09:27:26.791+02:00
2022-06-30T09:28:13.051+02:00,3687.469767291667,0.9149017333984375,0.815826416015625,0.7963714599609375,3687.464792291667,-2.443346032403299,1.346143725137391,-0.8129205293949829,-1.549130916595459,2.407016515731812,0.1953449696302414,0.1902748346328735,0.1347556114196777,0.839009165763855,XArbitraryZVertical,0.4323098417048915,0.4863590732252687,-0.7591868590211415,0.01408370813223807,0.670107364654541,0.7262977957725525,-0.1531261056661606,0,0,0,-1,-1,3687.054152291667,unknown,2,2022-06-30T09:28:12.635+02:00,2022-06-30T08:20:05.567+02:00,1147,1.414602,0,0,894.856,0,0,2022-06-30T09:27:26.791+02:00
2022-06-30T09:28:13.061+02:00,3687.479719291667,0.94677734375,0.7987213134765625,0.883544921875,3687.474743291667,-2.421754728952001,1.384333405109683,-0.8136380614869506,-1.39262318611145,2.107300758361816,0.2719354927539825,0.2399488687515259,0.08903557062149048,0.9237048029899597,XArbitraryZVertical,0.4412741261491864,0.4915391239333737,-0.7506704613545863,0.01266445030823295,0.6749530434608459,0.7267907857894897,-0.127332866191864,0,0,0,-1,-1,3687.054152291667,unknown,2,2022-06-30T09:28:12.635+02:00,2022-06-30T08:20:05.567+02:00,1147,1.414602,0,0,894.856,0,0,2022-06-30T09:27:26.791+02:00
2022-06-30T09:28:13.071+02:00,3687.489670291667,0.95013427734375,0.831298828125,1.020858764648438,3687.484694291667,-2.402650564536108,1.417551287808881,-0.8127628908420415,-1.185666561126709,1.789898633956909,0.3514921069145203,0.2673394680023193,0.07253187894821167,0.9884886741638184,XArbitraryZVertical,0.4491785424397944,0.4957489178378688,-0.7431893424748797,0.01188971327054787,0.679438054561615,0.7261894345283508,-0.1049432978034019,0,0,0,-1,-1,3687.054152291667,unknown,2,2022-06-30T09:28:12.635+02:00,2022-06-30T08:20:05.567+02:00,1147,1.414602,0,0,894.856,0,0,2022-06-30T09:27:26.791+02:00
2022-06-30T09:28:13.081+02:00,3687.499621291667,0.97137451171875,0.86688232421875,1.178512573242188,3687.494645291667,-2.386321188563683,1.44587584501332,-0.8103929719999509,-0.9831080436706543,1.530225872993469,0.440613180398941,0.2662912011146545,0.1067407727241516,1.106732368469238,XArbitraryZVertical,0.4561832155032065,0.4989592027338161,-0.7367497530109309,0.01168178308029037,0.683843195438385,0.7245580554008484,-0.08587317913770676,0,0,0,-1,-1,3687.054152291667,unknown,2,2022-06-30T09:28:12.635+02:00,2022-06-30T08:20:05.567+02:00,1147,1.414602,0,0,894.856,0,0,2022-06-30T09:27:26.791+02:00
2022-06-30T09:28:13.091+02:00,3687.509572291667,1.023834228515625,0.8714447021484375,1.33636474609375,3687.504597291667,-2.373395824111786,1.469072061741045,-0.8065237185015167,-0.7106339335441589,1.245630025863647,0.5367841720581055,0.2829397320747375,0.1449964642524719,1.248786211013794,XArbitraryZVertical,0.4624297509784418,0.5010211315730988,-0.7314329833323064,0.01193786701058362,0.6884350180625916,0.7218859195709229,-0.07027310132980347,0,0,0,-1,-1,3687.054152291667,unknown,2,2022-06-30T09:28:12.635+02:00,2022-06-30T08:20:05.567+02:00,1147,1.414602,0,0,894.856,0,0,2022-06-30T09:27:26.791+02:00
2022-06-30T09:28:13.100+02:00,3687.519523291667,1.08306884765625,0.837310791015625,1.613388061523438,3687.514548291667,-2.36396619404762,1.486442150152646,-0.8011801991081996,-0.524593710899353,0.8743704557418823,0.6602211594581604,0.3304488658905029,0.1532669067382812,1.394994258880615,XArbitraryZVertical,0.4677376926874518,0.5019032810835561,-0.7274267475466901,0.01284683607634344,0.6933855414390564,0.718177855014801,-0.05862909555435181,0,0,0,-1,-1,3687.054152291667,unknown,2,2022-06-30T09:28:12.635+02:00,2022-06-30T08:20:05.567+02:00,1147,1.414602,0,0,894.856,0,0,2022-06-30T09:27:26.791+02:00
2022-06-30T09:28:13.110+02:00,3687.529474291667,1.139007568359375,0.794281005859375,1.94830322265625,3687.524499291667,-2.355243042176179,1.499143638066431,-0.7944592131032782,-0.6517508625984192,0.4141743183135986,0.7759584188461304,0.3841959834098816,0.1238260269165039,1.663550615310669,XArbitraryZVertical,0.4718439240389063,0.5022771239690063,-0.724466772078674,0.01513358221946473,0.698872983455658,0.7134848237037659,-0.05016200244426727,0,0,0,-1,-1,3687.054152291667,unknown,2,2022-06-30T09:28:12.635+02:00,2022-06-30T08:20:05.567+02:00,1147,1.414602,0,0,894.856,0,0,2022-06-30T09:27:26.791+02:00
2022-06-30T09:28:13.120+02:00,3687.539426291667,1.175811767578125,0.741363525390625,2.280471801757812,3687.534450291667,-2.341829152773001,1.510097872560188,-0.7869958210304532,-1.187315821647644,-0.1339542716741562,0.8350632786750793,0.4343314170837402,0.08604544401168823,1.991129040718079,XArbitraryZVertical,0.4743085015951842,0.5036057599617429,-0.7218175773773559,0.01980502811000983,0.7046762704849243,0.7082356214523315,-0.0428253673017025,0,0,0,-1,-1,3687.054152291667,unknown,2,2022-06-30T09:28:12.635+02:00,2022-06-30T08:20:05.567+02:00,1147,1.414602,0,0,894.856,0,0,2022-06-30T09:27:26.791+02:00
2022-06-30T09:28:13.130+02:00,3687.549377291667,1.157562255859375,0.705291748046875,2.583099365234375,3687.544401291667,-2.318877460809846,1.521940024421931,-0.7797798274001467,-2.033675670623779,-0.7293629050254822,0.7745422124862671,0.4655918478965759,0.03824067115783691,2.315198659896851,XArbitraryZVertical,0.4745984079191674,0.507339304416261,-0.7187508073580826,0.02757930747014583,0.7102200984954834,0.7031228542327881,-0.03472636267542839,0,0,0,-1,-1,3687.054152291667,unknown,2,2022-06-30T09:28:12.635+02:00,2022-06-30T08:20:05.567+02:00,1147,1.414602,0,0,894.856,0,0,2022-06-30T09:27:26.791+02:00
2022-06-30T09:28:13.140+02:00,3687.559328291667,1.146621704101562,0.7551422119140625,2.797317504882812,3687.554352291667,-2.283295689722679,1.537047567530557,-0.7736587589704855,-3.023722410202026,-1.243991851806641,0.6672210097312927,0.4426107406616211,0.006534457206726074,2.607237815856934,XArbitraryZVertical,0.4724890339645498,0.5144756212494702,-0.7145480617864105,0.03860182767919286,0.7149516344070435,0.6987572312355042,-0.02413789555430412,0,0,0,-1,-1,3687.054152291667,unknown,2,2022-06-30T09:28:12.635+02:00,2022-06-30T08:20:05.567+02:00,1147,1.414602,0,0,894.856,0,0,2022-06-30T09:27:26.791+02:00
2022-06-30T09:28:13.150+02:00,3687.56928,1.182357788085938,0.8821563720703125,2.843048095703125,3687.564305,-2.234144432229595,1.555496981948448,-0.7683497736915612,-4.00955057144165,-1.968333005905151,0.5790134072303772,0.4276475310325623,0.0601925253868103,2.808318614959717,XArbitraryZVertical,0.4676628802332541,0.5251581511670415,-0.7089954483785247,0.05315784467510042,0.718974232673645,0.6949495673179626,-0.01100069377571344,0,0,0,-1,-1,3687.054152291667,unknown,2,2022-06-30T09:28:12.635+02:00,2022-06-30T08:20:05.567+02:00,1147,1.414602,0,0,894.856,0,0,2022-06-30T09:27:26.791+02:00
2022-06-30T09:28:13.160+02:00,3687.579231,1.168380737304688,1.004364013671875,2.803253173828125,3687.574256,-2.174243590682492,1.572246390232856,-0.76317600605852,-4.596138477325439,-3.048280715942383,0.5158745646476746,0.4597141742706299,0.190936267375946,2.842000722885132,XArbitraryZVertical,0.459026365206813,0.5383481550602733,-0.7030928184711371,0.07167060334971447,0.7226437330245972,0.6912200450897217,0.001047880039550364,0,0,0,-1,-1,3687.054152291667,unknown,2,2022-06-30T09:28:12.635+02:00,2022-06-30T08:20:05.567+02:00,1147,1.414602,0,0,894.856,0,0,2022-06-30T09:27:26.791+02:00
2022-06-30T09:28:13.170+02:00,3687.589183,1.069305419921875,1.1199951171875,2.71014404296875,3687.584207,-2.109336190359952,1.580074991037842,-0.7580568335866666,-4.864729404449463,-4.395509243011475,0.4571904540061951,0.4422388076782227,0.3168522119522095,2.796515941619873,XArbitraryZVertical,0.4454671105018393,0.5522028291888521,-0.6984125370200647,0.09407999763903378,0.7261421084403992,0.687511682510376,0.006737822201102972,0,0,0,-1,-1,3687.054152291667,unknown,2,2022-06-30T09:28:12.635+02:00,2022-06-30T08:20:05.567+02:00,1147,1.414602,0,0,894.856,0,0,2022-06-30T09:27:26.791+02:00
2022-06-30T09:28:13.180+02:00,3687.599134,0.9016265869140625,1.085311889648438,2.593368530273438,3687.594158,-2.041769097837736,1.575635829087679,-0.7533700752230399,-4.994554996490479,-5.807449340820312,0.3954237103462219,0.339926540851593,0.435894250869751,2.70661449432373,XArbitraryZVertical,0.4263431885714387,0.5656822564262346,-0.6954944560280441,0.1205097420661571,0.7293791174888611,0.6841007471084595,0.003529859241098166,0,0,0,-1,-1,3687.054152291667,unknown,2,2022-06-30T09:28:12.635+02:00,2022-06-30T08:20:05.567+02:00,1147,1.414602,0,0,894.856,0,0,2022-06-30T09:27:26.791+02:00
2022-06-30T09:28:13.190+02:00,3687.609085,0.7224273681640625,1.005874633789062,2.534317016601562,3687.604109,-1.974200999539223,1.55706655116906,-0.7504735333159896,-4.884628295898438,-7.184260845184326,0.2163064032793045,0.1703295111656189,0.403326690196991,2.603410005569458,XArbitraryZVertical,0.4013992136987467,0.5778045357110788,-0.6945706104420362,0.1503078872709151,0.7312973737716675,0.6819851398468018,-0.01004117913544178,0,0,0,-1,-1,3687.054152291667,unknown,2,2022-06-30T09:28:12.635+02:00,2022-06-30T08:20:05.567+02:00,1147,1.414602,0,0,894.856,0,0,2022-06-30T09:27:26.791+02:00
2022-06-30T09:28:13.200+02:00,3687.619036,0.515472412109375,1.079513549804688,2.476348876953125,3687.614061,-1.908064758084594,1.523619095181105,-0.7509293528648604,-4.921036720275879,-8.621803283691406,-0.02338971197605133,-0.007814168930053711,0.3235560655593872,2.568793773651123,XArbitraryZVertical,0.3703613513951872,0.5878726780008563,-0.6955497463981026,0.1828901976111323,0.7302417755126953,0.6823184490203857,-0.03447636589407921,0,0,0,-1,-1,3687.054152291667,unknown,2,2022-06-30T09:28:12.635+02:00,2022-06-30T08:20:05.567+02:00,1147,1.414602,0,0,894.856,0,0,2022-06-30T09:27:26.791+02:00
2022-06-30T09:28:13.210+02:00,3687.628987,0.15869140625,1.225799560546875,2.197860717773438,3687.624012,-1.837388633215623,1.478835709873176,-0.7558304788515403,-5.517817974090576,-10.06936645507812,-0.2388146817684174,-0.2091547250747681,0.3936200737953186,2.543174982070923,XArbitraryZVertical,0.3323492401756087,0.5967672515066111,-0.6967058004639487,0.2191206527862047,0.7246273756027222,0.6858932375907898,-0.06682565808296204,0,0,0,-1,-1,3687.054152291667,unknown,2,2022-06-30T09:28:12.635+02:00,2022-06-30T08:20:05.567+02:00,1147,1.414602,0,0,894.856,0,0,2022-06-30T09:27:26.791+02:00
2022-06-30T09:28:13.220+02:00,3687.638938,-0.44219970703125,1.425247192382812,1.277099609375,3687.633963,-1.761275357117029,1.425970170939463,-0.7661468898398638,-5.595579147338867,-10.97904682159424,-0.5244271755218506,-0.5543522238731384,0.5324355363845825,2.301856517791748,XArbitraryZVertical,0.2878422584303877,0.6042756577229838,-0.6966785676549849,0.2581412319038648,0.7130439877510071,0.6933639049530029,-0.1039955243468285,0,0,0,-1,-1,3687.054152291667,unknown,2,2022-06-30T09:28:12.635+02:00,2022-06-30T08:20:05.567+02:00,1147,1.414602,0,0,894.856,0,0,2022-06-30T09:27:26.791+02:00
2022-06-30T09:28:13.230+02:00,3687.64889,-1.362442016601562,1.942138671875,0.2230072021484375,3687.643914,-1.693624934012991,1.365301492596525,-0.7813304348770262,-4.353517055511475,-10.50026607513428,-0.7639739513397217,-1.13723886013031,0.7210223078727722,1.421971917152405,XArbitraryZVertical,0.2412986392106427,0.6077326437091785,-0.6966119223472141,0.2952420084428016,0.6950394511222839,0.7042246460914612,-0.1448719948530197,0,0,0,-1,-1,3687.054152291667,unknown,2,2022-06-30T09:28:12.635+02:00,2022-06-30T08:20:05.567+02:00,1147,1.414602,0,0,894.856,0,0,2022-06-30T09:27:26.791+02:00
2022-06-30T09:28:13.240+02:00,3687.658841,-2.167510986328125,2.6912841796875,-0.141632080078125,3687.653865,-1.650250283357237,1.299521365628047,-0.7965779353844703,-2.317116260528564,-8.865229606628418,-0.7752836346626282,-2.036031007766724,1.227170705795288,0.4103537201881409,XArbitraryZVertical,0.200143570059304,0.6052019800301262,-0.6983471560660535,0.3255524104264972,0.673589289188385,0.7149677276611328,-0.1873462349176407,0,0,0,-1,-1,3687.054152291667,unknown,2,2022-06-30T09:28:12.635+02:00,2022-06-30T08:20:05.567+02:00,1147,1.414602,0,0,894.856,0,0,2022-06-30T09:27:26.791+02:00
2022-06-30T09:28:13.250+02:00,3687.668792,-1.984146118164062,3.083999633789062,-0.9127960205078125,3687.663816,-1.637955947119754,1.224288954055765,-0.8077276080190785,0.05859590694308281,-8.266536712646484,-0.8394743204116821,-2.817574977874756,1.968565464019775,0.09309041500091553,XArbitraryZVertical,0.1663109991084054,0.5958015616516504,-0.7039400892739414,0.3490409973923668,0.6500642895698547,0.7227184772491455,-0.234722301363945,0,0,0,-1,-1,3687.054152291667,unknown,2,2022-06-30T09:28:12.635+02:00,2022-06-30T08:20:05.567+02:00,1147,1.414602,0,0,894.856,0,0,2022-06-30T09:27:26.791+02:00
2022-06-30T09:28:13.260+02:00,3687.678743,-7.878799438476562,5.02825927734375,-8.304656982421875,3687.673768,-1.655993138134999,1.13349624495016,-0.8088688010335952,1.770531415939331,-5.905721187591553,-0.08762878924608231,-2.609503269195557,2.360492706298828,-0.6204497814178467,XArbitraryZVertical,0.1390256204685058,0.5783587448053131,-0.7141727648768406,0.3689585278311114,0.6253573894500732,0.7235067486763,-0.2923460900783539,0,0,0,-1,-1,3687.054152291667,unknown,2,2022-06-30T09:28:12.635+02:00,2022-06-30T08:20:05.567+02:00,1147,1.414602,0,0,894.856,0,0,2022-06-30T09:27:26.791+02:00
2022-06-30T09:28:13.270+02:00,3687.688694,-6.677780151367188,4.9932861328125,-18.54745483398438,3687.683719,-1.633193404244445,1.228988985895121,-0.8144164533245924,-4.672123908996582,-1.29781699180603,-3.609430074691772,-8.525390625,4.300933837890625,-8.074618339538574,XArbitraryZVertical,0.1642699283301898,0.5983276337292801,-0.7031449651278435,0.3472847677310902,0.6465913057327271,0.7273252606391907,-0.2300388664007187,0,0,0,-1,-1,3687.054152291667,unknown,2,2022-06-30T09:28:12.635+02:00,2022-06-30T08:20:05.567+02:00,1147,1.414602,0,0,894.856,0,0,2022-06-30T09:27:26.791+02:00
2022-06-30T09:28:13.280+02:00,3687.698646,3.04876708984375,-1.602813720703125,1.752914428710938,3687.69367,-1.609521409340734,1.306568561942787,-0.8302742647708491,2.232285976409912,8.755558967590332,0.3763576447963715,-7.329038143157959,4.25516939163208,-18.37125396728516,XArbitraryZVertical,0.1787759248176137,0.6163919252201358,-0.693613216471754,0.3271098550834788,0.6512584090232849,0.738116443157196,-0.1762003302574158,0,0,0,-1,-1,3687.054152291667,unknown,2,2022-06-30T09:28:12.635+02:00,2022-06-30T08:20:05.567+02:00,1147,1.414602,0,0,894.856,0,0,2022-06-30T09:27:26.791+02:00
2022-06-30T09:28:13.294+02:00,3687.708597,0.815765380859375,1.002487182617188,5.502151489257812,3687.703621,-1.652206723452601,1.269778594761602,-0.7859665386211462,3.905585050582886,-6.448307037353516,7.012345314025879,2.373839616775513,-2.310322523117065,1.962447166442871,XArbitraryZVertical,0.1938868795369079,0.5980314546497995,-0.7008157141220726,0.3370808620563618,0.674927830696106,0.7075085639953613,-0.2095325142145157,0,0,0,-1,-1,3687.054152291667,unknown,2,2022-06-30T09:28:12.635+02:00,2022-06-30T08:20:05.567+02:00,1147,1.414602,0,0,894.856,0,0,2022-06-30T09:27:26.791+02:00
2022-06-30T09:28:13.304+02:00,3687.718548,0.37713623046875,1.201187133789062,2.270980834960938,3687.713572,-1.652913516272578,1.256915144081046,-0.7188974795995241,-0.8987022638320923,2.011785268783569,5.439304351806641,0.1000004410743713,0.3439314961433411,5.734498023986816,XArbitraryZVertical,0.2120056582824971,0.5821344350862789,-0.6970773271791348,0.3609102774651074,0.7157652974128723,0.6585553884506226,-0.2323462069034576,0,0,0,-1,-1,3687.054152291667,unknown,2,2022-06-30T09:28:12.635+02:00,2022-06-30T08:20:05.567+02:00,1147,1.414602,0,0,894.856,0,0,2022-06-30T09:27:26.791+02:00
2022-06-30T09:28:13.310+02:00,3687.728499,0.981658935546875,-0.430145263671875,-0.691619873046875,3687.723524,-1.599022058953944,1.325812771765321,-0.7011958685577115,-4.566035270690918,2.982284307479858,1.603132247924805,-0.3641206026077271,0.5560550689697266,2.456299304962158,XArbitraryZVertical,0.2257103652171324,0.5969889128190565,-0.6781125537303359,0.364448205973702,0.7412571310997009,0.6451318860054016,-0.1853181421756744,0,0,0,-1,-1,3687.054152291667,unknown,2,2022-06-30T09:28:12.635+02:00,2022-06-30T08:20:05.567+02:00,1147,1.414602,0,0,894.856,0,0,2022-06-30T09:27:26.791+02:00
2022-06-30T09:28:13.320+02:00,3687.73845,0.9692840576171875,-0.834259033203125,-0.4459991455078125,3687.733475,-1.568123059000866,1.361563745831938,-0.7022076733466357,0.3605722188949585,-0.5080636143684387,0.1647402495145798,0.2348907589912415,-1.076050162315369,-0.5330505967140198,XArbitraryZVertical,0.2281062321436224,0.6071927473599711,-0.668541051484228,0.363782077128485,0.7467684149742126,0.6459046602249146,-0.1585690230131149,0,0,0,-1,-1,3687.054152291667,unknown,2,2022-06-30T09:28:12.635+02:00,2022-06-30T08:20:05.567+02:00,1147,1.414602,0,0,894.856,0,0,2022-06-30T09:27:26.791+02:00
2022-06-30T09:28:13.329+02:00,3687.748402,0.6588134765625,1.020919799804688,0.0324554443359375,3687.743426,-1.601703832147859,1.320527159695067,-0.7002107767587007,4.072381496429443,-3.483203411102295,-0.3244683146476746,0.228401780128479,-1.478638172149658,-0.2566080689430237,XArbitraryZVertical,0.2250452543904379,0.5955327190787939,-0.6790952336747493,0.3654109005978686,0.7408826351165771,0.6443789005279541,-0.1893908232450485,0,0,0,-1,-1,3687.054152291667,unknown,2,2022-06-30T09:28:12.635+02:00,2022-06-30T08:20:05.567+02:00,1147,1.414602,0,0,894.856,0,0,2022-06-30T09:27:26.791+02:00
2022-06-30T09:28:13.339+02:00,3687.758353,0.001556396484375,2.113067626953125,-1.249832153320312,3687.753377,-1.638939753004662,1.25581150019918,-0.6954070667973795,1.260011076927185,-3.930534362792969,0.1729617118835449,-0.07120460271835327,0.380221426486969,0.2703195214271545,XArbitraryZVertical,0.2153825529448457,0.5785140037095325,-0.6926399735456308,0.3730706378648644,0.7300183176994324,0.6406980156898499,-0.2378638088703156,0,0,0,-1,-1,3687.054152291667,unknown,2,2022-06-30T09:28:12.635+02:00,2022-06-30T08:20:05.567+02:00,1147,1.414602,0,0,894.856,0,0,2022-06-30T09:27:26.791+02:00
2022-06-30T09:28:13.349+02:00,3687.768304,-0.7874755859375,0.8948974609375,-1.313705444335938,3687.763328,-1.645243554822234,1.222337693256546,-0.6871221497839923,0.9296861886978149,-1.960698843002319,1.009490728378296,-0.7250563502311707,1.478752374649048,-0.9858658909797668,XArbitraryZVertical,0.2083244070614159,0.5697525327772267,-0.6966713759222741,0.3829257101257129,0.7266131043434143,0.634315013885498,-0.2639659941196442,0,0,0,-1,-1,3687.054152291667,unknown,2,2022-06-30T09:28:12.635+02:00,2022-06-30T08:20:05.567+02:00,1147,1.414602,0,0,894.856,0,0,2022-06-30T09:27:26.791+02:00
2022-06-30T09:28:13.359+02:00,3687.778255,-0.4091949462890625,-0.057403564453125,-1.10205078125,3687.773279,-1.668640199610792,1.195628369507013,-0.6717580573116553,3.778707981109619,-0.3399364352226257,0.427509218454361,-1.515762090682983,0.272534191608429,-1.026890754699707,XArbitraryZVertical,0.210681915458988,0.5587539265662202,-0.702740825000773,0.3867331475116478,0.7282869219779968,0.6223630309104919,-0.2868143618106842,0,0,0,-1,-1,3687.054152291667,unknown,2,2022-06-30T09:28:12.635+02:00,2022-06-30T08:20:05.567+02:00,1147,1.414602,0,0,894.856,0,0,2022-06-30T09:27:26.791+02:00
2022-06-30T09:28:13.369+02:00,3687.788206,0.209503173828125,0.0958404541015625,-0.4370269775390625,3687.783231,-1.721063434579139,1.164747536887666,-0.6549095626344457,4.596844673156738,0.7434199452400208,-0.3976914584636688,-1.1378093957901,-0.6664912700653076,-0.7887886762619019,XArbitraryZVertical,0.2197051960766419,0.5432298832962723,-0.7149085857136834,0.38149278781284,0.7286148071289062,0.6090875267982483,-0.3132618367671967,0,0,0,-1,-1,3687.054152291667,unknown,2,2022-06-30T09:28:12.635+02:00,2022-06-30T08:20:05.567+02:00,1147,1.414602,0,0,894.856,0,0,2022-06-30T09:27:26.791+02:00
2022-06-30T09:28:13.379+02:00,3687.798157,0.6515045166015625,0.1511688232421875,-0.20263671875,3687.793182,-1.76219310628584,1.146613002628549,-0.6442197550575337,2.146398305892944,0.6706728935241699,-0.2514056861400604,-0.5192035436630249,-0.5047345757484436,-0.1079429686069489,XArbitraryZVertical,0.2276895044671378,0.5325557363648132,-0.7240225152767071,0.3746108673494414,0.7287070155143738,0.600574791431427,-0.3290837407112122,0,0,0,-1,-1,3687.054152291667,unknown,2,2022-06-30T09:28:12.635+02:00,2022-06-30T08:20:05.567+02:00,1147,1.414602,0,0,894.856,0,0,2022-06-30T09:27:26.791+02:00
2022-06-30T09:28:13.389+02:00,3687.808109,0.6825714111328125,0.0060272216796875,-0.4766082763671875,3687.803133,-1.776689412289027,1.142097324378286,-0.6396677478515401,0.6647091507911682,0.2428019791841507,-0.0059629175812006,-0.07818758487701416,-0.4457603096961975,0.1308675110340118,XArbitraryZVertical,0.2313493671875846,0.5288908150317425,-0.726972188731364,0.3718378799405987,0.7296923995018005,0.5969288945198059,-0.3335039615631104,0,0,0,-1,-1,3687.054152291667,unknown,2,2022-06-30T09:28:12.635+02:00,2022-06-30T08:20:05.567+02:00,1147,1.414602,0,0,894.856,0,0,2022-06-30T09:27:26.791+02:00
2022-06-30T09:28:13.399+02:00,3687.81806,0.425933837890625,0.131011962890625,-0.35870361328125,3687.813084,-1.787235794702952,1.135780600559182,-0.637583828313409,1.220654249191284,-0.1361053884029388,-0.4394026696681976,-0.04612594842910767,-0.5892287492752075,-0.1379780471324921,XArbitraryZVertical,0.2324914545772383,0.5259588671502967,-0.729540154774683,0.3702513023447283,0.7286975979804993,0.5952556729316711,-0.3386299908161163,0,0,0,-1,-1,3687.054152291667,unknown,2,2022-06-30T09:28:12.635+02:00,2022-06-30T08:20:05.567+02:00,1147,1.414602,0,0,894.856,0,0,2022-06-30T09:27:26.791+02:00
2022-06-30T09:28:13.409+02:00,3687.828011,0.2364654541015625,0.5340118408203125,0.078369140625,3687.823035,-1.809294530442005,1.11991789398351,-0.6369004915080309,1.933298826217651,-0.3530049324035645,-0.971235454082489,-0.2976664900779724,-0.46369469165802,-0.00838005542755127,XArbitraryZVertical,0.2326669859536706,0.520292654327379,-0.7354109556374697,0.36651388559249,0.7236006855964661,0.5947064757347107,-0.3503232598304749,0,0,0,-1,-1,3687.054152291667,unknown,2,2022-06-30T09:28:12.635+02:00,2022-06-30T08:20:05.567+02:00,1147,1.414602,0,0,894.856,0,0,2022-06-30T09:27:26.791+02:00
2022-06-30T09:28:13.419+02:00,3687.837962,0.0865478515625,0.7666015625,0.0290985107421875,3687.832987,-1.835217955674507,1.100085044317966,-0.6385365690408069,1.582424163818359,-0.4743610918521881,-1.171989917755127,-0.4791769981384277,-0.06200933456420898,0.4425321221351624,XArbitraryZVertical,0.2315314316099318,0.5141126627624184,-0.7425103291446398,0.3616073489346637,0.7156428098678589,0.5960209965705872,-0.3641627430915833,0,0,0,-1,-1,3687.054152291667,unknown,2,2022-06-30T09:28:12.635+02:00,2022-06-30T08:20:05.567+02:00,1147,1.414602,0,0,894.856,0,0,2022-06-30T09:27:26.791+02:00
2022-06-30T09:28:13.429+02:00,3687.847913,-0.0496673583984375,0.5825042724609375,-0.2301788330078125,3687.842938,-1.857637078764179,1.082557599584733,-0.6423917858351348,1.362352013587952,-0.3003336489200592,-1.201635956764221,-0.6205675601959229,0.167489230632782,0.4046676754951477,XArbitraryZVertical,0.2295391375578393,0.5094382516211858,-0.7487157484201531,0.3566640372935413,0.7071157693862915,0.5991121530532837,-0.3755688965320587,0,0,0,-1,-1,3687.054152291667,unknown,2,2022-06-30T09:28:12.635+02:00,2022-06-30T08:20:05.567+02:00,1147,1.414602,0,0,894.856,0,0,2022-06-30T09:27:26.791+02:00
2022-06-30T09:28:13.439+02:00,3687.857864,-0.0682220458984375,0.33233642578125,-0.391876220703125,3687.852889,-1.881836199208196,1.06678583900511,-0.6460628039465974,1.732191443443298,0.0805414617061615,-1.325801372528076,-0.7488411068916321,-0.01954329013824463,0.1554308533668518,XArbitraryZVertical,0.2286191302369836,0.5049045187823709,-0.7549286195919011,0.3505532485761899,0.6991741061210632,0.6020473837852478,-0.3856094479560852,0,0,0,-1,-1,3687.054152291667,unknown,2,2022-06-30T09:28:12.635+02:00,2022-06-30T08:20:05.567+02:00,1147,1.414602,0,0,894.856,0,0,2022-06-30T09:27:26.791+02:00
2022-06-30T09:28:13.449+02:00,3687.867816,0.0520477294921875,0.2835540771484375,-0.384185791015625,3687.86284,-1.910573772962683,1.052043618118684,-0.6492817270664456,1.894921541213989,0.4248612821102142,-1.489307403564453,-0.75994873046875,-0.2722781896591187,0.00303572416305542,XArbitraryZVertical,0.2292707386138841,0.4999790850249497,-0.7616860788506632,0.3424767030503321,0.6917270421981812,0.6046144366264343,-0.3949116766452789,0,0,0,-1,-1,3687.054152291667,unknown,2,2022-06-30T09:28:12.635+02:00,2022-06-30T08:20:05.567+02:00,1147,1.414602,0,0,894.856,0,0,2022-06-30T09:27:26.791+02:00
2022-06-30T09:28:13.459+02:00,3687.877767,0.2339324951171875,0.36505126953125,-0.376007080078125,3687.872791,-1.939011135949511,1.039652003847496,-0.653791541254643,1.541056632995605,0.5142006278038025,-1.559181332588196,-0.6323743462562561,-0.3246464729309082,0.01788198947906494,XArbitraryZVertical,0.230258426597983,0.4959307296890618,-0.7680120241126149,0.3334537985564791,0.6844224333763123,0.6082004308700562,-0.4020675420761108,0,0,0,-1,-1,3687.054152291667,unknown,2,2022-06-30T09:28:12.635+02:00,2022-06-30T08:20:05.567+02:00,1147,1.414602,0,0,894.856,0,0,2022-06-30T09:27:26.791+02:00
2022-06-30T09:28:13.471+02:00,3687.887718,0.3502960205078125,0.4766845703125,-0.475738525390625,3687.882742,-1.963819492381178,1.028881139779544,-0.6604563313426061,1.206431031227112,0.3465529978275299,-1.613037467002869,-0.4426315426826477,-0.2484261989593506,0.03130930662155151,XArbitraryZVertical,0.2302655795267995,0.4932744799435768,-0.7734345134846408,0.3247418237390665,0.6765643954277039,0.6134772896766663,-0.4073160886764526,0,0,0,-1,-1,3687.054152291667,unknown,2,2022-06-30T09:28:12.635+02:00,2022-06-30T08:20:05.567+02:00,1147,1.414602,0,0,894.856,0,0,2022-06-30T09:27:26.791+02:00
2022-06-30T09:28:13.481+02:00,3687.897669,0.3664093017578125,0.629913330078125,-0.55657958984375,3687.892694,-1.987566140723314,1.016593344289926,-0.6684950434007332,1.184462904930115,0.1407036483287811,-1.723507881164551,-0.3169969916343689,-0.1431212425231934,-0.06274831295013428,XArbitraryZVertical,0.2289808989972322,0.4909916344367999,-0.7787206021990555,0.316369043142258,0.66729336977005,0.6198056936264038,-0.4129899144172668,0,0,0,-1,-1,3687.054152291667,unknown,2,2022-06-30T09:28:12.635+02:00,2022-06-30T08:20:05.567+02:00,1147,1.414602,0,0,894.856,0,0,2022-06-30T09:27:26.791+02:00
2022-06-30T09:28:13.489+02:00,3687.90762,0.3162384033203125,0.75128173828125,-0.54791259765625,3687.902645,-2.012789320466035,1.001852160454164,-0.6771741749364512,1.237176179885864,0.08185604214668274,-1.857853174209595,-0.2901666760444641,0.003319978713989258,-0.1367118954658508,XArbitraryZVertical,0.2268765997434366,0.4884601414389266,-0.7843510647373149,0.3077779556729055,0.6565763354301453,0.6265932321548462,-0.4198673963546753,0,0,0,-1,-1,3687.054152291667,unknown,2,2022-06-30T09:28:12.635+02:00,2022-06-30T08:20:05.567+02:00,1147,1.414602,0,0,894.856,0,0,2022-06-30T09:27:26.791+02:00
2022-06-30T09:28:13.499+02:00,3687.917572,0.2662200927734375,0.7467498779296875,-0.5340423583984375,3687.912596,-2.040095978142379,0.9855705510265729,-0.6863683725705257,1.334755778312683,0.1105904281139374,-2.006285905838013,-0.3285849690437317,0.1175494194030762,-0.1206114590167999,XArbitraryZVertical,0.2244807417329807,0.4857550496504149,-0.7902737023392687,0.2985262106541952,0.6448236703872681,0.6337321400642395,-0.4273008704185486,0,0,0,-1,-1,3687.054152291667,unknown,2,2022-06-30T09:28:12.635+02:00,2022-06-30T08:20:05.567+02:00,1147,1.414602,0,0,894.856,0,0,2022-06-30T09:27:26.791+02:00
2022-06-30T09:28:13.509+02:00,3687.927523,0.2263336181640625,0.6727142333984375,-0.54168701171875,3687.922547,-2.070499147924602,0.9674881508834838,-0.6954224908253203,1.570219159126282,0.1570886820554733,-2.125795602798462,-0.3660207390785217,0.1060399413108826,-0.09842514991760254,XArbitraryZVertical,0.2221066193896379,0.4825558631581441,-0.7966279118734698,0.2884314335207667,0.6322412490844727,0.6407098770141602,-0.4356169700622559,0,0,0,-1,-1,3687.054152291667,unknown,2,2022-06-30T09:28:12.635+02:00,2022-06-30T08:20:05.567+02:00,1147,1.414602,0,0,894.856,0,0,2022-06-30T09:27:26.791+02:00
2022-06-30T09:28:13.518+02:00,3687.937474,0.16412353515625,0.6984100341796875,-0.6887359619140625,3687.932498,-2.104986184654107,0.9469272595550264,-0.703329772747753,1.827070474624634,0.1697327941656113,-2.212186098098755,-0.392686128616333,0.02595329284667969,-0.09613698720932007,XArbitraryZVertical,0.2199683874191343,0.4783712392956277,-0.8036007323875105,0.2774900886289954,0.6190200448036194,0.646760880947113,-0.4455497264862061,0,0,0,-1,-1,3687.054152291667,unknown,2,2022-06-30T09:28:12.635+02:00,2022-06-30T08:20:05.567+02:00,1147,1.414602,0,0,894.856,0,0,2022-06-30T09:27:26.791+02:00
2022-06-30T09:28:13.528+02:00,3687.947425,0.06878662109375,0.8009796142578125,-0.800048828125,3687.94245,-2.141906510917613,0.9247682632096514,-0.7102717524696527,1.861945152282715,0.2178811579942703,-2.240734815597534,-0.4412724375724792,0.04637008905410767,-0.232293576002121,XArbitraryZVertical,0.2179214395978387,0.4735918115816856,-0.8108235448616726,0.2660567714661753,0.6053962707519531,0.6520398259162903,-0.4564420878887177,0,0,0,-1,-1,3687.054152291667,unknown,2,2022-06-30T09:28:12.635+02:00,2022-06-30T08:20:05.567+02:00,1147,1.414602,0,0,894.856,0,0,2022-06-30T09:27:26.791+02:00
2022-06-30T09:28:13.538+02:00,3687.957376,-0.01519775390625,0.9036407470703125,-0.889190673828125,3687.952401,-2.179065002304414,0.9032775489556814,-0.7168367363525368,1.796934366226196,0.3680859804153442,-2.245652675628662,-0.5232864618301392,0.1439763307571411,-0.333362340927124,XArbitraryZVertical,0.2161805912541102,0.4689593380885665,-0.8177222551976731,0.2543099665191663,0.5920734405517578,0.6570032238960266,-0.4666861891746521,0,0,0,-1,-1,3687.054152291667,unknown,2,2022-06-30T09:28:12.635+02:00,2022-06-30T08:20:05.567+02:00,1147,1.414602,0,0,894.856,0,0,2022-06-30T09:27:26.791+02:00
2022-06-30T09:28:13.548+02:00,3687.967327,-0.05242919921875,0.9777984619140625,-0.930908203125,3687.962352,-2.216144007663324,0.883452276953784,-0.7233166418865367,1.755591154098511,0.5711762309074402,-2.275984287261963,-0.5946000814437866,0.2417661547660828,-0.4135699272155762,XArbitraryZVertical,0.2150148920409543,0.4647131937707837,-0.8241397882377477,0.2420826625095812,0.5794026851654053,0.661874532699585,-0.4756204783916473,0,0,0,-1,-1,3687.054152291667,unknown,2,2022-06-30T09:28:12.635+02:00,2022-06-30T08:20:05.567+02:00,1147,1.414602,0,0,894.856,0,0,2022-06-30T09:27:26.791+02:00
2022-06-30T09:28:13.558+02:00,3687.977279,-0.0419769287109375,1.019912719726562,-0.949737548828125,3687.972303,-2.254072768669748,0.8648921914687836,-0.729582065094171,1.823902249336243,0.7673159837722778,-2.341335296630859,-0.6197375059127808,0.3112402558326721,-0.4473159909248352,XArbitraryZVertical,0.2145271674933281,0.4606323244949693,-0.8302374693389143,0.2291324906289403,0.5673086643218994,0.6665581464767456,-0.4835919141769409,0,0,0,-1,-1,3687.054152291667,unknown,2,2022-06-30T09:28:12.635+02:00,2022-06-30T08:20:05.567+02:00,1147,1.414602,0,0,894.856,0,0,2022-06-30T09:27:26.791+02:00
2022-06-30T09:28:13.568+02:00,3687.98723,0.0018310546875,1.072952270507812,-0.9712982177734375,3687.982254,-2.294126490530564,0.846499645443163,-0.7350266264459997,1.978655934333801,0.9180935025215149,-2.397805690765381,-0.5975689888000488,0.3493057489395142,-0.4582054316997528,XArbitraryZVertical,0.2147056253396795,0.456218794289341,-0.8363006725977229,0.2153303183575747,0.55559241771698,0.6706069111824036,-0.4915318191051483,0,0,0,-1,-1,3687.054152291667,unknown,2,2022-06-30T09:28:12.635+02:00,2022-06-30T08:20:05.567+02:00,1147,1.414602,0,0,894.856,0,0,2022-06-30T09:27:26.791+02:00
2022-06-30T09:28:13.579+02:00,3687.997181,0.042266845703125,1.153823852539062,-0.9958648681640625,3687.992205,-2.336457386895704,0.8276259352575687,-0.7389932567891716,2.154262065887451,1.018574714660645,-2.398906946182251,-0.5424225926399231,0.3994081020355225,-0.4711719751358032,XArbitraryZVertical,0.2154417361377195,0.4511340000691685,-0.8424395694790875,0.2008945557704471,0.5442540049552917,0.6735441088676453,-0.5001259446144104,0,0,0,-1,-1,3687.054152291667,unknown,2,2022-06-30T09:28:12.635+02:00,2022-06-30T08:20:05.567+02:00,1147,1.414602,0,0,894.856,0,0,2022-06-30T09:27:26.791+02:00
2022-06-30T09:28:13.588+02:00,3688.007132,0.051910400390625,1.229461669921875,-0.9864501953125,3688.002157,-2.380796917688091,0.8082086190716538,-0.7409051992545883,2.398903608322144,1.102864027023315,-2.373945951461792,-0.4912416338920593,0.4788677096366882,-0.4861561059951782,XArbitraryZVertical,0.216728400711813,0.4451680745496043,-0.8486692030725305,0.18605031316381,0.5335087776184082,0.6749560832977295,-0.5097083449363708,0,0,0,-1,-1,3687.054152291667,unknown,2,2022-06-30T09:28:12.635+02:00,2022-06-30T08:20:05.567+02:00,1147,1.414602,0,0,894.856,0,0,2022-06-30T09:27:26.791+02:00
2022-06-30T09:28:13.598+02:00,3688.017083,0.034912109375,1.324661254882812,-0.9658966064453125,3688.012108,-2.427868006509105,0.7879897653403237,-0.7399625826085486,2.731276512145996,1.225260853767395,-2.362842798233032,-0.4716348052024841,0.5552014112472534,-0.4656109213829041,XArbitraryZVertical,0.2187147954854367,0.4378862464418768,-0.8551539510631252,0.1706789606236838,0.5235455632209778,0.6742602586746216,-0.5208389759063721,0,0,0,-1,-1,3687.054152291667,unknown,2,2022-06-30T09:28:12.635+02:00,2022-06-30T08:20:05.567+02:00,1147,1.414602,0,0,894.856,0,0,2022-06-30T09:27:26.791+02:00
2022-06-30T09:28:13.608+02:00,3688.027035,0.0064697265625,1.4075927734375,-0.9467315673828125,3688.022059,-2.478217173959015,0.7669967244770383,-0.7357286636010755,3.12959885597229,1.375449776649475,-2.371621131896973,-0.4795610904693604,0.6535337567329407,-0.4321314692497253,XArbitraryZVertical,0.2215034128619272,0.4290149499385384,-0.8619713961656191,0.1545567791266289,0.514473557472229,0.6711274981498718,-0.5337648391723633,0,0,0,-1,-1,3687.054152291667,unknown,2,2022-06-30T09:28:12.635+02:00,2022-06-30T08:20:05.567+02:00,1147,1.414602,0,0,894.856,0,0,2022-06-30T09:27:26.791+02:00
2022-06-30T09:28:13.618+02:00,3688.036986,-0.020599365234375,1.425262451171875,-0.8939971923828125,3688.03201,-2.531946381413815,0.7454875384530231,-0.7278497966409146,3.525768756866455,1.527940630912781,-2.379769086837769,-0.4999756813049316,0.7423270344734192,-0.3981565833091736,XArbitraryZVertical,0.2251405310783545,0.4183591837947109,-0.8691172343569181,0.1375597168941234,0.5064457654953003,0.6652657985687256,-0.548574686050415,0,0,0,-1,-1,3687.054152291667,unknown,2,2022-06-30T09:28:12.635+02:00,2022-06-30T08:20:05.567+02:00,1147,1.414602,0,0,894.856,0,0,2022-06-30T09:27:26.791+02:00
2022-06-30T09:28:13.628+02:00,3688.046937,-0.01806640625,1.3741455078125,-0.8629608154296875,3688.041961,-2.588360958572799,0.7241995868355006,-0.7165544337839006,3.834072828292847,1.693977117538452,-2.409004211425781,-0.5201997756958008,0.7684720754623413,-0.3291733860969543,XArbitraryZVertical,0.2295777948476181,0.4060570270273244,-0.8764065712275158,0.119679969484721,0.4996007680892944,0.6567903757095337,-0.5648234486579895,0,0,0,-1,-1,3687.054152291667,unknown,2,2022-06-30T09:28:12.635+02:00,2022-06-30T08:20:05.567+02:00,1147,1.414602,0,0,894.856,0,0,2022-06-30T09:27:26.791+02:00
2022-06-30T09:28:13.638+02:00,3688.056888,0.02899169921875,1.285507202148438,-0.8536834716796875,3688.051913,-2.645989597717442,0.7041874712961861,-0.7030268631783191,3.933904409408569,1.842206835746765,-2.440097093582153,-0.5119715929031372,0.7276157736778259,-0.2815340757369995,XArbitraryZVertical,0.2346149064862354,0.3927373585846486,-0.8834623593453146,0.1010326716169623,0.4939054846763611,0.6465297937393188,-0.5814264416694641,0,0,0,-1,-1,3687.054152291667,unknown,2,2022-06-30T09:28:12.635+02:00,2022-06-30T08:20:05.567+02:00,1147,1.414602,0,0,894.856,0,0,2022-06-30T09:27:26.791+02:00
2022-06-30T09:28:13.648+02:00,3688.066839,0.092071533203125,1.187469482421875,-0.86163330078125,3688.061864,-2.702551713117783,0.6868076841271453,-0.6890574156449115,3.772866725921631,1.956184029579163,-2.454674243927002,-0.4604136347770691,0.6496973633766174,-0.256834864616394,XArbitraryZVertical,0.2400476282468533,0.3794113619503515,-0.8897747201326593,0.08200735400971317,0.4894056618213654,0.6358099579811096,-0.5968483090400696,0,0,0,-1,-1,3687.054152291667,unknown,2,2022-06-30T09:28:12.635+02:00,2022-06-30T08:20:05.567+02:00,1147,1.414602,0,0,894.856,0,0,2022-06-30T09:27:26.791+02:00
2022-06-30T09:28:13.658+02:00,3688.076791,0.1409149169921875,1.115341186523438,-0.873138427734375,3688.071815,-2.756125860363405,0.6728015382521956,-0.6764608922933076,3.429961681365967,2.025356531143188,-2.445220232009888,-0.3938792943954468,0.561432421207428,-0.2517731189727783,XArbitraryZVertical,0.245629400510008,0.3670643862634128,-0.894960083965686,0.06305997893051965,0.485951155424118,0.6260371804237366,-0.6098598837852478,0,0,0,-1,-1,3687.054152291667,unknown,2,2022-06-30T09:28:12.635+02:00,2022-06-30T08:20:05.567+02:00,1147,1.414602,0,0,894.856,0,0,2022-06-30T09:27:26.791+02:00
2022-06-30T09:28:13.668+02:00,3688.086742,0.14984130859375,1.105072021484375,-0.8875579833984375,3688.081766,-2.805750984731861,0.6623067357042193,-0.6660577889910408,3.042367458343506,2.072896480560303,-2.385334968566895,-0.3425878286361694,0.4974501132965088,-0.2531095743179321,XArbitraryZVertical,0.2512796390407435,0.3561520276804919,-0.8989035121629922,0.04457471745727406,0.4835030436515808,0.6178911924362183,-0.620028555393219,0,0,0,-1,-1,3687.054152291667,unknown,2,2022-06-30T09:28:12.635+02:00,2022-06-30T08:20:05.567+02:00,1147,1.414602,0,0,894.856,0,0,2022-06-30T09:27:26.791+02:00
2022-06-30T09:28:13.678+02:00,3688.096693,0.1155548095703125,1.161117553710938,-0.8828277587890625,3688.091717,-2.851351081124682,0.6550358573811368,-0.6576859108663915,2.723825454711914,2.112203598022461,-2.298223733901978,-0.3322749733924866,0.49378502368927,-0.2599496245384216,XArbitraryZVertical,0.2570364828981032,0.3465952763680291,-0.9017129727373456,0.02678961033383957,0.4821165800094604,0.6112871170043945,-0.6276079416275024,0,0,0,-1,-1,3687.054152291667,unknown,2,2022-06-30T09:28:12.635+02:00,2022-06-30T08:20:05.567+02:00,1147,1.414602,0,0,894.856,0,0,2022-06-30T09:27:26.791+02:00
2022-06-30T09:28:13.688+02:00,3688.106644,0.0627288818359375,1.259963989257812,-0.859619140625,3688.101668,-2.894178242798402,0.6501957392144917,-0.6504378686666906,2.618014335632324,2.158483505249023,-2.247284650802612,-0.3661876022815704,0.5555827617645264,-0.249383270740509,XArbitraryZVertical,0.2629852719543519,0.3378116373813141,-0.9036765169116923,0.00952517185519273,0.481742650270462,0.6055349111557007,-0.63344407081604,0,0,0,-1,-1,3687.054152291667,unknown,2,2022-06-30T09:28:12.635+02:00,2022-06-30T08:20:05.567+02:00,1147,1.414602,0,0,894.856,0,0,2022-06-30T09:27:26.791+02:00
2022-06-30T09:28:13.698+02:00,3688.116595,0.030792236328125,1.388473510742188,-0.76324462890625,3688.11162,-2.936670458341005,0.6464308052123586,-0.6424577572516448,2.7928466796875,2.251108407974243,-2.213093519210815,-0.4195205867290497,0.6607991456985474,-0.2205284237861633,XArbitraryZVertical,0.2691682977431699,0.3286384881695285,-0.9052543005944587,-0.007731562122409799,0.4822497367858887,0.5991649627685547,-0.639090359210968,0,0,0,-1,-1,3687.054152291667,unknown,2,2022-06-30T09:28:12.635+02:00,2022-06-30T08:20:05.567+02:00,1147,1.414602,0,0,894.856,0,0,2022-06-30T09:27:26.791+02:00
2022-06-30T09:28:13.708+02:00,3688.126546,0.0286865234375,1.5172119140625,-0.6630401611328125,3688.121571,-2.980078252507655,0.6437680276133432,-0.6322606806023157,3.058634757995605,2.420297861099243,-2.150508165359497,-0.4533959031105042,0.7975037693977356,-0.1180185675621033,XArbitraryZVertical,0.2759062958270895,0.3182182644289366,-0.9066273112524463,-0.02529700174806223,0.484188437461853,0.5909699201583862,-0.6452257037162781,0,0,0,-1,-1,3687.054152291667,unknown,2,2022-06-30T09:28:12.635+02:00,2022-06-30T08:20:05.567+02:00,1147,1.414602,0,0,894.856,0,0,2022-06-30T09:27:26.791+02:00
2022-06-30T09:28:13.718+02:00,3688.136498,0.0566558837890625,1.5709228515625,-0.6607818603515625,3688.131522,-3.024591113321011,0.6427197172325809,-0.619513644893121,3.333935976028442,2.611620187759399,-2.113159418106079,-0.4593007266521454,0.9365728497505188,-0.0113295316696167,XArbitraryZVertical,0.2834000505140037,0.3063156267875926,-0.9077344428479475,-0.04328292851382062,0.4879874885082245,0.5806392431259155,-0.6517102718353271,0,0,0,-1,-1,3687.054152291667,unknown,2,2022-06-30T09:28:12.635+02:00,2022-06-30T08:20:05.567+02:00,1147,1.414602,0,0,894.856,0,0,2022-06-30T09:27:26.791+02:00
2022-06-30T09:28:13.727+02:00,3688.146449,0.1013031005859375,1.545700073242188,-0.6895751953125,3688.141473,-3.070612208717769,0.6428519889512545,-0.6040887787643349,3.679195642471313,2.728791952133179,-2.084802627563477,-0.4367283582687378,1.002910614013672,-0.002045094966888428,XArbitraryZVertical,0.2914137488618559,0.2927623947208917,-0.9085988132298769,-0.0617768210895958,0.4933845102787018,0.5680123567581177,-0.6587364077568054,0,0,0,-1,-1,3687.054152291667,unknown,2,2022-06-30T09:28:12.635+02:00,2022-06-30T08:20:05.567+02:00,1147,1.414602,0,0,894.856,0,0,2022-06-30T09:27:26.791+02:00
2022-06-30T09:28:13.737+02:00,3688.1564,0.1347808837890625,1.46234130859375,-0.691131591796875,3688.151424,-3.118155007790294,0.6436201283512882,-0.5860622412112561,3.930120706558228,2.78421425819397,-2.073957920074463,-0.3986510336399078,0.9926155805587769,-0.02313423156738281,XArbitraryZVertical,0.2995698846414713,0.2775564903058371,-0.9092337807250116,-0.08071104999022714,0.4999543726444244,0.553084671497345,-0.6664405465126038,0,0,0,-1,-1,3687.054152291667,unknown,2,2022-06-30T09:28:12.635+02:00,2022-06-30T08:20:05.567+02:00,1147,1.414602,0,0,894.856,0,0,2022-06-30T09:27:26.791+02:00
2022-06-30T09:28:13.747+02:00,3688.166351,0.142547607421875,1.35546875,-0.6670379638671875,3688.161376,3.11735324273781,0.6454920055652978,-0.5672182649619417,3.868465185165405,2.824441432952881,-2.065685272216797,-0.3726005554199219,0.9250535368919373,-0.01742094755172729,XArbitraryZVertical,0.3076953143874313,0.2616647480760095,-0.9093400415344279,-0.09977979810939759,0.5073816180229187,0.5372880101203918,-0.6737102866172791,0,0,0,-1,-1,3687.054152291667,unknown,2,2022-06-30T09:28:12.635+02:00,2022-06-30T08:20:05.567+02:00,1147,1.414602,0,0,894.856,0,0,2022-06-30T09:27:26.791+02:00
2022-06-30T09:28:13.757+02:00,3688.176302,0.1250457763671875,1.245498657226562,-0.6323699951171875,3688.171327,3.071947222517066,0.6499314191464882,-0.5500706070012126,3.517193078994751,2.922725439071655,-2.021952152252197,-0.3733195662498474,0.8327215909957886,0.01164937019348145,XArbitraryZVertical,0.3160505944907428,0.24651275064909,-0.9084726448829151,-0.1184102197137182,0.5158673524856567,0.5227473974227905,-0.6786869764328003,0,0,0,-1,-1,3687.054152291667,unknown,2,2022-06-30T09:28:12.635+02:00,2022-06-30T08:20:05.567+02:00,1147,1.414602,0,0,894.856,0,0,2022-06-30T09:27:26.791+02:00
2022-06-30T09:28:13.767+02:00,3688.186253,0.1067962646484375,1.155120849609375,-0.5300445556640625,3688.181278,3.030307995601739,0.6581777502837309,-0.536065814216927,3.070212841033936,3.071791410446167,-1.951279759407043,-0.4008272886276245,0.7347413301467896,0.04776567220687866,XArbitraryZVertical,0.3250970862991936,0.232903907153979,-0.9063748535926995,-0.1362072292365523,0.5258732438087463,0.5107576251029968,-0.6801353096961975,0,0,0,-1,-1,3687.054152291667,unknown,2,2022-06-30T09:28:12.635+02:00,2022-06-30T08:20:05.567+02:00,1147,1.414602,0,0,894.856,0,0,2022-06-30T09:27:26.791+02:00
2022-06-30T09:28:13.777+02:00,3688.196205,0.1058502197265625,1.14105224609375,-0.429962158203125,3688.191229,2.992634785194993,0.6705663502445925,-0.5255825996460932,2.603939533233643,3.258366107940674,-1.898310303688049,-0.4307601451873779,0.6534040570259094,0.1476821899414062,XArbitraryZVertical,0.3351130990823094,0.2209887210539576,-0.9030093032693522,-0.1530935603954684,0.5375565886497498,0.5017170310020447,-0.6777263879776001,0,0,0,-1,-1,3687.054152291667,unknown,2,2022-06-30T09:28:12.635+02:00,2022-06-30T08:20:05.567+02:00,1147,1.414602,0,0,894.856,0,0,2022-06-30T09:27:26.791+02:00
2022-06-30T09:28:13.787+02:00,3688.206156,0.1316680908203125,1.202545166015625,-0.3814697265625,3688.20118,2.958797920447155,0.6869275648594831,-0.5188437169552832,2.14408802986145,3.427592515945435,-1.83950138092041,-0.4448537826538086,0.6451761722564697,0.2414780855178833,XArbitraryZVertical,0.346169210508851,0.2108243759001393,-0.8984038870664103,-0.1690870824933768,0.5507041811943054,0.4958763718605042,-0.6714399456977844,0,0,0,-1,-1,3687.054152291667,unknown,2,2022-06-30T09:28:12.635+02:00,2022-06-30T08:20:05.567+02:00,1147,1.414602,0,0,894.856,0,0,2022-06-30T09:27:26.791+02:00
2022-06-30T09:28:13.797+02:00,3688.216107,0.1731414794921875,1.260848999023438,-0.3564605712890625,3688.211131,2.928547522361975,0.7067546621331746,-0.5152547543881472,1.830590844154358,3.564971208572388,-1.747268795967102,-0.4333915710449219,0.7097889184951782,0.2802696228027344,XArbitraryZVertical,0.3581657311597295,0.2021084179722817,-0.8927287221823539,-0.184133423480393,0.5650598406791687,0.4927565455436707,-0.6617389917373657,0,0,0,-1,-1,3687.054152291667,unknown,2,2022-06-30T09:28:12.635+02:00,2022-06-30T08:20:05.567+02:00,1147,1.414602,0,0,894.856,0,0,2022-06-30T09:27:26.791+02:00
2022-06-30T09:28:13.807+02:00,3688.226058,0.2081451416015625,1.323776245117188,-0.340118408203125,3688.221083,2.900383437092081,0.7288061276027422,-0.5127090529612564,1.8212069272995,3.647861003875732,-1.628129363059998,-0.4072054624557495,0.7703095674514771,0.293592095375061,XArbitraryZVertical,0.3707436077630015,0.1937085889752995,-0.8863660317526881,-0.1984475713031182,0.5803470611572266,0.4905397593975067,-0.6500523090362549,0,0,0,-1,-1,3687.054152291667,unknown,2,2022-06-30T09:28:12.635+02:00,2022-06-30T08:20:05.567+02:00,1147,1.414602,0,0,894.856,0,0,2022-06-30T09:27:26.791+02:00
2022-06-30T09:28:13.817+02:00,3688.236009,0.2093353271484375,1.396530151367188,-0.29815673828125,3688.231034,2.872786456327131,0.751864393948964,-0.5095320348311911,1.907479405403137,3.709280967712402,-1.522549271583557,-0.3880966901779175,0.836007833480835,0.2975159287452698,XArbitraryZVertical,0.383497107382586,0.1846969749526891,-0.87962579149034,-0.2123097289674517,0.5962419509887695,0.4877687692642212,-0.6376339793205261,0,0,0,-1,-1,3687.054152291667,unknown,2,2022-06-30T09:28:12.635+02:00,2022-06-30T08:20:05.567+02:00,1147,1.414602,0,0,894.856,0,0,2022-06-30T09:27:26.791+02:00
2022-06-30T09:28:13.827+02:00,3688.245961,0.192108154296875,1.428573608398438,-0.2472686767578125,3688.240985,2.844921458381277,0.7754027545748502,-0.5055904653447062,2.055174827575684,3.750977754592896,-1.466707825660706,-0.4030899405479431,0.9122062921524048,0.3266358971595764,XArbitraryZVertical,0.3962467733857076,0.1749067606407277,-0.8725382530240822,-0.2259935593653753,0.6124253273010254,0.4843241274356842,-0.624792218208313,0,0,0,-1,-1,3687.054152291667,unknown,2,2022-06-30T09:28:12.635+02:00,2022-06-30T08:20:05.567+02:00,1147,1.414602,0,0,894.856,0,0,2022-06-30T09:27:26.791+02:00
2022-06-30T09:28:13.837+02:00,3688.255912,0.1666717529296875,1.4368896484375,-0.204986572265625,3688.250936,2.816032193607589,0.7989408400190343,-0.5005696599979106,2.24968147277832,3.781810760498047,-1.4104083776474,-0.4365872144699097,0.9486485719680786,0.3646252155303955,XArbitraryZVertical,0.4088101911371853,0.1640958950987999,-0.8651514963532158,-0.2397075346168209,0.6286954283714294,0.4799253940582275,-0.6118935346603394,0,0,0,-1,-1,3687.054152291667,unknown,2,2022-06-30T09:28:12.635+02:00,2022-06-30T08:20:05.567+02:00,1147,1.414602,0,0,894.856,0,0,2022-06-30T09:27:26.791+02:00
2022-06-30T09:28:13.847+02:00,3688.265863,0.1544952392578125,1.412628173828125,-0.2273712158203125,3688.260887,2.785949495596973,0.8223119806782953,-0.4942019229771498,2.49229097366333,3.81148624420166,-1.313262581825256,-0.4783774614334106,0.962560772895813,0.3941158056259155,XArbitraryZVertical,0.421078210531923,0.1521254210974716,-0.8575091538642707,-0.2534343141793572,0.6450492143630981,0.4743292033672333,-0.5991020202636719,0,0,0,-1,-1,3687.054152291667,unknown,2,2022-06-30T09:28:12.635+02:00,2022-06-30T08:20:05.567+02:00,1147,1.414602,0,0,894.856,0,0,2022-06-30T09:27:26.791+02:00
2022-06-30T09:28:13.857+02:00,3688.275814,0.170318603515625,1.390838623046875,-0.1070709228515625,3688.270838,2.754421249952991,0.8456363279638269,-0.4854717095869369,2.819747686386108,3.868459463119507,-1.139129996299744,-0.5074248909950256,0.9460028409957886,0.3592484593391418,XArbitraryZVertical,0.4330307219658224,0.1384728463228041,-0.8496931915899832,-0.2670789115017228,0.6619201302528381,0.4666256308555603,-0.5866193175315857,0,0,0,-1,-1,3687.054152291667,unknown,2,2022-06-30T09:28:12.635+02:00,2022-06-30T08:20:05.567+02:00,1147,1.414602,0,0,894.856,0,0,2022-06-30T09:27:26.791+02:00
2022-06-30T09:28:13.867+02:00,3688.285765,0.210723876953125,1.358123779296875,0.0626678466796875,3688.28079,2.722004374703061,0.869390344385469,-0.4743414253673159,2.963571071624756,3.913186550140381,-0.9607386589050293,-0.5092737078666687,0.9340863227844238,0.4669774770736694,XArbitraryZVertical,0.4447500139304822,0.123180332716257,-0.8416716281698541,-0.2803798675795576,0.6795923709869385,0.4567526876926422,-0.5740480422973633,0,0,0,-1,-1,3687.054152291667,unknown,2,2022-06-30T09:28:12.635+02:00,2022-06-30T08:20:05.567+02:00,1147,1.414602,0,0,894.856,0,0,2022-06-30T09:27:26.791+02:00
2022-06-30T09:28:13.877+02:00,3688.295716,0.2619476318359375,1.242019653320312,0.235260009765625,3688.290741,2.690787678341758,0.8941182335705229,-0.4630872080886099,2.746286630630493,3.890156745910645,-0.8642388582229614,-0.4868180155754089,0.9114118814468384,0.6229211688041687,XArbitraryZVertical,0.456382557156971,0.1076495878849087,-0.8332846524585918,-0.2928538617888296,0.6975419521331787,0.4467122852802277,-0.5602530837059021,0,0,0,-1,-1,3687.054152291667,unknown,2,2022-06-30T09:28:12.635+02:00,2022-06-30T08:20:05.567+02:00,1147,1.414602,0,0,894.856,0,0,2022-06-30T09:27:26.791+02:00
2022-06-30T09:28:13.887+02:00,3688.305668,0.3264312744140625,1.0823974609375,0.24969482421875,3688.300692,2.662485813641534,0.920013900772408,-0.4538893811271945,2.419230461120605,3.836010217666626,-0.8280614614486694,-0.4531057476997375,0.8035556077957153,0.7797303795814514,XArbitraryZVertical,0.4680545206811254,0.09321978134663721,-0.8244409811788203,-0.3041910597464829,0.715053379535675,0.4384644031524658,-0.5444700717926025,0,0,0,-1,-1,3687.054152291667,unknown,2,2022-06-30T09:28:12.635+02:00,2022-06-30T08:20:05.567+02:00,1147,1.414602,0,0,894.856,0,0,2022-06-30T09:27:26.791+02:00
2022-06-30T09:28:13.897+02:00,3688.315619,0.388214111328125,0.98663330078125,0.235137939453125,3688.310643,2.637067367218975,0.946721374109781,-0.4467533699543094,2.116052389144897,3.761994123458862,-0.755748450756073,-0.4054273366928101,0.6503580212593079,0.7766910195350647,XArbitraryZVertical,0.4796951614007939,0.07996628287729793,-0.8152522506520319,-0.3144230631457505,0.7318586111068726,0.4320398271083832,-0.5269958972930908,0,0,0,-1,-1,3687.054152291667,unknown,2,2022-06-30T09:28:12.635+02:00,2022-06-30T08:20:05.567+02:00,1147,1.414602,0,0,894.856,0,0,2022-06-30T09:27:26.791+02:00
2022-06-30T09:28:13.907+02:00,3688.32557,0.44122314453125,0.967559814453125,0.2087249755859375,3688.320594,2.61471221122276,0.9739203028885252,-0.4410450887903565,1.897146463394165,3.637682676315308,-0.6247049570083618,-0.3597334027290344,0.5597488880157471,0.7434137463569641,XArbitraryZVertical,0.4911958945891434,0.06774102312729868,-0.805951948732829,-0.3233870258381518,0.7479474544525146,0.4268847703933716,-0.5082755088806152,0,0,0,-1,-1,3687.054152291667,unknown,2,2022-06-30T09:28:12.635+02:00,2022-06-30T08:20:05.567+02:00,1147,1.414602,0,0,894.856,0,0,2022-06-30T09:27:26.791+02:00
2022-06-30T09:28:13.917+02:00,3688.335521,0.4496307373046875,1.037017822265625,0.247467041015625,3688.330546,2.594095788244541,1.000761833667711,-0.4351572732275732,1.89967405796051,3.521920204162598,-0.4635196328163147,-0.3221990466117859,0.5460071563720703,0.698091983795166,XArbitraryZVertical,0.5022084851454419,0.05570689746101436,-0.7968155450390277,-0.3313133774619521,0.7634221911430359,0.4215530157089233,-0.4893667697906494,0,0,0,-1,-1,3687.054152291667,unknown,2,2022-06-30T09:28:12.635+02:00,2022-06-30T08:20:05.567+02:00,1147,1.414602,0,0,894.856,0,0,2022-06-30T09:27:26.791+02:00
2022-06-30T09:28:13.927+02:00,3688.345472,0.431884765625,1.09796142578125,0.2366180419921875,3688.340497,2.572939612257239,1.026418976028963,-0.4281707563610853,2.162643194198608,3.419982671737671,-0.3985776603221893,-0.3285950422286987,0.6218107938766479,0.7186017036437988,XArbitraryZVertical,0.512423207118562,0.04307300591765727,-0.7878468420018043,-0.3389166590115098,0.7782257199287415,0.4152073860168457,-0.4711343348026276,0,0,0,-1,-1,3687.054152291667,unknown,2,2022-06-30T09:28:12.635+02:00,2022-06-30T08:20:05.567+02:00,1147,1.414602,0,0,894.856,0,0,2022-06-30T09:27:26.791+02:00
2022-06-30T09:28:13.936+02:00,3688.355424,0.441925048828125,1.147918701171875,0.28778076171875,3688.350448,2.547912518984423,1.049603494844306,-0.418992083553164,2.73372220993042,3.318434953689575,-0.3348472118377686,-0.3603256940841675,0.6911219358444214,0.6914633512496948,XArbitraryZVertical,0.5212968934182602,0.02875785290253457,-0.7790018056161694,-0.347244626460986,0.7922104001045227,0.4068399369716644,-0.4548450708389282,0,0,0,-1,-1,3687.054152291667,unknown,2,2022-06-30T09:28:12.635+02:00,2022-06-30T08:20:05.567+02:00,1147,1.414602,0,0,894.856,0,0,2022-06-30T09:27:26.791+02:00
2022-06-30T09:28:13.946+02:00,3688.365375,0.4538726806640625,1.1527099609375,0.32403564453125,3688.360399,2.517888982441919,1.070044201985307,-0.4068479833527737,3.260022878646851,3.220235824584961,-0.2404623776674271,-0.363691508769989,0.7522025108337402,0.7286784648895264,XArbitraryZVertical,0.5285853467369421,0.01219949556307979,-0.770278385075494,-0.3565389765181532,0.805616557598114,0.3957165777683258,-0.4408974051475525,0,0,0,-1,-1,3687.054152291667,unknown,2,2022-06-30T09:28:12.635+02:00,2022-06-30T08:20:05.567+02:00,1147,1.414602,0,0,894.856,0,0,2022-06-30T09:27:26.791+02:00
2022-06-30T09:28:13.956+02:00,3688.375326,0.471771240234375,1.07330322265625,0.379180908203125,3688.37035,2.483903476779334,1.088477068373728,-0.3923299746076516,3.625936508178711,3.151477575302124,-0.1641078144311905,-0.3647372722625732,0.7703679800033569,0.7526291608810425,XArbitraryZVertical,0.534476422705279,-0.0061916223616082,-0.7615596660223873,-0.3665016443105109,0.8186098337173462,0.3823423981666565,-0.428593248128891,0,0,0,-1,-1,3687.054152291667,unknown,2,2022-06-30T09:28:12.635+02:00,2022-06-30T08:20:05.567+02:00,1147,1.414602,0,0,894.856,0,0,2022-06-30T09:27:26.791+02:00
2022-06-30T09:28:13.966+02:00,3688.385277,0.5006866455078125,0.942535400390625,0.4150543212890625,3688.380301,2.448112458904046,1.106071121056423,-0.3768513905433154,3.695116281509399,3.095111131668091,-0.1134230643510818,-0.3594436049461365,0.7053090333938599,0.7959087491035461,XArbitraryZVertical,0.5394338841155832,-0.02544123620973517,-0.7526898961638644,-0.3765923575003158,0.8312148451805115,0.367994636297226,-0.4167276620864868,0,0,0,-1,-1,3687.054152291667,unknown,2,2022-06-30T09:28:12.635+02:00,2022-06-30T08:20:05.567+02:00,1147,1.414602,0,0,894.856,0,0,2022-06-30T09:27:26.791+02:00
2022-06-30T09:28:13.976+02:00,3688.395228,0.5282135009765625,0.7898406982421875,0.49078369140625,3688.390253,2.41266069271143,1.123792398089577,-0.3616287343503598,3.585009574890137,3.04338264465332,-0.07355481386184692,-0.3427363634109497,0.5887377262115479,0.8193621635437012,XArbitraryZVertical,0.5439247066101472,-0.0446328497134281,-0.7436180510643038,-0.3862461779934986,0.8434230089187622,0.3537980914115906,-0.404307633638382,0,0,0,-1,-1,3687.054152291667,unknown,2,2022-06-30T09:28:12.635+02:00,2022-06-30T08:20:05.567+02:00,1147,1.414602,0,0,894.856,0,0,2022-06-30T09:27:26.791+02:00
2022-06-30T09:28:13.986+02:00,3688.405179,0.5536346435546875,0.675048828125,0.5380706787109375,3688.400204,2.379369926460056,1.142180621042735,-0.3478000987159238,3.245816946029663,2.986141443252563,-0.0772281140089035,-0.3268695473670959,0.4490106701850891,0.8815112113952637,XArbitraryZVertical,0.5483426064190258,-0.06290256214927278,-0.7343827387753274,-0.3950263565243302,0.8550830483436584,0.3408304452896118,-0.390727311372757,0,0,0,-1,-1,3687.054152291667,unknown,2,2022-06-30T09:28:12.635+02:00,2022-06-30T08:20:05.567+02:00,1147,1.414602,0,0,894.856,0,0,2022-06-30T09:27:26.791+02:00
2022-06-30T09:28:13.997+02:00,3688.415131,0.608489990234375,0.6042327880859375,0.5729827880859375,3688.410155,2.349913862666583,1.161822032594504,-0.3362174846865785,2.787935733795166,2.953046560287476,-0.0711028054356575,-0.3125216364860535,0.3451305031776428,0.9134736061096191,XArbitraryZVertical,0.5531439860146383,-0.07956353564217261,-0.7250425930633702,-0.4025106000125017,0.8661562204360962,0.3299187421798706,-0.3754027485847473,0,0,0,-1,-1,3687.054152291667,unknown,2,2022-06-30T09:28:12.635+02:00,2022-06-30T08:20:05.567+02:00,1147,1.414602,0,0,894.856,0,0,2022-06-30T09:27:26.791+02:00
2022-06-30T09:28:14.006+02:00,3688.425082,0.6778717041015625,0.58392333984375,0.6141510009765625,3688.420106,2.324365714527111,1.182719812692021,-0.3266582265544972,2.447663068771362,2.922265291213989,-0.05198503658175468,-0.2682008743286133,0.2833534479141235,0.9313813447952271,XArbitraryZVertical,0.5584221791950601,-0.0946861913114547,-0.7156788589793415,-0.4086599650352359,0.8766908049583435,0.3208797574043274,-0.3583983778953552,0,0,0,-1,-1,3687.054152291667,unknown,2,2022-06-30T09:28:12.635+02:00,2022-06-30T08:20:05.567+02:00,1147,1.414602,0,0,894.856,0,0,2022-06-30T09:27:26.791+02:00
2022-06-30T09:28:14.016+02:00,3688.435033,0.71990966796875,0.6222076416015625,0.6235504150390625,3688.430057,2.301137633814676,1.204146372134211,-0.3183986723715124,2.28824520111084,2.863081216812134,-0.05229812487959862,-0.2087405920028687,0.2708776295185089,0.9546228647232056,XArbitraryZVertical,0.5638409576369533,-0.1088465219331568,-0.706314257526732,-0.4139516785502603,0.8866122364997864,0.3130461275577545,-0.340471625328064,0,0,0,-1,-1,3687.054152291667,unknown,2,2022-06-30T09:28:12.635+02:00,2022-06-30T08:20:05.567+02:00,1147,1.414602,0,0,894.856,0,0,2022-06-30T09:27:26.791+02:00
2022-06-30T09:28:14.026+02:00,3688.444984,0.743133544921875,0.677978515625,0.559112548828125,3688.440009,2.278352763028504,1.225114873807511,-0.3108934007167701,2.349186420440674,2.776698589324951,-0.05511947721242905,-0.1758317947387695,0.3162987530231476,0.9461447596549988,XArbitraryZVertical,0.5689270067713681,-0.1225762276405144,-0.6969445540688801,-0.4190054198789289,0.89574134349823,0.3059093356132507,-0.3225942552089691,0,0,0,-1,-1,3687.054152291667,unknown,2,2022-06-30T09:28:12.635+02:00,2022-06-30T08:20:05.567+02:00,1147,1.414602,0,0,894.856,0,0,2022-06-30T09:27:26.791+02:00
2022-06-30T09:28:14.036+02:00,3688.454935,0.7313385009765625,0.73529052734375,0.52960205078125,3688.44996,2.253699323491769,1.245075856910728,-0.3032209260419664,2.622668743133545,2.743346691131592,-0.0571514330804348,-0.1610654592514038,0.3793832063674927,0.8645060062408447,XArbitraryZVertical,0.5732343340628012,-0.1367688040926285,-0.6874096461020135,-0.4244582870594598,0.904198944568634,0.2985957264900208,-0.305393397808075,0,0,0,-1,-1,3687.054152291667,unknown,2,2022-06-30T09:28:12.635+02:00,2022-06-30T08:20:05.567+02:00,1147,1.414602,0,0,894.856,0,0,2022-06-30T09:27:26.791+02:00
2022-06-30T09:28:14.046+02:00,3688.464886,0.7088470458984375,0.7528839111328125,0.4855194091796875,3688.459911,2.226431710925535,1.264171578157009,-0.2953983411598788,2.820773363113403,2.708066463470459,-0.0932934582233429,-0.1807259321212769,0.4441699981689453,0.8183707594871521,XArbitraryZVertical,0.5767283452014246,-0.1516578607472711,-0.6775046485019975,-0.4305482608323007,0.9120643138885498,0.2911209464073181,-0.2887686192989349,0,0,0,-1,-1,3687.054152291667,unknown,2,2022-06-30T09:28:12.635+02:00,2022-06-30T08:20:05.567+02:00,1147,1.414602,0,0,894.856,0,0,2022-06-30T09:27:26.791+02:00
2022-06-30T09:28:14.056+02:00,3688.474838,0.72576904296875,0.68231201171875,0.5259552001953125,3688.469862,2.197537686209477,1.282456124931903,-0.2877190884493536,2.924066066741943,2.63776421546936,-0.05102350190281868,-0.210460901260376,0.4691185355186462,0.7581918239593506,XArbitraryZVertical,0.5795024798403986,-0.1668553882580291,-0.6673654290192945,-0.4369893717386554,0.9193078875541687,0.2837658226490021,-0.2726723253726959,0,0,0,-1,-1,3687.054152291667,unknown,2,2022-06-30T09:28:12.635+02:00,2022-06-30T08:20:05.567+02:00,1147,1.414602,0,0,894.856,0,0,2022-06-30T09:27:26.791+02:00
2022-06-30T09:28:14.066+02:00,3688.484789,0.738922119140625,0.509033203125,0.6231536865234375,3688.479813,2.169199326761511,1.300484873449525,-0.2797337060957123,2.725872278213501,2.591650247573853,0.06806907057762146,-0.2004593014717102,0.4062127470970154,0.7826070785522461,XArbitraryZVertical,0.5818482405648101,-0.1820074241211825,-0.6573933945542438,-0.4428995710441562,0.926228404045105,0.2760997116565704,-0.2566518485546112,0,0,0,-1,-1,3687.054152291667,unknown,2,2022-06-30T09:28:12.635+02:00,2022-06-30T08:20:05.567+02:00,1147,1.414602,0,0,894.856,0,0,2022-06-30T09:27:26.791+02:00
2022-06-30T09:28:14.076+02:00,3688.49474,0.7791748046875,0.3313446044921875,0.64642333984375,3688.489764,2.144262997645914,1.319483577980508,-0.2722670381077495,2.314812183380127,2.604467391967773,0.1233177781105042,-0.1939857006072998,0.2401179373264313,0.8626691699028015,XArbitraryZVertical,0.5845784845232406,-0.1962403952960575,-0.6477260174214986,-0.4474469108883603,0.9329077005386353,0.2689156532287598,-0.239515408873558,0,0,0,-1,-1,3687.054152291667,unknown,2,2022-06-30T09:28:12.635+02:00,2022-06-30T08:20:05.567+02:00,1147,1.414602,0,0,894.856,0,0,2022-06-30T09:27:26.791+02:00
2022-06-30T09:28:14.086+02:00,3688.504691,0.8441314697265625,0.3052215576171875,0.6495208740234375,3688.499716,2.12346499809142,1.340171326249646,-0.2657616339412689,1.911634802818298,2.665689706802368,0.1728025078773499,-0.1601712703704834,0.06870082020759583,0.8669844269752502,XArbitraryZVertical,0.5881317453517014,-0.2093335853211107,-0.6382525693576533,-0.4504599869624928,0.9393460154533386,0.2626442313194275,-0.2205609977245331,0,0,0,-1,-1,3687.054152291667,unknown,2,2022-06-30T09:28:12.635+02:00,2022-06-30T08:20:05.567+02:00,1147,1.414602,0,0,894.856,0,0,2022-06-30T09:27:26.791+02:00
