loggingTime(txt),accelerometerTimestamp_sinceReboot(s),accelerometerAccelerationX(G),accelerometerAccelerationY(G),accelerometerAccelerationZ(G),motionTimestamp_sinceReboot(s),motionYaw(rad),motionRoll(rad),motionPitch(rad),motionRotationRateX(rad/s),motionRotationRateY(rad/s),motionRotationRateZ(rad/s),motionUserAccelerationX(G),motionUserAccelerationY(G),motionUserAccelerationZ(G),motionAttitudeReferenceFrame(txt),motionQuaternionX(R),motionQuaternionY(R),motionQuaternionZ(R),motionQuaternionW(R),motionGravityX(G),motionGravityY(G),motionGravityZ(G),motionMagneticFieldX(µT),motionMagneticFieldY(µT),motionMagneticFieldZ(µT),motionHeading(°),motionMagneticFieldCalibrationAccuracy(Z),activityTimestamp_sinceReboot(s),activity(txt),activityActivityConfidence(Z),activityActivityStartDate(txt),pedometerStartDate(txt),pedometerNumberofSteps(N),pedometerAverageActivePace(s/m),pedometerCurrentPace(s/m),pedometerCurrentCadence(steps/s),pedometerDistance(m),pedometerFloorAscended(N),pedometerFloorDescended(N),pedometerEndDate(txt)
2022-06-30T09:28:43.803+02:00,3718.208838041667,0.053955078125,-0.50714111328125,-0.849334716796875,3718.203862041667,-2.113500963876959,0.1391333649473075,0.5383677814768081,0.001207914669066668,-0.07738853245973587,-0.03607874363660812,0.06396207958459854,-0.03467386960983276,0.0002595782279968262,XArbitraryZVertical,0.188797396170024,-0.1980667654258375,-0.8282846326958228,0.48894748301236,0.1190674677491188,-0.5127353668212891,-0.8502501845359802,0,0,0,-1,-1,3694.69432325,unknown,2,2022-06-30T09:28:20.275+02:00,2022-06-30T08:20:05.567+02:00,1147,1.44327,0,0,894.856,0,0,2022-06-30T09:28:40.657+02:00
2022-06-30T09:28:43.804+02:00,3718.218789041667,0.1037139892578125,-0.4766387939453125,-0.862945556640625,3718.213813041667,-2.114133130307662,0.1391327242117305,0.5382364192442316,0.01558072865009308,-0.01550571992993355,-0.06621187180280685,-0.06512080878019333,0.005481302738189697,0.0009824633598327637,XArbitraryZVertical,0.1887045317068836,-0.1980709581245824,-0.8284565662044013,0.4886903908505943,0.1190762668848038,-0.5126225352287292,-0.8503170013427734,0,0,0,-1,-1,3694.69432325,unknown,2,2022-06-30T09:28:20.275+02:00,2022-06-30T08:20:05.567+02:00,1147,1.44327,0,0,894.856,0,0,2022-06-30T09:28:40.657+02:00
2022-06-30T09:28:43.810+02:00,3718.228740041667,0.1126556396484375,-0.4929962158203125,-0.8540191650390625,3718.223764041667,-2.114957214217948,0.1392125713089661,0.5383181047101422,0.03853245079517365,-0.0392700657248497,-0.07049160450696945,-0.01542395353317261,0.03605371713638306,-0.01267939805984497,XArbitraryZVertical,0.1886746157078011,-0.1981638041636968,-0.8286395185692861,0.4883539041646298,0.1191383525729179,-0.5126926898956299,-0.8502659797668457,0,0,0,-1,-1,3694.69432325,unknown,2,2022-06-30T09:28:20.275+02:00,2022-06-30T08:20:05.567+02:00,1147,1.44327,0,0,894.856,0,0,2022-06-30T09:28:40.657+02:00
2022-06-30T09:28:43.820+02:00,3718.238691041667,0.11431884765625,-0.510498046875,-0.8466033935546875,3718.233715041667,-2.115761625690899,0.1392412470771313,0.5384798390512849,0.02885798551142216,-0.02121889218688011,-0.06019476428627968,-0.006495192646980286,0.01983511447906494,-0.003838539123535156,XArbitraryZVertical,0.1886436372407856,-0.1983011300647779,-0.8288118613459241,0.4880177463657192,0.1191512271761894,-0.5128315687179565,-0.8501805067062378,0,0,0,-1,-1,3694.69432325,unknown,2,2022-06-30T09:28:20.275+02:00,2022-06-30T08:20:05.567+02:00,1147,1.44327,0,0,894.856,0,0,2022-06-30T09:28:40.657+02:00
2022-06-30T09:28:43.829+02:00,3718.248642041667,0.120391845703125,-0.506439208984375,-0.8508453369140625,3718.243666041667,-2.116230272997349,0.139268699617712,0.5384870893669795,0.003038172144442797,-0.009531620889902115,-0.0240052342414856,-0.00485481321811676,0.002339541912078857,0.003570318222045898,XArbitraryZVertical,0.1886101949404688,-0.1983417025084735,-0.8289226470661546,0.4878259870465365,0.1191740483045578,-0.5128377676010132,-0.8501735329627991,0,0,0,-1,-1,3694.69432325,unknown,2,2022-06-30T09:28:20.275+02:00,2022-06-30T08:20:05.567+02:00,1147,1.44327,0,0,894.856,0,0,2022-06-30T09:28:40.657+02:00
2022-06-30T09:28:43.839+02:00,3718.258593041667,0.115570068359375,-0.49102783203125,-0.854736328125,3718.253618041667,-2.116198046437168,0.1390125428758532,0.5384077449183157,-0.006392347626388073,-0.002843091962859035,0.005141998175531626,0.001430325210094452,0.006330311298370361,-0.0006008744239807129,XArbitraryZVertical,0.1884891501983373,-0.1983675885211883,-0.8289493490295935,0.4878166264358069,0.118961900472641,-0.5127696394920349,-0.8502442836761475,0,0,0,-1,-1,3694.69432325,unknown,2,2022-06-30T09:28:20.275+02:00,2022-06-30T08:20:05.567+02:00,1147,1.44327,0,0,894.856,0,0,2022-06-30T09:28:40.657+02:00
2022-06-30T09:28:43.850+02:00,3718.268544041667,0.10455322265625,-0.505218505859375,-0.8607635498046875,3718.263569041667,-2.115872633599824,0.1385660417880827,0.538306109836225,-0.005785014014691114,0.009124814532697201,0.01364993304014206,-0.003018997609615326,0.02165442705154419,-0.004387199878692627,XArbitraryZVertical,0.1883132086404908,-0.1984027971526655,-0.8289254571046958,0.4879108936085598,0.1185894533991814,-0.5126823782920837,-0.850348949432373,0,0,0,-1,-1,3694.69432325,unknown,2,2022-06-30T09:28:20.275+02:00,2022-06-30T08:20:05.567+02:00,1147,1.44327,0,0,894.856,0,0,2022-06-30T09:28:40.657+02:00
2022-06-30T09:28:43.859+02:00,3718.278495041667,0.1079864501953125,-0.5106201171875,-0.85931396484375,3718.273520041667,-2.116005640206391,0.1392076886957608,0.5382073483386318,-0.0001215357333421707,0.02649102360010147,0.008247443474829197,-0.01458847522735596,0.007378876209259033,-0.01044058799743652,XArbitraryZVertical,0.18854345032013,-0.1982169581751439,-0.8289104974901671,0.4879229650625508,0.1191420778632164,-0.5125976204872131,-0.8503227829933167,0,0,0,-1,-1,3694.69432325,unknown,2,2022-06-30T09:28:20.275+02:00,2022-06-30T08:20:05.567+02:00,1147,1.44327,0,0,894.856,0,0,2022-06-30T09:28:40.657+02:00
2022-06-30T09:28:43.869+02:00,3718.288446041667,0.1130218505859375,-0.514190673828125,-0.858978271484375,3718.283471041667,-2.116039251470756,0.1396498133842706,0.5382548539155361,-0.005039128940552473,0.02750661782920361,0.005195893812924623,-0.01152779161930084,0.002018094062805176,-0.009067893028259277,XArbitraryZVertical,0.1887341788116728,-0.1981323686144894,-0.8288707439908135,0.4879511918615746,0.1195146292448044,-0.5126383900642395,-0.8502459526062012,0,0,0,-1,-1,3694.69432325,unknown,2,2022-06-30T09:28:20.275+02:00,2022-06-30T08:20:05.567+02:00,1147,1.44327,0,0,894.856,0,0,2022-06-30T09:28:40.657+02:00
2022-06-30T09:28:43.879+02:00,3718.298398041667,0.1126861572265625,-0.512420654296875,-0.85546875,3718.293422041667,-2.115912988912513,0.139654544432788,0.5382893203087903,0.01179764233529568,0.02406288497149944,-0.0001543967518955469,-0.006493955850601196,-0.00152289867401123,-0.008750200271606445,XArbitraryZVertical,0.1887565005968769,-0.1981339056980025,-0.8288349267886191,0.4880027236860524,0.1195161864161491,-0.5126679539680481,-0.8502278923988342,0,0,0,-1,-1,3694.69432325,unknown,2,2022-06-30T09:28:20.275+02:00,2022-06-30T08:20:05.567+02:00,1147,1.44327,0,0,894.856,0,0,2022-06-30T09:28:40.657+02:00
2022-06-30T09:28:43.889+02:00,3718.308349041667,0.1111602783203125,-0.5076446533203125,-0.853485107421875,3718.303373041667,-2.115943002661582,0.1398226483510595,0.5383656093102104,0.02900079824030399,0.0206133034080267,-0.005941412411630154,-0.006967119872570038,0.0003126859664916992,-0.005299508571624756,XArbitraryZVertical,0.1888405735374331,-0.1981280580185757,-0.8288162706595442,0.4880041262663782,0.119653657078743,-0.5127334594726562,-0.8501690030097961,0,0,0,-1,-1,3694.69432325,unknown,2,2022-06-30T09:28:20.275+02:00,2022-06-30T08:20:05.567+02:00,1147,1.44327,0,0,894.856,0,0,2022-06-30T09:28:40.657+02:00
2022-06-30T09:28:43.899+02:00,3718.318300041667,0.1129913330078125,-0.5097503662109375,-0.8498077392578125,3718.313324041667,-2.116024744877071,0.1400744035690167,0.5386383270945384,0.03901561722159386,0.02878548018634319,-0.002178365830332041,-0.008687481284141541,0.005322754383087158,-0.003484547138214111,XArbitraryZVertical,0.1889989219487605,-0.1981898094946053,-0.8287764528662667,0.4879855932039056,0.1198481693863869,-0.512967586517334,-0.8500004410743713,0,0,0,-1,-1,3694.69432325,unknown,2,2022-06-30T09:28:20.275+02:00,2022-06-30T08:20:05.567+02:00,1147,1.44327,0,0,894.856,0,0,2022-06-30T09:28:40.657+02:00
2022-06-30T09:28:43.909+02:00,3718.328251041667,0.121124267578125,-0.5166168212890625,-0.8446502685546875,3718.323275041667,-2.116098247400299,0.1404492999063807,0.5390107140065216,0.03281497582793236,0.03772266209125519,-0.003960553091019392,-0.00714835524559021,0.003536701202392578,-4.136562347412109e-05,XArbitraryZVertical,0.1892317899135375,-0.1982629976787515,-0.8287096949654215,0.4879790135773181,0.1201400756835938,-0.5132872462272644,-0.8497662544250488,0,0,0,-1,-1,3694.69432325,unknown,2,2022-06-30T09:28:20.275+02:00,2022-06-30T08:20:05.567+02:00,1147,1.44327,0,0,894.856,0,0,2022-06-30T09:28:40.657+02:00
2022-06-30T09:28:43.919+02:00,3718.338202041667,0.1237640380859375,-0.516143798828125,-0.846038818359375,3718.333227041667,-2.116157127239204,0.1408566410448657,0.5392145228349208,0.01816093176603317,0.03803611546754837,0.003441702807322145,0.0006531327962875366,-0.003154873847961426,0.004963517189025879,XArbitraryZVertical,0.1894411370794671,-0.1982555235045364,-0.8286584954065435,0.4879876613872964,0.1204715147614479,-0.5134621262550354,-0.8496136069297791,0,0,0,-1,-1,3694.69432325,unknown,2,2022-06-30T09:28:20.275+02:00,2022-06-30T08:20:05.567+02:00,1147,1.44327,0,0,894.856,0,0,2022-06-30T09:28:40.657+02:00
2022-06-30T09:28:43.929+02:00,3718.348153041667,0.1196136474609375,-0.51776123046875,-0.8453369140625,3718.343178041667,-2.116163915080118,0.1412126293766903,0.5392100493826014,0.00499839149415493,0.03696675971150398,-0.003531584516167641,0.002990156412124634,-0.002685725688934326,0.003534317016601562,XArbitraryZVertical,0.1895869389269742,-0.1981673978397319,-0.8286270274083417,0.4880203279035686,0.1207742840051651,-0.5134583115577698,-0.8495729565620422,0,0,0,-1,-1,3694.69432325,unknown,2,2022-06-30T09:28:20.275+02:00,2022-06-30T08:20:05.567+02:00,1147,1.44327,0,0,894.856,0,0,2022-06-30T09:28:40.657+02:00
2022-06-30T09:28:43.939+02:00,3718.358104041667,0.1203765869140625,-0.5213623046875,-0.84405517578125,3718.353129041667,-2.116021575032644,0.1411443142222499,0.5388607500136875,-0.01888590306043625,0.03374193608760834,-0.01427743956446648,-0.001127436757087708,-0.004602909088134766,0.00442194938659668,XArbitraryZVertical,0.1894932103232575,-0.1980226236154649,-0.8286450345293288,0.4880849971682205,0.1207414716482162,-0.5131585001945496,-0.8497587442398071,0,0,0,-1,-1,3694.69432325,unknown,2,2022-06-30T09:28:20.275+02:00,2022-06-30T08:20:05.567+02:00,1147,1.44327,0,0,894.856,0,0,2022-06-30T09:28:40.657+02:00
2022-06-30T09:28:43.949+02:00,3718.368055041667,0.1264495849609375,-0.51812744140625,-0.8452301025390625,3718.363080041667,-2.115918628268269,0.1411066674566748,0.5383774391467935,-0.03802943602204323,0.03980589285492897,-0.01693371124565601,-0.0003673583269119263,-0.008618831634521484,0.005953669548034668,XArbitraryZVertical,0.1893777470204245,-0.1978174080838611,-0.828687359462196,0.4881409319145704,0.1207443401217461,-0.5127436518669128,-0.8500086665153503,0,0,0,-1,-1,3694.69432325,unknown,2,2022-06-30T09:28:20.275+02:00,2022-06-30T08:20:05.567+02:00,1147,1.44327,0,0,894.856,0,0,2022-06-30T09:28:40.657+02:00
2022-06-30T09:28:43.959+02:00,3718.378006041667,0.122314453125,-0.5160369873046875,-0.8510894775390625,3718.373031041667,-2.115890277415384,0.1412191646860957,0.5377910467407352,-0.05944577977061272,0.03087391890585423,-0.01951564475893974,0.005567699670791626,-0.005887508392333984,0.005062699317932129,XArbitraryZVertical,0.1892936133508664,-0.1975388819902813,-0.8287473261208433,0.4881846161371337,0.1208822652697563,-0.5122401118278503,-0.8502926230430603,0,0,0,-1,-1,3694.69432325,unknown,2,2022-06-30T09:28:20.275+02:00,2022-06-30T08:20:05.567+02:00,1147,1.44327,0,0,894.856,0,0,2022-06-30T09:28:40.657+02:00
2022-06-30T09:28:43.969+02:00,3718.387958041667,0.1184844970703125,-0.5091094970703125,-0.851837158203125,3718.382982041667,-2.115868043650246,0.1413054864921401,0.537031237853297,-0.07992967963218689,0.03366599231958389,-0.02396595291793346,0.001304402947425842,-0.004449784755706787,-0.0004220008850097656,XArbitraryZVertical,0.1891585095177243,-0.1971938319699114,-0.8288341149703929,0.4882292811511308,0.1210104450583458,-0.511587381362915,-0.8506672978401184,0,0,0,-1,-1,3694.69432325,unknown,2,2022-06-30T09:28:20.275+02:00,2022-06-30T08:20:05.567+02:00,1147,1.44327,0,0,894.856,0,0,2022-06-30T09:28:40.657+02:00
2022-06-30T09:28:43.979+02:00,3718.397909041667,0.12249755859375,-0.49517822265625,-0.8545989990234375,3718.392933041667,-2.115838799696716,0.1413679786767453,0.5360895903171121,-0.07825082540512085,0.03249553218483925,-0.02314729802310467,-0.002646550536155701,0.001668393611907959,-0.0007007122039794922,XArbitraryZVertical,0.188972763887565,-0.1967768936389981,-0.8289452828054165,0.4882807386568345,0.1211314275860786,-0.5107780694961548,-0.851136326789856,0,0,0,-1,-1,3694.69432325,unknown,2,2022-06-30T09:28:20.275+02:00,2022-06-30T08:20:05.567+02:00,1147,1.44327,0,0,894.856,0,0,2022-06-30T09:28:40.657+02:00
2022-06-30T09:28:43.989+02:00,3718.407860041667,0.1262969970703125,-0.486419677734375,-0.8573150634765625,3718.402884041667,-2.115792320374954,0.1414638306223374,0.5353769892117712,-0.06684031337499619,0.03112454526126385,-0.01125052385032177,0.00123363733291626,0.01498687267303467,-0.003114044666290283,XArbitraryZVertical,0.1888546905306631,-0.196447223337463,-0.8290187211142587,0.4883343457086706,0.1212642937898636,-0.5101653337478638,-0.8514847755432129,0,0,0,-1,-1,3694.69432325,unknown,2,2022-06-30T09:28:20.275+02:00,2022-06-30T08:20:05.567+02:00,1147,1.44327,0,0,894.856,0,0,2022-06-30T09:28:40.657+02:00
2022-06-30T09:28:43.999+02:00,3718.417811041667,0.12249755859375,-0.4872589111328125,-0.8534698486328125,3718.412835041667,-2.115841769864753,0.1417997657063775,0.5350123888013926,-0.05661936476826668,0.03152535483241081,-0.01434245426207781,0.004720762372016907,0.02343183755874634,-0.005686819553375244,XArbitraryZVertical,0.1889060037087013,-0.196215366434797,-0.8290470954381077,0.488359645056846,0.121576614677906,-0.5098516941070557,-0.8516281247138977,0,0,0,-1,-1,3694.69432325,unknown,2,2022-06-30T09:28:20.275+02:00,2022-06-30T08:20:05.567+02:00,1147,1.44327,0,0,894.856,0,0,2022-06-30T09:28:40.657+02:00
2022-06-30T09:28:44.009+02:00,3718.427762041667,0.125244140625,-0.49078369140625,-0.851348876953125,3718.422787041667,-2.116003057556761,0.1422586238359236,0.5347377482030119,-0.04118308424949646,0.02795111201703548,-0.02083700522780418,0.0005107298493385315,0.02235639095306396,-0.001758873462677002,XArbitraryZVertical,0.1890178286132245,-0.1960022314834826,-0.8290792210428507,0.4883472142745227,0.1219872236251831,-0.509615421295166,-0.8517107963562012,0,0,0,-1,-1,3694.69432325,unknown,2,2022-06-30T09:28:20.275+02:00,2022-06-30T08:20:05.567+02:00,1147,1.44327,0,0,894.856,0,0,2022-06-30T09:28:40.657+02:00
2022-06-30T09:28:44.019+02:00,3718.437713041667,0.1254730224609375,-0.5009765625,-0.849151611328125,3718.432738041667,-2.116174417970512,0.1425467073675005,0.5346120179754374,-0.03408389538526535,0.02278804033994675,-0.02263756841421127,0.003002852201461792,0.01872336864471436,0.0003902912139892578,XArbitraryZVertical,0.1890918237108805,-0.1958948015554429,-0.8291103903737432,0.4883087959480896,0.1222416833043098,-0.5095072388648987,-0.8517389893531799,0,0,0,-1,-1,3694.69432325,unknown,2,2022-06-30T09:28:20.275+02:00,2022-06-30T08:20:05.567+02:00,1147,1.44327,0,0,894.856,0,0,2022-06-30T09:28:40.657+02:00
2022-06-30T09:28:44.029+02:00,3718.447664041667,0.1228485107421875,-0.508026123046875,-0.84661865234375,3718.442689041667,-2.116361826045495,0.1428057862653269,0.5346689598970414,-0.03010034002363682,0.01901848241686821,-0.01934962905943394,0.003015197813510895,0.008579552173614502,0.002527177333831787,XArbitraryZVertical,0.1891938392170259,-0.195873398857654,-0.8291241535554013,0.4882545245210228,0.1224582195281982,-0.5095562338829041,-0.8516786098480225,0,0,0,-1,-1,3694.69432325,unknown,2,2022-06-30T09:28:20.275+02:00,2022-06-30T08:20:05.567+02:00,1147,1.44327,0,0,894.856,0,0,2022-06-30T09:28:40.657+02:00
2022-06-30T09:28:44.039+02:00,3718.457615041667,0.123382568359375,-0.517242431640625,-0.851165771484375,3718.452640041667,-2.11657360904133,0.1431910616017793,0.5346091001931697,-0.03477738425135612,0.01535503845661879,-0.01776478253304958,5.821138620376587e-05,0.001478493213653564,0.005043089389801025,XArbitraryZVertical,0.189319197804792,-0.1957740207336271,-0.8291472752834155,0.4882065106497899,0.1227906942367554,-0.5095047354698181,-0.8516615629196167,0,0,0,-1,-1,3694.69432325,unknown,2,2022-06-30T09:28:20.275+02:00,2022-06-30T08:20:05.567+02:00,1147,1.44327,0,0,894.856,0,0,2022-06-30T09:28:40.657+02:00
2022-06-30T09:28:44.049+02:00,3718.467567041667,0.121551513671875,-0.50927734375,-0.8541412353515625,3718.462591041667,-2.116767021390485,0.1433750657545103,0.5343362092892054,-0.04372626915574074,0.001868064282462001,-0.02666207030415535,0.0004156827926635742,-0.00797271728515625,0.0006109476089477539,XArbitraryZVertical,0.1893144437799048,-0.1956317439447124,-0.8292130138741169,0.4881537539373618,0.1229672580957413,-0.5092698931694031,-0.8517765402793884,0,0,0,-1,-1,3694.69432325,unknown,2,2022-06-30T09:28:20.275+02:00,2022-06-30T08:20:05.567+02:00,1147,1.44327,0,0,894.856,0,0,2022-06-30T09:28:40.657+02:00
2022-06-30T09:28:44.059+02:00,3718.477518041667,0.120269775390625,-0.5047760009765625,-0.8596038818359375,3718.472542041667,-2.116951178808879,0.1433741850222833,0.5338306900668598,-0.0489274226129055,0.0006717720534652472,-0.03334766998887062,-0.001451373100280762,-0.0004427433013916016,-0.002109766006469727,XArbitraryZVertical,0.1891810237119939,-0.1954350947415304,-0.8293245878204971,0.4880947043404022,0.1230032816529274,-0.5088347792625427,-0.8520313501358032,0,0,0,-1,-1,3694.69432325,unknown,2,2022-06-30T09:28:20.275+02:00,2022-06-30T08:20:05.567+02:00,1147,1.44327,0,0,894.856,0,0,2022-06-30T09:28:40.657+02:00
2022-06-30T09:28:44.069+02:00,3718.487469041667,0.1241455078125,-0.501312255859375,-0.8599853515625,3718.482493041667,-2.117252648914909,0.1435159431892407,0.5329580551248106,-0.04524241015315056,-0.001977032050490379,-0.03483171388506889,-0.002917364239692688,0.003307163715362549,-0.007150709629058838,XArbitraryZVertical,0.1890117993449714,-0.1950590319304586,-0.8294995192549242,0.488013475465458,0.1231875196099281,-0.5080833435058594,-0.8524530529975891,0,0,0,-1,-1,3694.69432325,unknown,2,2022-06-30T09:28:20.275+02:00,2022-06-30T08:20:05.567+02:00,1147,1.44327,0,0,894.856,0,0,2022-06-30T09:28:40.657+02:00
2022-06-30T09:28:44.079+02:00,3718.497420041667,0.1198272705078125,-0.5080718994140625,-0.8583221435546875,3718.492444041667,-2.117628775242713,0.143710050014996,0.5319274541053063,-0.0417691133916378,-0.006670320406556129,-0.03700884804129601,0.0007179751992225647,0.00588303804397583,-0.007038295269012451,XArbitraryZVertical,0.1888211842509761,-0.1946101747803063,-0.8297083040353863,0.4879115305792238,0.1234279125928879,-0.5071954131126404,-0.8529468774795532,0,0,0,-1,-1,3694.69432325,unknown,2,2022-06-30T09:28:20.275+02:00,2022-06-30T08:20:05.567+02:00,1147,1.44327,0,0,894.856,0,0,2022-06-30T09:28:40.657+02:00
2022-06-30T09:28:44.088+02:00,3718.507371041667,0.1190338134765625,-0.508514404296875,-0.8585052490234375,3718.502395041667,-2.117922706964434,0.1437947392961883,0.5309973954732282,-0.04626945406198502,-0.001642490737140179,-0.03046326525509357,-0.003740012645721436,-0.001678407192230225,-0.004919111728668213,XArbitraryZVertical,0.1886161684357796,-0.1942227983782129,-0.8298939642120899,0.487829317152665,0.1235676929354668,-0.5063936710357666,-0.8534029126167297,0,0,0,-1,-1,3694.69432325,unknown,2,2022-06-30T09:28:20.275+02:00,2022-06-30T08:20:05.567+02:00,1147,1.44327,0,0,894.856,0,0,2022-06-30T09:28:40.657+02:00
2022-06-30T09:28:44.098+02:00,3718.517322041667,0.123077392578125,-0.4988250732421875,-0.8605194091796875,3718.512347041667,-2.118243433969099,0.1439602887194243,0.5301687012947576,-0.04494772851467133,-0.006511548068374395,-0.03557866811752319,-0.004734918475151062,-0.002835690975189209,-0.004707634449005127,XArbitraryZVertical,0.18846525614669,-0.1938611021319326,-0.8300651397682054,0.487740310245013,0.1237691268324852,-0.5056788921356201,-0.853797435760498,0,0,0,-1,-1,3694.69432325,unknown,2,2022-06-30T09:28:20.275+02:00,2022-06-30T08:20:05.567+02:00,1147,1.44327,0,0,894.856,0,0,2022-06-30T09:28:40.657+02:00
2022-06-30T09:28:44.108+02:00,3718.527273041667,0.119781494140625,-0.48980712890625,-0.8625946044921875,3718.522298041667,-2.118592065292686,0.1440582859665521,0.5296811513328707,-0.03596848249435425,-0.01836053095757961,-0.02821269631385803,-0.0008103847503662109,0.006432950496673584,-0.006490051746368408,XArbitraryZVertical,0.1883612808993237,-0.1936631892836949,-0.8302047218696318,0.4876215041629689,0.1238881796598434,-0.5052582025527954,-0.8540291786193848,0,0,0,-1,-1,3694.69432325,unknown,2,2022-06-30T09:28:20.275+02:00,2022-06-30T08:20:05.567+02:00,1147,1.44327,0,0,894.856,0,0,2022-06-30T09:28:40.657+02:00
2022-06-30T09:28:44.118+02:00,3718.537224041667,0.11444091796875,-0.48016357421875,-0.8631591796875,3718.532249041667,-2.118887006406529,0.1440310678407731,0.5295266721808023,-0.01939616352319717,-0.01844229176640511,-0.03345059975981712,-0.004094257950782776,0.01531755924224854,-0.008484601974487305,XArbitraryZVertical,0.1882863013974391,-0.193632023363084,-0.830299421585827,0.4875016892921614,0.1238761395215988,-0.5051248669624329,-0.8541098237037659,0,0,0,-1,-1,3694.69432325,unknown,2,2022-06-30T09:28:20.275+02:00,2022-06-30T08:20:05.567+02:00,1147,1.44327,0,0,894.856,0,0,2022-06-30T09:28:40.657+02:00
2022-06-30T09:28:44.128+02:00,3718.547176041667,0.11614990234375,-0.481292724609375,-0.86187744140625,3718.542200041667,-2.11922226095143,0.1440544628331958,0.5296675825936515,-0.004653902724385262,-0.007344330660998821,-0.02684785984456539,-0.009444579482078552,0.02508270740509033,-0.009122550487518311,XArbitraryZVertical,0.1882955761808443,-0.1937176761421072,-0.8303605020818235,0.4873600624777158,0.1238858997821808,-0.5052465200424194,-0.8540364503860474,0,0,0,-1,-1,3694.69432325,unknown,2,2022-06-30T09:28:20.275+02:00,2022-06-30T08:20:05.567+02:00,1147,1.44327,0,0,894.856,0,0,2022-06-30T09:28:40.657+02:00
2022-06-30T09:28:44.139+02:00,3718.557127041667,0.1217193603515625,-0.482879638671875,-0.8577423095703125,3718.552151041667,-2.119461699162801,0.1441370773242296,0.5297583682843408,0.01021772157400846,0.00990176759660244,-0.02102619037032127,-0.007799580693244934,0.02403193712234497,-0.00789642333984375,XArbitraryZVertical,0.1883273115226147,-0.1937586277114022,-0.8303991759736391,0.4872655852028042,0.1239498630166054,-0.5053248405456543,-0.8539808392524719,0,0,0,-1,-1,3694.69432325,unknown,2,2022-06-30T09:28:20.275+02:00,2022-06-30T08:20:05.567+02:00,1147,1.44327,0,0,894.856,0,0,2022-06-30T09:28:40.657+02:00
2022-06-30T09:28:44.148+02:00,3718.567078041667,0.1258697509765625,-0.4995269775390625,-0.8571929931640625,3718.562102041667,-2.119662249754754,0.1442578627593669,0.5298294131406724,0.02337127178907394,0.01434967014938593,-0.02126623876392841,-0.002328097820281982,0.02250635623931885,-0.003811836242675781,XArbitraryZVertical,0.1883741736903907,-0.1937782870504246,-0.8304273018924606,0.4871914937823204,0.1240478456020355,-0.5053861737251282,-0.8539302945137024,0,0,0,-1,-1,3694.69432325,unknown,2,2022-06-30T09:28:20.275+02:00,2022-06-30T08:20:05.567+02:00,1147,1.44327,0,0,894.856,0,0,2022-06-30T09:28:40.657+02:00
2022-06-30T09:28:44.158+02:00,3718.577029041667,0.1286163330078125,-0.514373779296875,-0.853546142578125,3718.572053041667,-2.120004693671959,0.1445338711412652,0.5298789306757614,0.02463307976722717,0.008705633692443371,-0.03142034262418747,0.001590192317962646,0.005901694297790527,-0.003321528434753418,XArbitraryZVertical,0.1884668454176672,-0.1937643190744371,-0.8304782520494005,0.4870744549135324,0.1242799311876297,-0.5054288506507874,-0.8538712859153748,0,0,0,-1,-1,3694.69432325,unknown,2,2022-06-30T09:28:20.275+02:00,2022-06-30T08:20:05.567+02:00,1147,1.44327,0,0,894.856,0,0,2022-06-30T09:28:40.657+02:00
2022-06-30T09:28:44.168+02:00,3718.586980041667,0.1280975341796875,-0.526611328125,-0.849700927734375,3718.582004041667,-2.120407730328149,0.1446752244666023,0.5298999508887235,-0.01221601478755474,-0.002231533173471689,-0.0518258810043335,0.004217624664306641,-0.008926928043365479,0.0002971887588500977,XArbitraryZVertical,0.1884912671584259,-0.1937768086713815,-0.8305603120832541,0.4869200706013402,0.1243990957736969,-0.5054470300674438,-0.8538431525230408,0,0,0,-1,-1,3694.69432325,unknown,2,2022-06-30T09:28:20.275+02:00,2022-06-30T08:20:05.567+02:00,1147,1.44327,0,0,894.856,0,0,2022-06-30T09:28:40.657+02:00
2022-06-30T09:28:44.178+02:00,3718.59693075,0.13043212890625,-0.5262603759765625,-0.8473968505859375,3718.591956041667,-2.120979337086692,0.1447797413649525,0.5295260098148196,-0.04868294671177864,-0.01045457646250725,-0.07219959050416946,0.003582343459129333,-0.02148717641830444,0.004316389560699463,XArbitraryZVertical,0.1883944674557689,-0.1936464583913384,-0.8307385679310653,0.48670526732413,0.124515600502491,-0.5051243305206299,-0.8540171384811401,0,0,0,-1,-1,3694.69432325,unknown,2,2022-06-30T09:28:20.275+02:00,2022-06-30T08:20:05.567+02:00,1147,1.44327,0,0,894.856,0,0,2022-06-30T09:28:40.657+02:00
2022-06-30T09:28:44.188+02:00,3718.60688175,0.1348419189453125,-0.5138397216796875,-0.847015380859375,3718.60190675,-2.121748020158404,0.144918937091206,0.5286471942826338,-0.06296421587467194,-0.03074022382497787,-0.08492414653301239,0.005733974277973175,-0.02189487218856812,0.007042109966278076,XArbitraryZVertical,0.1881786429832784,-0.1933117564581514,-0.8310274437559474,0.4864285237203562,0.1246985271573067,-0.5043656826019287,-0.8544387221336365,0,0,0,-1,-1,3694.69432325,unknown,2,2022-06-30T09:28:20.275+02:00,2022-06-30T08:20:05.567+02:00,1147,1.44327,0,0,894.856,0,0,2022-06-30T09:28:40.657+02:00
2022-06-30T09:28:44.198+02:00,3718.61683275,0.1283416748046875,-0.5098114013671875,-0.838836669921875,3718.61185775,-2.122598758229442,0.1447629425138762,0.5273982376067606,-0.08307188004255295,-0.05420746654272079,-0.1002229377627373,0.01018627732992172,-0.01055306196212769,0.008065640926361084,XArbitraryZVertical,0.1877485923824112,-0.1928990551306662,-0.8314120991695696,0.4861011065530776,0.1246560141444206,-0.5032868385314941,-0.8550808429718018,0,0,0,-1,-1,3694.69432325,unknown,2,2022-06-30T09:28:20.275+02:00,2022-06-30T08:20:05.567+02:00,1147,1.44327,0,0,894.856,0,0,2022-06-30T09:28:40.657+02:00
2022-06-30T09:28:44.208+02:00,3718.62678375,0.1181793212890625,-0.503173828125,-0.8337554931640625,3718.62180875,-2.123483158117459,0.1443837785652015,0.5258343342438868,-0.09220518916845322,-0.06250021606683731,-0.1114256605505943,0.003897175192832947,-0.007876753807067871,0.01706939935684204,XArbitraryZVertical,0.1871514330192435,-0.1924094022474789,-0.8318663702712693,0.4857482908238009,0.1244448870420456,-0.501934826374054,-0.8559059500694275,0,0,0,-1,-1,3694.69432325,unknown,2,2022-06-30T09:28:20.275+02:00,2022-06-30T08:20:05.567+02:00,1147,1.44327,0,0,894.856,0,0,2022-06-30T09:28:40.657+02:00
2022-06-30T09:28:44.218+02:00,3718.63673575,0.1174468994140625,-0.4972076416015625,-0.8291473388671875,3718.63175975,-2.124532800696536,0.1441002151894318,0.5242533066170525,-0.09747185558080673,-0.06036941707134247,-0.1248937994241714,-0.006136275827884674,-0.002607226371765137,0.02297013998031616,XArbitraryZVertical,0.1865746004145661,-0.191904120079734,-0.8323531795050269,0.4853359565751516,0.1243159845471382,-0.5005667209625244,-0.8567254543304443,0,0,0,-1,-1,3694.69432325,unknown,2,2022-06-30T09:28:20.275+02:00,2022-06-30T08:20:05.567+02:00,1147,1.44327,0,0,894.856,0,0,2022-06-30T09:28:40.657+02:00
2022-06-30T09:28:44.228+02:00,3718.64668675,0.120697021484375,-0.4884185791015625,-0.834075927734375,3718.64171075,-2.125784243843396,0.1440606703410134,0.5227714678924276,-0.08951705694198608,-0.06758596748113632,-0.1279691755771637,-0.006941169500350952,0.002075552940368652,0.02831631898880005,XArbitraryZVertical,0.1861029102874145,-0.1913999660842166,-0.8328525588173845,0.4848593076322295,0.1243884563446045,-0.4992833733558655,-0.857463538646698,0,0,0,-1,-1,3694.69432325,unknown,2,2022-06-30T09:28:20.275+02:00,2022-06-30T08:20:05.567+02:00,1147,1.44327,0,0,894.856,0,0,2022-06-30T09:28:40.657+02:00
2022-06-30T09:28:44.251+02:00,3718.65663775,0.1199188232421875,-0.4620361328125,-0.8397369384765625,3718.65166175,-2.1271229879854,0.1439914111743852,0.5218342553404959,-0.06806023418903351,-0.08873465657234192,-0.1285108625888824,-0.003698736429214478,0.01005232334136963,0.02385908365249634,XArbitraryZVertical,0.185734162321164,-0.19114234727992,-0.8333046658684578,0.48432523431953,0.1243961602449417,-0.4984711110591888,-0.857934832572937,0,0,0,-1,-1,3694.69432325,unknown,2,2022-06-30T09:28:20.275+02:00,2022-06-30T08:20:05.567+02:00,1147,1.44327,0,0,894.856,0,0,2022-06-30T09:28:40.657+02:00
2022-06-30T09:28:44.253+02:00,3718.66658875,0.111419677734375,-0.4418487548828125,-0.8441925048828125,3718.66161275,-2.128556578481867,0.1439607643960217,0.5215012197613529,-0.03766971081495285,-0.07480504363775253,-0.1246761232614517,-0.004474461078643799,0.03614604473114014,0.01836609840393066,XArbitraryZVertical,0.1855091847081419,-0.1911410727485198,-0.8336974606787404,0.483735376971601,0.1243936717510223,-0.4981823563575745,-0.8581028580665588,0,0,0,-1,-1,3694.69432325,unknown,2,2022-06-30T09:28:20.275+02:00,2022-06-30T08:20:05.567+02:00,1147,1.44327,0,0,894.856,0,0,2022-06-30T09:28:40.657+02:00
2022-06-30T09:28:44.258+02:00,3718.67653975,0.116943359375,-0.4418182373046875,-0.8521270751953125,3718.67156375,-2.129961025502766,0.144184904062524,0.5218631880594269,0.0291985347867012,-0.03693755716085434,-0.1160061955451965,-0.01314002275466919,0.05664724111557007,0.01370412111282349,XArbitraryZVertical,0.1855499459570783,-0.1913713145682705,-0.8339693786860207,0.483159807045787,0.1245600879192352,-0.4984961748123169,-0.8578964471817017,0,0,0,-1,-1,3694.69432325,unknown,2,2022-06-30T09:28:20.275+02:00,2022-06-30T08:20:05.567+02:00,1147,1.44327,0,0,894.856,0,0,2022-06-30T09:28:40.657+02:00
2022-06-30T09:28:44.268+02:00,3718.68649075,0.118499755859375,-0.449310302734375,-0.8582916259765625,3718.68151575,-2.131326666600236,0.144698607266911,0.5228682811013199,0.1120908260345459,-0.01444010622799397,-0.0912323072552681,-0.007984712719917297,0.05754882097244263,0.005209207534790039,XArbitraryZVertical,0.1858596380195066,-0.1918023021635381,-0.8341211956505121,0.4826074949684296,0.1249284669756889,-0.4993672370910645,-0.857336163520813,0,0,0,-1,-1,3694.69432325,unknown,2,2022-06-30T09:28:20.275+02:00,2022-06-30T08:20:05.567+02:00,1147,1.44327,0,0,894.856,0,0,2022-06-30T09:28:40.657+02:00
2022-06-30T09:28:44.278+02:00,3718.69644175,0.12451171875,-0.4802703857421875,-0.8618011474609375,3718.69146675,-2.132639575024617,0.1455204201580157,0.5243361726433007,0.1628988832235336,0.01863555610179901,-0.08476216346025467,-0.007026419043540955,0.05132800340652466,-0.001784443855285645,XArbitraryZVertical,0.1864062167886027,-0.1923518225954555,-0.8341706751402478,0.4820922076413043,0.1255265772342682,-0.500638484954834,-0.8565070033073425,0,0,0,-1,-1,3694.69432325,unknown,2,2022-06-30T09:28:20.275+02:00,2022-06-30T08:20:05.567+02:00,1147,1.44327,0,0,894.856,0,0,2022-06-30T09:28:40.657+02:00
2022-06-30T09:28:44.287+02:00,3718.70639275,0.1313934326171875,-0.5180816650390625,-0.8574676513671875,3718.70141775,-2.13388387645873,0.1463350733955644,0.5259149722076429,0.1321738511323929,0.006998631171882153,-0.0827171802520752,-0.001596763730049133,0.02173399925231934,-0.006179571151733398,XArbitraryZVertical,0.1869803583389981,-0.1929446485900173,-0.8341886262598974,0.4816015998047135,0.1261088699102402,-0.5020045638084412,-0.8556213974952698,0,0,0,-1,-1,3694.69432325,unknown,2,2022-06-30T09:28:20.275+02:00,2022-06-30T08:20:05.567+02:00,1147,1.44327,0,0,894.856,0,0,2022-06-30T09:28:40.657+02:00
2022-06-30T09:28:44.297+02:00,3718.71634475,0.1302337646484375,-0.521453857421875,-0.862579345703125,3718.71136875,-2.134966956155264,0.1467871759504716,0.5269367064741927,0.06757941097021103,-0.01004080567508936,-0.08408898115158081,0.004973232746124268,-0.0151938796043396,-0.002411007881164551,XArbitraryZVertical,0.1872932097393246,-0.1933727606081981,-0.8342734588723975,0.4811611127969163,0.1264206022024155,-0.5028879642486572,-0.8550564646720886,0,0,0,-1,-1,3694.69432325,unknown,2,2022-06-30T09:28:20.275+02:00,2022-06-30T08:20:05.567+02:00,1147,1.44327,0,0,894.856,0,0,2022-06-30T09:28:40.657+02:00
2022-06-30T09:28:44.307+02:00,3718.72629575,0.1269073486328125,-0.495513916015625,-0.866180419921875,3718.72131975,-2.135977441141183,0.1471266836585496,0.5273091842495753,0.01158079318702221,-0.01019971072673798,-0.09179400652647018,0.003550752997398376,-0.01824420690536499,-0.007751047611236572,XArbitraryZVertical,0.1874204334174762,-0.1935445986349288,-0.8344359007705335,0.4807606425561283,0.1266834288835526,-0.5032098293304443,-0.8548281192779541,0,0,0,-1,-1,3694.69432325,unknown,2,2022-06-30T09:28:20.275+02:00,2022-06-30T08:20:05.567+02:00,1147,1.44327,0,0,894.856,0,0,2022-06-30T09:28:40.657+02:00
2022-06-30T09:28:44.317+02:00,3718.73624675,0.125213623046875,-0.49334716796875,-0.867431640625,3718.73127075,-2.137018712386958,0.1475284550694809,0.5270436184051253,-0.03086360171437263,-0.007284881547093391,-0.1012018844485283,-0.0001387596130371094,0.007466256618499756,-0.01127094030380249,XArbitraryZVertical,0.1874279996149123,-0.1934323786476435,-0.8346832209990273,0.480373336453073,0.1270464956760406,-0.5029803514480591,-0.8549093008041382,0,0,0,-1,-1,3694.69432325,unknown,2,2022-06-30T09:28:20.275+02:00,2022-06-30T08:20:05.567+02:00,1147,1.44327,0,0,894.856,0,0,2022-06-30T09:28:40.657+02:00
2022-06-30T09:28:44.327+02:00,3718.74619775,0.1294097900390625,-0.4940948486328125,-0.8656005859375,3718.74122175,-2.138142725443129,0.1479615604187349,0.526011089314808,-0.06983144581317902,-0.00982990674674511,-0.1165732815861702,-0.002279222011566162,0.00874030590057373,-0.01206403970718384,XArbitraryZVertical,0.1872696892666467,-0.192993091226977,-0.835047723176313,0.479978329618737,0.1274932473897934,-0.5020876526832581,-0.8553674817085266,0,0,0,-1,-1,3694.69432325,unknown,2,2022-06-30T09:28:20.275+02:00,2022-06-30T08:20:05.567+02:00,1147,1.44327,0,0,894.856,0,0,2022-06-30T09:28:40.657+02:00
2022-06-30T09:28:44.337+02:00,3718.75614875,0.1253509521484375,-0.489410400390625,-0.8671875,3718.75117275,-2.139225568346735,0.1481885716088698,0.5243287599324138,-0.09674668312072754,-0.01714214868843555,-0.1212199702858925,0.001598194241523743,0.006537079811096191,-0.009427726268768311,XArbitraryZVertical,0.1868849344664202,-0.1923218145878271,-0.8355060447462352,0.4795998536872622,0.1278119534254074,-0.5006320476531982,-0.8561726808547974,0,0,0,-1,-1,3694.69432325,unknown,2,2022-06-30T09:28:20.275+02:00,2022-06-30T08:20:05.567+02:00,1147,1.44327,0,0,894.856,0,0,2022-06-30T09:28:40.657+02:00
2022-06-30T09:28:44.347+02:00,3718.76609975,0.1313629150390625,-0.4907684326171875,-0.86962890625,3718.76112475,-2.140337113125924,0.1484096540534784,0.5222998133871763,-0.1123381555080414,-0.02453626878559589,-0.1228659301996231,-0.002799808979034424,0.009464085102081299,-0.01004010438919067,XArbitraryZVertical,0.1864184166674288,-0.1915060182338132,-0.8360162816804797,0.4792186009430893,0.1281511634588242,-0.4988746345043182,-0.857147216796875,0,0,0,-1,-1,3694.69432325,unknown,2,2022-06-30T09:28:20.275+02:00,2022-06-30T08:20:05.567+02:00,1147,1.44327,0,0,894.856,0,0,2022-06-30T09:28:40.657+02:00
2022-06-30T09:28:44.357+02:00,3718.77605075,0.13580322265625,-0.4847869873046875,-0.869384765625,3718.77107575,-2.141424043081078,0.1483989220693994,0.5202033203745599,-0.1220198050141335,-0.05593733489513397,-0.1166567727923393,0.003066986799240112,0.006287992000579834,-0.01144760847091675,XArbitraryZVertical,0.185843073301807,-0.1907138888512368,-0.8365500017715639,0.4788264679930297,0.1282963305711746,-0.4970565736293793,-0.8581811189651489,0,0,0,-1,-1,3694.69432325,unknown,2,2022-06-30T09:28:20.275+02:00,2022-06-30T08:20:05.567+02:00,1147,1.44327,0,0,894.856,0,0,2022-06-30T09:28:40.657+02:00
2022-06-30T09:28:44.367+02:00,3718.78600175,0.119873046875,-0.478363037109375,-0.8691558837890625,3718.78102675,-2.142320529392479,0.148219577378172,0.5184460595747756,-0.1417263448238373,-0.04708233848214149,-0.09040123969316483,0.007532417774200439,0.01074385643005371,-0.01031792163848877,XArbitraryZVertical,0.1852914655488273,-0.1900887442981365,-0.8370088041410393,0.4784869436621831,0.1282712072134018,-0.4955309927463531,-0.8590666651725769,0,0,0,-1,-1,3694.69432325,unknown,2,2022-06-30T09:28:20.275+02:00,2022-06-30T08:20:05.567+02:00,1147,1.44327,0,0,894.856,0,0,2022-06-30T09:28:40.657+02:00
2022-06-30T09:28:44.377+02:00,3718.79595275,0.1269989013671875,-0.474609375,-0.8730010986328125,3718.79097775,-2.143051673228404,0.1482973443977634,0.5174062269884184,-0.1265702843666077,-0.02328033559024334,-0.07324115931987762,-0.008540645241737366,0.01626434922218323,-0.009589850902557373,XArbitraryZVertical,0.1850232100266365,-0.1896931807354864,-0.8373107938822423,0.478219050044168,0.1284140795469284,-0.4946275353431702,-0.859565794467926,0,0,0,-1,-1,3694.69432325,unknown,2,2022-06-30T09:28:20.275+02:00,2022-06-30T08:20:05.567+02:00,1147,1.44327,0,0,894.856,0,0,2022-06-30T09:28:40.657+02:00
2022-06-30T09:28:44.387+02:00,3718.80590475,0.134033203125,-0.4718017578125,-0.876953125,3718.80092875,-2.143656859255762,0.1484252054766597,0.5167155331398782,-0.08482404053211212,-0.01810651645064354,-0.06135886162519455,-0.001575171947479248,0.01941758394241333,-0.01311385631561279,XArbitraryZVertical,0.1848657617901207,-0.1894230663399396,-0.8375328585438201,0.4779983415239475,0.128574475646019,-0.4940271377563477,-0.8598871231079102,0,0,0,-1,-1,3694.69432325,unknown,2,2022-06-30T09:28:20.275+02:00,2022-06-30T08:20:05.567+02:00,1147,1.44327,0,0,894.856,0,0,2022-06-30T09:28:40.657+02:00
2022-06-30T09:28:44.397+02:00,3718.81585575,0.134002685546875,-0.4862060546875,-0.8806304931640625,3718.81087975,-2.144171432262502,0.1484975902468361,0.515935817980072,-0.05161787942051888,-0.01149601675570011,-0.0601750910282135,0.005339920520782471,0.02154713869094849,-0.01669448614120483,XArbitraryZVertical,0.1846740293383301,-0.1891196742014811,-0.8377496815284002,0.4778126512724053,0.1286936700344086,-0.4933490753173828,-0.8602585196495056,0,0,0,-1,-1,3694.69432325,unknown,2,2022-06-30T09:28:20.275+02:00,2022-06-30T08:20:05.567+02:00,1147,1.44327,0,0,894.856,0,0,2022-06-30T09:28:40.657+02:00
2022-06-30T09:28:44.407+02:00,3718.82580675,0.139556884765625,-0.4919586181640625,-0.8817901611328125,3718.82083075,-2.144717265120565,0.148608590056169,0.5153971650599076,-0.02768252417445183,-0.005597950424998999,-0.05785237997770309,0.005174592137336731,0.006674230098724365,-0.02012348175048828,XArbitraryZVertical,0.1845492380441018,-0.1889130569551297,-0.8379391442829625,0.4776101254401263,0.1288284808397293,-0.4928804636001587,-0.8605068922042847,0,0,0,-1,-1,3694.69432325,unknown,2,2022-06-30T09:28:20.275+02:00,2022-06-30T08:20:05.567+02:00,1147,1.44327,0,0,894.856,0,0,2022-06-30T09:28:40.657+02:00
2022-06-30T09:28:44.417+02:00,3718.83575775,0.1436614990234375,-0.4925384521484375,-0.8804168701171875,3718.83078175,-2.14536290387057,0.148811008813326,0.5151079738021637,-0.008499240502715111,-0.01539279147982597,-0.06417339295148849,0.01053349673748016,0.000670015811920166,-0.0211682915687561,XArbitraryZVertical,0.1845088523411317,-0.1888005043442589,-0.8381118540517957,0.4773671595160817,0.1290237903594971,-0.492628812789917,-0.8606216907501221,0,0,0,-1,-1,3694.69432325,unknown,2,2022-06-30T09:28:20.275+02:00,2022-06-30T08:20:05.567+02:00,1147,1.44327,0,0,894.856,0,0,2022-06-30T09:28:40.657+02:00
2022-06-30T09:28:44.427+02:00,3718.84570875,0.14276123046875,-0.4963531494140625,-0.8736114501953125,3718.84073275,-2.146082050749378,0.14882122457234,0.5148817160657404,0.01541334949433804,-0.03285345435142517,-0.07286597788333893,0.01461277902126312,-0.0001067221164703369,-0.01968610286712646,XArbitraryZVertical,0.1843950256947736,-0.1887674867191119,-0.8383116788389647,0.4770734076944617,0.1290491074323654,-0.4924319088459015,-0.8607306480407715,0,0,0,-1,-1,3694.69432325,unknown,2,2022-06-30T09:28:20.275+02:00,2022-06-30T08:20:05.567+02:00,1147,1.44327,0,0,894.856,0,0,2022-06-30T09:28:40.657+02:00
2022-06-30T09:28:44.437+02:00,3718.85565975,0.1462860107421875,-0.4934234619140625,-0.86138916015625,3718.85068475,-2.147018140012263,0.1489194127543505,0.5148325462429172,0.02649076655507088,-0.04563023522496223,-0.08280276507139206,0.0136244148015976,-0.003964215517044067,-0.01286941766738892,XArbitraryZVertical,0.1843369218391672,-0.1888093381286414,-0.8385321179558906,0.4766915879087136,0.1291372179985046,-0.4923891127109528,-0.8607418537139893,0,0,0,-1,-1,3694.69432325,unknown,2,2022-06-30T09:28:20.275+02:00,2022-06-30T08:20:05.567+02:00,1147,1.44327,0,0,894.856,0,0,2022-06-30T09:28:40.657+02:00
2022-06-30T09:28:44.447+02:00,3718.86561075,0.14837646484375,-0.498992919921875,-0.8485107421875,3718.86063575,-2.148111618729135,0.1490713605522661,0.5146754876222539,0.02175027504563332,-0.05697418004274368,-0.08842121064662933,0.01700693368911743,-0.001171231269836426,-0.0005903244018554688,XArbitraryZVertical,0.1842626100105679,-0.1888066483157977,-0.8387988044387585,0.4762518575569715,0.1292794793844223,-0.4922524094581604,-0.8607986569404602,0,0,0,-1,-1,3694.69432325,unknown,2,2022-06-30T09:28:20.275+02:00,2022-06-30T08:20:05.567+02:00,1147,1.44327,0,0,894.856,0,0,2022-06-30T09:28:40.657+02:00
2022-06-30T09:28:44.457+02:00,3718.87556175,0.143310546875,-0.4911956787109375,-0.84185791015625,3718.87058675,-2.149001110539881,0.1486796088576881,0.5143100334587798,0.01254878658801317,-0.06135667487978935,-0.08972696214914322,0.0194079577922821,-0.007058829069137573,0.01251649856567383,XArbitraryZVertical,0.183933396782194,-0.1888251669681445,-0.8390936284160835,0.4758523277311447,0.1289688944816589,-0.4919342696666718,-0.8610271215438843,0,0,0,-1,-1,3694.69432325,unknown,2,2022-06-30T09:28:20.275+02:00,2022-06-30T08:20:05.567+02:00,1147,1.44327,0,0,894.856,0,0,2022-06-30T09:28:40.657+02:00
2022-06-30T09:28:44.467+02:00,3718.88551375,0.1432647705078125,-0.48748779296875,-0.8355712890625,3718.88053775,-2.149994415833354,0.1484773773311085,0.5137588997319197,0.007114539388567209,-0.06147115305066109,-0.08966859430074692,0.01447609066963196,0.0002585053443908691,0.01946341991424561,XArbitraryZVertical,0.183632850122309,-0.1887282939062935,-0.8394193255197694,0.4754323504168484,0.1288348585367203,-0.4914543628692627,-0.8613212108612061,0,0,0,-1,-1,3694.69432325,unknown,2,2022-06-30T09:28:20.275+02:00,2022-06-30T08:20:05.567+02:00,1147,1.44327,0,0,894.856,0,0,2022-06-30T09:28:40.657+02:00
2022-06-30T09:28:44.477+02:00,3718.89546475,0.13702392578125,-0.49072265625,-0.8371734619140625,3718.89048875,-2.150999825012834,0.1484356567710717,0.5130516336161969,-0.005284339189529419,-0.05985035374760628,-0.08032036572694778,0.01441489160060883,0.003350317478179932,0.02609896659851074,XArbitraryZVertical,0.1833641726497289,-0.1885272500369845,-0.8397528322372728,0.4750264986315944,0.1288502812385559,-0.4908382594585419,-0.8616701364517212,0,0,0,-1,-1,3694.69432325,unknown,2,2022-06-30T09:28:20.275+02:00,2022-06-30T08:20:05.567+02:00,1147,1.44327,0,0,894.856,0,0,2022-06-30T09:28:40.657+02:00
2022-06-30T09:28:44.486+02:00,3718.90541575,0.12542724609375,-0.4884033203125,-0.83673095703125,3718.90043975,-2.151891727471548,0.148290374921536,0.5124248039672541,-0.03280824422836304,-0.0682365745306015,-0.07883785665035248,0.008253782987594604,-0.000430762767791748,0.02481967210769653,XArbitraryZVertical,0.1830806636421293,-0.188374603655812,-0.8400583283606357,0.4746561740323585,0.1287705302238464,-0.4902920424938202,-0.8619929552078247,0,0,0,-1,-1,3694.69432325,unknown,2,2022-06-30T09:28:20.275+02:00,2022-06-30T08:20:05.567+02:00,1147,1.44327,0,0,894.856,0,0,2022-06-30T09:28:40.657+02:00
2022-06-30T09:28:44.496+02:00,3718.91536675,0.1182403564453125,-0.484222412109375,-0.8333282470703125,3718.91039075,-2.152878465416057,0.1482206848579175,0.5116534032391756,-0.05677323043346405,-0.07302094250917435,-0.08988704532384872,-0.003338634967803955,0.001216083765029907,0.02564495801925659,XArbitraryZVertical,0.1827882360526019,-0.188150415888871,-0.8403976770168243,0.474257086792814,0.1287662833929062,-0.4896195828914642,-0.8623757362365723,0,0,0,-1,-1,3694.69432325,unknown,2,2022-06-30T09:28:20.275+02:00,2022-06-30T08:20:05.567+02:00,1147,1.44327,0,0,894.856,0,0,2022-06-30T09:28:40.657+02:00
2022-06-30T09:28:44.506+02:00,3718.92531775,0.1188507080078125,-0.4859771728515625,-0.8293914794921875,3718.92034175,-2.153949283873745,0.1483294883676571,0.5107116382091502,-0.07219532877206802,-0.06024106219410896,-0.08828794956207275,-0.0106874406337738,0.004575610160827637,0.02948927879333496,XArbitraryZVertical,0.1825256216727074,-0.187818257303706,-0.8407620581756166,0.4738438111399582,0.1289281994104385,-0.488798201084137,-0.8628174066543579,0,0,0,-1,-1,3694.69432325,unknown,2,2022-06-30T09:28:20.275+02:00,2022-06-30T08:20:05.567+02:00,1147,1.44327,0,0,894.856,0,0,2022-06-30T09:28:40.657+02:00
2022-06-30T09:28:44.516+02:00,3718.93526875,0.123504638671875,-0.48956298828125,-0.8256683349609375,3718.93029375,-2.15492365226725,0.1485816943805134,0.5098067206429027,-0.09199300408363342,-0.03917093202471733,-0.0828780010342598,-0.01036012172698975,0.002031207084655762,0.03383058309555054,XArbitraryZVertical,0.1823408536995593,-0.1874589268611541,-0.8410854366134646,0.4734830513092519,0.1292112171649933,-0.4880085587501526,-0.8632219433784485,0,0,0,-1,-1,3694.69432325,unknown,2,2022-06-30T09:28:20.275+02:00,2022-06-30T08:20:05.567+02:00,1147,1.44327,0,0,894.856,0,0,2022-06-30T09:28:40.657+02:00
2022-06-30T09:28:44.526+02:00,3718.94521975,0.127044677734375,-0.4873046875,-0.825714111328125,3718.94024475,-2.155856154517857,0.1490361177551414,0.5087949117770735,-0.1133821755647659,-0.03355371952056885,-0.0754505842924118,-0.006171703338623047,-0.002438008785247803,0.03798282146453857,XArbitraryZVertical,0.1822219289196869,-0.187001791839161,-0.8413939178219783,0.4731615426496771,0.1296767294406891,-0.4871251583099365,-0.8636509776115417,0,0,0,-1,-1,3694.69432325,unknown,2,2022-06-30T09:28:20.275+02:00,2022-06-30T08:20:05.567+02:00,1147,1.44327,0,0,894.856,0,0,2022-06-30T09:28:40.657+02:00
2022-06-30T09:28:44.537+02:00,3718.95517075,0.140350341796875,-0.480804443359375,-0.8271331787109375,3718.95019575,-2.156773237104328,0.1495970792604132,0.5078721393041276,-0.1280093193054199,-0.02853579446673393,-0.0804101824760437,-0.003183037042617798,-0.0009858012199401855,0.03830826282501221,XArbitraryZVertical,0.1821693280414101,-0.1865562268096304,-0.8416773664112958,0.4728533581415861,0.130228117108345,-0.4863190650939941,-0.8640221953392029,0,0,0,-1,-1,3694.69432325,unknown,2,2022-06-30T09:28:20.275+02:00,2022-06-30T08:20:05.567+02:00,1147,1.44327,0,0,894.856,0,0,2022-06-30T09:28:40.657+02:00
2022-06-30T09:28:44.546+02:00,3718.96512175,0.142608642578125,-0.4788970947265625,-0.834686279296875,3718.96014675,-2.157645756693821,0.1499947178439553,0.506733872532197,-0.1404021382331848,-0.03840088099241257,-0.08240166306495667,0.009696409106254578,0.004519522190093994,0.03738415241241455,XArbitraryZVertical,0.1820052276450577,-0.1860524466010495,-0.8419924063833401,0.4725541707752211,0.1306543201208115,-0.4853241443634033,-0.8645171523094177,0,0,0,-1,-1,3694.69432325,unknown,2,2022-06-30T09:28:20.275+02:00,2022-06-30T08:20:05.567+02:00,1147,1.44327,0,0,894.856,0,0,2022-06-30T09:28:40.657+02:00
2022-06-30T09:28:44.556+02:00,3718.97507375,0.1444091796875,-0.4780731201171875,-0.844024658203125,3718.97009775,-2.158584104953814,0.1503149332244179,0.5055020630427547,-0.146735668182373,-0.04319190979003906,-0.0968431830406189,0.01158846914768219,0.005349546670913696,0.03037959337234497,XArbitraryZVertical,0.1817823437906546,-0.1855325672022006,-0.8423415368841661,0.4722218696014787,0.1310205608606339,-0.4842467606067657,-0.8650656938552856,0,0,0,-1,-1,3694.69432325,unknown,2,2022-06-30T09:28:20.275+02:00,2022-06-30T08:20:05.567+02:00,1147,1.44327,0,0,894.856,0,0,2022-06-30T09:28:40.657+02:00
2022-06-30T09:28:44.566+02:00,3718.98502475,0.14276123046875,-0.48760986328125,-0.85162353515625,3718.98004875,-2.15966161406528,0.1505386154856949,0.5041097695033422,-0.1644613444805145,-0.04483107104897499,-0.1279141902923584,0.01309452950954437,0.00495484471321106,0.02167761325836182,XArbitraryZVertical,0.1814712037828057,-0.1849787191403755,-0.8427523517919273,0.4718259342666501,0.1313150525093079,-0.4830281436443329,-0.8657021522521973,0,0,0,-1,-1,3694.69432325,unknown,2,2022-06-30T09:28:20.275+02:00,2022-06-30T08:20:05.567+02:00,1147,1.44327,0,0,894.856,0,0,2022-06-30T09:28:40.657+02:00
2022-06-30T09:28:44.576+02:00,3718.99497575,0.1497802734375,-0.4889373779296875,-0.856109619140625,3718.98999975,-2.160955216795182,0.1507113349385268,0.5024340281663277,-0.1916807144880295,-0.04541057348251343,-0.1555516719818115,0.0111757218837738,-0.006049871444702148,0.01485508680343628,XArbitraryZVertical,0.1810571357007251,-0.1843341424034357,-0.8432539355830631,0.4713407020507114,0.1315859109163284,-0.4815601706504822,-0.8664785027503967,0,0,0,-1,-1,3694.69432325,unknown,2,2022-06-30T09:28:20.275+02:00,2022-06-30T08:20:05.567+02:00,1147,1.44327,0,0,894.856,0,0,2022-06-30T09:28:40.657+02:00
2022-06-30T09:28:44.586+02:00,3719.00492675,0.14508056640625,-0.489013671875,-0.860626220703125,3718.99995075,-2.162440183020376,0.1507538684583299,0.5004948185825322,-0.2036470919847488,-0.06957396864891052,-0.1784460842609406,0.01801790297031403,-0.00907781720161438,0.01128506660461426,XArbitraryZVertical,0.1805137024085223,-0.1836233914416685,-0.8438447984136381,0.4707687957071303,0.1317627727985382,-0.4798597097396851,-0.8673945069313049,0,0,0,-1,-1,3694.69432325,unknown,2,2022-06-30T09:28:20.275+02:00,2022-06-30T08:20:05.567+02:00,1147,1.44327,0,0,894.856,0,0,2022-06-30T09:28:40.657+02:00
2022-06-30T09:28:44.596+02:00,3719.01487775,0.130889892578125,-0.476898193359375,-0.8558197021484375,3719.00990275,-2.164197111699048,0.1507453831632325,0.49850947542202,-0.2020662426948547,-0.08277073502540588,-0.2009370028972626,0.01318272948265076,-0.01089692115783691,0.007709741592407227,XArbitraryZVertical,0.1799147607063288,-0.1829283257771291,-0.844508843730487,0.4700775236855897,0.1318982243537903,-0.4781169593334198,-0.8683357834815979,0,0,0,-1,-1,3694.69432325,unknown,2,2022-06-30T09:28:20.275+02:00,2022-06-30T08:20:05.567+02:00,1147,1.44327,0,0,894.856,0,0,2022-06-30T09:28:40.657+02:00
2022-06-30T09:28:44.606+02:00,3719.02482875,0.12640380859375,-0.461639404296875,-0.85369873046875,3719.01985375,-2.166259314259069,0.1508559637803265,0.4965431987567162,-0.2010932564735413,-0.08072198182344437,-0.2255317568778992,-0.001244992017745972,-0.0005093216896057129,0.01342940330505371,XArbitraryZVertical,0.1793436686035882,-0.1822398790066943,-0.8452299781907616,0.4692661723437988,0.132135272026062,-0.4763890504837036,-0.8692489266395569,0,0,0,-1,-1,3694.69432325,unknown,2,2022-06-30T09:28:20.275+02:00,2022-06-30T08:20:05.567+02:00,1147,1.44327,0,0,894.856,0,0,2022-06-30T09:28:40.657+02:00
2022-06-30T09:28:44.616+02:00,3719.03477975,0.109649658203125,-0.445526123046875,-0.8597564697265625,3719.02980475,-2.168916182808337,0.1513060522193429,0.4945301851515815,-0.1954771876335144,-0.07332185655832291,-0.3102476894855499,-0.006266579031944275,0.01297861337661743,0.01643705368041992,XArbitraryZVertical,0.1788534946136627,-0.1815036970164549,-0.8460643987966482,0.4682339147602914,0.1326707750558853,-0.4746181666851044,-0.8701356649398804,0,0,0,-1,-1,3694.69432325,unknown,2,2022-06-30T09:28:20.275+02:00,2022-06-30T08:20:05.567+02:00,1147,1.44327,0,0,894.856,0,0,2022-06-30T09:28:40.657+02:00
2022-06-30T09:28:44.626+02:00,3719.04473075,0.10028076171875,-0.4365234375,-0.8661651611328125,3719.03975575,-2.172477561524783,0.1523786024885935,0.4925074219910715,-0.1768736690282822,-0.1079144030809402,-0.3918044865131378,-0.02409934997558594,0.02731049060821533,0.01118367910385132,XArbitraryZVertical,0.1785452708530122,-0.1806974978277152,-0.8470536986773034,0.4668726835092812,0.1337494105100632,-0.4728367924690247,-0.8709400296211243,0,0,0,-1,-1,3694.69432325,unknown,2,2022-06-30T09:28:20.275+02:00,2022-06-30T08:20:05.567+02:00,1147,1.44327,0,0,894.856,0,0,2022-06-30T09:28:40.657+02:00
2022-06-30T09:28:44.636+02:00,3719.05468275,0.172088623046875,-0.42828369140625,-0.896697998046875,3719.04970675,-2.176665921309348,0.1540505156267912,0.4907106610633026,-0.0957987904548645,-0.001760541228577495,-0.3418108224868774,-0.03505434095859528,0.03472921252250671,0.005388259887695312,XArbitraryZVertical,0.1784871319230487,-0.1799046901417893,-0.8481045478715734,0.4652907896180308,0.1353355050086975,-0.4712527990341187,-0.8715533018112183,0,0,0,-1,-1,3694.69432325,unknown,2,2022-06-30T09:28:20.275+02:00,2022-06-30T08:20:05.567+02:00,1147,1.44327,0,0,894.856,0,0,2022-06-30T09:28:40.657+02:00
2022-06-30T09:28:44.646+02:00,3719.06463375,0.08551025390625,-0.439239501953125,-0.876312255859375,3719.05965775,-2.180227315154958,0.1554312474293382,0.4897564117720592,-0.05753223225474358,-0.0919102355837822,-0.3524115979671478,0.03548072278499603,0.0421271026134491,-0.02488839626312256,XArbitraryZVertical,0.1785471212077941,-0.17948870010691,-0.8489274907668259,0.4639256113100124,0.1366083025932312,-0.470410943031311,-0.8718094825744629,0,0,0,-1,-1,3694.69432325,unknown,2,2022-06-30T09:28:20.275+02:00,2022-06-30T08:20:05.567+02:00,1147,1.44327,0,0,894.856,0,0,2022-06-30T09:28:40.657+02:00
2022-06-30T09:28:44.656+02:00,3719.07458475,0.0887451171875,-0.5011749267578125,-0.86669921875,3719.06960875,-2.186036919357524,0.1572689726743788,0.4881587034849213,-0.1162344217300415,0.02950646914541721,-0.5818213820457458,-0.05281712114810944,0.02976080775260925,-0.004013955593109131,XArbitraryZVertical,0.1784643907372082,-0.1788893366577886,-0.8503067520231496,0.4616574559840532,0.1383277624845505,-0.4690004587173462,-0.8722981214523315,0,0,0,-1,-1,3694.69432325,unknown,2,2022-06-30T09:28:20.275+02:00,2022-06-30T08:20:05.567+02:00,1147,1.44327,0,0,894.856,0,0,2022-06-30T09:28:40.657+02:00
2022-06-30T09:28:44.666+02:00,3719.08453575,0.2427978515625,-0.45220947265625,-0.8885345458984375,3719.07955975,-2.191228640761807,0.1599365827106354,0.4861152409911533,-0.1072077751159668,0.06147178635001183,-0.4237887859344482,-0.05206103622913361,-0.03398036956787109,0.006171286106109619,XArbitraryZVertical,0.1787003062516529,-0.1778511363963024,-0.8515187371984709,0.459729332267272,0.1408065557479858,-0.4671947062015533,-0.8728703260421753,0,0,0,-1,-1,3694.69432325,unknown,2,2022-06-30T09:28:20.275+02:00,2022-06-30T08:20:05.567+02:00,1147,1.44327,0,0,894.856,0,0,2022-06-30T09:28:40.657+02:00
2022-06-30T09:28:44.676+02:00,3719.09448675,0.18878173828125,-0.43902587890625,-0.88653564453125,3719.08951075,-2.195199105565968,0.1612575090976487,0.484434266495518,-0.08201560378074646,-0.110501304268837,-0.367624044418335,0.1007129400968552,0.01349818706512451,-0.01507687568664551,XArbitraryZVertical,0.1785537025940463,-0.1771717027461284,-0.852520893602645,0.4581888685042039,0.1420853137969971,-0.4657078087329865,-0.8734575510025024,0,0,0,-1,-1,3694.69432325,unknown,2,2022-06-30T09:28:20.275+02:00,2022-06-30T08:20:05.567+02:00,1147,1.44327,0,0,894.856,0,0,2022-06-30T09:28:40.657+02:00
2022-06-30T09:28:44.685+02:00,3719.10443775,0.1115570068359375,-0.4479827880859375,-0.8733367919921875,3719.09946275,-2.198778333607267,0.1613076166835535,0.4828220264751718,-0.1006874218583107,-0.1429809480905533,-0.3443327844142914,0.04653266072273254,0.02525442838668823,-0.01234513521194458,XArbitraryZVertical,0.1779172988179937,-0.1767774279666653,-0.8535350952776505,0.4566980840092924,0.1422494947910309,-0.4642804563045502,-0.8741903305053711,0,0,0,-1,-1,3694.69432325,unknown,2,2022-06-30T09:28:20.275+02:00,2022-06-30T08:20:05.567+02:00,1147,1.44327,0,0,894.856,0,0,2022-06-30T09:28:40.657+02:00
2022-06-30T09:28:44.695+02:00,3719.11438875,0.1071014404296875,-0.4497528076171875,-0.87518310546875,3719.10941375,-2.202130245809204,0.161596615657001,0.4810307072159927,-0.1244582682847977,-0.06999409198760986,-0.3267324864864349,-0.03107830882072449,0.01471021771430969,0.001632034778594971,XArbitraryZVertical,0.1773671883364187,-0.176228756076332,-0.8544953070975332,0.4553262460465649,0.142635703086853,-0.4626931548118591,-0.8749685883522034,0,0,0,-1,-1,3694.69432325,unknown,2,2022-06-30T09:28:20.275+02:00,2022-06-30T08:20:05.567+02:00,1147,1.44327,0,0,894.856,0,0,2022-06-30T09:28:40.657+02:00
2022-06-30T09:28:44.705+02:00,3719.12433975,0.071258544921875,-0.4495697021484375,-0.858856201171875,3719.11936475,-2.205571578130992,0.162228278219295,0.4788061637831074,-0.2074781805276871,-0.1079097539186478,-0.4187157154083252,-0.03625240921974182,0.010966956615448,0.0007089972496032715,XArbitraryZVertical,0.1768671422209946,-0.1754195871180608,-0.8554962285908828,0.453951841021586,0.1433542519807816,-0.4607199132442474,-0.8758919835090637,0,0,0,-1,-1,3694.69432325,unknown,2,2022-06-30T09:28:20.275+02:00,2022-06-30T08:20:05.567+02:00,1147,1.44327,0,0,894.856,0,0,2022-06-30T09:28:40.657+02:00
2022-06-30T09:28:44.715+02:00,3719.13429075,0.1085662841796875,-0.469757080078125,-0.8638153076171875,3719.12931575,-2.209863043968143,0.1634195976460794,0.4756133804260513,-0.2667266130447388,-0.02197461202740669,-0.4425449073314667,-0.07337726652622223,0.008313983678817749,0.01831144094467163,XArbitraryZVertical,0.1763335270875584,-0.1741342927702408,-0.8567558633719699,0.4522755422752522,0.1446361988782883,-0.4578838348388672,-0.8771674633026123,0,0,0,-1,-1,3694.69432325,unknown,2,2022-06-30T09:28:20.275+02:00,2022-06-30T08:20:05.567+02:00,1147,1.44327,0,0,894.856,0,0,2022-06-30T09:28:40.657+02:00
2022-06-30T09:28:44.725+02:00,3719.14424275,0.11798095703125,-0.45758056640625,-0.874603271484375,3719.13926675,-2.214285856602812,0.1653025973901502,0.4717789706928648,-0.3277456760406494,0.02324790880084038,-0.4871138632297516,-0.03800880908966064,-0.01528555154800415,0.01480376720428467,XArbitraryZVertical,0.1759581010476247,-0.1724218576626183,-0.8580576989236621,0.4506068091231308,0.1465754806995392,-0.4544716477394104,-0.8786188960075378,0,0,0,-1,-1,3694.69432325,unknown,2,2022-06-30T09:28:20.275+02:00,2022-06-30T08:20:05.567+02:00,1147,1.44327,0,0,894.856,0,0,2022-06-30T09:28:40.657+02:00
2022-06-30T09:28:44.742+02:00,3719.15419375,0.0248260498046875,-0.485687255859375,-0.8781280517578125,3719.14921775,-2.219709068705434,0.1675315142890342,0.4671315081913326,-0.436636209487915,-0.04212124645709991,-0.703199028968811,-0.03090271353721619,-0.007253766059875488,0.005759954452514648,XArbitraryZVertical,0.1754862250573984,-0.1703615153026629,-0.8596467292163691,0.4485409907423084,0.1488840728998184,-0.4503269791603088,-0.8803631067276001,0,0,0,-1,-1,3694.69432325,unknown,2,2022-06-30T09:28:20.275+02:00,2022-06-30T08:20:05.567+02:00,1147,1.44327,0,0,894.856,0,0,2022-06-30T09:28:40.657+02:00
2022-06-30T09:28:44.745+02:00,3719.16414475,0.1409912109375,-0.515594482421875,-0.9102935791015625,3719.15916875,-2.227162630007159,0.1713523005242492,0.4614616530171295,-0.4095591306686401,0.1537168622016907,-0.7580603361129761,-0.1278531402349472,-0.04043006896972656,0.004161655902862549,XArbitraryZVertical,0.1753318668054564,-0.1676721671205501,-0.8616641229848846,0.4457351971717222,0.1526795923709869,-0.4452573359012604,-0.8822895884513855,0,0,0,-1,-1,3694.69432325,unknown,2,2022-06-30T09:28:20.275+02:00,2022-06-30T08:20:05.567+02:00,1147,1.44327,0,0,894.856,0,0,2022-06-30T09:28:40.657+02:00
2022-06-30T09:28:44.755+02:00,3719.17409575,0.1827392578125,-0.452178955078125,-0.8805084228515625,3719.16911975,-2.233841615851409,0.1752372977196884,0.4560412424484279,-0.4412302374839783,0.04638800770044327,-0.6476510167121887,-0.0155329555273056,-0.0751972496509552,-0.02624011039733887,XArbitraryZVertical,0.175343013052931,-0.1650096279945845,-0.8634596998213011,0.4432427973653767,0.1565245985984802,-0.4403973817825317,-0.8840532898902893,0,0,0,-1,-1,3694.69432325,unknown,2,2022-06-30T09:28:20.275+02:00,2022-06-30T08:20:05.567+02:00,1147,1.44327,0,0,894.856,0,0,2022-06-30T09:28:40.657+02:00
2022-06-30T09:28:44.765+02:00,3719.18404675,-0.0001983642578125,-0.50213623046875,-0.879669189453125,3719.17907175,-2.238659151118856,0.1772880155509505,0.4505704294074329,-0.454401433467865,0.09053365141153336,-0.4616545438766479,0.02397991716861725,-0.01669999957084656,0.005580484867095947,XArbitraryZVertical,0.1747220299484831,-0.162566385298844,-0.8649988620480564,0.4413857493748436,0.158759742975235,-0.4354791045188904,-0.8860887885093689,0,0,0,-1,-1,3694.69432325,unknown,2,2022-06-30T09:28:20.275+02:00,2022-06-30T08:20:05.567+02:00,1147,1.44327,0,0,894.856,0,0,2022-06-30T09:28:40.657+02:00
2022-06-30T09:28:44.775+02:00,3719.19399775,-0.3619232177734375,-0.6569061279296875,-0.851898193359375,3719.18902275,-2.23289790406656,0.1739999528638065,0.4453387787304522,-0.7351492047309875,0.3830145001411438,0.9892396330833435,-0.1564356237649918,-0.07137271761894226,0.009168684482574463,XArbitraryZVertical,0.1726996157140693,-0.1604866800806743,-0.8646280528380386,0.4436636087623189,0.1562376618385315,-0.4307636320590973,-0.8888377547264099,0,0,0,-1,-1,3694.69432325,unknown,2,2022-06-30T09:28:20.275+02:00,2022-06-30T08:20:05.567+02:00,1147,1.44327,0,0,894.856,0,0,2022-06-30T09:28:40.657+02:00
2022-06-30T09:28:44.785+02:00,3719.20394875,-0.09466552734375,-0.4481048583984375,-0.8252410888671875,3719.19897375,-2.225011642954779,0.1766358473393848,0.4391938175542159,-0.7895243167877197,0.8382006883621216,0.05366579070687294,-0.5209649801254272,-0.2316963374614716,0.03911381959915161,XArbitraryZVertical,0.1732004275040845,-0.1565109822365275,-0.8633616452192109,0.4473394662378271,0.1590421348810196,-0.4252099394798279,-0.8910118341445923,0,0,0,-1,-1,3694.69432325,unknown,2,2022-06-30T09:28:20.275+02:00,2022-06-30T08:20:05.567+02:00,1147,1.44327,0,0,894.856,0,0,2022-06-30T09:28:40.657+02:00
2022-06-30T09:28:44.795+02:00,3719.21389975,0.265960693359375,-0.48455810546875,-0.8471527099609375,3719.20892475,-2.226533570428974,0.1848382882144983,0.4300839193381293,-0.9010926485061646,0.6278538703918457,-0.5301393270492554,-0.261715292930603,-0.03115791082382202,0.06820708513259888,XArbitraryZVertical,0.1747469992156938,-0.1507961402098203,-0.8640433471342692,0.4473847277019036,0.1670501828193665,-0.416947066783905,-0.8934479951858521,0,0,0,-1,-1,3694.69432325,unknown,2,2022-06-30T09:28:20.275+02:00,2022-06-30T08:20:05.567+02:00,1147,1.44327,0,0,894.856,0,0,2022-06-30T09:28:40.657+02:00
2022-06-30T09:28:44.805+02:00,3719.22385175,0.162384033203125,-0.582763671875,-0.8204193115234375,3719.21887575,-2.231022721099776,0.1905970116087977,0.419964646155127,-0.9522043466567993,0.2006134539842606,-0.6542987823486328,0.09297811985015869,-0.07683008909225464,0.0494157075881958,XArbitraryZVertical,0.1748244443028158,-0.1454382709411806,-0.8657006254341258,0.445922101998096,0.1729829758405685,-0.4077281653881073,-0.896568238735199,0,0,0,-1,-1,3694.69432325,unknown,2,2022-06-30T09:28:20.275+02:00,2022-06-30T08:20:05.567+02:00,1147,1.44327,0,0,894.856,0,0,2022-06-30T09:28:40.657+02:00
2022-06-30T09:28:44.815+02:00,3719.23380275,-0.076385498046875,-0.6503143310546875,-0.770355224609375,3719.22882675,-2.236844884166285,0.1938818125326052,0.4080322411928131,-1.210932850837708,0.0671701654791832,-0.8631332516670227,-0.01446747779846191,-0.1859599351882935,0.08028614521026611,XArbitraryZVertical,0.1733905980089821,-0.1399393884220229,-0.8680522179887099,0.4436644593468521,0.1768519133329391,-0.3968038856983185,-0.9007053375244141,0,0,0,-1,-1,3694.69432325,unknown,2,2022-06-30T09:28:20.275+02:00,2022-06-30T08:20:05.567+02:00,1147,1.44327,0,0,894.856,0,0,2022-06-30T09:28:40.657+02:00
2022-06-30T09:28:44.825+02:00,3719.24375375,-0.209747314453125,-0.7181243896484375,-0.7517547607421875,3719.23877775,-2.2439272239696,0.1975605200968962,0.3924021459310529,-1.614789485931396,0.1669835150241852,-1.024562001228333,-0.2577444911003113,-0.2679053843021393,0.1356648206710815,XArbitraryZVertical,0.1713240490159623,-0.1328085710246055,-0.8710188728488359,0.4408357723585876,0.1813594251871109,-0.3824090957641602,-0.906019926071167,0,0,0,-1,-1,3694.69432325,unknown,2,2022-06-30T09:28:20.275+02:00,2022-06-30T08:20:05.567+02:00,1147,1.44327,0,0,894.856,0,0,2022-06-30T09:28:40.657+02:00
2022-06-30T09:28:44.835+02:00,3719.25370475,-0.2422027587890625,-0.7272186279296875,-0.748016357421875,3719.24872875,-2.251236777794958,0.2026266573875391,0.3722987644888657,-2.062910079956055,0.3349328339099884,-1.11706006526947,-0.3972034454345703,-0.3543668389320374,0.1606819033622742,XArbitraryZVertical,0.1689939512600151,-0.1233806160653476,-0.8743334293514964,0.4379034876782283,0.1874565184116364,-0.3637576699256897,-0.9124365448951721,0,0,0,-1,-1,3694.69432325,unknown,2,2022-06-30T09:28:20.275+02:00,2022-06-30T08:20:05.567+02:00,1147,1.44327,0,0,894.856,0,0,2022-06-30T09:28:40.657+02:00
2022-06-30T09:28:44.845+02:00,3719.26365575,-0.2238311767578125,-0.688873291015625,-0.766693115234375,3719.25867975,-2.258318364760347,0.2090045479742374,0.3477456916369767,-2.488423347473145,0.4623106122016907,-1.210994005203247,-0.4372691214084625,-0.3864394426345825,0.1716676354408264,XArbitraryZVertical,0.1664213176025848,-0.1116333602251761,-0.8778512396879505,0.4349933558901135,0.1950667798519135,-0.3407793045043945,-0.9196838736534119,0,0,0,-1,-1,3694.69432325,unknown,2,2022-06-30T09:28:20.275+02:00,2022-06-30T08:20:05.567+02:00,1147,1.44327,0,0,894.856,0,0,2022-06-30T09:28:40.657+02:00
2022-06-30T09:28:44.855+02:00,3719.27360675,-0.207275390625,-0.67938232421875,-0.7993621826171875,3719.26863175,-2.265824677980747,0.2163478104705691,0.318957318900063,-2.845199108123779,0.5328910350799561,-1.422765135765076,-0.4276677370071411,-0.3752967715263367,0.160733699798584,XArbitraryZVertical,0.1634789896217162,-0.09778187397399982,-0.8816621492354191,0.4317236299541075,0.203836977481842,-0.3135766386985779,-0.9274266362190247,0,0,0,-1,-1,3694.69432325,unknown,2,2022-06-30T09:28:20.275+02:00,2022-06-30T08:20:05.567+02:00,1147,1.44327,0,0,894.856,0,0,2022-06-30T09:28:40.657+02:00
2022-06-30T09:28:44.865+02:00,3719.28355775,-0.2136993408203125,-0.65521240234375,-0.82257080078125,3719.27858275,-2.274736364179457,0.224397396084116,0.2865923577869,-3.132461786270142,0.5735253691673279,-1.666287779808044,-0.4207179248332977,-0.3966972231864929,0.1358016729354858,XArbitraryZVertical,0.1601681916169568,-0.0822453344579393,-0.8858667781276324,0.4275767823054718,0.2134429663419724,-0.2826852202415466,-0.9351637363433838,0,0,0,-1,-1,3694.69432325,unknown,2,2022-06-30T09:28:20.275+02:00,2022-06-30T08:20:05.567+02:00,1147,1.44327,0,0,894.856,0,0,2022-06-30T09:28:40.657+02:00
2022-06-30T09:28:44.875+02:00,3719.29350875,-0.2515411376953125,-0.6365814208984375,-0.851043701171875,3719.28853375,-2.284868392011263,0.2332273929861311,0.2509891478341813,-3.375374317169189,0.6801742911338806,-1.872078776359558,-0.4375760555267334,-0.406850278377533,0.1198704242706299,XArbitraryZVertical,0.1566430500931581,-0.06513372035627037,-0.8903151620998414,0.4225631396253064,0.2238771468400955,-0.2483622282743454,-0.9424411058425903,0,0,0,-1,-1,3694.69432325,unknown,2,2022-06-30T09:28:20.275+02:00,2022-06-30T08:20:05.567+02:00,1147,1.44327,0,0,894.856,0,0,2022-06-30T09:28:40.657+02:00
2022-06-30T09:28:44.885+02:00,3719.30345975,-0.2878875732421875,-0.5919189453125,-0.862396240234375,3719.29848475,-2.296051489642564,0.243222728178124,0.2127056324979031,-3.594635009765625,0.8314582705497742,-2.068367719650269,-0.4869449138641357,-0.4254761934280396,0.09764999151229858,XArbitraryZVertical,0.1532374101574555,-0.04659970539684562,-0.8948222901481031,0.4167011681315649,0.2354041934013367,-0.2111053317785263,-0.9486935138702393,0,0,0,-1,-1,3694.69432325,unknown,2,2022-06-30T09:28:20.275+02:00,2022-06-30T08:20:05.567+02:00,1147,1.44327,0,0,894.856,0,0,2022-06-30T09:28:40.657+02:00
2022-06-30T09:28:44.894+02:00,3719.31341175,-0.3059844970703125,-0.5747528076171875,-0.8760223388671875,3719.30843575,-2.307897924294876,0.2546635598508853,0.1713926428373397,-3.87221097946167,1.027570486068726,-2.244606256484985,-0.5361158847808838,-0.4213643074035645,0.09117275476455688,XArbitraryZVertical,0.1500615944638969,-0.02640248678359887,-0.8992384429814559,0.410066580847393,0.2482287585735321,-0.1705547571182251,-0.9535688757896423,0,0,0,-1,-1,3694.69432325,unknown,2,2022-06-30T09:28:20.275+02:00,2022-06-30T08:20:05.567+02:00,1147,1.44327,0,0,894.856,0,0,2022-06-30T09:28:40.657+02:00
2022-06-30T09:28:44.904+02:00,3719.32336275,-0.307769775390625,-0.5205230712890625,-0.8841705322265625,3719.31838675,-2.320081052623469,0.2676969046065471,0.1270424487270908,-4.119954586029053,1.239447712898254,-2.393994092941284,-0.5683634281158447,-0.448051929473877,0.08058845996856689,XArbitraryZVertical,0.1472224039875886,-0.004498679401043195,-0.9034039437563682,0.402699358778465,0.262379378080368,-0.1267009824514389,-0.9566106796264648,0,0,0,-1,-1,3694.69432325,unknown,2,2022-06-30T09:28:20.275+02:00,2022-06-30T08:20:05.567+02:00,1147,1.44327,0,0,894.856,0,0,2022-06-30T09:28:40.657+02:00
2022-06-30T09:28:44.914+02:00,3719.33331375,-0.311370849609375,-0.462158203125,-0.886962890625,3719.32833775,-2.332238936698467,0.28230464821051,0.07938230933685009,-4.449301242828369,1.458323001861572,-2.551390409469604,-0.5854619145393372,-0.4412241876125336,0.07322114706039429,XArbitraryZVertical,0.144686904544804,0.01923381457781112,-0.9071728238153048,0.3946305706856802,0.2776925563812256,-0.0792989656329155,-0.9573915004730225,0,0,0,-1,-1,3694.69432325,unknown,2,2022-06-30T09:28:20.275+02:00,2022-06-30T08:20:05.567+02:00,1147,1.44327,0,0,894.856,0,0,2022-06-30T09:28:40.657+02:00
2022-06-30T09:28:44.924+02:00,3719.34326475,-0.309326171875,-0.3948822021484375,-0.9270477294921875,3719.33828875,-2.344322775712981,0.2987265640107539,0.02814250596531807,-4.704164981842041,1.720725893974304,-2.719578266143799,-0.6055573225021362,-0.4340195059776306,0.06837087869644165,XArbitraryZVertical,0.1425280362707439,0.04493276581328229,-0.9104278277300726,0.3857306777044771,0.2941868603229523,-0.028138792142272,-0.9553335905075073,0,0,0,-1,-1,3694.69432325,unknown,2,2022-06-30T09:28:20.275+02:00,2022-06-30T08:20:05.567+02:00,1147,1.44327,0,0,894.856,0,0,2022-06-30T09:28:40.657+02:00
2022-06-30T09:28:44.935+02:00,3719.35321575,-0.292724609375,-0.24334716796875,-0.9350128173828125,3719.34824075,-2.356199159420467,0.3172662790786036,-0.02567469228755078,-4.873544692993164,2.003935098648071,-2.824949741363525,-0.6211934089660645,-0.4205541610717773,0.02273112535476685,XArbitraryZVertical,0.1410813139788035,0.07215760438525548,-0.9129811980502297,0.3759718334665645,0.3118676245212555,0.02567187137901783,-0.94977867603302,0,0,0,-1,-1,3694.69432325,unknown,2,2022-06-30T09:28:20.275+02:00,2022-06-30T08:20:05.567+02:00,1147,1.44327,0,0,894.856,0,0,2022-06-30T09:28:40.657+02:00
2022-06-30T09:28:44.944+02:00,3719.36316675,-0.2832183837890625,-0.09454345703125,-0.9624481201171875,3719.35819175,-2.367448324841346,0.338103689328123,-0.08126194562419961,-4.960909366607666,2.312807559967041,-2.912985801696777,-0.6233283281326294,-0.3245197832584381,0.005259573459625244,XArbitraryZVertical,0.1405573727434749,0.1005360202572315,-0.9146440585588221,0.3654621797460776,0.3306041657924652,0.08117254078388214,-0.9402722716331482,0,0,0,-1,-1,3694.69432325,unknown,2,2022-06-30T09:28:20.275+02:00,2022-06-30T08:20:05.567+02:00,1147,1.44327,0,0,894.856,0,0,2022-06-30T09:28:40.657+02:00
2022-06-30T09:28:44.954+02:00,3719.37311775,-0.2686614990234375,0.0228271484375,-0.963836669921875,3719.36814275,-2.378363335161398,0.3615387283316231,-0.1378907707063075,-4.994992733001709,2.64733362197876,-3.036277055740356,-0.6335744857788086,-0.2319977432489395,-0.03597253561019897,XArbitraryZVertical,0.1412187925232158,0.1296902052944968,-0.9153860487618299,0.3539861592968117,0.3503564894199371,0.1374542117118835,-0.9264754056930542,0,0,0,-1,-1,3694.69432325,unknown,2,2022-06-30T09:28:20.275+02:00,2022-06-30T08:20:05.567+02:00,1147,1.44327,0,0,894.856,0,0,2022-06-30T09:28:40.657+02:00
2022-06-30T09:28:44.964+02:00,3719.38306875,-0.2263336181640625,0.0842742919921875,-0.9583892822265625,3719.37809375,-2.388764279825514,0.3878561360533522,-0.1955938572884041,-5.031633377075195,2.997093200683594,-3.114753723144531,-0.639654278755188,-0.1715219914913177,-0.05576574802398682,XArbitraryZVertical,0.1431472896481894,0.1596041399625567,-0.9151123306818406,0.3414746104727122,0.3709932267665863,0.1943491101264954,-0.9080707430839539,0,0,0,-1,-1,3694.69432325,unknown,2,2022-06-30T09:28:20.275+02:00,2022-06-30T08:20:05.567+02:00,1147,1.44327,0,0,894.856,0,0,2022-06-30T09:28:40.657+02:00
2022-06-30T09:28:44.974+02:00,3719.39302075,-0.177703857421875,0.15264892578125,-0.9527587890625,3719.38804475,-2.398080559513376,0.4172487475595565,-0.2535724389977757,-4.971900463104248,3.329023599624634,-3.117841720581055,-0.6186211109161377,-0.1665894985198975,-0.07341593503952026,XArbitraryZVertical,0.1464815246027541,0.1898856787110531,-0.913685833371948,0.328123139650504,0.3922879695892334,0.2508637607097626,-0.8849731683731079,0,0,0,-1,-1,3694.69432325,unknown,2,2022-06-30T09:28:20.275+02:00,2022-06-30T08:20:05.567+02:00,1147,1.44327,0,0,894.856,0,0,2022-06-30T09:28:40.657+02:00
2022-06-30T09:28:44.984+02:00,3719.40297175,-0.13525390625,0.26934814453125,-0.9173736572265625,3719.39799575,-2.405851347208525,0.4498232494069936,-0.3110756338445776,-4.884345054626465,3.65527081489563,-3.092889308929443,-0.5916413068771362,-0.1534339487552643,-0.0954553484916687,XArbitraryZVertical,0.1512794383164003,0.2201429598107004,-0.9110384459971772,0.314102759349037,0.4139377772808075,0.3060828149318695,-0.8573032021522522,0,0,0,-1,-1,3694.69432325,unknown,2,2022-06-30T09:28:20.275+02:00,2022-06-30T08:20:05.567+02:00,1147,1.44327,0,0,894.856,0,0,2022-06-30T09:28:40.657+02:00
2022-06-30T09:28:44.994+02:00,3719.41292275,-0.09344482421875,0.430328369140625,-0.8563385009765625,3719.40794675,-2.411829668247015,0.4856114613314851,-0.3675833037753388,-4.739668846130371,3.941358327865601,-3.029538154602051,-0.5708231925964355,-0.09001308679580688,-0.09206223487854004,XArbitraryZVertical,0.1575135964903625,0.250067725680962,-0.9071720241134658,0.299490538137008,0.435569703578949,0.3593612313270569,-0.8253111839294434,0,0,0,-1,-1,3694.69432325,unknown,2,2022-06-30T09:28:20.275+02:00,2022-06-30T08:20:05.567+02:00,1147,1.44327,0,0,894.856,0,0,2022-06-30T09:28:40.657+02:00
2022-06-30T09:28:45.004+02:00,3719.42287375,-0.0668487548828125,0.593536376953125,-0.78900146484375,3719.41789775,-2.415810355754114,0.52455498836505,-0.4223093077966867,-4.520599365234375,4.19380521774292,-2.935132503509521,-0.5502719879150391,0.02046036720275879,-0.06683409214019775,XArbitraryZVertical,0.1651559866916798,0.2792335972867354,-0.9021401659343464,0.2844211770395355,0.4568275809288025,0.4098679721355438,-0.7895041704177856,0,0,0,-1,-1,3694.69432325,unknown,2,2022-06-30T09:28:20.275+02:00,2022-06-30T08:20:05.567+02:00,1147,1.44327,0,0,894.856,0,0,2022-06-30T09:28:40.657+02:00
2022-06-30T09:28:45.014+02:00,3719.43282475,-0.047210693359375,0.724761962890625,-0.7277984619140625,3719.42784875,-2.417979751805806,0.5665989830252853,-0.4743665333704409,-4.219657897949219,4.449136734008789,-2.826066970825195,-0.544345498085022,0.136761337518692,-0.03843271732330322,XArbitraryZVertical,0.1742551388909784,0.307165923046914,-0.8960858649399146,0.2689133476073839,0.4774971604347229,0.4567750096321106,-0.7505685091018677,0,0,0,-1,-1,3694.69432325,unknown,2,2022-06-30T09:28:20.275+02:00,2022-06-30T08:20:05.567+02:00,1147,1.44327,0,0,894.856,0,0,2022-06-30T09:28:40.657+02:00
2022-06-30T09:28:45.024+02:00,3719.44277575,-0.036376953125,0.8153839111328125,-0.668060302734375,3719.43780075,-2.418611716244936,0.6118054733928333,-0.5232150519756581,-3.879780054092407,4.70311975479126,-2.717164516448975,-0.5447189807891846,0.2250942289829254,-0.01870208978652954,XArbitraryZVertical,0.1848821915878068,0.3335723648259145,-0.8891452534552017,0.2529203060133548,0.497508704662323,0.4996676445007324,-0.7090961337089539,0,0,0,-1,-1,3694.69432325,unknown,2,2022-06-30T09:28:20.275+02:00,2022-06-30T08:20:05.567+02:00,1147,1.44327,0,0,894.856,0,0,2022-06-30T09:28:40.657+02:00
2022-06-30T09:28:45.034+02:00,3719.45272675,-0.0099334716796875,0.8787078857421875,-0.6177825927734375,3719.44775175,-2.41802828989016,0.6601441917458626,-0.5684833480859248,-3.498976469039917,4.952402114868164,-2.595596551895142,-0.5531574487686157,0.277029275894165,-0.002393484115600586,XArbitraryZVertical,0.1970696815865683,0.3582321735596585,-0.8814485031269295,0.2363932079851007,0.5167808532714844,0.5383545756340027,-0.6656665205955505,0,0,0,-1,-1,3694.69432325,unknown,2,2022-06-30T09:28:20.275+02:00,2022-06-30T08:20:05.567+02:00,1147,1.44327,0,0,894.856,0,0,2022-06-30T09:28:40.657+02:00
2022-06-30T09:28:45.044+02:00,3719.46267775,0.0312957763671875,0.944427490234375,-0.542022705078125,3719.45770275,-2.416406053589872,0.7114734306572172,-0.609937619526451,-3.136017799377441,5.186293125152588,-2.471163034439087,-0.5451459884643555,0.3058915734291077,0.003046691417694092,XArbitraryZVertical,0.2107744701113439,0.3809981599257175,-0.8730921776942926,0.2193735733053031,0.5352129340171814,0.5728163123130798,-0.6208290457725525,0,0,0,-1,-1,3694.69432325,unknown,2,2022-06-30T09:28:20.275+02:00,2022-06-30T08:20:05.567+02:00,1147,1.44327,0,0,894.856,0,0,2022-06-30T09:28:40.657+02:00
2022-06-30T09:28:45.054+02:00,3719.47262975,0.102569580078125,1.011459350585938,-0.4745635986328125,3719.46765375,-2.413752055511698,0.765706140957757,-0.6480923328044634,-2.827980756759644,5.398536205291748,-2.363208770751953,-0.5212258696556091,0.3407607674598694,0.03270024061203003,XArbitraryZVertical,0.2258057517789299,0.4020577997767295,-0.8640748436410139,0.2018314806435909,0.5525220036506653,0.6036666631698608,-0.5747225880622864,0,0,0,-1,-1,3694.69432325,unknown,2,2022-06-30T09:28:20.275+02:00,2022-06-30T08:20:05.567+02:00,1147,1.44327,0,0,894.856,0,0,2022-06-30T09:28:40.657+02:00
2022-06-30T09:28:45.064+02:00,3719.48258075,0.1941070556640625,1.042510986328125,-0.362762451171875,3719.47760475,-2.409971651357421,0.822508017026417,-0.6831356969834796,-2.548749923706055,5.536460399627686,-2.232822895050049,-0.4658300280570984,0.3802312016487122,0.05314171314239502,XArbitraryZVertical,0.2419143538862837,0.4214557620896964,-0.8544211305470626,0.1838941238727516,0.568399965763092,0.6312281489372253,-0.5277049541473389,0,0,0,-1,-1,3694.69432325,unknown,2,2022-06-30T09:28:20.275+02:00,2022-06-30T08:20:05.567+02:00,1147,1.44327,0,0,894.856,0,0,2022-06-30T09:28:40.657+02:00
2022-06-30T09:28:45.074+02:00,3719.49253175,0.28363037109375,1.041549682617188,-0.259857177734375,3719.48755575,-2.404877128254476,0.8809229843209244,-0.7151245566448978,-2.267325401306152,5.534648418426514,-2.082513093948364,-0.3882532119750977,0.3867995142936707,0.117757111787796,XArbitraryZVertical,0.258602098068438,0.4391643808712208,-0.8442367520128342,0.1659034442526437,0.582360565662384,0.6557114720344543,-0.4805192053318024,0,0,0,-1,-1,3694.69432325,unknown,2,2022-06-30T09:28:20.275+02:00,2022-06-30T08:20:05.567+02:00,1147,1.44327,0,0,894.856,0,0,2022-06-30T09:28:40.657+02:00
2022-06-30T09:28:45.083+02:00,3719.50248275,0.350341796875,1.064865112304688,-0.11871337890625,3719.49750675,-2.399029957552567,0.9394615902542323,-0.7437416773692006,-1.965425848960876,5.44429874420166,-1.917199492454529,-0.3104502558708191,0.3645033836364746,0.1745120286941528,XArbitraryZVertical,0.2754219981674276,0.4549267157286663,-0.8338108184762998,0.1481351139437816,0.594080924987793,0.6770462989807129,-0.4343688189983368,0,0,0,-1,-1,3694.69432325,unknown,2,2022-06-30T09:28:20.275+02:00,2022-06-30T08:20:05.567+02:00,1147,1.44327,0,0,894.856,0,0,2022-06-30T09:28:40.657+02:00
2022-06-30T09:28:45.094+02:00,3719.51243375,0.3984832763671875,1.101104736328125,0.0363616943359375,3719.50745775,-2.392630887397788,0.9974210759704345,-0.7690230016807839,-1.679582715034485,5.323459625244141,-1.732624530792236,-0.2533276677131653,0.3694315552711487,0.2711012065410614,XArbitraryZVertical,0.2921450856067017,0.4687687773468366,-0.823284674131163,0.1308028013907465,0.6036697030067444,0.695433497428894,-0.389814168214798,0,0,0,-1,-1,3694.69432325,unknown,2,2022-06-30T09:28:20.275+02:00,2022-06-30T08:20:05.567+02:00,1147,1.44327,0,0,894.856,0,0,2022-06-30T09:28:40.657+02:00
2022-06-30T09:28:45.103+02:00,3719.52238475,0.43719482421875,1.142440795898438,0.18280029296875,3719.51740975,-2.386530416575759,1.054059270931598,-0.7907145206920349,-1.332622885704041,5.203694343566895,-1.548038005828857,-0.2130233645439148,0.3902486562728882,0.3838430941104889,XArbitraryZVertical,0.3087737591972484,0.4805395571280356,-0.8128678344897006,0.1139577007394334,0.6115068793296814,0.710856020450592,-0.3474810123443604,0,0,0,-1,-1,3694.69432325,unknown,2,2022-06-30T09:28:20.275+02:00,2022-06-30T08:20:05.567+02:00,1147,1.44327,0,0,894.856,0,0,2022-06-30T09:28:40.657+02:00
2022-06-30T09:28:45.113+02:00,3719.53233575,0.4849700927734375,1.173477172851562,0.3485107421875,3719.52736075,-2.382170878983473,1.10832107166548,-0.8091236010722961,-0.931881844997406,5.080119132995605,-1.435663819313049,-0.1804400682449341,0.41875821352005,0.4907136857509613,XArbitraryZVertical,0.3252327611763645,0.4901705173871375,-0.8027937467574887,0.09735955192634231,0.617635190486908,0.7236826419830322,-0.3079130351543427,0,0,0,-1,-1,3694.69432325,unknown,2,2022-06-30T09:28:20.275+02:00,2022-06-30T08:20:05.567+02:00,1147,1.44327,0,0,894.856,0,0,2022-06-30T09:28:40.657+02:00
2022-06-30T09:28:45.123+02:00,3719.54228675,0.544647216796875,1.22393798828125,0.4145965576171875,3719.53731175,-2.381565328460626,1.158760983461932,-0.8248694174480251,-0.49480801820755,4.979676723480225,-1.399958968162537,-0.1368845105171204,0.4390178918838501,0.6202948093414307,XArbitraryZVertical,0.3413918147175841,0.4975538465663119,-0.7933481108368067,0.08056379469368359,0.6218547821044922,0.7344591617584229,-0.2717835903167725,0,0,0,-1,-1,3694.69432325,unknown,2,2022-06-30T09:28:20.275+02:00,2022-06-30T08:20:05.567+02:00,1147,1.44327,0,0,894.856,0,0,2022-06-30T09:28:40.657+02:00
2022-06-30T09:28:45.133+02:00,3719.55223775,0.6396484375,1.233901977539062,0.357147216796875,3719.54726275,-2.385005430509867,1.205383862942515,-0.8389403895467448,-0.1483438163995743,4.903843402862549,-1.385407447814941,-0.07948380708694458,0.4800025224685669,0.6533863544464111,XArbitraryZVertical,0.3571940891118963,0.5030086439044973,-0.7844634904792176,0.06333864833379638,0.6241312026977539,0.7439354658126831,-0.2387893795967102,0,0,0,-1,-1,3694.69432325,unknown,2,2022-06-30T09:28:20.275+02:00,2022-06-30T08:20:05.567+02:00,1147,1.44327,0,0,894.856,0,0,2022-06-30T09:28:40.657+02:00
2022-06-30T09:28:45.143+02:00,3719.56218975,0.774261474609375,1.1923828125,0.4136199951171875,3719.55721375,-2.392672882010802,1.247772298420023,-0.8510457190936193,0.2778652012348175,4.758823871612549,-1.212362408638,0.01454520225524902,0.4819318056106567,0.566400408744812,XArbitraryZVertical,0.3726808511731421,0.5064411470944288,-0.7762185308145393,0.04594796721793142,0.6251034736633301,0.7519701719284058,-0.2092527002096176,0,0,0,-1,-1,3694.69432325,unknown,2,2022-06-30T09:28:20.275+02:00,2022-06-30T08:20:05.567+02:00,1147,1.44327,0,0,894.856,0,0,2022-06-30T09:28:40.657+02:00
2022-06-30T09:28:45.153+02:00,3719.57214075,0.8472900390625,1.12200927734375,0.534698486328125,3719.56716475,-2.404446088709585,1.284630215150681,-0.8599554761823685,0.655479371547699,4.413261890411377,-0.9683455228805542,0.1483244299888611,0.4345691800117493,0.5977975726127625,XArbitraryZVertical,0.3876986179513278,0.5075442883430208,-0.7689155766438824,0.02928035347386781,0.6259371638298035,0.7578135132789612,-0.1841771602630615,0,0,0,-1,-1,3694.69432325,unknown,2,2022-06-30T09:28:20.275+02:00,2022-06-30T08:20:05.567+02:00,1147,1.44327,0,0,894.856,0,0,2022-06-30T09:28:40.657+02:00
2022-06-30T09:28:45.163+02:00,3719.58209175,0.8495025634765625,1.064956665039062,0.736785888671875,3719.57711575,-2.419497172904265,1.314804442836911,-0.8663670485888882,0.8558400869369507,3.951894760131836,-0.8065983057022095,0.2207945585250854,0.3600281476974487,0.6986743807792664,XArbitraryZVertical,0.4014849432815817,0.5067762061492744,-0.7627557847723409,0.01383824113732442,0.6264957189559937,0.7619812488555908,-0.1639754325151443,0,0,0,-1,-1,3694.69432325,unknown,2,2022-06-30T09:28:20.275+02:00,2022-06-30T08:20:05.567+02:00,1147,1.44327,0,0,894.856,0,0,2022-06-30T09:28:40.657+02:00
2022-06-30T09:28:45.173+02:00,3719.59204275,0.827056884765625,1.02618408203125,0.9348297119140625,3719.58706675,-2.434983404446669,1.340029544549562,-0.8716643235450334,0.8062195777893066,3.505588293075562,-0.7162308692932129,0.2230088710784912,0.2995555400848389,0.8839825391769409,XArbitraryZVertical,0.413684605167508,0.5052395029829867,-0.7573625986725691,-0.0001233694539051331,0.6264938116073608,0.7654010653495789,-0.1471961885690689,0,0,0,-1,-1,3694.69432325,unknown,2,2022-06-30T09:28:20.275+02:00,2022-06-30T08:20:05.567+02:00,1147,1.44327,0,0,894.856,0,0,2022-06-30T09:28:40.657+02:00
2022-06-30T09:28:45.183+02:00,3719.60199375,0.8511199951171875,1.045150756835938,1.100921630859375,3719.59701775,-2.447783124941043,1.363208327286631,-0.876647526643169,0.5410710573196411,3.133321285247803,-0.6108551621437073,0.2010600566864014,0.2575854659080505,1.066679000854492,XArbitraryZVertical,0.4244376837030107,0.5039129325245084,-0.7521770653664506,-0.01241055908027626,0.6259968876838684,0.7685984969139099,-0.1318488121032715,0,0,0,-1,-1,3694.69432325,unknown,2,2022-06-30T09:28:20.275+02:00,2022-06-30T08:20:05.567+02:00,1147,1.44327,0,0,894.856,0,0,2022-06-30T09:28:40.657+02:00
2022-06-30T09:28:45.193+02:00,3719.61194475,0.9137420654296875,1.039398193359375,1.178985595703125,3719.60696975,-2.453629493371356,1.387761668933557,-0.8810988738627447,-0.0005522351711988449,2.672113656997681,-0.3816440999507904,0.2254452109336853,0.2737120985984802,1.21673858165741,XArbitraryZVertical,0.4340180347376954,0.5037063914901232,-0.746601429319545,-0.02223725389448677,0.6256749033927917,0.7714385390281677,-0.1158164367079735,0,0,0,-1,-1,3694.69432325,unknown,2,2022-06-30T09:28:20.275+02:00,2022-06-30T08:20:05.567+02:00,1147,1.44327,0,0,894.856,0,0,2022-06-30T09:28:40.657+02:00
2022-06-30T09:28:45.204+02:00,3719.62189575,0.9712371826171875,1.028717041015625,1.215805053710938,3719.61692075,-2.450289335267149,1.414964324999148,-0.8847728500865248,-0.5244985818862915,2.29841685295105,-0.2827931344509125,0.2879526615142822,0.2656270861625671,1.27730119228363,XArbitraryZVertical,0.4423834483396067,0.5051131720748546,-0.7404814281504559,-0.02906671749961125,0.62578946352005,0.7737711071968079,-0.09831513464450836,0,0,0,-1,-1,3694.69432325,unknown,2,2022-06-30T09:28:20.275+02:00,2022-06-30T08:20:05.567+02:00,1147,1.44327,0,0,894.856,0,0,2022-06-30T09:28:40.657+02:00
2022-06-30T09:28:45.214+02:00,3719.63184675,1.043350219726562,1.060287475585938,1.3048095703125,3719.62687175,-2.440305204583226,1.443029420435169,-0.8877374089902721,-0.7939348220825195,1.762853622436523,-0.1221422180533409,0.3452132940292358,0.2530713677406311,1.296228766441345,XArbitraryZVertical,0.4494658728797348,0.5077093730470564,-0.7342279773303134,-0.03348063494841901,0.6260239481925964,0.7756456732749939,-0.08042324334383011,0,0,0,-1,-1,3694.69432325,unknown,2,2022-06-30T09:28:20.275+02:00,2022-06-30T08:20:05.567+02:00,1147,1.44327,0,0,894.856,0,0,2022-06-30T09:28:40.657+02:00
2022-06-30T09:28:45.223+02:00,3719.64179775,1.0203857421875,1.110321044921875,1.490081787109375,3719.63682275,-2.427586655867691,1.467344118440626,-0.8891478808883193,-0.8277302980422974,1.139551043510437,0.02266569808125496,0.416644811630249,0.2837523818016052,1.369876384735107,XArbitraryZVertical,0.4547681692950133,0.5105416087206333,-0.7288851105841796,-0.03549366443773912,0.626705527305603,0.7765351533889771,-0.06506635248661041,0,0,0,-1,-1,3694.69432325,unknown,2,2022-06-30T09:28:20.275+02:00,2022-06-30T08:20:05.567+02:00,1147,1.44327,0,0,894.856,0,0,2022-06-30T09:28:40.657+02:00
2022-06-30T09:28:45.235+02:00,3719.65174975,0.9926300048828125,1.165267944335938,1.659378051757812,3719.64677375,-2.414586746948531,1.486173770071692,-0.8891165776535008,-0.825067400932312,0.622510552406311,0.1401126980781555,0.3925421237945557,0.3338056802749634,1.543339133262634,XArbitraryZVertical,0.4582922896423223,0.5131663608532356,-0.7248191701854798,-0.03557748709528599,0.6278437376022339,0.7765154242515564,-0.05325692519545555,0,0,0,-1,-1,3694.69432325,unknown,2,2022-06-30T09:28:20.275+02:00,2022-06-30T08:20:05.567+02:00,1147,1.44327,0,0,894.856,0,0,2022-06-30T09:28:40.657+02:00
2022-06-30T09:28:45.243+02:00,3719.66170075,1.01507568359375,1.102310180664062,1.809188842773438,3719.65672475,-2.400919530730291,1.500551220593875,-0.8879696600966771,-0.8930848240852356,0.1276880502700806,0.2275211066007614,0.3631976842880249,0.3894757032394409,1.703665971755981,XArbitraryZVertical,0.4602689514568304,0.5157603935797849,-0.7217976770068233,-0.0339398501067202,0.6294324398040771,0.7757922410964966,-0.04428741708397865,0,0,0,-1,-1,3694.69432325,unknown,2,2022-06-30T09:28:20.275+02:00,2022-06-30T08:20:05.567+02:00,1147,1.44327,0,0,894.856,0,0,2022-06-30T09:28:40.657+02:00
2022-06-30T09:28:45.253+02:00,3719.67165175,1.060287475585938,1.015380859375,1.965957641601562,3719.66667575,-2.385863415462719,1.510511416872702,-0.8859645835779835,-1.008682012557983,-0.4851734638214111,0.3130756914615631,0.3836821913719177,0.3277845978736877,1.847298979759216,XArbitraryZVertical,0.4604807704488711,0.5185582134590361,-0.7198129604528805,-0.03039827486559768,0.6313934922218323,0.7745254635810852,-0.0381096787750721,0,0,0,-1,-1,3694.69432325,unknown,2,2022-06-30T09:28:20.275+02:00,2022-06-30T08:20:05.567+02:00,1147,1.44327,0,0,894.856,0,0,2022-06-30T09:28:40.657+02:00
2022-06-30T09:28:45.263+02:00,3719.68160275,1.0882568359375,0.976715087890625,2.0750732421875,3719.67662675,-2.368122541792666,1.515907322561161,-0.8831676781734524,-1.224852800369263,-1.194592714309692,0.4125524163246155,0.4265368580818176,0.2426275610923767,2.000779151916504,XArbitraryZVertical,0.4585311081070606,0.5218608638516942,-0.7188967805857479,-0.02445320302314984,0.6337507367134094,0.7727532982826233,-0.03482092171907425,0,0,0,-1,-1,3694.69432325,unknown,2,2022-06-30T09:28:20.275+02:00,2022-06-30T08:20:05.567+02:00,1147,1.44327,0,0,894.856,0,0,2022-06-30T09:28:40.657+02:00
2022-06-30T09:28:45.272+02:00,3719.69155375,1.07781982421875,0.9466094970703125,2.156707763671875,3719.68657875,-2.347186279824517,1.516569311650584,-0.8794150219926358,-1.391271591186523,-1.923194169998169,0.4987608194351196,0.4515921473503113,0.2063491344451904,2.109632015228271,XArbitraryZVertical,0.4542652939269745,0.525703229011353,-0.7190477376459428,-0.0157997901718569,0.636664867401123,0.7703660130500793,-0.03455831483006477,0,0,0,-1,-1,3694.69432325,unknown,2,2022-06-30T09:28:20.275+02:00,2022-06-30T08:20:05.567+02:00,1147,1.44327,0,0,894.856,0,0,2022-06-30T09:28:40.657+02:00
2022-06-30T09:28:45.282+02:00,3719.70150475,1.03131103515625,0.951416015625,2.267242431640625,3719.69652975,-2.323282379696396,1.512410096150966,-0.8749789775776887,-1.648699045181274,-2.59972882270813,0.554179310798645,0.4378991723060608,0.1790794134140015,2.194113492965698,XArbitraryZVertical,0.4476273829055794,0.5300256503399033,-0.7201956047029049,-0.004563772689748643,0.639920711517334,0.7675300240516663,-0.03740507364273071,0,0,0,-1,-1,3694.69432325,unknown,2,2022-06-30T09:28:20.275+02:00,2022-06-30T08:20:05.567+02:00,1147,1.44327,0,0,894.856,0,0,2022-06-30T09:28:40.657+02:00
2022-06-30T09:28:45.292+02:00,3719.71145575,1.005996704101562,0.92315673828125,2.344436645507812,3719.70648075,-2.294266640798092,1.505497619347481,-0.8707334625835446,-2.038093090057373,-3.265366792678833,0.5272573828697205,0.3884183168411255,0.1866143345832825,2.309282779693604,XArbitraryZVertical,0.4385355966618043,0.5354125595787339,-0.7217584567320476,0.009207231930659277,0.6428928971290588,0.7648016810417175,-0.04203984141349792,0,0,0,-1,-1,3694.69432325,unknown,2,2022-06-30T09:28:20.275+02:00,2022-06-30T08:20:05.567+02:00,1147,1.44327,0,0,894.856,0,0,2022-06-30T09:28:40.657+02:00
2022-06-30T09:28:45.302+02:00,3719.72140675,1.029998779296875,0.9134674072265625,2.4119873046875,3719.71643175,-2.259047005796782,1.496375424848143,-0.8674358346597021,-2.478990793228149,-3.990866184234619,0.4487679004669189,0.3610028028488159,0.160483717918396,2.392527103424072,XArbitraryZVertical,0.4266395489261983,0.5421565912205526,-0.7234591933470973,0.0255289929325638,0.6449940204620361,0.7626729607582092,-0.04808985069394112,0,0,0,-1,-1,3694.69432325,unknown,2,2022-06-30T09:28:20.275+02:00,2022-06-30T08:20:05.567+02:00,1147,1.44327,0,0,894.856,0,0,2022-06-30T09:28:40.657+02:00
2022-06-30T09:28:45.312+02:00,3719.73135875,1.036727905273438,0.9612274169921875,2.407882690429688,3719.72638275,-2.216228521861282,1.485069913194579,-0.8656646816960404,-3.058959484100342,-4.870906352996826,0.3497121632099152,0.3842449188232422,0.1519411206245422,2.467482089996338,XArbitraryZVertical,0.4113326385706012,0.5505073709797232,-0.7250834502550508,0.04473427312295,0.6457540988922119,0.7615262269973755,-0.05549418926239014,0,0,0,-1,-1,3694.69432325,unknown,2,2022-06-30T09:28:20.275+02:00,2022-06-30T08:20:05.567+02:00,1147,1.44327,0,0,894.856,0,0,2022-06-30T09:28:40.657+02:00
2022-06-30T09:28:45.322+02:00,3719.74130975,0.948883056640625,1.000091552734375,2.396759033203125,3719.73633375,-2.165084469103559,1.470432370383899,-0.8655795523098224,-3.549918413162231,-5.914918422698975,0.2909451723098755,0.391791045665741,0.1997562050819397,2.472829818725586,XArbitraryZVertical,0.3918389502980791,0.5603471385731712,-0.7265890848117451,0.06739142762147969,0.6449369788169861,0.7614710330963135,-0.06494664400815964,0,0,0,-1,-1,3694.69432325,unknown,2,2022-06-30T09:28:20.275+02:00,2022-06-30T08:20:05.567+02:00,1147,1.44327,0,0,894.856,0,0,2022-06-30T09:28:40.657+02:00
2022-06-30T09:28:45.332+02:00,3719.75126075,0.7748260498046875,1.07513427734375,2.23779296875,3719.74628475,-2.10749813965993,1.450156593638115,-0.8672851753419838,-3.883073091506958,-6.98122501373291,0.1709657907485962,0.306685745716095,0.2375159859657288,2.474612236022949,XArbitraryZVertical,0.3676892832712156,0.5708575099129145,-0.7281385785104885,0.09349092184275476,0.6421974897384644,0.7625755071640015,-0.07785259187221527,0,0,0,-1,-1,3694.69432325,unknown,2,2022-06-30T09:28:20.275+02:00,2022-06-30T08:20:05.567+02:00,1147,1.44327,0,0,894.856,0,0,2022-06-30T09:28:40.657+02:00
2022-06-30T09:28:45.343+02:00,3719.76121175,0.546051025390625,1.272079467773438,1.931610107421875,3719.75623575,-2.047530671381873,1.421395094581465,-0.871968485504151,-3.922459840774536,-8.025198936462402,-0.05445269122719765,0.1386716961860657,0.3095375299453735,2.33354926109314,XArbitraryZVertical,0.3385611853893772,0.5809461433573124,-0.7300547712697827,0.122058026923415,0.6361547112464905,0.7655968070030212,-0.09575580805540085,0,0,0,-1,-1,3694.69432325,unknown,2,2022-06-30T09:28:20.275+02:00,2022-06-30T08:20:05.567+02:00,1147,1.44327,0,0,894.856,0,0,2022-06-30T09:28:40.657+02:00
2022-06-30T09:28:45.352+02:00,3719.77116275,0.2423095703125,1.464874267578125,1.505264282226562,3719.76618675,-1.987801852104565,1.382181547859097,-0.879272118678682,-3.848499059677124,-9.061051368713379,-0.08643192797899246,-0.08035105466842651,0.5018045902252197,2.051180601119995,XArbitraryZVertical,0.3045491033369392,0.5894614676438682,-0.7323895039283145,0.1529406561605841,0.6264023780822754,0.7702748775482178,-0.1195700466632843,0,0,0,-1,-1,3694.69432325,unknown,2,2022-06-30T09:28:20.275+02:00,2022-06-30T08:20:05.567+02:00,1147,1.44327,0,0,894.856,0,0,2022-06-30T09:28:40.657+02:00
2022-06-30T09:28:45.362+02:00,3719.78111375,-0.167999267578125,1.64080810546875,1.019149780273438,3719.77613875,-1.934572185633184,1.329454747772175,-0.8871179869305292,-2.994487524032593,-9.749804496765137,-0.009908523410558701,-0.37103271484375,0.6896194815635681,1.656232237815857,XArbitraryZVertical,0.2670267735289186,0.5943171818291846,-0.735573774190398,0.1855127007012168,0.6133425831794739,0.7752545475959778,-0.1509675830602646,0,0,0,-1,-1,3694.69432325,unknown,2,2022-06-30T09:28:20.275+02:00,2022-06-30T08:20:05.567+02:00,1147,1.44327,0,0,894.856,0,0,2022-06-30T09:28:40.657+02:00
2022-06-30T09:28:45.372+02:00,3719.79106475,-0.656341552734375,2.088607788085938,0.651702880859375,3719.78608975,-1.897587636076216,1.259958818509216,-0.8925548632823197,-1.850908160209656,-9.944812774658203,0.236318826675415,-0.7653560042381287,0.8621306419372559,1.211051821708679,XArbitraryZVertical,0.2286904653734335,0.5930850192712138,-0.7405431416228297,0.2180519754589079,0.5973570346832275,0.7786772847175598,-0.1919016689062119,0,0,0,-1,-1,3694.69432325,unknown,2,2022-06-30T09:28:20.275+02:00,2022-06-30T08:20:05.567+02:00,1147,1.44327,0,0,894.856,0,0,2022-06-30T09:28:40.657+02:00
2022-06-30T09:28:45.382+02:00,3719.80101575,-1.206039428710938,2.388641357421875,0.258941650390625,3719.79604075,-1.874920438038788,1.179459460344246,-0.8934638507585033,-0.8346151113510132,-9.749111175537109,0.5465983152389526,-1.23567795753479,1.309360265731812,0.8907482624053955,XArbitraryZVertical,0.1917875318238281,0.5862550612583212,-0.7463612135058141,0.2499349312114718,0.5793367624282837,0.7792472839355469,-0.2390450984239578,0,0,0,-1,-1,3694.69432325,unknown,2,2022-06-30T09:28:20.275+02:00,2022-06-30T08:20:05.567+02:00,1147,1.44327,0,0,894.856,0,0,2022-06-30T09:28:40.657+02:00
2022-06-30T09:28:45.392+02:00,3719.81096675,-1.559585571289062,2.637542724609375,-0.0474090576171875,3719.80599175,-1.86749538476904,1.089927324285243,-0.8880763550740244,0.4134894013404846,-9.416191101074219,0.8268123865127563,-1.765395879745483,1.612781763076782,0.5507672429084778,XArbitraryZVertical,0.1577810656785304,0.5737529527014918,-0.7532148250970422,0.2803217045554592,0.5593568682670593,0.775859534740448,-0.2918253839015961,0,0,0,-1,-1,3694.69432325,unknown,2,2022-06-30T09:28:20.275+02:00,2022-06-30T08:20:05.567+02:00,1147,1.44327,0,0,894.856,0,0,2022-06-30T09:28:40.657+02:00
2022-06-30T09:28:45.402+02:00,3719.82091875,-2.076507568359375,2.4439697265625,3.279251098632812,3719.81594275,-1.876234390523944,0.986698647980969,-0.8733960357920839,2.926970720291138,-10.78116035461426,1.015072464942932,-2.095337629318237,1.871028184890747,0.3067453801631927,XArbitraryZVertical,0.1258039004315541,0.5541626937174214,-0.7620602134849586,0.3103890330996404,0.5357523560523987,0.7665143609046936,-0.3541541695594788,0,0,0,-1,-1,3694.69432325,unknown,2,2022-06-30T09:28:20.275+02:00,2022-06-30T08:20:05.567+02:00,1147,1.44327,0,0,894.856,0,0,2022-06-30T09:28:40.657+02:00
2022-06-30T09:28:45.412+02:00,3719.83086975,-15.63223266601562,2.712966918945312,-28.414794921875,3719.82589375,-1.862507883367033,1.035355742157836,-0.8613209914317441,-3.536083936691284,10.06084537506104,-0.4179417490959167,-2.636770725250244,1.685265898704529,3.611626863479614,XArbitraryZVertical,0.1442958949363931,0.5594558683705743,-0.7568702389281802,0.3055084409725307,0.5602635145187378,0.7587037682533264,-0.3323756456375122,0,0,0,-1,-1,3694.69432325,unknown,2,2022-06-30T09:28:20.275+02:00,2022-06-30T08:20:05.567+02:00,1147,1.44327,0,0,894.856,0,0,2022-06-30T09:28:40.657+02:00
2022-06-30T09:28:45.422+02:00,3719.84082075,3.9066162109375,-0.9476776123046875,-8.347640991210938,3719.83584475,-1.857477164926797,1.092984972180705,-0.9009308628679669,0.5520510077476501,0.5860451459884644,-1.424423813819885,-16.1835765838623,1.929061651229858,-28.12929153442383,XArbitraryZVertical,0.1519324665823511,0.5780697530872154,-0.7514650957285075,0.2793783408818262,0.5513442158699036,0.7839052081108093,-0.2855037748813629,0,0,0,-1,-1,3694.69432325,unknown,2,2022-06-30T09:28:20.275+02:00,2022-06-30T08:20:05.567+02:00,1147,1.44327,0,0,894.856,0,0,2022-06-30T09:28:40.657+02:00
2022-06-30T09:28:45.432+02:00,3719.85077175,-0.1473541259765625,1.557708740234375,3.26873779296875,3719.84579575,-1.815122151560429,1.123952660235585,-0.8852652406264423,-3.005797624588013,0.06851302832365036,5.767144680023193,3.335691452026367,-1.721760749816895,-8.074071884155273,XArbitraryZVertical,0.1562824132777543,0.582057756410575,-0.7430666521640007,0.2909235944348895,0.5709251761436462,0.7740829586982727,-0.2735691368579865,0,0,0,-1,-1,3694.69432325,unknown,2,2022-06-30T09:28:20.275+02:00,2022-06-30T08:20:05.567+02:00,1147,1.44327,0,0,894.856,0,0,2022-06-30T09:28:40.657+02:00
2022-06-30T09:28:45.442+02:00,3719.86072275,1.138336181640625,0.9678192138671875,4.946502685546875,3719.85574775,-1.771012249406145,1.189592884786548,-0.834407308602989,2.322414636611938,6.4132399559021,4.533318996429443,-0.7707605361938477,0.8168100714683533,3.51860499382019,XArbitraryZVertical,0.1842121900331081,0.5840654019212844,-0.7299669869352896,0.3034499044205795,0.6234068274497986,0.740898609161377,-0.2498669475317001,0,0,0,-1,-1,3694.69432325,unknown,2,2022-06-30T09:28:20.275+02:00,2022-06-30T08:20:05.567+02:00,1147,1.44327,0,0,894.856,0,0,2022-06-30T09:28:40.657+02:00
2022-06-30T09:28:45.452+02:00,3719.87067375,2.5926513671875,0.946624755859375,2.80096435546875,3719.86569875,-1.781953193320427,1.223099098283782,-0.805297864946939,0.5064759254455566,1.802910327911377,0.6879568099975586,0.4869030714035034,0.2467818856239319,5.182596206665039,XArbitraryZVertical,0.2090953731913601,0.5815776188904076,-0.7272493552378638,0.2985882237657074,0.6514334082603455,0.7210370898246765,-0.2360931932926178,0,0,0,-1,-1,3694.69432325,unknown,2,2022-06-30T09:28:20.275+02:00,2022-06-30T08:20:05.567+02:00,1147,1.44327,0,0,894.856,0,0,2022-06-30T09:28:40.657+02:00
2022-06-30T09:28:45.462+02:00,3719.88062475,1.195297241210938,0.08453369140625,-0.7010345458984375,3719.87564975,-1.792146495153425,1.207001754904854,-0.7975117526121021,2.084733486175537,-2.471156597137451,0.1213603466749191,1.939875841140747,0.2310042381286621,3.049503326416016,XArbitraryZVertical,0.2087010388700693,0.5763458605233055,-0.730150350959488,0.3019102636550937,0.652775764465332,0.7156202793121338,-0.2485386580228806,0,0,0,-1,-1,3694.69432325,unknown,2,2022-06-30T09:28:20.275+02:00,2022-06-30T08:20:05.567+02:00,1147,1.44327,0,0,894.856,0,0,2022-06-30T09:28:40.657+02:00
2022-06-30T09:28:45.471+02:00,3719.89057575,-0.7573089599609375,0.9078369140625,-1.1505126953125,3719.88560075,-1.833791089006657,1.148608808040709,-0.7812496117794245,4.290090560913086,-2.55432915687561,0.5060563683509827,0.5476081371307373,-0.6196337342262268,-0.4100928902626038,XArbitraryZVertical,0.2042494488006455,0.5592955063154212,-0.7420088998213352,0.3080479569625384,0.6476895213127136,0.7041672468185425,-0.2909413874149323,0,0,0,-1,-1,3694.69432325,unknown,2,2022-06-30T09:28:20.275+02:00,2022-06-30T08:20:05.567+02:00,1147,1.44327,0,0,894.856,0,0,2022-06-30T09:28:40.657+02:00
2022-06-30T09:28:45.482+02:00,3719.90052775,-1.561553955078125,0.15240478515625,-1.803482055664062,3719.89555175,-1.882458376950009,1.097390193837191,-0.7561233396893619,4.237593173980713,-0.7949535250663757,0.6860960125923157,-1.404799818992615,0.2217304110527039,-0.8188296556472778,XArbitraryZVertical,0.2063759555572705,0.5399699762950922,-0.7542876650885951,0.3112742773106547,0.6474912166595459,0.6861063241958618,-0.3316827714443207,0,0,0,-1,-1,3694.69432325,unknown,2,2022-06-30T09:28:20.275+02:00,2022-06-30T08:20:05.567+02:00,1147,1.44327,0,0,894.856,0,0,2022-06-30T09:28:40.657+02:00
2022-06-30T09:28:45.491+02:00,3719.91047875,-0.4813385009765625,-0.7368621826171875,-0.9589691162109375,3719.90550275,-1.930825981590966,1.05813979190606,-0.730872877372964,4.161010265350342,-0.4405802488327026,0.2970651686191559,-2.210424423217773,-0.5151152014732361,-1.438263893127441,XArbitraryZVertical,0.2120672627675455,0.5219372699674435,-0.7656292217775574,0.3105171047575563,0.6488707065582275,0.6675198078155518,-0.365217924118042,0,0,0,-1,-1,3694.69432325,unknown,2,2022-06-30T09:28:20.275+02:00,2022-06-30T08:20:05.567+02:00,1147,1.44327,0,0,894.856,0,0,2022-06-30T09:28:40.657+02:00
2022-06-30T09:28:45.501+02:00,3719.92042975,0.570953369140625,-0.3612518310546875,-0.2009124755859375,3719.91545375,-1.963819319309658,1.030969797432743,-0.7129065743865923,1.959574222564697,-0.5098476409912109,0.3044315278530121,-1.130231499671936,-1.390897512435913,-0.5701559782028198,XArbitraryZVertical,0.2155208453637555,0.5090622000387075,-0.7735677779725757,0.3098377326808948,0.6488932967185974,0.6540352702140808,-0.3888128697872162,0,0,0,-1,-1,3694.69432325,unknown,2,2022-06-30T09:28:20.275+02:00,2022-06-30T08:20:05.567+02:00,1147,1.44327,0,0,894.856,0,0,2022-06-30T09:28:40.657+02:00
2022-06-30T09:28:45.511+02:00,3719.93038075,0.9453582763671875,0.20367431640625,0.0117034912109375,3719.92540475,-1.977075982077005,1.017769473711844,-0.7039042819355512,0.8791259527206421,-0.4225974380970001,0.1176230311393738,-0.07773476839065552,-1.008450984954834,0.1995086967945099,XArbitraryZVertical,0.2164292146603463,0.5029393406504072,-0.7770398770926895,0.3105147286744261,0.6486884355545044,0.6471989154815674,-0.4004208147525787,0,0,0,-1,-1,3694.69432325,unknown,2,2022-06-30T09:28:20.275+02:00,2022-06-30T08:20:05.567+02:00,1147,1.44327,0,0,894.856,0,0,2022-06-30T09:28:40.657+02:00
2022-06-30T09:28:45.521+02:00,3719.94033175,0.8474884033203125,0.6722564697265625,-0.18231201171875,3719.93535575,-1.985533027767216,1.006872670863132,-0.7000067044123038,0.7019637823104858,-0.6841826438903809,-0.1150757893919945,0.298944890499115,-0.4405487179756165,0.4205144941806793,XArbitraryZVertical,0.2154565495714995,0.4991724252360303,-0.7795343232232217,0.3110169140415657,0.6464136838912964,0.6442227959632874,-0.4088107347488403,0,0,0,-1,-1,3694.69432325,unknown,2,2022-06-30T09:28:20.275+02:00,2022-06-30T08:20:05.567+02:00,1147,1.44327,0,0,894.856,0,0,2022-06-30T09:28:40.657+02:00
2022-06-30T09:28:45.531+02:00,3719.95028275,0.500030517578125,0.7613677978515625,-0.313720703125,3719.94530775,-1.996637036501071,0.9918775252811115,-0.6977535059908156,0.975192129611969,-0.8085533380508423,-0.3592037558555603,0.2060641646385193,0.02975845336914062,0.2369389235973358,XArbitraryZVertical,0.2130196378294963,0.4949720338088422,-0.7828755818204041,0.3110163681671849,0.6414245367050171,0.6424978375434875,-0.4192506372928619,0,0,0,-1,-1,3694.69432325,unknown,2,2022-06-30T09:28:20.275+02:00,2022-06-30T08:20:05.567+02:00,1147,1.44327,0,0,894.856,0,0,2022-06-30T09:28:40.657+02:00
2022-06-30T09:28:45.541+02:00,3719.96023375,0.320953369140625,0.710357666015625,-0.21917724609375,3719.95525875,-2.011355978141426,0.9751996503577286,-0.6956172624561608,1.082523703575134,-0.5828044414520264,-0.4284344613552094,-0.1354473829269409,0.1205081939697266,0.1169380247592926,XArbitraryZVertical,0.210721097308629,0.490170784081228,-0.7869427741969948,0.3099198579561012,0.6354781985282898,0.6408594250679016,-0.4306584298610687,0,0,0,-1,-1,3694.69432325,unknown,2,2022-06-30T09:28:20.275+02:00,2022-06-30T08:20:05.567+02:00,1147,1.44327,0,0,894.856,0,0,2022-06-30T09:28:40.657+02:00
2022-06-30T09:28:45.551+02:00,3719.97018475,0.3046417236328125,0.678070068359375,-0.1224822998046875,3719.96520975,-2.024086815182306,0.9630753071158323,-0.6942076178686218,0.6485295295715332,-0.205432653427124,-0.3923150897026062,-0.30999755859375,0.07058089971542358,0.2196698188781738,XArbitraryZVertical,0.209456157815317,0.4865230781115858,-0.7901991049544504,0.3082352807082182,0.6309512853622437,0.6397766470909119,-0.4388468265533447,0,0,0,-1,-1,3694.69432325,unknown,2,2022-06-30T09:28:20.275+02:00,2022-06-30T08:20:05.567+02:00,1147,1.44327,0,0,894.856,0,0,2022-06-30T09:28:40.657+02:00
2022-06-30T09:28:45.561+02:00,3719.98013575,0.3827972412109375,0.6139068603515625,-0.1464385986328125,3719.97516075,-2.032504318314158,0.9567410865903306,-0.6952968309527684,0.3355588614940643,0.009568715468049049,-0.4721140265464783,-0.3229467868804932,0.03745651245117188,0.3199506998062134,XArbitraryZVertical,0.2086823222403926,0.4850106590184664,-0.792139384575249,0.3061560152644601,0.6275888085365295,0.6406133770942688,-0.442432701587677,0,0,0,-1,-1,3694.69432325,unknown,2,2022-06-30T09:28:20.275+02:00,2022-06-30T08:20:05.567+02:00,1147,1.44327,0,0,894.856,0,0,2022-06-30T09:28:40.657+02:00
2022-06-30T09:28:45.571+02:00,3719.99008775,0.40234375,0.612945556640625,-0.210052490234375,3719.98511175,-2.039472933534903,0.9530144697161813,-0.6978663737395119,0.2486961334943771,0.1295827329158783,-0.5401642322540283,-0.241794228553772,-0.02867758274078369,0.2973752021789551,XArbitraryZVertical,0.208159376398311,0.4845233847754835,-0.7935500307098756,0.3036201423611694,0.6245918869972229,0.6425843238830566,-0.4438135325908661,0,0,0,-1,-1,3694.69432325,unknown,2,2022-06-30T09:28:20.275+02:00,2022-06-30T08:20:05.567+02:00,1147,1.44327,0,0,894.856,0,0,2022-06-30T09:28:40.657+02:00
2022-06-30T09:28:45.581+02:00,3720.00003875,0.3599700927734375,0.6009063720703125,-0.2819671630859375,3719.99506275,-2.046175994133944,0.9506882746150682,-0.7013025563051731,0.1973220258951187,0.2612390518188477,-0.6021208167076111,-0.2194130420684814,-0.0322679877281189,0.2339272499084473,XArbitraryZVertical,0.2078804597361651,0.4845575074424215,-0.7947443244844691,0.3006181233878055,0.6217571496963501,0.6452133655548096,-0.4439794719219208,0,0,0,-1,-1,3694.69432325,unknown,2,2022-06-30T09:28:20.275+02:00,2022-06-30T08:20:05.567+02:00,1147,1.44327,0,0,894.856,0,0,2022-06-30T09:28:40.657+02:00
2022-06-30T09:28:45.591+02:00,3720.00998975,0.3387298583984375,0.54608154296875,-0.3709564208984375,3720.00501375,-2.052695448399267,0.9496507712939105,-0.7054639374118531,0.122980959713459,0.3674086332321167,-0.6402024030685425,-0.259136974811554,-0.04748088121414185,0.1610909998416901,XArbitraryZVertical,0.207865964487363,0.4850389661870617,-0.7957458130442767,0.2971827385105684,0.6191073656082153,0.64838707447052,-0.4430578947067261,0,0,0,-1,-1,3694.69432325,unknown,2,2022-06-30T09:28:20.275+02:00,2022-06-30T08:20:05.567+02:00,1147,1.44327,0,0,894.856,0,0,2022-06-30T09:28:40.657+02:00
2022-06-30T09:28:45.601+02:00,3720.01994075,0.34613037109375,0.4822235107421875,-0.5013580322265625,3720.01496475,-2.058642678437534,0.9499098102545209,-0.7102159823738391,0.06676009297370911,0.4504469037055969,-0.6455583572387695,-0.2779788374900818,-0.1059160828590393,0.07014387845993042,XArbitraryZVertical,0.2080662542467598,0.4859613286695885,-0.7964966392042896,0.2935016587969518,0.6167090535163879,0.6519975662231445,-0.4411000311374664,0,0,0,-1,-1,3694.69432325,unknown,2,2022-06-30T09:28:20.275+02:00,2022-06-30T08:20:05.567+02:00,1147,1.44327,0,0,894.856,0,0,2022-06-30T09:28:40.657+02:00
2022-06-30T09:28:45.611+02:00,3720.02989175,0.345062255859375,0.4615020751953125,-0.637542724609375,3720.02491675,-2.064258768581597,0.9509936515630519,-0.7150488164184758,0.07793524861335754,0.509679913520813,-0.6345246434211731,-0.2684838771820068,-0.1734309196472168,-0.06276190280914307,XArbitraryZVertical,0.2084980516165018,0.4870632864171604,-0.7970925433225079,0.2897263299543231,0.6146146059036255,0.65565425157547,-0.4385958313941956,0,0,0,-1,-1,3694.69432325,unknown,2,2022-06-30T09:28:20.275+02:00,2022-06-30T08:20:05.567+02:00,1147,1.44327,0,0,894.856,0,0,2022-06-30T09:28:40.657+02:00
2022-06-30T09:28:45.621+02:00,3720.03984275,0.33197021484375,0.504241943359375,-0.739898681640625,3720.03486775,-2.07103799920086,0.9519505978906844,-0.7194526075690769,0.2630921304225922,0.5790274739265442,-0.6802505850791931,-0.2676136493682861,-0.1974711418151855,-0.2012141048908234,XArbitraryZVertical,0.2092902501997135,0.4878867052043701,-0.7978604337766426,0.2856271516338704,0.612676203250885,0.6589730381965637,-0.4363283216953278,0,0,0,-1,-1,3694.69432325,unknown,2,2022-06-30T09:28:20.275+02:00,2022-06-30T08:20:05.567+02:00,1147,1.44327,0,0,894.856,0,0,2022-06-30T09:28:40.657+02:00
2022-06-30T09:28:45.631+02:00,3720.04979375,0.309783935546875,0.5614166259765625,-0.7953033447265625,3720.04481875,-2.080835907304268,0.9515781823893189,-0.7230985198293425,0.5261397361755371,0.6466752290725708,-0.770215630531311,-0.2785826325416565,-0.1574690937995911,-0.304739236831665,XArbitraryZVertical,0.2105077717486961,0.4879619535892825,-0.7991915786973676,0.2808427907357556,0.6105532646179199,0.6617109775543213,-0.4351592063903809,0,0,0,-1,-1,3694.69432325,unknown,2,2022-06-30T09:28:20.275+02:00,2022-06-30T08:20:05.567+02:00,1147,1.44327,0,0,894.856,0,0,2022-06-30T09:28:40.657+02:00
2022-06-30T09:28:45.641+02:00,3720.05974475,0.2698822021484375,0.586456298828125,-0.849945068359375,3720.05476975,-2.094597102662553,0.9493065814213977,-0.725964820245651,0.8148376941680908,0.727029025554657,-0.9030439257621765,-0.2982342839241028,-0.1024408340454102,-0.359864205121994,XArbitraryZVertical,0.2121533395562034,0.4871052702368521,-0.8012622644527551,0.2751331717415774,0.6080185770988464,0.6638572812080383,-0.4354388415813446,0,0,0,-1,-1,3694.69432325,unknown,2,2022-06-30T09:28:20.275+02:00,2022-06-30T08:20:05.567+02:00,1147,1.44327,0,0,894.856,0,0,2022-06-30T09:28:40.657+02:00
2022-06-30T09:28:45.651+02:00,3720.06969675,0.239593505859375,0.5606842041015625,-0.805145263671875,3720.06472075,-2.112377849753584,0.9448033515467573,-0.7283257401121535,1.073688983917236,0.7346637845039368,-1.032784104347229,-0.3348971605300903,-0.07916486263275146,-0.4126918315887451,XArbitraryZVertical,0.2140154803464126,0.4853564625718972,-0.804083693868854,0.2684697131275212,0.6047797203063965,0.6656211018562317,-0.4372529685497284,0,0,0,-1,-1,3694.69432325,unknown,2,2022-06-30T09:28:20.275+02:00,2022-06-30T08:20:05.567+02:00,1147,1.44327,0,0,894.856,0,0,2022-06-30T09:28:40.657+02:00
2022-06-30T09:28:45.660+02:00,3720.07964775,0.22564697265625,0.53753662109375,-0.634857177734375,3720.07467175,-2.133341753864471,0.9377598880284806,-0.7303384885924797,1.190443515777588,0.6564816236495972,-1.12848687171936,-0.3610097765922546,-0.1064377427101135,-0.3644366264343262,XArbitraryZVertical,0.2157010677110429,0.4828238419855227,-0.8075450373801212,0.2611998318177766,0.6006036400794983,0.6671218276023865,-0.4407083690166473,0,0,0,-1,-1,3694.69432325,unknown,2,2022-06-30T09:28:20.275+02:00,2022-06-30T08:20:05.567+02:00,1147,1.44327,0,0,894.856,0,0,2022-06-30T09:28:40.657+02:00
2022-06-30T09:28:45.670+02:00,3720.08959875,0.1939849853515625,0.5225830078125,-0.540618896484375,3720.08462275,-2.154540330232396,0.9298884972484375,-0.7328477325964109,1.039427638053894,0.6133040189743042,-1.15468418598175,-0.3701250553131104,-0.1314523816108704,-0.1904367506504059,XArbitraryZVertical,0.2169424414015115,0.4803394565475539,-0.8110265205352941,0.2538624760818662,0.5957724452018738,0.6689890027046204,-0.4444199800491333,0,0,0,-1,-1,3694.69432325,unknown,2,2022-06-30T09:28:20.275+02:00,2022-06-30T08:20:05.567+02:00,1147,1.44327,0,0,894.856,0,0,2022-06-30T09:28:40.657+02:00
2022-06-30T09:28:45.682+02:00,3720.09954975,0.1304473876953125,0.5519561767578125,-0.462158203125,3720.09457375,-2.174353545312773,0.9225402688228803,-0.7364236453491955,0.9208694696426392,0.5912531614303589,-1.208200097084045,-0.3965946435928345,-0.1490596532821655,-0.09328007698059082,XArbitraryZVertical,0.2177520393859846,0.4784504159756257,-0.8141469309190593,0.2466459010172788,0.5905799865722656,0.6716426014900208,-0.4473384916782379,0,0,0,-1,-1,3694.69432325,unknown,2,2022-06-30T09:28:20.275+02:00,2022-06-30T08:20:05.567+02:00,1147,1.44327,0,0,894.856,0,0,2022-06-30T09:28:40.657+02:00
2022-06-30T09:28:45.691+02:00,3720.10950075,0.0795135498046875,0.6548919677734375,-0.449371337890625,3720.10452475,-2.195016009405033,0.9146306067156031,-0.7408778507867446,0.9838907718658447,0.613964855670929,-1.367098927497864,-0.4541991949081421,-0.1229798197746277,-0.01199185848236084,XArbitraryZVertical,0.2182865635961126,0.4767262994764595,-0.8173017452888603,0.2389578050892495,0.5846469402313232,0.6749359369277954,-0.4501660168170929,0,0,0,-1,-1,3694.69432325,unknown,2,2022-06-30T09:28:20.275+02:00,2022-06-30T08:20:05.567+02:00,1147,1.44327,0,0,894.856,0,0,2022-06-30T09:28:40.657+02:00
2022-06-30T09:28:45.700+02:00,3720.11945175,0.0462646484375,0.7186737060546875,-0.5276031494140625,3720.11447675,-2.218507703189022,0.9050133460513863,-0.7456716365101533,1.19019889831543,0.6573736071586609,-1.523136734962463,-0.4982255697250366,-0.02357351779937744,0.004393070936203003,XArbitraryZVertical,0.2186898475489044,0.4746500819633906,-0.8208530213732157,0.2303960140396781,0.577739417552948,0.6784653663635254,-0.4537641108036041,0,0,0,-1,-1,3694.69432325,unknown,2,2022-06-30T09:28:20.275+02:00,2022-06-30T08:20:05.567+02:00,1147,1.44327,0,0,894.856,0,0,2022-06-30T09:28:40.657+02:00
2022-06-30T09:28:45.710+02:00,3720.12940275,0.02178955078125,0.7552337646484375,-0.625244140625,3720.12442775,-2.246504488165716,0.8927994209797406,-0.7496471956343831,1.554303407669067,0.7150992155075073,-1.663956880569458,-0.5237840414047241,0.03729301691055298,-0.06851169466972351,XArbitraryZVertical,0.2192713819101496,0.4715660215965154,-0.825113722505744,0.2207552475629121,0.570048987865448,0.681380569934845,-0.4590910971164703,0,0,0,-1,-1,3694.69432325,unknown,2,2022-06-30T09:28:20.275+02:00,2022-06-30T08:20:05.567+02:00,1147,1.44327,0,0,894.856,0,0,2022-06-30T09:28:40.657+02:00
2022-06-30T09:28:45.722+02:00,3720.13935375,-0.02001953125,0.8097991943359375,-0.7113037109375,3720.13437875,-2.279503591993165,0.8777481209307821,-0.7520370305284368,1.881286263465881,0.7954806089401245,-1.77056884765625,-0.5400306582450867,0.07210588455200195,-0.1586666703224182,XArbitraryZVertical,0.220189682254792,0.4671487206413186,-0.8301657451651258,0.21003235317981,0.5618205666542053,0.6831278204917908,-0.4665771424770355,0,0,0,-1,-1,3694.69432325,unknown,2,2022-06-30T09:28:20.275+02:00,2022-06-30T08:20:05.567+02:00,1147,1.44327,0,0,894.856,0,0,2022-06-30T09:28:40.657+02:00
2022-06-30T09:28:45.733+02:00,3720.14930575,-0.0597381591796875,0.8246917724609375,-0.79156494140625,3720.14432975,-2.316765542894919,0.8606421003025049,-0.752877326490051,2.18484091758728,0.8914827704429626,-1.884564638137817,-0.5733410716056824,0.1260578632354736,-0.2355589270591736,XArbitraryZVertical,0.2215122099772653,0.4615843771790719,-0.8357980938475967,0.1982767495351667,0.5533218383789062,0.6837412714958191,-0.4757443964481354,0,0,0,-1,-1,3694.69432325,unknown,2,2022-06-30T09:28:20.275+02:00,2022-06-30T08:20:05.567+02:00,1147,1.44327,0,0,894.856,0,0,2022-06-30T09:28:40.657+02:00
2022-06-30T09:28:45.740+02:00,3720.15925675,-0.09368896484375,0.8334503173828125,-0.8541717529296875,3720.15428075,-2.357870056886973,0.8418526018652338,-0.7522364076375057,2.410492420196533,0.983506977558136,-1.987980246543884,-0.6043503284454346,0.1414183378219604,-0.3052163124084473,XArbitraryZVertical,0.2232008736178014,0.4549804622099787,-0.8418818445561175,0.1854969731132722,0.5446125268936157,0.6832734346389771,-0.4863483011722565,0,0,0,-1,-1,3694.69432325,unknown,2,2022-06-30T09:28:20.275+02:00,2022-06-30T08:20:05.567+02:00,1147,1.44327,0,0,894.856,0,0,2022-06-30T09:28:40.657+02:00
