loggingTime(txt),accelerometerTimestamp_sinceReboot(s),accelerometerAccelerationX(G),accelerometerAccelerationY(G),accelerometerAccelerationZ(G),motionTimestamp_sinceReboot(s),motionYaw(rad),motionRoll(rad),motionPitch(rad),motionRotationRateX(rad/s),motionRotationRateY(rad/s),motionRotationRateZ(rad/s),motionUserAccelerationX(G),motionUserAccelerationY(G),motionUserAccelerationZ(G),motionAttitudeReferenceFrame(txt),motionQuaternionX(R),motionQuaternionY(R),motionQuaternionZ(R),motionQuaternionW(R),motionGravityX(G),motionGravityY(G),motionGravityZ(G),motionMagneticFieldX(µT),motionMagneticFieldY(µT),motionMagneticFieldZ(µT),motionHeading(°),motionMagneticFieldCalibrationAccuracy(Z),activityTimestamp_sinceReboot(s),activity(txt),activityActivityConfidence(Z),activityActivityStartDate(txt),pedometerStartDate(txt),pedometerNumberofSteps(N),pedometerAverageActivePace(s/m),pedometerCurrentPace(s/m),pedometerCurrentCadence(steps/s),pedometerDistance(m),pedometerFloorAscended(N),pedometerFloorDescended(N),pedometerEndDate(txt)
2022-06-30T09:29:58.663+02:00,3793.060981625,0.0775299072265625,-0.3177337646484375,-0.921173095703125,3793.056006625,-1.655203068672201,0.02755509610066753,0.2799694940726954,0.1180931925773621,0.07897237688302994,-0.07920434325933456,0.02410431206226349,-0.05717009305953979,0.03430753946304321,XArbitraryZVertical,0.1044467951412587,-0.09349518051624128,-0.7277381829601417,0.6713767750828369,0.02647885680198669,-0.2763263285160065,-0.9606990218162537,0,0,0,-1,-1,3791.49742625,unknown,2,2022-06-30T09:29:57.078+02:00,2022-06-30T08:20:05.567+02:00,1147,1.44327,0,0,894.856,0,0,2022-06-30T09:28:40.657+02:00
2022-06-30T09:29:58.665+02:00,3793.070932625,0.08837890625,-0.325927734375,-0.9234161376953125,3793.065957625,-1.656078951826923,0.02839453573834628,0.2821627008902394,0.09820923209190369,0.02875660918653011,-0.08418631553649902,0.05026216804981232,-0.03930062055587769,0.0388953685760498,XArbitraryZVertical,0.105444065439212,-0.09406046711980849,-0.7278646859923881,0.6710045310850861,0.02726802416145802,-0.2784334719181061,-0.9600683450698853,0,0,0,-1,-1,3791.49742625,unknown,2,2022-06-30T09:29:57.078+02:00,2022-06-30T08:20:05.567+02:00,1147,1.44327,0,0,894.856,0,0,2022-06-30T09:28:40.657+02:00
2022-06-30T09:29:58.665+02:00,3793.080883625,0.07281494140625,-0.3342132568359375,-0.9154815673828125,3793.075908625,-1.65702944569569,0.02859808240923514,0.2839768892920063,0.09347379207611084,-0.02288710698485374,-0.09652790427207947,0.06093022227287292,-0.04575261473655701,0.03614026308059692,XArbitraryZVertical,0.106079087942485,-0.09470525214215676,-0.7280698034830811,0.6705911519873866,0.02744895406067371,-0.2801754772663116,-0.9595562815666199,0,0,0,-1,-1,3791.49742625,unknown,2,2022-06-30T09:29:57.078+02:00,2022-06-30T08:20:05.567+02:00,1147,1.44327,0,0,894.856,0,0,2022-06-30T09:28:40.657+02:00
2022-06-30T09:29:58.672+02:00,3793.090834625,0.0662994384765625,-0.338226318359375,-0.918853759765625,3793.085859625,-1.657942209576966,0.02811279040064386,0.2853589883176326,0.04316828027367592,-0.05997082591056824,-0.09067907184362411,0.04584284126758575,-0.05271166563034058,0.04370003938674927,XArbitraryZVertical,0.1063202282963451,-0.09542147832776214,-0.7283227238723494,0.6701766952236012,0.02697237394750118,-0.2815019488334656,-0.9591814875602722,0,0,0,-1,-1,3791.49742625,unknown,2,2022-06-30T09:29:57.078+02:00,2022-06-30T08:20:05.567+02:00,1147,1.44327,0,0,894.856,0,0,2022-06-30T09:28:40.657+02:00
2022-06-30T09:29:58.682+02:00,3793.100785625,0.0625152587890625,-0.3430328369140625,-0.9285125732421875,3793.095810625,-1.658701435924385,0.02719730961681463,0.2861300093010058,0.009537616744637489,-0.09104964882135391,-0.07350780814886093,0.04021137952804565,-0.0559849739074707,0.04013490676879883,XArbitraryZVertical,0.1062076164342601,-0.09605035550850204,-0.7285816705246028,0.6698231538613445,0.02608834020793438,-0.2822417020797729,-0.9589885473251343,0,0,0,-1,-1,3791.49742625,unknown,2,2022-06-30T09:29:57.078+02:00,2022-06-30T08:20:05.567+02:00,1147,1.44327,0,0,894.856,0,0,2022-06-30T09:28:40.657+02:00
2022-06-30T09:29:58.692+02:00,3793.110737625,0.06121826171875,-0.340789794921875,-0.92510986328125,3793.105761625,-1.659207840625327,0.02581291442765392,0.2869718991368302,-0.003291895380243659,-0.1066294088959694,-0.05696025490760803,0.03776098787784576,-0.05998390913009644,0.03027337789535522,XArbitraryZVertical,0.1059595284882686,-0.09684857820651595,-0.7287766084595205,0.6695353628626991,0.02475455589592457,-0.2830492556095123,-0.9587858915328979,0,0,0,-1,-1,3791.49742625,unknown,2,2022-06-30T09:29:57.078+02:00,2022-06-30T08:20:05.567+02:00,1147,1.44327,0,0,894.856,0,0,2022-06-30T09:28:40.657+02:00
2022-06-30T09:29:58.702+02:00,3793.120688625,0.0588836669921875,-0.3286285400390625,-0.9294891357421875,3793.115712625,-1.659541504656457,0.02425492293161757,0.2874731559544075,-0.02517056278884411,-0.1152625009417534,-0.0422634668648243,0.03796122968196869,-0.05726015567779541,0.03357154130935669,XArbitraryZVertical,0.1055426478267525,-0.09757099659792232,-0.7289421086177887,0.6693160010007145,0.02325730212032795,-0.2835299670696259,-0.9586812853813171,0,0,0,-1,-1,3791.49742625,unknown,2,2022-06-30T09:29:57.078+02:00,2022-06-30T08:20:05.567+02:00,1147,1.44327,0,0,894.856,0,0,2022-06-30T09:28:40.657+02:00
2022-06-30T09:29:58.712+02:00,3793.130639625,0.047149658203125,-0.311859130859375,-0.9340362548828125,3793.125663625,-1.660198362951071,0.0244148763378716,0.2874440529636676,-0.04922982677817345,-0.1059630066156387,-0.02456329949200153,0.03547309339046478,-0.04512679576873779,0.02919679880142212,XArbitraryZVertical,0.1055592134526206,-0.09754148644861339,-0.7291551124071852,0.6690857267826257,0.02341084741055965,-0.283502072095871,-0.9586858153343201,0,0,0,-1,-1,3791.49742625,unknown,2,2022-06-30T09:29:57.078+02:00,2022-06-30T08:20:05.567+02:00,1147,1.44327,0,0,894.856,0,0,2022-06-30T09:28:40.657+02:00
2022-06-30T09:29:58.722+02:00,3793.140590625,0.0340576171875,-0.29156494140625,-0.9476776123046875,3793.135614625,-1.660602884079662,0.02406979234655268,0.2879392630197037,-0.03647481650114059,-0.07254400849342346,-0.02960469760000706,0.02407330274581909,-0.02788254618644714,0.0245172381401062,XArbitraryZVertical,0.1055786423240312,-0.09785939719197159,-0.7292804422628061,0.6688996879865149,0.02307663671672344,-0.2839769423007965,-0.9585533738136292,0,0,0,-1,-1,3791.49742625,unknown,2,2022-06-30T09:29:57.078+02:00,2022-06-30T08:20:05.567+02:00,1147,1.44327,0,0,894.856,0,0,2022-06-30T09:28:40.657+02:00
2022-06-30T09:29:58.732+02:00,3793.150541625,0.0351104736328125,-0.28668212890625,-0.950958251953125,3793.145565625,-1.661216220955051,0.02478059823907596,0.2884318520848277,0.0114271966740489,-0.01480934023857117,-0.02839935012161732,0.01030337810516357,-0.007116079330444336,0.01071929931640625,XArbitraryZVertical,0.1059719312086399,-0.09783435067411934,-0.7294198362409489,0.6686892098832908,0.02375450730323792,-0.2844492197036743,-0.9583967924118042,0,0,0,-1,-1,3791.49742625,unknown,2,2022-06-30T09:29:57.078+02:00,2022-06-30T08:20:05.567+02:00,1147,1.44327,0,0,894.856,0,0,2022-06-30T09:28:40.657+02:00
2022-06-30T09:29:58.742+02:00,3793.160492625,0.054290771484375,-0.3107452392578125,-0.9654083251953125,3793.155516625,-1.661808043653947,0.02610660344784453,0.2896227124468399,0.07163986563682556,0.008491127751767635,-0.01081552915275097,0.01009428314864635,-0.00109177827835083,0.007067024707794189,XArbitraryZVertical,0.1068230905793849,-0.09785837514288971,-0.7294787645906099,0.6684858923826607,0.02501646615564823,-0.2855906784534454,-0.9580251574516296,0,0,0,-1,-1,3791.49742625,unknown,2,2022-06-30T09:29:57.078+02:00,2022-06-30T08:20:05.567+02:00,1147,1.44327,0,0,894.856,0,0,2022-06-30T09:28:40.657+02:00
2022-06-30T09:29:58.757+02:00,3793.170443625,0.0533294677734375,-0.32196044921875,-0.9755401611328125,3793.165467625,-1.662200107948097,0.02723432159391016,0.2916141002122545,0.1094335839152336,0.007553428411483765,-0.00944080576300621,0.02820974588394165,-0.02324700355529785,-0.007982313632965088,XArbitraryZVertical,0.1078778614769331,-0.09823145006426723,-0.7294339240875412,0.6683106590417872,0.02608129382133484,-0.2874985635280609,-0.9574258923530579,0,0,0,-1,-1,3791.49742625,unknown,2,2022-06-30T09:29:57.078+02:00,2022-06-30T08:20:05.567+02:00,1147,1.44327,0,0,894.856,0,0,2022-06-30T09:28:40.657+02:00
2022-06-30T09:29:58.775+02:00,3793.180394625,0.0353546142578125,-0.3072967529296875,-0.9725189208984375,3793.175419625,-1.66261942422221,0.02826270847278968,0.293969870379263,0.1019007042050362,0.001298147719353437,-0.01192999631166458,0.02628308534622192,-0.03220671415328979,-0.018821120262146,XArbitraryZVertical,0.1090158160255686,-0.09877297609789004,-0.7293804377984124,0.6681044917197465,0.02704666927456856,-0.2897540628910065,-0.956718921661377,0,0,0,-1,-1,3791.49742625,unknown,2,2022-06-30T09:29:57.078+02:00,2022-06-30T08:20:05.567+02:00,1147,1.44327,0,0,894.856,0,0,2022-06-30T09:28:40.657+02:00
2022-06-30T09:29:58.777+02:00,3793.190345625,0.02667236328125,-0.293060302734375,-0.9725341796875,3793.185370625,-1.663159164206268,0.02941804887364349,0.296601227175472,0.08702775090932846,0.002543708309531212,-0.02440291084349155,0.007225438952445984,-0.0150255560874939,-0.0165972113609314,XArbitraryZVertical,0.1102851251551355,-0.0993800432197334,-0.7293417284230317,0.6678484933951913,0.02812946401536465,-0.2922715246677399,-0.9559215903282166,0,0,0,-1,-1,3791.49742625,unknown,2,2022-06-30T09:29:57.078+02:00,2022-06-30T08:20:05.567+02:00,1147,1.44327,0,0,894.856,0,0,2022-06-30T09:28:40.657+02:00
2022-06-30T09:29:58.782+02:00,3793.200296625,0.026458740234375,-0.289031982421875,-0.971466064453125,3793.195321625,-1.66383375363706,0.03073262791193848,0.2993160822515899,0.1062642931938171,0.01812240108847618,-0.03667342662811279,-0.002688929438591003,0.001806139945983887,-0.01744687557220459,XArbitraryZVertical,0.1116327636916393,-0.09997271625259727,-0.7293315054803154,0.6675471330558422,0.02936158329248428,-0.2948667705059052,-0.9550871849060059,0,0,0,-1,-1,3791.49742625,unknown,2,2022-06-30T09:29:57.078+02:00,2022-06-30T08:20:05.567+02:00,1147,1.44327,0,0,894.856,0,0,2022-06-30T09:28:40.657+02:00
2022-06-30T09:29:58.791+02:00,3793.210247625,0.030059814453125,-0.2912139892578125,-0.96453857421875,3793.205272625,-1.664583204083256,0.03206669441785003,0.3015581892839414,0.1268361508846283,0.03373331949114799,-0.04318645596504211,-0.004155397415161133,0.007976114749908447,-0.01708197593688965,XArbitraryZVertical,0.1128260139991356,-0.1003907842549211,-0.7293709922961309,0.6672405821524369,0.03061443381011486,-0.2970084547996521,-0.9543839693069458,0,0,0,-1,-1,3791.49742625,unknown,2,2022-06-30T09:29:57.078+02:00,2022-06-30T08:20:05.567+02:00,1147,1.44327,0,0,894.856,0,0,2022-06-30T09:28:40.657+02:00
2022-06-30T09:29:58.801+02:00,3793.220198625,0.0288848876953125,-0.3019561767578125,-0.9519195556640625,3793.215223625,-1.665209002023377,0.0331223408955987,0.3033195138742692,0.1255495697259903,0.04401179030537605,-0.03640977293252945,-0.001544445753097534,0.007475495338439941,-0.010711669921875,XArbitraryZVertical,0.1137638450679866,-0.100719389747791,-0.7294122725797729,0.6669865428101602,0.03160453587770462,-0.2986898124217987,-0.9538267850875854,0,0,0,-1,-1,3791.49742625,unknown,2,2022-06-30T09:29:57.078+02:00,2022-06-30T08:20:05.567+02:00,1147,1.44327,0,0,894.856,0,0,2022-06-30T09:28:40.657+02:00
2022-06-30T09:29:58.811+02:00,3793.230149625,0.0376129150390625,-0.3061981201171875,-0.9364471435546875,3793.225174625,-1.665626581725185,0.03382628284227052,0.30427371318123,0.1032346785068512,0.0460970439016819,-0.02441223151981831,-0.003381151705980301,-0.002356141805648804,0.001599609851837158,XArbitraryZVertical,0.1143159340148918,-0.1008581081244992,-0.7294526683630661,0.6668269770047849,0.03226631134748459,-0.2996003329753876,-0.9535190463066101,0,0,0,-1,-1,3791.49742625,unknown,2,2022-06-30T09:29:57.078+02:00,2022-06-30T08:20:05.567+02:00,1147,1.44327,0,0,894.856,0,0,2022-06-30T09:28:40.657+02:00
2022-06-30T09:29:58.821+02:00,3793.240100625,0.039703369140625,-0.3097076416015625,-0.93267822265625,3793.235125625,-1.665868663098085,0.03444484795508533,0.3046918057452261,0.07134272903203964,0.02899176441133022,-0.0084095299243927,0.004761397838592529,-0.006199270486831665,0.01692658662796021,XArbitraryZVertical,0.1146679257491972,-0.1008189311820394,-0.7294721513892068,0.666751336707368,0.03285180404782295,-0.2999991774559021,-0.9533736109733582,0,0,0,-1,-1,3791.49742625,unknown,2,2022-06-30T09:29:57.078+02:00,2022-06-30T08:20:05.567+02:00,1147,1.44327,0,0,894.856,0,0,2022-06-30T09:28:40.657+02:00
2022-06-30T09:29:58.831+02:00,3793.250052625,0.029754638671875,-0.3183441162109375,-0.924652099609375,3793.245076625,-1.666205589605698,0.03550390384182232,0.3054041066548199,0.05539598688483238,0.02562979236245155,-0.009308612905442715,0.005849793553352356,-0.009029388427734375,0.02044641971588135,XArbitraryZVertical,0.1152732703980933,-0.1007463341169407,-0.7294794128231702,0.6666500080136244,0.03385386615991592,-0.3006786108016968,-0.9531245231628418,0,0,0,-1,-1,3791.49742625,unknown,2,2022-06-30T09:29:57.078+02:00,2022-06-30T08:20:05.567+02:00,1147,1.44327,0,0,894.856,0,0,2022-06-30T09:28:40.657+02:00
2022-06-30T09:29:58.841+02:00,3793.260003625,0.0237579345703125,-0.32135009765625,-0.92193603515625,3793.255027625,-1.666504533851209,0.03648841415755217,0.3061808254221506,0.03597122430801392,0.03976378217339516,-0.00921197421848774,-0.005028754472732544,-0.0169251561164856,0.02820503711700439,XArbitraryZVertical,0.1158746093980467,-0.1007202208249041,-0.7294737407703933,0.6665557735685986,0.03478367999196053,-0.3014192879199982,-0.9528570175170898,0,0,0,-1,-1,3791.49742625,unknown,2,2022-06-30T09:29:57.078+02:00,2022-06-30T08:20:05.567+02:00,1147,1.44327,0,0,894.856,0,0,2022-06-30T09:28:40.657+02:00
2022-06-30T09:29:58.851+02:00,3793.269954625,0.025238037109375,-0.3231048583984375,-0.924041748046875,3793.264978625,-1.666612906188456,0.03705152781965614,0.3064237797724274,0.02226606197655201,0.07250015437602997,-0.01023862231522799,-0.01155930757522583,-0.01969951391220093,0.03082817792892456,XArbitraryZVertical,0.1161550064076143,-0.10062790658729,-0.7294619963756412,0.6665337806196041,0.03531752899289131,-0.3016509413719177,-0.952764093875885,0,0,0,-1,-1,3791.49742625,unknown,2,2022-06-30T09:29:57.078+02:00,2022-06-30T08:20:05.567+02:00,1147,1.44327,0,0,894.856,0,0,2022-06-30T09:28:40.657+02:00
2022-06-30T09:29:58.861+02:00,3793.279905625,0.0351104736328125,-0.3145599365234375,-0.9334869384765625,3793.274929625,-1.666651173243826,0.03768082161283194,0.3062927214022153,0.03657183051109314,0.1025610119104385,-0.0145674915984273,-0.01068025827407837,-0.02157920598983765,0.02873951196670532,XArbitraryZVertical,0.1163392030745461,-0.1003723627867169,-0.7294463822542402,0.6665572068431865,0.03591857850551605,-0.3015259802341461,-0.9527811408042908,0,0,0,-1,-1,3791.49742625,unknown,2,2022-06-30T09:29:57.078+02:00,2022-06-30T08:20:05.567+02:00,1147,1.44327,0,0,894.856,0,0,2022-06-30T09:28:40.657+02:00
2022-06-30T09:29:58.871+02:00,3793.289856625,0.0301971435546875,-0.3161163330078125,-0.936248779296875,3793.284880625,-1.666753228669682,0.03861850037362962,0.3063194653947902,0.07373544573783875,0.1370244473218918,-0.02048716507852077,-0.001700893044471741,-0.01300877332687378,0.01925218105316162,XArbitraryZVertical,0.1166849324857628,-0.1000756037523321,-0.7294240908819534,0.6665657921701466,0.03681165352463722,-0.30155149102211,-0.9527390003204346,0,0,0,-1,-1,3791.49742625,unknown,2,2022-06-30T09:29:57.078+02:00,2022-06-30T08:20:05.567+02:00,1147,1.44327,0,0,894.856,0,0,2022-06-30T09:28:40.657+02:00
2022-06-30T09:29:58.881+02:00,3793.299807625,0.0434722900390625,-0.3323516845703125,-0.9315948486328125,3793.294831625,-1.666923145991844,0.03996837002024906,0.3067483177599845,0.08677908033132553,0.1568060964345932,-0.01689256355166435,-0.007895100861787796,-0.01415631175041199,0.01631051301956177,XArbitraryZVertical,0.1173107129053632,-0.09979290239019982,-0.7293747367461674,0.6665525052822122,0.03809252381324768,-0.3019603490829468,-0.9525591731071472,0,0,0,-1,-1,3791.49742625,unknown,2,2022-06-30T09:29:57.078+02:00,2022-06-30T08:20:05.567+02:00,1147,1.44327,0,0,894.856,0,0,2022-06-30T09:28:40.657+02:00
2022-06-30T09:29:58.891+02:00,3793.309758625,0.0573272705078125,-0.34368896484375,-0.9282684326171875,3793.304782625,-1.666970629512917,0.04113754296698473,0.3075298143098216,0.06192193180322647,0.131958544254303,-0.007675630040466785,0.004276096820831299,-0.02964675426483154,0.0206831693649292,XArbitraryZVertical,0.1179933601103269,-0.09969266404491142,-0.7292722768777089,0.6665590124498366,0.03919648379087448,-0.3027052581310272,-0.9522778987884521,0,0,0,-1,-1,3791.49742625,unknown,2,2022-06-30T09:29:57.078+02:00,2022-06-30T08:20:05.567+02:00,1147,1.44327,0,0,894.856,0,0,2022-06-30T09:28:40.657+02:00
2022-06-30T09:29:58.901+02:00,3793.319709625,0.0479888916015625,-0.3474884033203125,-0.931182861328125,3793.314734625,-1.667021208368052,0.04227753235468083,0.3082500205911477,0.03890369832515717,0.1103869006037712,-0.007848734967410564,0.01705473661422729,-0.04029768705368042,0.02374619245529175,XArbitraryZVertical,0.1186448204515037,-0.09957986087596851,-0.7291758371066515,0.6665657574353908,0.04027282074093819,-0.3033916056156158,-0.9520145058631897,0,0,0,-1,-1,3791.49742625,unknown,2,2022-06-30T09:29:57.078+02:00,2022-06-30T08:20:05.567+02:00,1147,1.44327,0,0,894.856,0,0,2022-06-30T09:28:40.657+02:00
2022-06-30T09:29:58.911+02:00,3793.329660625,0.051177978515625,-0.35614013671875,-0.9265899658203125,3793.324685625,-1.667244326280845,0.04335015697138937,0.3091114799566025,0.06457018107175827,0.09874169528484344,-0.03423320129513741,0.006706561893224716,-0.0432763397693634,0.02052658796310425,XArbitraryZVertical,0.119309765267795,-0.0995516529416057,-0.7291312460739687,0.6664999583223801,0.04128260910511017,-0.304212361574173,-0.9517092704772949,0,0,0,-1,-1,3791.49742625,unknown,2,2022-06-30T09:29:57.078+02:00,2022-06-30T08:20:05.567+02:00,1147,1.44327,0,0,894.856,0,0,2022-06-30T09:28:40.657+02:00
2022-06-30T09:29:58.921+02:00,3793.339611625,0.063629150390625,-0.35125732421875,-0.9137115478515625,3793.334636625,-1.667524001299439,0.04388145678562302,0.3104183826158591,0.06228391826152802,0.06809747219085693,-0.03681916743516922,0.009407490491867065,-0.05068343877792358,0.02469938993453979,XArbitraryZVertical,0.1199217386961322,-0.09987073357805902,-0.7291085828568242,0.6663672209241811,0.04177077114582062,-0.3054570555686951,-0.9512892365455627,0,0,0,-1,-1,3791.49742625,unknown,2,2022-06-30T09:29:57.078+02:00,2022-06-30T08:20:05.567+02:00,1147,1.44327,0,0,894.856,0,0,2022-06-30T09:28:40.657+02:00
2022-06-30T09:29:58.931+02:00,3793.349562625,0.06060791015625,-0.33929443359375,-0.9087066650390625,3793.344587625,-1.667738807294692,0.04396020852223873,0.3116972266624041,0.05614133551716805,0.04945347458124161,-0.04179608449339867,0.02180095016956329,-0.04458314180374146,0.03718346357345581,XArbitraryZVertical,0.1203625212530047,-0.1003265002155068,-0.7290927744504314,0.6662367478080871,0.04182848706841469,-0.3066745102405548,-0.9508948922157288,0,0,0,-1,-1,3791.49742625,unknown,2,2022-06-30T09:29:57.078+02:00,2022-06-30T08:20:05.567+02:00,1147,1.44327,0,0,894.856,0,0,2022-06-30T09:28:40.657+02:00
2022-06-30T09:29:58.940+02:00,3793.359513625,0.0648193359375,-0.3239593505859375,-0.9037017822265625,3793.354538625,-1.668167849452302,0.04402457465326796,0.3128968504666567,0.05731605738401413,0.02945502288639545,-0.06310616433620453,0.01873471960425377,-0.03147861361503601,0.04181748628616333,XArbitraryZVertical,0.1207609334940961,-0.1007710270827503,-0.7291539676168851,0.6660305094314669,0.04187346994876862,-0.3078161180019379,-0.9505239725112915,0,0,0,-1,-1,3791.49742625,unknown,2,2022-06-30T09:29:57.078+02:00,2022-06-30T08:20:05.567+02:00,1147,1.44327,0,0,894.856,0,0,2022-06-30T09:28:40.657+02:00
2022-06-30T09:29:58.951+02:00,3793.369464625,0.0587005615234375,-0.3224334716796875,-0.910888671875,3793.364489625,-1.668760645730299,0.04419524630262733,0.3135843885122512,0.04584955051541328,-0.001038703601807356,-0.05246523767709732,0.02279327437281609,-0.01548945903778076,0.04660356044769287,XArbitraryZVertical,0.1210204288082853,-0.1010023192084919,-0.7292962794971583,0.6657924340527382,0.042026337236166,-0.3084701895713806,-0.950305163860321,0,0,0,-1,-1,3791.49742625,unknown,2,2022-06-30T09:29:57.078+02:00,2022-06-30T08:20:05.567+02:00,1147,1.44327,0,0,894.856,0,0,2022-06-30T09:28:40.657+02:00
2022-06-30T09:29:58.960+02:00,3793.379416625,0.0515899658203125,-0.342041015625,-0.9105224609375,3793.374440625,-1.669238415658201,0.04399081526591004,0.31425706940287,0.05601816624403,-0.02466648630797863,-0.0474749393761158,0.0168779045343399,-0.01332378387451172,0.03921765089035034,XArbitraryZVertical,0.1211438875231333,-0.101346161003389,-0.7294238118431325,0.6655779636004185,0.04182292893528938,-0.309110015630722,-0.9501062035560608,0,0,0,-1,-1,3791.49742625,unknown,2,2022-06-30T09:29:57.078+02:00,2022-06-30T08:20:05.567+02:00,1147,1.44327,0,0,894.856,0,0,2022-06-30T09:28:40.657+02:00
2022-06-30T09:29:58.971+02:00,3793.389367625,0.04766845703125,-0.3453826904296875,-0.89520263671875,3793.384391625,-1.669764135179947,0.04376235792479778,0.3150304059385958,0.01734613813459873,-0.05610376968979836,-0.0460999496281147,0.009994849562644958,-0.03219598531723022,0.03935432434082031,XArbitraryZVertical,0.1212892088648126,-0.101737889879597,-0.7295620706782319,0.6653401866385434,0.04159539937973022,-0.3098453879356384,-0.9498766660690308,0,0,0,-1,-1,3791.49742625,unknown,2,2022-06-30T09:29:57.078+02:00,2022-06-30T08:20:05.567+02:00,1147,1.44327,0,0,894.856,0,0,2022-06-30T09:28:40.657+02:00
2022-06-30T09:29:58.980+02:00,3793.399318625,0.0395660400390625,-0.3437042236328125,-0.890533447265625,3793.394342625,-1.670236630769071,0.04346313854395952,0.3152551295114756,-0.064808189868927,-0.0714874342083931,-0.03426695987582207,0.006360575556755066,-0.03532397747039795,0.05461698770523071,XArbitraryZVertical,0.1212301641327028,-0.1019485564961352,-0.7297226853197278,0.6651425810135086,0.04130814969539642,-0.3100590407848358,-0.9498195052146912,0,0,0,-1,-1,3791.49742625,unknown,2,2022-06-30T09:29:57.078+02:00,2022-06-30T08:20:05.567+02:00,1147,1.44327,0,0,894.856,0,0,2022-06-30T09:28:40.657+02:00
2022-06-30T09:29:58.990+02:00,3793.409269625,0.03125,-0.3306121826171875,-0.892486572265625,3793.404293625,-1.670649455664234,0.04288782884978835,0.3148256319606871,-0.1054006218910217,-0.0784931480884552,-0.05092583224177361,-0.001201093196868896,-0.03405386209487915,0.05944269895553589,XArbitraryZVertical,0.1208574354846482,-0.1020071549422747,-0.7299228215867376,0.6649817475384826,0.04076740890741348,-0.3096506893634796,-0.9499760270118713,0,0,0,-1,-1,3791.49742625,unknown,2,2022-06-30T09:29:57.078+02:00,2022-06-30T08:20:05.567+02:00,1147,1.44327,0,0,894.856,0,0,2022-06-30T09:28:40.657+02:00
2022-06-30T09:29:59.000+02:00,3793.419220625,0.02667236328125,-0.3246612548828125,-0.88836669921875,3793.414244625,-1.671299830377934,0.04239583252438926,0.3141544007603976,-0.1306024491786957,-0.07699147611856461,-0.07784822583198547,-0.009058535099029541,-0.02160012722015381,0.057716965675354,XArbitraryZVertical,0.1204231977144478,-0.101963405985577,-0.7302124172103506,0.664749319891401,0.04030881822109222,-0.3090123534202576,-0.9502034187316895,0,0,0,-1,-1,3791.49742625,unknown,2,2022-06-30T09:29:57.078+02:00,2022-06-30T08:20:05.567+02:00,1147,1.44327,0,0,894.856,0,0,2022-06-30T09:28:40.657+02:00
2022-06-30T09:29:59.010+02:00,3793.429171625,0.0175628662109375,-0.329010009765625,-0.8962249755859375,3793.424195625,-1.672231636396293,0.04213530073064756,0.3131076380016247,-0.1626749038696289,-0.07278741151094437,-0.1029839366674423,-0.01340221241116524,-0.01664489507675171,0.06217002868652344,XArbitraryZVertical,0.1199353283069677,-0.1017213841893339,-0.730605657788586,0.66444237603111,0.04007486253976822,-0.3080166578292847,-0.9505365490913391,0,0,0,-1,-1,3791.49742625,unknown,2,2022-06-30T09:29:57.078+02:00,2022-06-30T08:20:05.567+02:00,1147,1.44327,0,0,894.856,0,0,2022-06-30T09:28:40.657+02:00
2022-06-30T09:29:59.020+02:00,3793.439122625,0.0071868896484375,-0.3184051513671875,-0.90234375,3793.434146625,-1.673716628810772,0.04213075022107422,0.311785183226408,-0.1661746203899384,-0.05098673701286316,-0.1902604848146439,-0.02252450585365295,-0.02225211262702942,0.054718017578125,XArbitraryZVertical,0.1194223138031498,-0.1013255574626159,-0.7311846681722473,0.6639582088613523,0.04008765891194344,-0.3067582249641418,-0.9509428739547729,0,0,0,-1,-1,3791.49742625,unknown,2,2022-06-30T09:29:57.078+02:00,2022-06-30T08:20:05.567+02:00,1147,1.44327,0,0,894.856,0,0,2022-06-30T09:28:40.657+02:00
2022-06-30T09:29:59.030+02:00,3793.449073625,0.01318359375,-0.291229248046875,-0.9013214111328125,3793.444097625,-1.676090286457565,0.04268773079912866,0.3100642728268104,-0.2119565010070801,-0.03200212493538857,-0.2631448209285736,-0.03345261514186859,-0.01328563690185547,0.049102783203125,XArbitraryZVertical,0.1189394279701511,-0.1006489063928223,-0.7320500505901867,0.6631937518232913,0.04063977673649788,-0.3051198422908783,-0.9514464139938354,0,0,0,-1,-1,3791.49742625,unknown,2,2022-06-30T09:29:57.078+02:00,2022-06-30T08:20:05.567+02:00,1147,1.44327,0,0,894.856,0,0,2022-06-30T09:28:40.657+02:00
2022-06-30T09:29:59.040+02:00,3793.459024625,0.0036468505859375,-0.3055419921875,-0.9069671630859375,3793.454049625,-1.679108276374245,0.04347412278881422,0.3078530224485782,-0.2440192848443985,-0.02090084925293922,-0.3328665494918823,-0.02823331952095032,0.01178371906280518,0.05076462030410767,XArbitraryZVertical,0.1183490226225063,-0.09975248208628329,-0.7331456650445203,0.6622238740182806,0.041417196393013,-0.3030132949352264,-0.9520859122276306,0,0,0,-1,-1,3791.49742625,unknown,2,2022-06-30T09:29:57.078+02:00,2022-06-30T08:20:05.567+02:00,1147,1.44327,0,0,894.856,0,0,2022-06-30T09:28:40.657+02:00
2022-06-30T09:29:59.050+02:00,3793.468975625,-0.1561431884765625,-0.40673828125,-0.8615570068359375,3793.464000625,-1.684213719471094,0.04514141523102442,0.3049803066725114,-0.4059498608112335,0.06473363190889359,-0.7762844562530518,-0.03939651325345039,-0.005267888307571411,0.0459141731262207,XArbitraryZVertical,0.1177652230421658,-0.09844167927893996,-0.7349198675323024,0.6605553614255171,0.04304364696145058,-0.3002744019031525,-0.9528811573982239,0,0,0,-1,-1,3791.49742625,unknown,2,2022-06-30T09:29:57.078+02:00,2022-06-30T08:20:05.567+02:00,1147,1.44327,0,0,894.856,0,0,2022-06-30T09:28:40.657+02:00
2022-06-30T09:29:59.060+02:00,3793.478926625,-0.0113525390625,-0.3917694091796875,-0.8716888427734375,3793.473951625,-1.694019472851155,0.05022775575580976,0.2993760929061871,-0.6976053714752197,0.2587688267230988,-1.14971649646759,-0.2041163742542267,-0.1118144690990448,0.09275877475738525,XArbitraryZVertical,0.1173320463349777,-0.09526478146617036,-0.7382109794692742,0.6574209583790143,0.04797348007559776,-0.2949241101741791,-0.9543156027793884,0,0,0,-1,-1,3791.49742625,unknown,2,2022-06-30T09:29:57.078+02:00,2022-06-30T08:20:05.567+02:00,1147,1.44327,0,0,894.856,0,0,2022-06-30T09:28:40.657+02:00
2022-06-30T09:29:59.070+02:00,3793.488877625,0.1525421142578125,-0.382171630859375,-0.8915252685546875,3793.483902625,-1.706440245344444,0.05575508685996441,0.2905621170380372,-0.930769145488739,0.1331667006015778,-1.2919762134552,-0.06474258005619049,-0.1052789092063904,0.08490550518035889,XArbitraryZVertical,0.1159374331590501,-0.09089227370357914,-0.7425217204570382,0.6534207550007273,0.05339032784104347,-0.2864908277988434,-0.9565942287445068,0,0,0,-1,-1,3791.49742625,unknown,2,2022-06-30T09:29:57.078+02:00,2022-06-30T08:20:05.567+02:00,1147,1.44327,0,0,894.856,0,0,2022-06-30T09:28:40.657+02:00
2022-06-30T09:29:59.080+02:00,3793.498828625,0.204193115234375,-0.285430908203125,-0.878662109375,3793.493853625,-1.719223682174739,0.05882567230771159,0.2792921060617443,-1.208710074424744,-0.2700072228908539,-1.308156251907349,0.09602878987789154,-0.1064966917037964,0.06806296110153198,XArbitraryZVertical,0.1128788719121066,-0.08639615690340549,-0.7472179622691549,0.6491991413354723,0.05651361867785454,-0.2756752669811249,-0.9595881104469299,0,0,0,-1,-1,3791.49742625,unknown,2,2022-06-30T09:29:57.078+02:00,2022-06-30T08:20:05.567+02:00,1147,1.44327,0,0,894.856,0,0,2022-06-30T09:28:40.657+02:00
2022-06-30T09:29:59.090+02:00,3793.508779625,0.1543121337890625,-0.2560577392578125,-0.9225616455078125,3793.503804625,-1.731934676110427,0.05725418269520333,0.2656758039504926,-1.332972168922424,-0.7270511984825134,-1.299131274223328,0.1489781588315964,-0.02286982536315918,0.08467221260070801,XArbitraryZVertical,0.1073889280353768,-0.08246524933333728,-0.752246007809387,0.6448202573663254,0.0552152581512928,-0.2625614106655121,-0.9633342027664185,0,0,0,-1,-1,3791.49742625,unknown,2,2022-06-30T09:29:57.078+02:00,2022-06-30T08:20:05.567+02:00,1147,1.44327,0,0,894.856,0,0,2022-06-30T09:28:40.657+02:00
2022-06-30T09:29:59.100+02:00,3793.518731625,0.0022735595703125,-0.298583984375,-0.90972900390625,3793.513755625,-1.744774920330461,0.05161615473223528,0.251796977437021,-1.305981755256653,-1.054009079933167,-1.361200213432312,0.1043461337685585,-0.00691339373588562,0.04461491107940674,XArbitraryZVertical,0.1003190630774729,-0.07967344330309098,-0.7574681001488821,0.6401798682415692,0.04996631294488907,-0.2491446733474731,-0.9671764373779297,0,0,0,-1,-1,3791.49742625,unknown,2,2022-06-30T09:29:57.078+02:00,2022-06-30T08:20:05.567+02:00,1147,1.44327,0,0,894.856,0,0,2022-06-30T09:28:40.657+02:00
2022-06-30T09:29:59.110+02:00,3793.528682625,-0.3690643310546875,-0.5507659912109375,-0.94207763671875,3793.523706625,-1.755854121451207,0.04242008512785558,0.239724057083212,-0.8846395015716553,-1.480544447898865,-0.3858174979686737,-0.03892078995704651,-0.0611497163772583,0.06080073118209839,XArbitraryZVertical,0.09256224453902592,-0.07853278825978861,-0.7621043228679013,0.6359732809728256,0.04119466245174408,-0.2374345809221268,-0.9705296754837036,0,0,0,-1,-1,3791.49742625,unknown,2,2022-06-30T09:29:57.078+02:00,2022-06-30T08:20:05.567+02:00,1147,1.44327,0,0,894.856,0,0,2022-06-30T09:28:40.657+02:00
2022-06-30T09:29:59.120+02:00,3793.538633625,-0.935516357421875,-0.5374755859375,-0.74725341796875,3793.533657625,-1.75148437568398,0.0342648300853286,0.2342042035650218,-0.5843436121940613,0.04596811160445213,0.8656467795372009,-0.402386873960495,-0.3186973333358765,0.03005081415176392,XArbitraryZVertical,0.08788035242354185,-0.07882166745019498,-0.7613653785141308,0.6374849894368032,0.03332285583019257,-0.2320689857006073,-0.9721283912658691,0,0,0,-1,-1,3791.49742625,unknown,2,2022-06-30T09:29:57.078+02:00,2022-06-30T08:20:05.567+02:00,1147,1.44327,0,0,894.856,0,0,2022-06-30T09:28:40.657+02:00
2022-06-30T09:29:59.130+02:00,3793.548584625,-0.76611328125,-0.656097412109375,-0.7826690673828125,3793.543608625,-1.747733918060021,0.03975792211681152,0.2254465040329036,-1.213897585868835,1.191858172416687,-0.3322473168373108,-0.9742576479911804,-0.313934326171875,0.2266708016395569,XArbitraryZVertical,0.08733161855491636,-0.07356027318022619,-0.7603643898292429,0.6393810555710151,0.03874161466956139,-0.2235415875911713,-0.9739241600036621,0,0,0,-1,-1,3791.49742625,unknown,2,2022-06-30T09:29:57.078+02:00,2022-06-30T08:20:05.567+02:00,1147,1.44327,0,0,894.856,0,0,2022-06-30T09:28:40.657+02:00
2022-06-30T09:29:59.140+02:00,3793.558535625,-0.3238372802734375,-0.8590850830078125,-0.8507080078125,3793.553559625,-1.755852831634538,0.05601577839722224,0.2110466096942914,-1.552295446395874,1.530372977256775,-1.247994542121887,-0.8208572268486023,-0.4466143250465393,0.1936095356941223,XArbitraryZVertical,0.088678437041533,-0.06322079014144412,-0.7629520845558908,0.6372154192284687,0.05474427342414856,-0.2094833999872208,-0.97627854347229,0,0,0,-1,-1,3791.49742625,unknown,2,2022-06-30T09:29:57.078+02:00,2022-06-30T08:20:05.567+02:00,1147,1.44327,0,0,894.856,0,0,2022-06-30T09:28:40.657+02:00
2022-06-30T09:29:59.149+02:00,3793.568486625,-0.066650390625,-0.76409912109375,-0.7720184326171875,3793.563510625,-1.767291663408526,0.07097630438926197,0.1925100631066087,-2.105709552764893,0.9379114508628845,-1.197029709815979,-0.3934436440467834,-0.6677622199058533,0.1283479332923889,XArbitraryZVertical,0.08822712496153483,-0.05184642601847364,-0.7668307335451258,0.6336391688077615,0.06960669159889221,-0.1913231909275055,-0.9790558218955994,0,0,0,-1,-1,3791.49742625,unknown,2,2022-06-30T09:29:57.078+02:00,2022-06-30T08:20:05.567+02:00,1147,1.44327,0,0,894.856,0,0,2022-06-30T09:28:40.657+02:00
2022-06-30T09:29:59.159+02:00,3793.578437625,-0.2095794677734375,-0.6965179443359375,-0.8007354736328125,3793.573461625,-1.777776370786956,0.07893595580563344,0.1663867582363974,-2.944108009338379,0.2946548163890839,-1.313446164131165,-0.1444150805473328,-0.5984793305397034,0.2111004590988159,XArbitraryZVertical,0.08286141505071874,-0.0396810151707789,-0.7710172503266212,0.6301521758708178,0.07776500284671783,-0.1656201034784317,-0.9831188321113586,0,0,0,-1,-1,3791.49742625,unknown,2,2022-06-30T09:29:57.078+02:00,2022-06-30T08:20:05.567+02:00,1147,1.44327,0,0,894.856,0,0,2022-06-30T09:28:40.657+02:00
2022-06-30T09:29:59.169+02:00,3793.588388625,-0.4468841552734375,-0.672821044921875,-0.8654327392578125,3793.583412625,-1.79051318310419,0.08254149243721125,0.1333134398969449,-3.441683053970337,0.09081646054983139,-1.765240073204041,-0.2912953794002533,-0.5635993480682373,0.1870170831680298,XArbitraryZVertical,0.0737411482579633,-0.02619135230699585,-0.7762550805111957,0.6255433182169118,0.08171623200178146,-0.1329189091920853,-0.9877524971961975,0,0,0,-1,-1,3791.49742625,unknown,2,2022-06-30T09:29:57.078+02:00,2022-06-30T08:20:05.567+02:00,1147,1.44327,0,0,894.856,0,0,2022-06-30T09:28:40.657+02:00
2022-06-30T09:29:59.179+02:00,3793.598339625,-0.5973663330078125,-0.623687744140625,-0.87518310546875,3793.593364625,-1.807357515849833,0.08596275290413379,0.09562689264320968,-3.829928398132324,0.229321762919426,-2.182401895523071,-0.5323485136032104,-0.5773401260375977,0.1263229250907898,XArbitraryZVertical,0.0632623021768252,-0.01095860875615154,-0.7827151534464492,0.6190596524955186,0.08546465635299683,-0.09548121690750122,-0.9917556047439575,0,0,0,-1,-1,3791.49742625,unknown,2,2022-06-30T09:29:57.078+02:00,2022-06-30T08:20:05.567+02:00,1147,1.44327,0,0,894.856,0,0,2022-06-30T09:28:40.657+02:00
2022-06-30T09:29:59.189+02:00,3793.608290625,-0.6893768310546875,-0.606231689453125,-0.8783721923828125,3793.603315625,-1.82618583811421,0.09113158751049637,0.05338700603752362,-4.296515941619873,0.5241166353225708,-2.283677577972412,-0.6882418394088745,-0.5703263878822327,0.1192485094070435,XArbitraryZVertical,0.05233425514409704,0.006734100893761449,-0.7895519889237791,0.6114111552914346,0.09087584167718887,-0.05336165055632591,-0.9944315552711487,0,0,0,-1,-1,3791.49742625,unknown,2,2022-06-30T09:29:57.078+02:00,2022-06-30T08:20:05.567+02:00,1147,1.44327,0,0,894.856,0,0,2022-06-30T09:28:40.657+02:00
2022-06-30T09:29:59.199+02:00,3793.618241625,-0.7535552978515625,-0.60601806640625,-0.9003448486328125,3793.613266625,-1.844399456244362,0.09880375002110516,0.006463083699092394,-4.735544204711914,0.9062063097953796,-2.250043869018555,-0.7880175113677979,-0.5997689366340637,0.1167299747467041,XArbitraryZVertical,0.04130342199020087,0.027257654187627,-0.7958595038549697,0.6034556288295695,0.09864100813865662,-0.006463038735091686,-0.9951021075248718,0,0,0,-1,-1,3791.49742625,unknown,2,2022-06-30T09:29:57.078+02:00,2022-06-30T08:20:05.567+02:00,1147,1.44327,0,0,894.856,0,0,2022-06-30T09:28:40.657+02:00
2022-06-30T09:29:59.209+02:00,3793.628192625,-0.7687835693359375,-0.55584716796875,-0.862884521484375,3793.623217625,-1.861728228525278,0.1095972107845685,-0.04480110849045413,-5.14580774307251,1.323423504829407,-2.291183710098267,-0.8628231287002563,-0.6508044600486755,0.09265804290771484,XArbitraryZVertical,0.03056783019312327,0.05063774111285387,-0.8014638231503266,0.5951111342022377,0.1092681884765625,0.04478612169623375,-0.9930028319358826,0,0,0,-1,-1,3791.49742625,unknown,2,2022-06-30T09:29:57.078+02:00,2022-06-30T08:20:05.567+02:00,1147,1.44327,0,0,894.856,0,0,2022-06-30T09:28:40.657+02:00
2022-06-30T09:29:59.219+02:00,3793.638143625,-0.7428436279296875,-0.4379425048828125,-0.8167724609375,3793.633168625,-1.878915273358674,0.1235911000533832,-0.1000101881513335,-5.460199356079102,1.735660433769226,-2.417998790740967,-0.8914439082145691,-0.6556909680366516,0.1245291233062744,XArbitraryZVertical,0.0203439699508776,0.07667674356850993,-0.8065121192200677,0.5858711958276588,0.1226607039570808,0.09984355419874191,-0.9874135851860046,0,0,0,-1,-1,3791.49742625,unknown,2,2022-06-30T09:29:57.078+02:00,2022-06-30T08:20:05.567+02:00,1147,1.44327,0,0,894.856,0,0,2022-06-30T09:28:40.657+02:00
2022-06-30T09:29:59.229+02:00,3793.648094625,-0.6910552978515625,-0.27447509765625,-0.7844696044921875,3793.643119625,-1.896386338576445,0.1405511869134085,-0.1582674614537136,-5.673413753509521,2.125708103179932,-2.570632219314575,-0.8811812996864319,-0.5955502986907959,0.1609915494918823,XArbitraryZVertical,0.01087876127977786,0.1048792140876056,-0.8110590139613862,0.5753828293607687,0.138338029384613,0.1576075553894043,-0.9777640104293823,0,0,0,-1,-1,3791.49742625,unknown,2,2022-06-30T09:29:57.078+02:00,2022-06-30T08:20:05.567+02:00,1147,1.44327,0,0,894.856,0,0,2022-06-30T09:28:40.657+02:00
2022-06-30T09:29:59.239+02:00,3793.658046625,-0.6363983154296875,-0.0853424072265625,-0.83489990234375,3793.653070625,-1.914203927328965,0.1603564687527134,-0.2179614324436703,-5.616995334625244,2.524108648300171,-2.691954851150513,-0.8469473123550415,-0.4907150864601135,0.1793447136878967,XArbitraryZVertical,0.002653447020097879,0.134483550510914,-0.8150820231520829,0.5635143106002056,0.1558923572301865,0.2162397354841232,-0.9638142585754395,0,0,0,-1,-1,3791.49742625,unknown,2,2022-06-30T09:29:57.078+02:00,2022-06-30T08:20:05.567+02:00,1147,1.44327,0,0,894.856,0,0,2022-06-30T09:28:40.657+02:00
2022-06-30T09:29:59.249+02:00,3793.667997625,-0.592864990234375,0.1646270751953125,-0.8555755615234375,3793.663021625,-1.932442854295612,0.1827958748347539,-0.2762452965652611,-5.317448616027832,2.888368844985962,-2.804634094238281,-0.8112855553627014,-0.3580878674983978,0.1111573576927185,XArbitraryZVertical,-0.003557306172406783,0.1641910757631235,-0.8186498158476488,0.5503100973582087,0.1748876422643661,0.2727452218532562,-0.9460572600364685,0,0,0,-1,-1,3791.49742625,unknown,2,2022-06-30T09:29:57.078+02:00,2022-06-30T08:20:05.567+02:00,1147,1.44327,0,0,894.856,0,0,2022-06-30T09:28:40.657+02:00
2022-06-30T09:29:59.263+02:00,3793.677948291667,-0.550079345703125,0.40350341796875,-0.89654541015625,3793.672972291667,-1.951260090569224,0.2078653593858735,-0.3321869339430327,-5.02085542678833,3.285821437835693,-2.911103010177612,-0.7879542708396912,-0.1614843308925629,0.06940639019012451,XArbitraryZVertical,-0.00746706603085376,0.1935285224460159,-0.8218693201647163,0.535744131504113,0.1950896382331848,0.3261111974716187,-0.9249818921089172,0,0,0,-1,-1,3791.49742625,unknown,2,2022-06-30T09:29:57.078+02:00,2022-06-30T08:20:05.567+02:00,1147,1.44327,0,0,894.856,0,0,2022-06-30T09:28:40.657+02:00
2022-06-30T09:29:59.269+02:00,3793.687899291667,-0.48651123046875,0.5714111328125,-0.9320526123046875,3793.682923291667,-1.970700638985662,0.2357666315916223,-0.3860208158442411,-4.724823951721191,3.704836368560791,-3.035436630249023,-0.7664787173271179,0.02699819207191467,0.004240453243255615,XArbitraryZVertical,-0.009051331747932547,0.2225424840402897,-0.8247779605590193,0.5197444664622514,0.2163997739553452,0.3765050172805786,-0.9007858037948608,0,0,0,-1,-1,3791.49742625,unknown,2,2022-06-30T09:29:57.078+02:00,2022-06-30T08:20:05.567+02:00,1147,1.44327,0,0,894.856,0,0,2022-06-30T09:28:40.657+02:00
2022-06-30T09:29:59.279+02:00,3793.697850291667,-0.3893280029296875,0.6648712158203125,-0.9721832275390625,3793.692874291667,-1.991093294677255,0.2666422823623049,-0.4374737612202282,-4.342959880828857,4.140243530273438,-3.166390419006348,-0.7251901030540466,0.1477584540843964,-0.058238685131073,XArbitraryZVertical,-0.008132910935846229,0.2510515806862688,-0.8274880175325592,0.5021658343354584,0.2386792749166489,0.4236524999141693,-0.8738139271736145,0,0,0,-1,-1,3791.49742625,unknown,2,2022-06-30T09:29:57.078+02:00,2022-06-30T08:20:05.567+02:00,1147,1.44327,0,0,894.856,0,0,2022-06-30T09:28:40.657+02:00
2022-06-30T09:29:59.289+02:00,3793.707801291667,-0.2667694091796875,0.7159271240234375,-0.97161865234375,3793.702825291667,-2.012792351344557,0.2999973249827618,-0.4855707554155749,-3.838274717330933,4.495487213134766,-3.273857593536377,-0.6506860256195068,0.1981578171253204,-0.1272745728492737,XArbitraryZVertical,-0.004594426629965163,0.2784323508598963,-0.8301381940823458,0.4830372782799111,0.261358380317688,0.4667132198810577,-0.8449086546897888,0,0,0,-1,-1,3791.49742625,unknown,2,2022-06-30T09:29:57.078+02:00,2022-06-30T08:20:05.567+02:00,1147,1.44327,0,0,894.856,0,0,2022-06-30T09:28:40.657+02:00
2022-06-30T09:29:59.299+02:00,3793.717752291667,-0.142059326171875,0.7699737548828125,-0.9112091064453125,3793.712776291667,-2.035910868932644,0.3346992655436083,-0.52967689734129,-3.319460868835449,4.733335971832275,-3.345198392868042,-0.5502419471740723,0.2106723785400391,-0.1565351486206055,XArbitraryZVertical,0.001286051674968172,0.3040668564742863,-0.8327846635973982,0.4626136024208177,0.2834729254245758,0.5052545666694641,-0.815083384513855,0,0,0,-1,-1,3791.49742625,unknown,2,2022-06-30T09:29:57.078+02:00,2022-06-30T08:20:05.567+02:00,1147,1.44327,0,0,894.856,0,0,2022-06-30T09:28:40.657+02:00
2022-06-30T09:29:59.309+02:00,3793.727703291667,-0.0224456787109375,0.84344482421875,-0.8551025390625,3793.722727291667,-2.060423753012436,0.3697164248542595,-0.5699824935097171,-2.85284686088562,4.875761985778809,-3.386319637298584,-0.446284145116806,0.2303563356399536,-0.1261866092681885,XArbitraryZVertical,0.009016275978915671,0.3277307952064906,-0.8353997959699374,0.4411560269284994,0.3042252063751221,0.5396173000335693,-0.7850224375724792,0,0,0,-1,-1,3791.49742625,unknown,2,2022-06-30T09:29:57.078+02:00,2022-06-30T08:20:05.567+02:00,1147,1.44327,0,0,894.856,0,0,2022-06-30T09:28:40.657+02:00
2022-06-30T09:29:59.319+02:00,3793.737654291667,0.0772552490234375,0.9105377197265625,-0.77130126953125,3793.732679291667,-2.08591524610705,0.4045265937058291,-0.6071555499801461,-2.46482253074646,4.959497451782227,-3.376857280731201,-0.3456853330135345,0.272911012172699,-0.1001142859458923,XArbitraryZVertical,0.0181149783178539,0.3495393418715652,-0.8378349669686564,0.4189590436227031,0.3232400715351105,0.5705336928367615,-0.7549881935119629,0,0,0,-1,-1,3791.49742625,unknown,2,2022-06-30T09:29:57.078+02:00,2022-06-30T08:20:05.567+02:00,1147,1.44327,0,0,894.856,0,0,2022-06-30T09:28:40.657+02:00
2022-06-30T09:29:59.329+02:00,3793.747605291667,0.1466522216796875,0.9675140380859375,-0.683502197265625,3793.742630291667,-2.112246811289937,0.4385903860746725,-0.6415608486670501,-2.080633401870728,4.97862434387207,-3.37031364440918,-0.262969046831131,0.3120909333229065,-0.04596757888793945,XArbitraryZVertical,0.02820774828158375,0.3695098493122104,-0.840033217160202,0.3962462949295563,0.3402247130870819,0.5984466671943665,-0.725333571434021,0,0,0,-1,-1,3791.49742625,unknown,2,2022-06-30T09:29:57.078+02:00,2022-06-30T08:20:05.567+02:00,1147,1.44327,0,0,894.856,0,0,2022-06-30T09:28:40.657+02:00
2022-06-30T09:29:59.339+02:00,3793.757556291667,0.2039337158203125,1.039337158203125,-0.557891845703125,3793.752581291667,-2.139786981000968,0.4712505138620787,-0.6730153370085825,-1.67984414100647,4.966866493225098,-3.328728437423706,-0.208351343870163,0.3441672921180725,0.01321244239807129,XArbitraryZVertical,0.03910350983968842,0.3874450155946931,-0.8420926686879134,0.3731451162742213,0.3550039827823639,0.6233466267585754,-0.6967145800590515,0,0,0,-1,-1,3791.49742625,unknown,2,2022-06-30T09:29:57.078+02:00,2022-06-30T08:20:05.567+02:00,1147,1.44327,0,0,894.856,0,0,2022-06-30T09:28:40.657+02:00
2022-06-30T09:29:59.349+02:00,3793.767507291667,0.2435302734375,1.113388061523438,-0.426788330078125,3793.762532291667,-2.167731463427261,0.5027582963268058,-0.7017075246033875,-1.405832529067993,4.932266712188721,-3.193429470062256,-0.1640701591968536,0.3938143253326416,0.1113415956497192,XArbitraryZVertical,0.05066985434695257,0.4035045348239122,-0.8438518321138,0.3500439078589385,0.368004322052002,0.6455227136611938,-0.6692333221435547,0,0,0,-1,-1,3791.49742625,unknown,2,2022-06-30T09:29:57.078+02:00,2022-06-30T08:20:05.567+02:00,1147,1.44327,0,0,894.856,0,0,2022-06-30T09:28:40.657+02:00
2022-06-30T09:29:59.359+02:00,3793.777458291667,0.2730712890625,1.165634155273438,-0.348297119140625,3793.772483291667,-2.194727323817969,0.5341015424384359,-0.7282919439768205,-1.207139372825623,4.930275440216064,-3.009596109390259,-0.1363929808139801,0.447792112827301,0.215582549571991,XArbitraryZVertical,0.06283298769192766,0.4181705861279723,-0.8450213627055062,0.3272985684902037,0.3799237012863159,0.6655958890914917,-0.6423707604408264,0,0,0,-1,-1,3791.49742625,unknown,2,2022-06-30T09:29:57.078+02:00,2022-06-30T08:20:05.567+02:00,1147,1.44327,0,0,894.856,0,0,2022-06-30T09:28:40.657+02:00
2022-06-30T09:29:59.369+02:00,3793.787409291667,0.3118438720703125,1.194778442382812,-0.324798583984375,3793.782434291667,-2.220536570704032,0.5659257056603338,-0.7528021948538809,-0.988429844379425,4.972057342529297,-2.827771186828613,-0.1182322800159454,0.4819477200508118,0.2677015662193298,XArbitraryZVertical,0.07574227458403146,0.4315829571428881,-0.8455843950943887,0.3049367862332796,0.3913040161132812,0.6836864352226257,-0.6159985065460205,0,0,0,-1,-1,3791.49742625,unknown,2,2022-06-30T09:29:57.078+02:00,2022-06-30T08:20:05.567+02:00,1147,1.44327,0,0,894.856,0,0,2022-06-30T09:28:40.657+02:00
2022-06-30T09:29:59.378+02:00,3793.797361291667,0.3696441650390625,1.216323852539062,-0.25421142578125,3793.792385291667,-2.245946142626735,0.5980807238277287,-0.7745980421732521,-0.6299523115158081,5.025428295135498,-2.657928705215454,-0.09057414531707764,0.4953495264053345,0.2658443450927734,XArbitraryZVertical,0.08960113893168026,0.443452664084903,-0.8457667000505408,0.2828431734587514,0.4024184346199036,0.6994288563728333,-0.5906427502632141,0,0,0,-1,-1,3791.49742625,unknown,2,2022-06-30T09:29:57.078+02:00,2022-06-30T08:20:05.567+02:00,1147,1.44327,0,0,894.856,0,0,2022-06-30T09:28:40.657+02:00
2022-06-30T09:29:59.388+02:00,3793.807312291667,0.4515533447265625,1.244766235351562,-0.1210479736328125,3793.802336291667,-2.271874148453395,0.6297128222768428,-0.7929063486056169,-0.2749499678611755,4.99606990814209,-2.478270292282104,-0.04364129900932312,0.5039279460906982,0.3129633069038391,XArbitraryZVertical,0.1043926308485423,0.4533375316177986,-0.8458369786396247,0.2610500683265717,0.413285881280899,0.7123959064483643,-0.56717449426651,0,0,0,-1,-1,3791.49742625,unknown,2,2022-06-30T09:29:57.078+02:00,2022-06-30T08:20:05.567+02:00,1147,1.44327,0,0,894.856,0,0,2022-06-30T09:28:40.657+02:00
2022-06-30T09:29:59.398+02:00,3793.817263291667,0.5405426025390625,1.253265380859375,-0.0715179443359375,3793.812287291667,-2.297555498925572,0.6604310131099145,-0.8088401414313685,-0.1614802032709122,4.874992847442627,-2.32157826423645,0.02806085348129272,0.5212792158126831,0.424131453037262,XArbitraryZVertical,0.1194718490430549,0.4616674933903355,-0.8456207353054823,0.2398232060997987,0.4234929084777832,0.7234869599342346,-0.5451791882514954,0,0,0,-1,-1,3791.49742625,unknown,2,2022-06-30T09:29:57.078+02:00,2022-06-30T08:20:05.567+02:00,1147,1.44327,0,0,894.856,0,0,2022-06-30T09:28:40.657+02:00
2022-06-30T09:29:59.408+02:00,3793.827214291667,0.6258544921875,1.226638793945312,-0.0133514404296875,3793.822238291667,-2.321311127891756,0.6907645528291162,-0.8242207340136554,-0.2199174165725708,4.698452949523926,-2.163412094116211,0.1078516840934753,0.5192465782165527,0.4519273042678833,XArbitraryZVertical,0.1342035267981167,0.4693260138133878,-0.8447352744957953,0.2194193279063987,0.4326913058757782,0.7340188026428223,-0.5234450101852417,0,0,0,-1,-1,3791.49742625,unknown,2,2022-06-30T09:29:57.078+02:00,2022-06-30T08:20:05.567+02:00,1147,1.44327,0,0,894.856,0,0,2022-06-30T09:28:40.657+02:00
2022-06-30T09:29:59.418+02:00,3793.837165291667,0.693634033203125,1.201766967773438,0.1001434326171875,3793.832189291667,-2.342193673215365,0.7210151839603285,-0.8395646399593896,-0.2998696267604828,4.474888801574707,-1.982439398765564,0.1850169003009796,0.482286274433136,0.4882476925849915,XArbitraryZVertical,0.1483282543903936,0.4766542959766893,-0.8430708881466802,0.2000773850271379,0.440837949514389,0.7443524599075317,-0.5015988349914551,0,0,0,-1,-1,3791.49742625,unknown,2,2022-06-30T09:29:57.078+02:00,2022-06-30T08:20:05.567+02:00,1147,1.44327,0,0,894.856,0,0,2022-06-30T09:28:40.657+02:00
2022-06-30T09:29:59.428+02:00,3793.847116291667,0.71649169921875,1.209518432617188,0.1954498291015625,3793.842140291667,-2.359628793097989,0.751201232047871,-0.8547555685433007,-0.4028578102588654,4.213135242462158,-1.791772484779358,0.2456280589103699,0.4473564624786377,0.5798887014389038,XArbitraryZVertical,0.1616966616379674,0.4837165490970509,-0.840668432863066,0.182069230168048,0.4480063617229462,0.7544105052947998,-0.4797449707984924,0,0,0,-1,-1,3791.49742625,unknown,2,2022-06-30T09:29:57.078+02:00,2022-06-30T08:20:05.567+02:00,1147,1.44327,0,0,894.856,0,0,2022-06-30T09:28:40.657+02:00
2022-06-30T09:29:59.438+02:00,3793.857067291667,0.7136383056640625,1.229949951171875,0.3043975830078125,3793.852091291667,-2.373920693848759,0.7810321077207442,-0.8696306748680852,-0.4477323293685913,3.969535112380981,-1.623133897781372,0.2623272240161896,0.4454276561737061,0.6535981893539429,XArbitraryZVertical,0.1742514792527856,0.4904715921592539,-0.8376895548793509,0.1653791561115842,0.4541648328304291,0.7640907168388367,-0.4581480920314789,0,0,0,-1,-1,3791.49742625,unknown,2,2022-06-30T09:29:57.078+02:00,2022-06-30T08:20:05.567+02:00,1147,1.44327,0,0,894.856,0,0,2022-06-30T09:28:40.657+02:00
2022-06-30T09:29:59.448+02:00,3793.867018291667,0.7125244140625,1.24627685546875,0.40802001953125,3793.862043291667,-2.385540433909048,0.8106585772584743,-0.883568422251635,-0.451641321182251,3.788452625274658,-1.418245196342468,0.2538652122020721,0.4569423198699951,0.7415107488632202,XArbitraryZVertical,0.1862769729079906,0.4967337876762056,-0.8343132387499853,0.1499260973284849,0.4597733914852142,0.7730075716972351,-0.4371128678321838,0,0,0,-1,-1,3791.49742625,unknown,2,2022-06-30T09:29:57.078+02:00,2022-06-30T08:20:05.567+02:00,1147,1.44327,0,0,894.856,0,0,2022-06-30T09:28:40.657+02:00
2022-06-30T09:29:59.458+02:00,3793.876969291667,0.734100341796875,1.219085693359375,0.4635009765625,3793.871994291667,-2.393868696326802,0.8410754368320515,-0.896211852981165,-0.5050784349441528,3.630182266235352,-1.16098940372467,0.2469927966594696,0.4653102159500122,0.8243991136550903,XArbitraryZVertical,0.198083048523515,0.502567149579335,-0.8305079641812482,0.1358154975892265,0.4655319154262543,0.7809665203094482,-0.4163787364959717,0,0,0,-1,-1,3791.49742625,unknown,2,2022-06-30T09:29:57.078+02:00,2022-06-30T08:20:05.567+02:00,1147,1.44327,0,0,894.856,0,0,2022-06-30T09:28:40.657+02:00
2022-06-30T09:29:59.468+02:00,3793.886920291667,0.7664031982421875,1.171127319335938,0.470855712890625,3793.881945291667,-2.398086712697493,0.8730695705610566,-0.9073314236987138,-0.5486800074577332,3.457832813262939,-0.8695654273033142,0.2621715664863586,0.4312225580215454,0.8591712713241577,XArbitraryZVertical,0.2098050197378244,0.5080815453532437,-0.8262237427897441,0.1232453089677952,0.4719291031360626,0.7878630757331848,-0.3956699967384338,0,0,0,-1,-1,3791.49742625,unknown,2,2022-06-30T09:29:57.078+02:00,2022-06-30T08:20:05.567+02:00,1147,1.44327,0,0,894.856,0,0,2022-06-30T09:28:40.657+02:00
2022-06-30T09:29:59.478+02:00,3793.896871291667,0.774017333984375,1.172378540039062,0.5371246337890625,3793.891896291667,-2.398447619097813,0.906018581214721,-0.9165699422760846,-0.6107231378555298,3.21108865737915,-0.6171436905860901,0.2874453067779541,0.3776084184646606,0.846258282661438,XArbitraryZVertical,0.221296172253954,0.5131538763846626,-0.821631057946635,0.1123548103349903,0.4789582192897797,0.7935189604759216,-0.3754022121429443,0,0,0,-1,-1,3791.49742625,unknown,2,2022-06-30T09:29:57.078+02:00,2022-06-30T08:20:05.567+02:00,1147,1.44327,0,0,894.856,0,0,2022-06-30T09:28:40.657+02:00
2022-06-30T09:29:59.488+02:00,3793.906822291667,0.73736572265625,1.2100830078125,0.56915283203125,3793.901847291667,-2.394620097318043,0.9397158016139091,-0.9249625968214861,-0.7841125130653381,2.955389261245728,-0.4597514271736145,0.2880780696868896,0.3737802505493164,0.8922355175018311,XArbitraryZVertical,0.2321125863779089,0.5182359310440741,-0.8166593299841478,0.1030667166168643,0.4859395623207092,0.7985982298851013,-0.3551105260848999,0,0,0,-1,-1,3791.49742625,unknown,2,2022-06-30T09:29:57.078+02:00,2022-06-30T08:20:05.567+02:00,1147,1.44327,0,0,894.856,0,0,2022-06-30T09:28:40.657+02:00
2022-06-30T09:29:59.498+02:00,3793.916773291667,0.70196533203125,1.23272705078125,0.652557373046875,3793.911798291667,-2.386784377164486,0.9738978638846463,-0.9331427729802901,-0.9376591444015503,2.659439086914062,-0.3390411734580994,0.2449938356876373,0.4065881967544556,0.9037660360336304,XArbitraryZVertical,0.2420086855489918,0.5235698481973531,-0.8113231428455334,0.09519045546092733,0.4923721849918365,0.8034948110580444,-0.3346128165721893,0,0,0,-1,-1,3791.49742625,unknown,2,2022-06-30T09:29:57.078+02:00,2022-06-30T08:20:05.567+02:00,1147,1.44327,0,0,894.856,0,0,2022-06-30T09:28:40.657+02:00
2022-06-30T09:29:59.508+02:00,3793.926724291667,0.6845855712890625,1.266281127929688,0.66015625,3793.921749291667,-2.375849739996134,1.008119165139404,-0.9405522120382255,-0.9133378267288208,2.437103033065796,-0.1885251700878143,0.203482449054718,0.4248433709144592,0.9669437408447266,XArbitraryZVertical,0.2511493398754808,0.5288960330357728,-0.8058181064152296,0.08860133651263755,0.4984831511974335,0.8078836798667908,-0.3143859803676605,0,0,0,-1,-1,3791.49742625,unknown,2,2022-06-30T09:29:57.078+02:00,2022-06-30T08:20:05.567+02:00,1147,1.44327,0,0,894.856,0,0,2022-06-30T09:28:40.657+02:00
2022-06-30T09:29:59.518+02:00,3793.936676291667,0.7194061279296875,1.264556884765625,0.7087249755859375,3793.931700291667,-2.363994514017932,1.040579574549161,-0.9459920474184966,-0.8458461761474609,2.135040760040283,0.005442735739052296,0.1799608469009399,0.4552034735679626,0.9559719562530518,XArbitraryZVertical,0.2596810188260609,0.5335336069846447,-0.8006119915493246,0.0832351704282419,0.5046250224113464,0.8110775947570801,-0.2958153188228607,0,0,0,-1,-1,3791.49742625,unknown,2,2022-06-30T09:29:57.078+02:00,2022-06-30T08:20:05.567+02:00,1147,1.44327,0,0,894.856,0,0,2022-06-30T09:28:40.657+02:00
2022-06-30T09:29:59.528+02:00,3793.946627291667,0.721160888671875,1.204559326171875,0.7278594970703125,3793.941651291667,-2.350248638238694,1.071343376454585,-0.9490771866560207,-0.8610959649085999,1.786622762680054,0.2362732887268066,0.2081202268600464,0.4516785144805908,0.9876791834831238,XArbitraryZVertical,0.2674966056205693,0.5375580402291772,-0.7957002611001357,0.07961179961929327,0.5112861394882202,0.8128783702850342,-0.2789538502693176,0,0,0,-1,-1,3791.49742625,unknown,2,2022-06-30T09:29:57.078+02:00,2022-06-30T08:20:05.567+02:00,1147,1.44327,0,0,894.856,0,0,2022-06-30T09:28:40.657+02:00
2022-06-30T09:29:59.538+02:00,3793.956578291667,0.698272705078125,1.1658935546875,0.7615966796875,3793.951602291667,-2.335418231140786,1.099265454298178,-0.9499911586707429,-0.7616217136383057,1.395324110984802,0.4047236144542694,0.2029483318328857,0.3911489248275757,0.9920931458473206,XArbitraryZVertical,0.2743410196433781,0.5409439669277957,-0.7912514147475749,0.0777043775865616,0.5182128548622131,0.8134103417396545,-0.264233261346817,0,0,0,-1,-1,3791.49742625,unknown,2,2022-06-30T09:29:57.078+02:00,2022-06-30T08:20:05.567+02:00,1147,1.44327,0,0,894.856,0,0,2022-06-30T09:28:40.657+02:00
2022-06-30T09:29:59.548+02:00,3793.966529291667,0.6751708984375,1.180328369140625,0.85748291015625,3793.961553291667,-2.320012897369812,1.123615181810596,-0.9490499552568282,-0.7881821990013123,0.9871938824653625,0.5604362487792969,0.1730902194976807,0.3530310392379761,1.013465881347656,XArbitraryZVertical,0.2800182561264232,0.5437420112048843,-0.7873595625660951,0.07745643437568341,0.5251827239990234,0.8128625154495239,-0.2518688142299652,0,0,0,-1,-1,3791.49742625,unknown,2,2022-06-30T09:29:57.078+02:00,2022-06-30T08:20:05.567+02:00,1147,1.44327,0,0,894.856,0,0,2022-06-30T09:28:40.657+02:00
2022-06-30T09:29:59.558+02:00,3793.976480291667,0.669158935546875,1.203201293945312,0.92950439453125,3793.971504291667,-2.302882408993996,1.145310086958307,-0.9469063298165048,-0.8531603217124939,0.5754666328430176,0.6676568984985352,0.1430625319480896,0.3687161803245544,1.098618507385254,XArbitraryZVertical,0.2844362985317075,0.5463775210600305,-0.7837991645373721,0.07890766715284378,0.5321086049079895,0.811612069606781,-0.2411351948976517,0,0,0,-1,-1,3791.49742625,unknown,2,2022-06-30T09:29:57.078+02:00,2022-06-30T08:20:05.567+02:00,1147,1.44327,0,0,894.856,0,0,2022-06-30T09:28:40.657+02:00
2022-06-30T09:29:59.567+02:00,3793.986431291667,0.6728057861328125,1.21844482421875,1.014923095703125,3793.981455291667,-2.283534928757218,1.164495646522961,-0.9441139883328755,-1.012551307678223,0.1283777952194214,0.7663938999176025,0.1304425001144409,0.3932236433029175,1.161282300949097,XArbitraryZVertical,0.2873854241628704,0.5491091421851316,-0.7804841515108653,0.0820576152803269,0.538716733455658,0.809977650642395,-0.2317775338888168,0,0,0,-1,-1,3791.49742625,unknown,2,2022-06-30T09:29:57.078+02:00,2022-06-30T08:20:05.567+02:00,1147,1.44327,0,0,894.856,0,0,2022-06-30T09:28:40.657+02:00
2022-06-30T09:29:59.577+02:00,3793.996382291667,0.65057373046875,1.224166870117188,1.068374633789062,3793.991406291667,-2.260684027484026,1.182069608816795,-0.9407685375318511,-1.222791910171509,-0.3090535998344421,0.8976064920425415,0.1275951266288757,0.4104336500167847,1.238224029541016,XArbitraryZVertical,0.2888419066470934,0.5521956802819338,-0.7772118904496891,0.08713237220826837,0.5452109575271606,0.8080111145973206,-0.2233005613088608,0,0,0,-1,-1,3791.49742625,unknown,2,2022-06-30T09:29:57.078+02:00,2022-06-30T08:20:05.567+02:00,1147,1.44327,0,0,894.856,0,0,2022-06-30T09:28:40.657+02:00
2022-06-30T09:29:59.587+02:00,3794.006333291667,0.616058349609375,1.2437744140625,1.142059326171875,3794.001358291667,-2.233487787877089,1.198899821681815,-0.9368921900711363,-1.497730493545532,-0.711650013923645,1.01453959941864,0.09876829385757446,0.4184457063674927,1.283604979515076,XArbitraryZVertical,0.2888967795794182,0.555809025937814,-0.7737834282526838,0.09420384121506348,0.5518057942390442,0.8057212829589844,-0.2152299582958221,0,0,0,-1,-1,3791.49742625,unknown,2,2022-06-30T09:29:57.078+02:00,2022-06-30T08:20:05.567+02:00,1147,1.44327,0,0,894.856,0,0,2022-06-30T09:28:40.657+02:00
2022-06-30T09:29:59.597+02:00,3794.016284291667,0.5951385498046875,1.263870239257812,1.212966918945312,3794.011309291667,-2.201309195512258,1.215619809256345,-0.9328728148427592,-1.803182601928711,-1.135515928268433,1.103363156318665,0.05769968032836914,0.4404404163360596,1.349158406257629,XArbitraryZVertical,0.2874908785905244,0.5601782457620135,-0.7699992015283164,0.1032024167876143,0.5583589673042297,0.80333411693573,-0.207098662853241,0,0,0,-1,-1,3791.49742625,unknown,2,2022-06-30T09:29:57.078+02:00,2022-06-30T08:20:05.567+02:00,1147,1.44327,0,0,894.856,0,0,2022-06-30T09:28:40.657+02:00
2022-06-30T09:29:59.608+02:00,3794.026235291667,0.576019287109375,1.292434692382812,1.2813720703125,3794.021260291667,-2.164888135950955,1.231316907897886,-0.9287231886464357,-2.003892183303833,-1.581282377243042,1.163227081298828,0.03045964241027832,0.4630141854286194,1.412384510040283,XArbitraryZVertical,0.2844467738375858,0.5651384316053536,-0.7659615454672123,0.1140681710314784,0.5646792054176331,0.8008559942245483,-0.1994171738624573,0,0,0,-1,-1,3791.49742625,unknown,2,2022-06-30T09:29:57.078+02:00,2022-06-30T08:20:05.567+02:00,1147,1.44327,0,0,894.856,0,0,2022-06-30T09:28:40.657+02:00
2022-06-30T09:29:59.617+02:00,3794.036186291667,0.550140380859375,1.357955932617188,1.374069213867188,3794.031211291667,-2.125487357139648,1.244516067752344,-0.9242907991818259,-2.229074478149414,-2.111516237258911,1.242811679840088,0.005400717258453369,0.4942408204078674,1.474454998970032,XArbitraryZVertical,0.2795801628768681,0.5703452064293527,-0.761886702373784,0.1267670702082572,0.5706188082695007,0.7981937527656555,-0.1930825561285019,0,0,0,-1,-1,3791.49742625,unknown,2,2022-06-30T09:29:57.078+02:00,2022-06-30T08:20:05.567+02:00,1147,1.44327,0,0,894.856,0,0,2022-06-30T09:28:40.657+02:00
2022-06-30T09:29:59.627+02:00,3794.046137291667,0.4717864990234375,1.401763916015625,1.379928588867188,3794.041162291667,-2.081907972994607,1.255204273002962,-0.9195771532187309,-2.472667694091797,-2.728083610534668,1.309963703155518,-0.02607947587966919,0.562610387802124,1.56220805644989,XArbitraryZVertical,0.2725338746982158,0.5758958809175198,-0.7576114609749224,0.1417534970544341,0.5762200951576233,0.7953453660011292,-0.1881384402513504,0,0,0,-1,-1,3791.49742625,unknown,2,2022-06-30T09:29:57.078+02:00,2022-06-30T08:20:05.567+02:00,1147,1.44327,0,0,894.856,0,0,2022-06-30T09:28:40.657+02:00
2022-06-30T09:29:59.637+02:00,3794.056088291667,0.44403076171875,1.468658447265625,1.448150634765625,3794.051113291667,-2.035285090811643,1.261712045839485,-0.9149220838363087,-2.693753242492676,-3.416975975036621,1.334037780761719,-0.1091662049293518,0.6092486977577209,1.565437793731689,XArbitraryZVertical,0.2628910044262474,0.581492831521581,-0.7533158806419875,0.1589641630853121,0.5809530019760132,0.7925150990486145,-0.1855088174343109,0,0,0,-1,-1,3791.49742625,unknown,2,2022-06-30T09:29:57.078+02:00,2022-06-30T08:20:05.567+02:00,1147,1.44327,0,0,894.856,0,0,2022-06-30T09:28:40.657+02:00
2022-06-30T09:29:59.647+02:00,3794.066039291667,0.421295166015625,1.512893676757812,1.458160400390625,3794.061064291667,-1.984534491299186,1.264106916678941,-0.9106465239397551,-2.966646194458008,-4.18059253692627,1.362826824188232,-0.1405895352363586,0.6787579655647278,1.633289337158203,XArbitraryZVertical,0.2502617437711769,0.5871966557729464,-0.7487590089060263,0.178687310918091,0.5846206545829773,0.7899003624916077,-0.1851383000612259,0,0,0,-1,-1,3791.49742625,unknown,2,2022-06-30T09:29:57.078+02:00,2022-06-30T08:20:05.567+02:00,1147,1.44327,0,0,894.856,0,0,2022-06-30T09:28:40.657+02:00
2022-06-30T09:29:59.657+02:00,3794.075991291667,0.4292755126953125,1.561050415039062,1.499893188476562,3794.071015291667,-1.930121677776004,1.261668449518313,-0.9069165383762989,-3.23921537399292,-4.924756050109863,1.397758960723877,-0.1656745672225952,0.7252860069274902,1.64561915397644,XArbitraryZVertical,0.2344561620007232,0.5927066077657954,-0.7438867227519492,0.200902427077718,0.5869700312614441,0.7876075506210327,-0.1874583661556244,0,0,0,-1,-1,3791.49742625,unknown,2,2022-06-30T09:29:57.078+02:00,2022-06-30T08:20:05.567+02:00,1147,1.44327,0,0,894.856,0,0,2022-06-30T09:28:40.657+02:00
2022-06-30T09:29:59.667+02:00,3794.085942291667,0.4183349609375,1.59210205078125,1.499664306640625,3794.080966291667,-1.870992920662904,1.255554209225381,-0.9038496059375634,-3.543714046478271,-5.65711498260498,1.430018901824951,-0.1588308811187744,0.7753362655639648,1.691685199737549,XArbitraryZVertical,0.2155566035529203,0.5980296528861668,-0.7382386954692736,0.2256094387467922,0.5881066918373108,0.7857140302658081,-0.1917917728424072,0,0,0,-1,-1,3791.49742625,unknown,2,2022-06-30T09:29:57.078+02:00,2022-06-30T08:20:05.567+02:00,1147,1.44327,0,0,894.856,0,0,2022-06-30T09:28:40.657+02:00
2022-06-30T09:29:59.677+02:00,3794.095893291667,0.382568359375,1.615097045898438,1.507720947265625,3794.090917291667,-1.807611750266829,1.245053498544002,-0.9020286722274091,-3.851840019226074,-6.460822582244873,1.411509990692139,-0.1690795421600342,0.807515561580658,1.698078632354736,XArbitraryZVertical,0.1932541518479611,0.6028646400099227,-0.7316991572542555,0.2526330156089094,0.5874148011207581,0.7845863103866577,-0.1984141170978546,0,0,0,-1,-1,3791.49742625,unknown,2,2022-06-30T09:29:57.078+02:00,2022-06-30T08:20:05.567+02:00,1147,1.44327,0,0,894.856,0,0,2022-06-30T09:28:40.657+02:00
2022-06-30T09:29:59.687+02:00,3794.105844291667,0.29150390625,1.631484985351562,1.435089111328125,3794.100868291667,-1.739325434087611,1.230338330430868,-0.9015989572896366,-4.139869213104248,-7.252106189727783,1.451789736747742,-0.2021807432174683,0.8307770490646362,1.714869976043701,XArbitraryZVertical,0.167383364334761,0.6069665510449265,-0.7238852179012806,0.2820722144549673,0.5847494602203369,0.7843198180198669,-0.2071488350629807,0,0,0,-1,-1,3791.49742625,unknown,2,2022-06-30T09:29:57.078+02:00,2022-06-30T08:20:05.567+02:00,1147,1.44327,0,0,894.856,0,0,2022-06-30T09:28:40.657+02:00
2022-06-30T09:29:59.697+02:00,3794.115795291667,0.114044189453125,1.713226318359375,1.227249145507812,3794.110819291667,-1.668315632021583,1.210036208096636,-0.9023671806450709,-4.200078010559082,-8.044601440429688,1.425250053405762,-0.2883554697036743,0.8466886281967163,1.653853535652161,XArbitraryZVertical,0.1382212457410421,0.6095184764637923,-0.714888809848423,0.3135541838683011,0.5798597931861877,0.7847961783409119,-0.2187642306089401,0,0,0,-1,-1,3791.49742625,unknown,2,2022-06-30T09:29:57.078+02:00,2022-06-30T08:20:05.567+02:00,1147,1.44327,0,0,894.856,0,0,2022-06-30T09:28:40.657+02:00
2022-06-30T09:29:59.707+02:00,3794.125746291667,-0.0806884765625,1.834487915039062,1.104202270507812,3794.120770291667,-1.59719066289895,1.181055022359995,-0.9047717570366558,-4.260636329650879,-9.00454044342041,1.371672868728638,-0.4574852585792542,0.9269419312477112,1.462006688117981,XArbitraryZVertical,0.1054232989997808,0.6095139669956314,-0.7050099650421859,0.346900019920699,0.571529746055603,0.7862841486930847,-0.2347573041915894,0,0,0,-1,-1,3791.49742625,unknown,2,2022-06-30T09:29:57.078+02:00,2022-06-30T08:20:05.567+02:00,1147,1.44327,0,0,894.856,0,0,2022-06-30T09:28:40.657+02:00
2022-06-30T09:29:59.717+02:00,3794.135697291667,-0.28240966796875,1.700332641601562,0.9599456787109375,3794.130721291667,-1.524953809559142,1.144084476279652,-0.909341449762074,-4.208427429199219,-9.834671020507812,1.33243989944458,-0.6398733854293823,1.045388221740723,1.358434438705444,XArbitraryZVertical,0.06891585362656626,0.6067409566768759,-0.6936683637528135,0.3820211489691699,0.559185266494751,0.789099395275116,-0.2542320191860199,0,0,0,-1,-1,3791.49742625,unknown,2,2022-06-30T09:29:57.078+02:00,2022-06-30T08:20:05.567+02:00,1147,1.44327,0,0,894.856,0,0,2022-06-30T09:28:40.657+02:00
2022-06-30T09:29:59.727+02:00,3794.145648291667,-0.431488037109375,1.546981811523438,0.65936279296875,3794.140672291667,-1.462777445263256,1.091891594642892,-0.9128977039350142,-2.789091348648071,-10.52434825897217,1.385883688926697,-0.825076162815094,0.9090535640716553,1.241708993911743,XArbitraryZVertical,0.03093742208329115,0.5984657511424084,-0.6827024874048084,0.4180897445961828,0.5426669120788574,0.7912788987159729,-0.2817632555961609,0,0,0,-1,-1,3791.49742625,unknown,2,2022-06-30T09:29:57.078+02:00,2022-06-30T08:20:05.567+02:00,1147,1.44327,0,0,894.856,0,0,2022-06-30T09:28:40.657+02:00
2022-06-30T09:29:59.737+02:00,3794.155599291667,-0.6296539306640625,1.861038208007812,0.5435638427734375,3794.150624291667,-1.426604744182188,1.012328273784983,-0.9073165735056071,-0.5644488930702209,-11.1890697479248,1.835651040077209,-0.9537805914878845,0.7591276168823242,0.9857006072998047,XArbitraryZVertical,-0.004706822556832161,0.5803524443376451,-0.6750781193756236,0.4554541937731568,0.5222929716110229,0.7878539562225342,-0.3263377845287323,0,0,0,-1,-1,3791.49742625,unknown,2,2022-06-30T09:29:57.078+02:00,2022-06-30T08:20:05.567+02:00,1147,1.44327,0,0,894.856,0,0,2022-06-30T09:28:40.657+02:00
2022-06-30T09:29:59.747+02:00,3794.165550291667,-1.0528564453125,2.268295288085938,0.6332855224609375,3794.160575291667,-1.410065484717574,0.9114092387861733,-0.8880931510601827,1.015048742294312,-11.66364002227783,2.478395700454712,-1.128290891647339,1.08516788482666,0.9300692677497864,XArbitraryZVertical,-0.03624075311369294,0.5526607331598266,-0.6694793997417126,0.4950254475724798,0.4986373782157898,0.775870144367218,-0.3865054547786713,0,0,0,-1,-1,3791.49742625,unknown,2,2022-06-30T09:29:57.078+02:00,2022-06-30T08:20:05.567+02:00,1147,1.44327,0,0,894.856,0,0,2022-06-30T09:28:40.657+02:00
2022-06-30T09:29:59.762+02:00,3794.175501291667,-1.65045166015625,2.303237915039062,0.345489501953125,3794.170526291667,-1.403088765314995,0.8008571727150774,-0.8567288229554404,2.424322843551636,-11.52935981750488,2.808961391448975,-1.523052930831909,1.512590885162354,1.089164972305298,XArbitraryZVertical,-0.06333677951512509,0.5177341797610143,-0.664325646330199,0.5353610246426689,0.4701969027519226,0.7557042837142944,-0.4558795392513275,0,0,0,-1,-1,3791.49742625,unknown,2,2022-06-30T09:29:57.078+02:00,2022-06-30T08:20:05.567+02:00,1147,1.44327,0,0,894.856,0,0,2022-06-30T09:28:40.657+02:00
2022-06-30T09:29:59.767+02:00,3794.185452291667,-2.912521362304688,2.191268920898438,0.544525146484375,3794.180477291667,-1.404653501911035,0.6882982652190708,-0.813790511156367,4.391382694244385,-10.83169651031494,2.86423397064209,-2.086690187454224,1.576342105865479,0.8758844137191772,XArbitraryZVertical,-0.08422475119527299,0.4771883392803534,-0.660393164594174,0.5736537063590736,0.4362388253211975,0.7268955111503601,-0.530394971370697,0,0,0,-1,-1,3791.49742625,unknown,2,2022-06-30T09:29:57.078+02:00,2022-06-30T08:20:05.567+02:00,1147,1.44327,0,0,894.856,0,0,2022-06-30T09:28:40.657+02:00
2022-06-30T09:29:59.777+02:00,3794.195403291667,-15.98851013183594,-0.725189208984375,-25.32952880859375,3794.190428291667,-1.384587546810877,0.7898992209677466,-0.7796870630004116,-2.381988048553467,22.06330680847168,1.602346062660217,-3.417626619338989,1.488211750984192,1.045104146003723,XArbitraryZVertical,-0.04286198692082288,0.4978688017219465,-0.6575219666017112,0.5638745407691167,0.5051056742668152,0.7030569314956665,-0.5005789995193481,0,0,0,-1,-1,3791.49742625,unknown,2,2022-06-30T09:29:57.078+02:00,2022-06-30T08:20:05.567+02:00,1147,1.44327,0,0,894.856,0,0,2022-06-30T09:28:40.657+02:00
2022-06-30T09:29:59.786+02:00,3794.205354291667,9.433914184570312,-1.517547607421875,-10.06416320800781,3794.200379291667,-1.471072174229068,0.7712207725635318,-0.7501193858690177,9.182942390441895,-3.005564212799072,-1.257831931114197,-16.49844932556152,-1.406915545463562,-24.80492210388184,XArbitraryZVertical,-0.01684591556643856,0.4872502698638692,-0.6806593635140786,0.546814783946478,0.509938657283783,0.6817260980606079,-0.5246067643165588,0,0,0,-1,-1,3791.49742625,unknown,2,2022-06-30T09:29:57.078+02:00,2022-06-30T08:20:05.567+02:00,1147,1.44327,0,0,894.856,0,0,2022-06-30T09:28:40.657+02:00
2022-06-30T09:29:59.796+02:00,3794.215306291667,-0.2555389404296875,0.8226318359375,0.77862548828125,3794.210330291667,-1.508022409279119,0.7062038470193351,-0.6900561279440721,5.469509601593018,-3.400397300720215,2.890047550201416,8.933437347412109,-2.154128313064575,-9.477402687072754,XArbitraryZVertical,-0.008557436320113895,0.4544738206631195,-0.6897366998688075,0.5635988881340378,0.500477135181427,0.6365804672241211,-0.5867606401443481,0,0,0,-1,-1,3791.49742625,unknown,2,2022-06-30T09:29:57.078+02:00,2022-06-30T08:20:05.567+02:00,1147,1.44327,0,0,894.856,0,0,2022-06-30T09:28:40.657+02:00
2022-06-30T09:29:59.806+02:00,3794.225257291667,0.8148193359375,0.2840423583984375,4.489837646484375,3794.220281291667,-1.512713406249018,0.6921059226351374,-0.6312999982128064,2.669557571411133,1.793201088905334,4.199605464935303,-0.770700216293335,0.2324368953704834,1.400138854980469,XArbitraryZVertical,0.008869273766948521,0.4349306482164532,-0.6902828935348693,0.5781577391768278,0.5151616334915161,0.5901947021484375,-0.621513307094574,0,0,0,-1,-1,3791.49742625,unknown,2,2022-06-30T09:29:57.078+02:00,2022-06-30T08:20:05.567+02:00,1147,1.44327,0,0,894.856,0,0,2022-06-30T09:28:40.657+02:00
2022-06-30T09:29:59.816+02:00,3794.235208291667,-0.657989501953125,-0.1261444091796875,2.863922119140625,3794.230232291667,-1.446361184966071,0.7355459386196305,-0.6370004592666355,-10.06110095977783,0.6595302224159241,2.0578453540802,0.2754202485084534,-0.3107447624206543,5.085888862609863,XArbitraryZVertical,0.006900113007523288,0.4493627066752653,-0.6708693502414426,0.5898812507457915,0.5393994450569153,0.5947868227958679,-0.5960510969161987,0,0,0,-1,-1,3791.49742625,unknown,2,2022-06-30T09:29:57.078+02:00,2022-06-30T08:20:05.567+02:00,1147,1.44327,0,0,894.856,0,0,2022-06-30T09:28:40.657+02:00
2022-06-30T09:29:59.826+02:00,3794.245159291667,-0.40411376953125,-0.6842041015625,0.1368560791015625,3794.240183291667,-1.34387487420253,0.8035291778258156,-0.7185235724831518,-11.35803604125977,0.7159128189086914,-1.571241021156311,-1.199846982955933,-0.7844187021255493,3.386478900909424,XArbitraryZVertical,-0.02536057875829622,0.4879328739039701,-0.6439543395873861,0.5887283599099141,0.5418577194213867,0.6582739949226379,-0.5225567221641541,0,0,0,-1,-1,3791.49742625,unknown,2,2022-06-30T09:29:57.078+02:00,2022-06-30T08:20:05.567+02:00,1147,1.44327,0,0,894.856,0,0,2022-06-30T09:28:40.657+02:00
2022-06-30T09:29:59.836+02:00,3794.255110291667,0.2237396240234375,-0.1787109375,-0.599365234375,3794.250134291667,-1.264384558025942,0.8578920752576386,-0.7890144824646389,-6.810966968536377,-0.4485228359699249,-1.268375039100647,-0.937077522277832,-1.393863677978516,0.5976520776748657,XArbitraryZVertical,-0.05508949723607746,0.5163013928856567,-0.6250646768139914,0.5828311413438547,0.5329640507698059,0.7096592783927917,-0.4607960283756256,0,0,0,-1,-1,3791.49742625,unknown,2,2022-06-30T09:29:57.078+02:00,2022-06-30T08:20:05.567+02:00,1147,1.44327,0,0,894.856,0,0,2022-06-30T09:28:40.657+02:00
2022-06-30T09:29:59.846+02:00,3794.265061291667,0.1810302734375,1.006256103515625,-1.5029296875,3794.260085291667,-1.229274918471486,0.8723963767969867,-0.8161511646708077,0.2647541463375092,-1.170237898826599,-0.04638281092047691,-0.3009055256843567,-0.9072259068489075,-0.1588956415653229,XArbitraryZVertical,-0.07022444862303417,0.5242458326530327,-0.6167276738127372,0.5829938116576534,0.5246454477310181,0.7285146713256836,-0.4404696822166443,0,0,0,-1,-1,3791.49742625,unknown,2,2022-06-30T09:29:57.078+02:00,2022-06-30T08:20:05.567+02:00,1147,1.44327,0,0,894.856,0,0,2022-06-30T09:28:40.657+02:00
2022-06-30T09:29:59.856+02:00,3794.275012291667,-0.35406494140625,3.092910766601562,-1.396743774414062,3794.270036291667,-1.262843642700403,0.8370435364582887,-0.7834680014069088,6.544137477874756,-0.7547239065170288,1.734749674797058,-0.3451266288757324,0.3005151748657227,-1.028494358062744,XArbitraryZVertical,-0.05985119034895493,0.509117067653643,-0.6237356872433412,0.5900606626006583,0.5261572599411011,0.7057406306266785,-0.4744352996349335,0,0,0,-1,-1,3791.49742625,unknown,2,2022-06-30T09:29:57.078+02:00,2022-06-30T08:20:05.567+02:00,1147,1.44327,0,0,894.856,0,0,2022-06-30T09:28:40.657+02:00
2022-06-30T09:29:59.866+02:00,3794.284963291667,-0.80029296875,2.938034057617188,-0.797210693359375,3794.279988291667,-1.312979256055913,0.7966170856063535,-0.7174861630667502,7.870779514312744,-0.6509237289428711,2.436607599258423,-0.8927855491638184,2.435417890548706,-0.8699769973754883,XArbitraryZVertical,-0.03469072573020833,0.4851939344716545,-0.6346191194436275,0.6005348363295001,0.5387209057807922,0.6574926972389221,-0.5267667770385742,0,0,0,-1,-1,3791.49742625,unknown,2,2022-06-30T09:29:57.078+02:00,2022-06-30T08:20:05.567+02:00,1147,1.44327,0,0,894.856,0,0,2022-06-30T09:28:40.657+02:00
2022-06-30T09:29:59.876+02:00,3794.294914291667,-0.796173095703125,1.2978515625,-0.26702880859375,3794.289939291667,-1.368862076662684,0.7542499263926811,-0.6452570925987886,8.342968940734863,-0.6384887099266052,1.346138834953308,-1.347364187240601,2.336629867553711,-0.2149511575698853,XArbitraryZVertical,-0.007582511902415685,0.4569603253296922,-0.6479370555977751,0.6093499067094517,0.5470714569091797,0.6014038324356079,-0.5822595357894897,0,0,0,-1,-1,3791.49742625,unknown,2,2022-06-30T09:29:57.078+02:00,2022-06-30T08:20:05.567+02:00,1147,1.44327,0,0,894.856,0,0,2022-06-30T09:28:40.657+02:00
2022-06-30T09:29:59.886+02:00,3794.304865291667,-0.396697998046875,0.2961273193359375,-0.1887969970703125,3794.299890291667,-1.425188923652507,0.7194023268208557,-0.58143475063553,7.177523612976074,0.1227276548743248,0.4798525273799896,-1.346828818321228,0.7486277222633362,0.3615660667419434,XArbitraryZVertical,0.01746651215695518,0.4305780962611799,-0.6626231282724542,0.6125585459045962,0.5506560206413269,0.5492234826087952,-0.6285948753356934,0,0,0,-1,-1,3791.49742625,unknown,2,2022-06-30T09:29:57.078+02:00,2022-06-30T08:20:05.567+02:00,1147,1.44327,0,0,894.856,0,0,2022-06-30T09:28:40.657+02:00
2022-06-30T09:29:59.896+02:00,3794.314816291667,0.1540679931640625,-0.496337890625,-0.258056640625,3794.309841291667,-1.46526443615152,0.7027670314370643,-0.5349009924528604,4.173065662384033,0.7140142917633057,0.5557034611701965,-0.9527490735054016,-0.213628888130188,0.4676752686500549,XArbitraryZVertical,0.03756381435311382,0.4127382189715144,-0.6732589578435111,0.6123385402016767,0.5560513734817505,0.5097558498382568,-0.6564722657203674,0,0,0,-1,-1,3791.49742625,unknown,2,2022-06-30T09:29:57.078+02:00,2022-06-30T08:20:05.567+02:00,1147,1.44327,0,0,894.856,0,0,2022-06-30T09:28:40.657+02:00
2022-06-30T09:29:59.906+02:00,3794.324767291667,0.5547027587890625,-0.9743499755859375,-0.5105133056640625,3794.319792291667,-1.476593575525672,0.7048141948762947,-0.5110468156965522,0.9435437917709351,0.6490464806556702,0.9866684675216675,-0.411044716835022,-0.9854288101196289,0.4063511490821838,XArbitraryZVertical,0.04930793927676863,0.4066507750749678,-0.6756819428940011,0.6129093059125676,0.5651130676269531,0.4890905916690826,-0.6644077301025391,0,0,0,-1,-1,3791.49742625,unknown,2,2022-06-30T09:29:57.078+02:00,2022-06-30T08:20:05.567+02:00,1147,1.44327,0,0,894.856,0,0,2022-06-30T09:28:40.657+02:00
2022-06-30T09:29:59.918+02:00,3794.334718291667,0.537567138671875,-0.5833892822265625,-0.7888946533203125,3794.329743291667,-1.471654928666955,0.7108962677460265,-0.504365977087742,-0.2662180066108704,0.07053148746490479,0.445227712392807,-0.016559898853302,-1.457602739334106,0.1529064774513245,XArbitraryZVertical,0.05279654541433391,0.406820206693997,-0.6737101600070591,0.6146742190424082,0.5712628960609436,0.4832524657249451,-0.6634196639060974,0,0,0,-1,-1,3791.49742625,unknown,2,2022-06-30T09:29:57.078+02:00,2022-06-30T08:20:05.567+02:00,1147,1.44327,0,0,894.856,0,0,2022-06-30T09:28:40.657+02:00
2022-06-30T09:29:59.931+02:00,3794.344669291667,0.4051666259765625,0.156036376953125,-0.7075042724609375,3794.339694291667,-1.467010385810527,0.7125037259025832,-0.5087432912403583,-0.947968602180481,-0.2021232098340988,-0.3165258169174194,-0.03337281942367554,-1.070469617843628,-0.1280011534690857,XArbitraryZVertical,0.05078879553436478,0.4086242242784004,-0.6724438360209608,0.6150333460533307,0.5709402561187744,0.4870800673961639,-0.6608934998512268,0,0,0,-1,-1,3791.49742625,unknown,2,2022-06-30T09:29:57.078+02:00,2022-06-30T08:20:05.567+02:00,1147,1.44327,0,0,894.856,0,0,2022-06-30T09:28:40.657+02:00
2022-06-30T09:29:59.936+02:00,3794.354621291667,0.252197265625,0.604522705078125,-0.7342987060546875,3794.349645291667,-1.461624034360124,0.7126323147267422,-0.5205391190743291,-1.349894523620605,-0.3107022345066071,-0.4269819855690002,-0.1620621681213379,-0.3413118422031403,-0.05107736587524414,XArbitraryZVertical,0.04540135000836671,0.4119772604627805,-0.6713244015515183,0.6144404535413817,0.5672290325164795,0.4973479211330414,-0.6564269065856934,0,0,0,-1,-1,3791.49742625,unknown,2,2022-06-30T09:29:57.078+02:00,2022-06-30T08:20:05.567+02:00,1147,1.44327,0,0,894.856,0,0,2022-06-30T09:28:40.657+02:00
2022-06-30T09:29:59.946+02:00,3794.364572291667,0.0560302734375,0.7768096923828125,-0.798370361328125,3794.359596291667,-1.456486406488038,0.7126884936867113,-0.5309003062979216,-0.6840078234672546,-0.1703581809997559,-0.2400136888027191,-0.3116685152053833,0.09821248054504395,-0.08183765411376953,XArbitraryZVertical,0.0405500103381057,0.414879720848403,-0.6702054045147379,0.614048368891799,0.5638660788536072,0.5063099265098572,-0.652461051940918,0,0,0,-1,-1,3791.49742625,unknown,2,2022-06-30T09:29:57.078+02:00,2022-06-30T08:20:05.567+02:00,1147,1.44327,0,0,894.856,0,0,2022-06-30T09:28:40.657+02:00
2022-06-30T09:29:59.956+02:00,3794.374523291667,-0.1051788330078125,0.7673797607421875,-0.7236785888671875,3794.369547291667,-1.457529913588685,0.71230240398591,-0.5333027036604261,0.4129438102245331,0.2024966925382614,-0.2328920662403107,-0.5067869424819946,0.2684292197227478,-0.1466141939163208,XArbitraryZVertical,0.03975341124443078,0.4153812552310205,-0.670637878940749,0.6132886642651778,0.5628175139427185,0.5083801746368408,-0.6517561674118042,0,0,0,-1,-1,3791.49742625,unknown,2,2022-06-30T09:29:57.078+02:00,2022-06-30T08:20:05.567+02:00,1147,1.44327,0,0,894.856,0,0,2022-06-30T09:28:40.657+02:00
2022-06-30T09:29:59.965+02:00,3794.384474291667,-0.1400909423828125,0.5898590087890625,-0.624786376953125,3794.379498291667,-1.466171696123299,0.7116946072573853,-0.5298382148940156,1.007402300834656,0.5341553092002869,-0.451084315776825,-0.6687467098236084,0.261985719203949,-0.07025063037872314,XArbitraryZVertical,0.04261357412487855,0.4140895137332321,-0.673146846662371,0.6112178645496381,0.5635681748390198,0.5053937435150146,-0.6534278988838196,0,0,0,-1,-1,3791.49742625,unknown,2,2022-06-30T09:29:57.078+02:00,2022-06-30T08:20:05.567+02:00,1147,1.44327,0,0,894.856,0,0,2022-06-30T09:28:40.657+02:00
2022-06-30T09:29:59.975+02:00,3794.394425291667,-0.0799102783203125,0.359710693359375,-0.5738677978515625,3794.389449291667,-1.479389797553351,0.7110591863444711,-0.5254698671478342,1.117135763168335,0.6423152685165405,-0.7047447562217712,-0.7046790719032288,0.08823913335800171,0.0306660532951355,XArbitraryZVertical,0.04672801174209994,0.4124200507840981,-0.6770038139337613,0.6077763198776217,0.5645883679389954,0.5016195178031921,-0.6554523706436157,0,0,0,-1,-1,3791.49742625,unknown,2,2022-06-30T09:29:57.078+02:00,2022-06-30T08:20:05.567+02:00,1147,1.44327,0,0,894.856,0,0,2022-06-30T09:28:40.657+02:00
2022-06-30T09:29:59.985+02:00,3794.404376291667,-0.01348876953125,0.2281036376953125,-0.5583343505859375,3794.399400291667,-1.494757236165819,0.7094053113233718,-0.5227577492452957,1.020737290382385,0.558826744556427,-0.9636967182159424,-0.6442975997924805,-0.1395610868930817,0.08354729413986206,XArbitraryZVertical,0.05031562429926065,0.4108050602327655,-0.6815850671702751,0.6034479043379362,0.5643876791000366,0.4992714822292328,-0.6574150919914246,0,0,0,-1,-1,3791.49742625,unknown,2,2022-06-30T09:29:57.078+02:00,2022-06-30T08:20:05.567+02:00,1147,1.44327,0,0,894.856,0,0,2022-06-30T09:28:40.657+02:00
2022-06-30T09:29:59.995+02:00,3794.414327291667,0.01055908203125,0.2523040771484375,-0.6035919189453125,3794.409351291667,-1.51097450429588,0.7060974572796811,-0.5228857140018308,0.7800433039665222,0.3984329700469971,-1.181981086730957,-0.5756569504737854,-0.2712790369987488,0.1008955240249634,XArbitraryZVertical,0.0524634101841682,0.4094297064371252,-0.6865484485827112,0.5985535043811993,0.5621685385704041,0.499382346868515,-0.6592298150062561,0,0,0,-1,-1,3791.49742625,unknown,2,2022-06-30T09:29:57.078+02:00,2022-06-30T08:20:05.567+02:00,1147,1.44327,0,0,894.856,0,0,2022-06-30T09:28:40.657+02:00
2022-06-30T09:30:00.006+02:00,3794.424278291667,-0.0101165771484375,0.3733978271484375,-0.6629791259765625,3794.419303291667,-1.526911622802636,0.7011501292527503,-0.5260088736237177,0.554194450378418,0.2138639092445374,-1.33317244052887,-0.5473319292068481,-0.2497819662094116,0.05721604824066162,XArbitraryZVertical,0.05289466270385224,0.4084093223716025,-0.6915432795021922,0.5934407101067561,0.557891309261322,0.5020857453346252,-0.6608079671859741,0,0,0,-1,-1,3791.49742625,unknown,2,2022-06-30T09:29:57.078+02:00,2022-06-30T08:20:05.567+02:00,1147,1.44327,0,0,894.856,0,0,2022-06-30T09:28:40.657+02:00
2022-06-30T09:30:00.015+02:00,3794.434229291667,-0.0638885498046875,0.5076751708984375,-0.723785400390625,3794.429254291667,-1.543346434748855,0.6941548109045538,-0.5310006892530877,0.542902946472168,0.05981913954019547,-1.492961764335632,-0.561761200428009,-0.1329990029335022,-0.0002192854881286621,XArbitraryZVertical,0.05203434301774804,0.4073236524550466,-0.6967487951965667,0.5881503921061323,0.5516448616981506,0.506396472454071,-0.6627597212791443,0,0,0,-1,-1,3791.49742625,unknown,2,2022-06-30T09:29:57.078+02:00,2022-06-30T08:20:05.567+02:00,1147,1.44327,0,0,894.856,0,0,2022-06-30T09:28:40.657+02:00
2022-06-30T09:30:00.025+02:00,3794.444180291667,-0.136932373046875,0.611602783203125,-0.7640380859375,3794.439205291667,-1.561908235787734,0.6849093448155488,-0.5360060970980578,0.7355043888092041,0.0007912393193691969,-1.618164896965027,-0.6077718138694763,-0.003031492233276367,-0.05792516469955444,XArbitraryZVertical,0.05079476655481889,0.4055734588957219,-0.7025661185736087,0.5825211003401032,0.5438835620880127,0.5107063055038452,-0.665860116481781,0,0,0,-1,-1,3791.49742625,unknown,2,2022-06-30T09:29:57.078+02:00,2022-06-30T08:20:05.567+02:00,1147,1.44327,0,0,894.856,0,0,2022-06-30T09:28:40.657+02:00
2022-06-30T09:30:00.035+02:00,3794.454131291667,-0.22052001953125,0.65643310546875,-0.7570037841796875,3794.449156291667,-1.58326294746473,0.6740564687970821,-0.5395316436958069,1.045181155204773,0.01934841088950634,-1.685745000839233,-0.6724300980567932,0.09786826372146606,-0.09372538328170776,XArbitraryZVertical,0.05003829851013299,0.402914216141517,-0.7091148672240779,0.5764654421871573,0.5354980230331421,0.5137342214584351,-0.6703125834465027,0,0,0,-1,-1,3791.49742625,unknown,2,2022-06-30T09:29:57.078+02:00,2022-06-30T08:20:05.567+02:00,1147,1.44327,0,0,894.856,0,0,2022-06-30T09:28:40.657+02:00
2022-06-30T09:30:00.045+02:00,3794.464082291667,-0.311859130859375,0.6588287353515625,-0.771148681640625,3794.459107291667,-1.607706168063622,0.6619160350542616,-0.5404391304179218,1.420958042144775,0.07994704693555832,-1.739442110061646,-0.747553825378418,0.141920268535614,-0.08060753345489502,XArbitraryZVertical,0.05029548751673544,0.3990893025130005,-0.7164436807218839,0.5700057047696252,0.5270341038703918,0.5145125985145569,-0.6763961911201477,0,0,0,-1,-1,3791.49742625,unknown,2,2022-06-30T09:29:57.078+02:00,2022-06-30T08:20:05.567+02:00,1147,1.44327,0,0,894.856,0,0,2022-06-30T09:28:40.657+02:00
2022-06-30T09:30:00.055+02:00,3794.474033291667,-0.3851318359375,0.6302032470703125,-0.8257904052734375,3794.469058291667,-1.635425596311139,0.6488941219452856,-0.5387468746548539,1.753836035728455,0.1753485649824142,-1.846827387809753,-0.8305659294128418,0.1457676887512207,-0.08725422620773315,XArbitraryZVertical,0.05168591656877681,0.3941844174811647,-0.7246009971963222,0.5629393466157628,0.5187071561813354,0.5130607485771179,-0.6838943958282471,0,0,0,-1,-1,3791.49742625,unknown,2,2022-06-30T09:29:57.078+02:00,2022-06-30T08:20:05.567+02:00,1147,1.44327,0,0,894.856,0,0,2022-06-30T09:28:40.657+02:00
2022-06-30T09:30:00.065+02:00,3794.483985291667,-0.4120941162109375,0.5901031494140625,-0.8911590576171875,3794.479009291667,-1.666347510182789,0.6353428350001256,-0.5349289928244443,2.047122716903687,0.2841905951499939,-1.970742702484131,-0.8956823945045471,0.1204230785369873,-0.1333582401275635,XArbitraryZVertical,0.05409760907896564,0.3884036586762957,-0.7335615245596144,0.5550708074798558,0.5105509161949158,0.5097799301147461,-0.6924321055412292,0,0,0,-1,-1,3791.49742625,unknown,2,2022-06-30T09:29:57.078+02:00,2022-06-30T08:20:05.567+02:00,1147,1.44327,0,0,894.856,0,0,2022-06-30T09:28:40.657+02:00
2022-06-30T09:30:00.075+02:00,3794.493936291667,-0.3986968994140625,0.56158447265625,-0.953094482421875,3794.488960291667,-1.699810121346077,0.6215858104874049,-0.5295346525868723,2.2157142162323,0.3604037761688232,-2.076073884963989,-0.9146649241447449,0.08497107028961182,-0.189543604850769,XArbitraryZVertical,0.0572761143061909,0.381983950388111,-0.7431267213621606,0.5464160814949484,0.502571165561676,0.5051317811012268,-0.7016153931617737,0,0,0,-1,-1,3791.49742625,unknown,2,2022-06-30T09:29:57.078+02:00,2022-06-30T08:20:05.567+02:00,1147,1.44327,0,0,894.856,0,0,2022-06-30T09:28:40.657+02:00
2022-06-30T09:30:00.085+02:00,3794.503887291667,-0.3773193359375,0.5301666259765625,-0.992645263671875,3794.498911291667,-1.734383965009854,0.6078755254352699,-0.5239106289345818,2.136300563812256,0.3767577409744263,-2.183014154434204,-0.8932161331176758,0.0613141655921936,-0.2423340082168579,XArbitraryZVertical,0.06055396762390686,0.3754370955078792,-0.7528881355501663,0.5371590307398572,0.4945195913314819,0.5002700686454773,-0.7107604146003723,0,0,0,-1,-1,3791.49742625,unknown,2,2022-06-30T09:29:57.078+02:00,2022-06-30T08:20:05.567+02:00,1147,1.44327,0,0,894.856,0,0,2022-06-30T09:28:40.657+02:00
2022-06-30T09:30:00.095+02:00,3794.513838291667,-0.3646240234375,0.4713287353515625,-1.044708251953125,3794.508862291667,-1.768818138299434,0.5942107336585295,-0.520207185200311,1.851975917816162,0.3320008516311646,-2.35004711151123,-0.8631142377853394,0.03310644626617432,-0.2736636400222778,XArbitraryZVertical,0.06299294465877926,0.3695146839401533,-0.7624859993959218,0.5273576274492542,0.485795259475708,0.4970599412918091,-0.7189815640449524,0,0,0,-1,-1,3791.49742625,unknown,2,2022-06-30T09:29:57.078+02:00,2022-06-30T08:20:05.567+02:00,1147,1.44327,0,0,894.856,0,0,2022-06-30T09:28:40.657+02:00
2022-06-30T09:30:00.105+02:00,3794.523789291667,-0.3700103759765625,0.423065185546875,-1.097152709960938,3794.518813291667,-1.802899950784027,0.580261673285884,-0.5196076742160167,1.533281087875366,0.2767820656299591,-2.52730393409729,-0.8405060768127441,-0.0252111554145813,-0.3187713623046875,XArbitraryZVertical,0.06408840652380723,0.3645878054781422,-0.7718323904200636,0.5169556138294097,0.4758824408054352,0.4965396225452423,-0.7259368300437927,0,0,0,-1,-1,3791.49742625,unknown,2,2022-06-30T09:29:57.078+02:00,2022-06-30T08:20:05.567+02:00,1147,1.44327,0,0,894.856,0,0,2022-06-30T09:28:40.657+02:00
2022-06-30T09:30:00.115+02:00,3794.533740291667,-0.4076385498046875,0.425750732421875,-1.06854248046875,3794.528764291667,-1.836367568659271,0.5661482080765544,-0.5226118335906558,1.104982256889343,0.2374071776866913,-2.699608564376831,-0.834797739982605,-0.0760800838470459,-0.3658341765403748,XArbitraryZVertical,0.06373928490284994,0.3609405460369111,-0.7808013659948634,0.5059729105915659,0.4647877216339111,0.4991450309753418,-0.731318473815918,0,0,0,-1,-1,3791.49742625,unknown,2,2022-06-30T09:29:57.078+02:00,2022-06-30T08:20:05.567+02:00,1147,1.44327,0,0,894.856,0,0,2022-06-30T09:28:40.657+02:00
2022-06-30T09:30:00.125+02:00,3794.543691291667,-0.4710693359375,0.4525909423828125,-1.028213500976562,3794.538715291667,-1.868747283587374,0.5522625035631809,-0.5301982076555537,0.5737234950065613,0.2514484524726868,-2.879935264587402,-0.8602269291877747,-0.07995378971099854,-0.3340857028961182,XArbitraryZVertical,0.06178479367975791,0.3591020620541315,-0.7891841881733174,0.4943853394060498,0.4525887668132782,0.5057043433189392,-0.7344567179679871,0,0,0,-1,-1,3791.49742625,unknown,2,2022-06-30T09:29:57.078+02:00,2022-06-30T08:20:05.567+02:00,1147,1.44327,0,0,894.856,0,0,2022-06-30T09:28:40.657+02:00
2022-06-30T09:30:00.135+02:00,3794.553642291667,-0.537078857421875,0.4839019775390625,-1.026718139648438,3794.548666291667,-1.899945198977235,0.5392870502882118,-0.5431022869614057,0.01016445830464363,0.3620056807994843,-3.072137832641602,-0.9107020497322083,-0.06420367956161499,-0.293607234954834,XArbitraryZVertical,0.05834916203717105,0.3595723346013371,-0.7968430336040799,0.4820210442417293,0.4396331012248993,0.5167943835258484,-0.7346062064170837,0,0,0,-1,-1,3791.49742625,unknown,2,2022-06-30T09:29:57.078+02:00,2022-06-30T08:20:05.567+02:00,1147,1.44327,0,0,894.856,0,0,2022-06-30T09:28:40.657+02:00
2022-06-30T09:30:00.145+02:00,3794.563593291667,-0.579132080078125,0.5226287841796875,-1.073638916015625,3794.558618291667,-1.930637578400012,0.5278215878964492,-0.5610314878317048,-0.4133332967758179,0.5829671025276184,-3.280091285705566,-0.9635245203971863,-0.04815810918807983,-0.2952427268028259,XArbitraryZVertical,0.05398601222539029,0.3624194658471649,-0.8038402196156762,0.4685920985140194,0.4264460504055023,0.5320598483085632,-0.731475293636322,0,0,0,-1,-1,3791.49742625,unknown,2,2022-06-30T09:29:57.078+02:00,2022-06-30T08:20:05.567+02:00,1147,1.44327,0,0,894.856,0,0,2022-06-30T09:28:40.657+02:00
2022-06-30T09:30:00.155+02:00,3794.573544291667,-0.599945068359375,0.5891571044921875,-1.143295288085938,3794.568569291667,-1.962261501440741,0.5178502493666766,-0.58201745201407,-0.5425542593002319,0.8574145436286926,-3.453116655349731,-0.9926437735557556,-0.02708172798156738,-0.3478108048439026,XArbitraryZVertical,0.04962358671446836,0.3669107317863822,-0.8104934177012522,0.453888214561292,0.4135120809078217,0.5497103333473206,-0.7258280515670776,0,0,0,-1,-1,3791.49742625,unknown,2,2022-06-30T09:29:57.078+02:00,2022-06-30T08:20:05.567+02:00,1147,1.44327,0,0,894.856,0,0,2022-06-30T09:28:40.657+02:00
2022-06-30T09:30:00.165+02:00,3794.583495291667,-0.6215667724609375,0.698455810546875,-1.22979736328125,3794.578520291667,-1.99599201352978,0.5087661097873698,-0.6038114800939568,-0.5035029649734497,1.102951288223267,-3.589964151382446,-1.000914454460144,0.02137285470962524,-0.4243762493133545,XArbitraryZVertical,0.0459483051168038,0.3720608282513642,-0.8171100120413745,0.4379393422720793,0.4009698033332825,0.5677841305732727,-0.7189189791679382,0,0,0,-1,-1,3791.49742625,unknown,2,2022-06-30T09:29:57.078+02:00,2022-06-30T08:20:05.567+02:00,1147,1.44327,0,0,894.856,0,0,2022-06-30T09:28:40.657+02:00
2022-06-30T09:30:00.175+02:00,3794.593446291667,-0.637054443359375,0.8111419677734375,-1.244216918945312,3794.588471291667,-2.032373754118666,0.4994830447185625,-0.625026119167399,-0.3247932493686676,1.239938497543335,-3.692903757095337,-1.009987592697144,0.1133372187614441,-0.5179226398468018,XArbitraryZVertical,0.04304573503720025,0.3771070753394772,-0.8238503609332084,0.4209609361312731,0.3884211778640747,0.5851184725761414,-0.7118746638298035,0,0,0,-1,-1,3791.49742625,unknown,2,2022-06-30T09:29:57.078+02:00,2022-06-30T08:20:05.567+02:00,1147,1.44327,0,0,894.856,0,0,2022-06-30T09:28:40.657+02:00
2022-06-30T09:30:00.184+02:00,3794.603397291667,-0.67626953125,0.9007110595703125,-1.245330810546875,3794.598422291667,-2.071816574172295,0.4889900698935043,-0.6442541621478295,-0.05470075830817223,1.359634757041931,-3.751211404800415,-1.012629270553589,0.2105395793914795,-0.5383697152137756,XArbitraryZVertical,0.04096603766016505,0.3813112048106549,-0.8308679132006708,0.4032147045350096,0.3755753040313721,0.6006022691726685,-0.7058470845222473,0,0,0,-1,-1,3791.49742625,unknown,2,2022-06-30T09:29:57.078+02:00,2022-06-30T08:20:05.567+02:00,1147,1.44327,0,0,894.856,0,0,2022-06-30T09:28:40.657+02:00
2022-06-30T09:30:00.194+02:00,3794.613348291667,-0.7309722900390625,0.95819091796875,-1.240921020507812,3794.608373291667,-2.113756047714981,0.4778018561741955,-0.6613113161193107,0.1117290332913399,1.524567842483521,-3.76723837852478,-1.039159893989563,0.2865586876869202,-0.5445259213447571,XArbitraryZVertical,0.03983549775546204,0.3847216326658973,-0.8380267858185765,0.3848553948364683,0.3628908097743988,0.6141522526741028,-0.7008047699928284,0,0,0,-1,-1,3791.49742625,unknown,2,2022-06-30T09:29:57.078+02:00,2022-06-30T08:20:05.567+02:00,1147,1.44327,0,0,894.856,0,0,2022-06-30T09:28:40.657+02:00
2022-06-30T09:30:00.204+02:00,3794.623300291667,-0.776397705078125,1.013336181640625,-1.247222900390625,3794.618324291667,-2.157173504279803,0.4670942640193501,-0.6773420991853825,0.1097811982035637,1.741819739341736,-3.79622220993042,-1.081859350204468,0.3314667344093323,-0.5451515913009644,XArbitraryZVertical,0.03962881657014861,0.3880011650897646,-0.8449999861448957,0.3658684071792555,0.3508874475955963,0.6267241239547729,-0.6957693099975586,0,0,0,-1,-1,3791.49742625,unknown,2,2022-06-30T09:29:57.078+02:00,2022-06-30T08:20:05.567+02:00,1147,1.44327,0,0,894.856,0,0,2022-06-30T09:28:40.657+02:00
2022-06-30T09:30:00.214+02:00,3794.633251291667,-0.8042144775390625,1.106552124023438,-1.260696411132812,3794.628275291667,-2.201652231506199,0.4572918949233249,-0.6935853835519493,0.04920873045921326,1.948028922080994,-3.850950479507446,-1.115907907485962,0.3740378022193909,-0.557273268699646,XArbitraryZVertical,0.04014081388954342,0.391680959767242,-0.8515683354268033,0.3461303523574086,0.3395106196403503,0.6392983198165894,-0.6899494528770447,0,0,0,-1,-1,3791.49742625,unknown,2,2022-06-30T09:29:57.078+02:00,2022-06-30T08:20:05.567+02:00,1147,1.44327,0,0,894.856,0,0,2022-06-30T09:28:40.657+02:00
2022-06-30T09:30:00.224+02:00,3794.643202291667,-0.828369140625,1.250640869140625,-1.222061157226562,3794.638226291667,-2.247080380484396,0.4481958307584583,-0.7102161461451949,-0.01877458207309246,2.11937952041626,-3.866987466812134,-1.132781744003296,0.4545543789863586,-0.5773645043373108,XArbitraryZVertical,0.04125271325582632,0.3957680321969308,-0.857661446858324,0.3257033455239564,0.3285676538944244,0.6519976854324341,-0.6833317279815674,0,0,0,-1,-1,3791.49742625,unknown,2,2022-06-30T09:29:57.078+02:00,2022-06-30T08:20:05.567+02:00,1147,1.44327,0,0,894.856,0,0,2022-06-30T09:28:40.657+02:00
2022-06-30T09:30:00.234+02:00,3794.653153291667,-0.8703155517578125,1.399810791015625,-1.18292236328125,3794.648177291667,-2.292718983631968,0.440156682641438,-0.7270668620198935,-0.0642191618680954,2.316567659378052,-3.813904523849487,-1.146705627441406,0.5859597325325012,-0.5461463332176208,XArbitraryZVertical,0.04303647739056867,0.4002380861620097,-0.8631392783408974,0.3048734136794676,0.3183368444442749,0.664681077003479,-0.6759146451950073,0,0,0,-1,-1,3791.49742625,unknown,2,2022-06-30T09:29:57.078+02:00,2022-06-30T08:20:05.567+02:00,1147,1.44327,0,0,894.856,0,0,2022-06-30T09:28:40.657+02:00
2022-06-30T09:30:00.244+02:00,3794.663104291667,-0.923065185546875,1.5704345703125,-1.181732177734375,3794.658128291667,-2.338649538758374,0.4338723144747948,-0.7429195320934109,0.0965111255645752,2.629144430160522,-3.7421715259552,-1.179929256439209,0.7233697175979614,-0.5146656632423401,XArbitraryZVertical,0.04609510508604462,0.4046566026202739,-0.8681347514815876,0.2836732960248217,0.3096140623092651,0.6764410138130188,-0.6682565212249756,0,0,0,-1,-1,3791.49742625,unknown,2,2022-06-30T09:29:57.078+02:00,2022-06-30T08:20:05.567+02:00,1147,1.44327,0,0,894.856,0,0,2022-06-30T09:28:40.657+02:00
2022-06-30T09:30:00.254+02:00,3794.673054916667,-0.9426727294921875,1.74310302734375,-1.199874877929688,3794.668079291667,-2.385689468819935,0.4300369751262773,-0.7564796639634858,0.3205047249794006,3.054333686828613,-3.68238639831543,-1.226261258125305,0.88406902551651,-0.5206917524337769,XArbitraryZVertical,0.05115492191994151,0.408488735554223,-0.8729136133097746,0.2618051211649872,0.3031965494155884,0.68636554479599,-0.6610402464866638,0,0,0,-1,-1,3791.49742625,unknown,2,2022-06-30T09:29:57.078+02:00,2022-06-30T08:20:05.567+02:00,1147,1.44327,0,0,894.856,0,0,2022-06-30T09:28:40.657+02:00
2022-06-30T09:30:00.264+02:00,3794.683005916667,-0.92620849609375,1.86431884765625,-1.267318725585938,3794.678029916667,-2.433964253314994,0.429190409018512,-0.7672916561704768,0.6398670077323914,3.46809196472168,-3.594114542007446,-1.2422034740448,1.048914670944214,-0.5453643798828125,XArbitraryZVertical,0.05852643545169438,0.411484531409144,-0.8775318802324283,0.2391504787385365,0.2995310723781586,0.6941883563995361,-0.6545102596282959,0,0,0,-1,-1,3791.49742625,unknown,2,2022-06-30T09:29:57.078+02:00,2022-06-30T08:20:05.567+02:00,1147,1.44327,0,0,894.856,0,0,2022-06-30T09:28:40.657+02:00
2022-06-30T09:30:00.274+02:00,3794.692956916667,-0.8999176025390625,1.954055786132812,-1.263137817382812,3794.687980916667,-2.483324148163466,0.4309064738415193,-0.7741784105852053,1.072124600410461,3.775008678436279,-3.44040584564209,-1.224857926368713,1.165189981460571,-0.6176823973655701,XArbitraryZVertical,0.06815137302700525,0.4129616420240684,-0.8821309655138582,0.2160163779100314,0.2986498177051544,0.6991288661956787,-0.6496361494064331,0,0,0,-1,-1,3791.49742625,unknown,2,2022-06-30T09:29:57.078+02:00,2022-06-30T08:20:05.567+02:00,1147,1.44327,0,0,894.856,0,0,2022-06-30T09:28:40.657+02:00
2022-06-30T09:30:00.284+02:00,3794.702907916667,-0.897247314453125,2.06298828125,-1.136886596679688,3794.697932916667,-2.533149111785584,0.4342732777130102,-0.7766848078486303,1.42284107208252,3.904927492141724,-3.259222745895386,-1.200014352798462,1.253137111663818,-0.6161022782325745,XArbitraryZVertical,0.07947377968211809,0.4125121593460945,-0.8867383381713837,0.1929060728399183,0.3000971078872681,0.7009187340736389,-0.6470353007316589,0,0,0,-1,-1,3791.49742625,unknown,2,2022-06-30T09:29:57.078+02:00,2022-06-30T08:20:05.567+02:00,1147,1.44327,0,0,894.856,0,0,2022-06-30T09:28:40.657+02:00
2022-06-30T09:30:00.294+02:00,3794.712858916667,-0.920379638671875,2.144699096679688,-1.001846313476562,3794.707883916667,-2.582122708258249,0.439183351556836,-0.7767104478661276,1.515896797180176,3.987656593322754,-3.111088991165161,-1.200509786605835,1.362051248550415,-0.4913486242294312,XArbitraryZVertical,0.09173346860713458,0.41087236669362,-0.8909693406595574,0.1701251061473276,0.3032628297805786,0.700937032699585,-0.6455377340316772,0,0,0,-1,-1,3791.49742625,unknown,2,2022-06-30T09:29:57.078+02:00,2022-06-30T08:20:05.567+02:00,1147,1.44327,0,0,894.856,0,0,2022-06-30T09:28:40.657+02:00
2022-06-30T09:30:00.304+02:00,3794.722809916667,-0.9309539794921875,2.172088623046875,-0.8770751953125,3794.717834916667,-2.630049049041789,0.4458668156779652,-0.7757783751038712,1.590073347091675,4.11823558807373,-3.02558445930481,-1.228231310844421,1.444427251815796,-0.3577603697776794,XArbitraryZVertical,0.1046857125614193,0.4086539516232375,-0.8945878612100148,0.1474975786588605,0.3078520596027374,0.7002719640731812,-0.644085705280304,0,0,0,-1,-1,3791.49742625,unknown,2,2022-06-30T09:29:57.078+02:00,2022-06-30T08:20:05.567+02:00,1147,1.44327,0,0,894.856,0,0,2022-06-30T09:28:40.657+02:00
2022-06-30T09:30:00.314+02:00,3794.732760916667,-0.91943359375,2.132431030273438,-0.693634033203125,3794.727785916667,-2.677280769710541,0.4549351602462068,-0.7742084293655451,1.634492993354797,4.371877670288086,-2.932888746261597,-1.245116353034973,1.472938299179077,-0.2348206639289856,XArbitraryZVertical,0.1186040553628213,0.4059629828820093,-0.8975373038930062,0.1247153847440553,0.3141627907752991,0.6991503238677979,-0.6422542929649353,0,0,0,-1,-1,3791.49742625,unknown,2,2022-06-30T09:29:57.078+02:00,2022-06-30T08:20:05.567+02:00,1147,1.44327,0,0,894.856,0,0,2022-06-30T09:28:40.657+02:00
2022-06-30T09:30:00.324+02:00,3794.742711916667,-0.899169921875,2.050125122070312,-0.5283355712890625,3794.737736916667,-2.7231313732092,0.4682977225047841,-0.7720061209197284,1.706288576126099,4.756956577301025,-2.768611431121826,-1.242844104766846,1.434857130050659,-0.05426228046417236,XArbitraryZVertical,0.134190505628613,0.4028736570835421,-0.8996316969461277,0.1017276556076668,0.323410838842392,0.6975740790367126,-0.6393714547157288,0,0,0,-1,-1,3791.49742625,unknown,2,2022-06-30T09:29:57.078+02:00,2022-06-30T08:20:05.567+02:00,1147,1.44327,0,0,894.856,0,0,2022-06-30T09:28:40.657+02:00
2022-06-30T09:30:00.334+02:00,3794.752662916667,-0.851318359375,2.010711669921875,-0.3707275390625,3794.747687916667,-2.767616314684217,0.4866414686987287,-0.7683932193540577,1.897293329238892,5.153141021728516,-2.598668098449707,-1.235430240631104,1.355144500732422,0.107219934463501,XArbitraryZVertical,0.1518440507667145,0.3989558566821506,-0.9008932737201212,0.07854268882779775,0.3362607061862946,0.694980800151825,-0.6355552077293396,0,0,0,-1,-1,3791.49742625,unknown,2,2022-06-30T09:29:57.078+02:00,2022-06-30T08:20:05.567+02:00,1147,1.44327,0,0,894.856,0,0,2022-06-30T09:28:40.657+02:00
2022-06-30T09:30:00.344+02:00,3794.762614916667,-0.7779998779296875,2.076934814453125,-0.2172698974609375,3794.757638916667,-2.810944605847308,0.5093541277290089,-0.7630219312427288,2.018011808395386,5.431439876556396,-2.395423889160156,-1.203741073608398,1.319603085517883,0.2602773904800415,XArbitraryZVertical,0.1713340324116961,0.3938811237001905,-0.9013574526763146,0.05529161847688961,0.3524230718612671,0.6911087036132812,-0.6310046315193176,0,0,0,-1,-1,3791.49742625,unknown,2,2022-06-30T09:29:57.078+02:00,2022-06-30T08:20:05.567+02:00,1147,1.44327,0,0,894.856,0,0,2022-06-30T09:28:40.657+02:00
2022-06-30T09:30:00.354+02:00,3794.772565916667,-0.7341461181640625,2.144454956054688,-0.0814208984375,3794.767589916667,-2.852402360208776,0.5357128277312153,-0.7567241382826742,2.106758117675781,5.600796222686768,-2.219179391860962,-1.149145126342773,1.39039158821106,0.4079577922821045,XArbitraryZVertical,0.1920495032005437,0.3879475428623546,-0.9008691833610315,0.03237884431526486,0.3711455464363098,0.6865432858467102,-0.6252273917198181,0,0,0,-1,-1,3791.49742625,unknown,2,2022-06-30T09:29:57.078+02:00,2022-06-30T08:20:05.567+02:00,1147,1.44327,0,0,894.856,0,0,2022-06-30T09:28:40.657+02:00
2022-06-30T09:30:00.364+02:00,3794.782516916667,-0.7033538818359375,2.207366943359375,0.057525634765625,3794.777540916667,-2.894108348871277,0.5636092069697782,-0.7486016843294885,2.520789861679077,5.740390300750732,-2.156455516815186,-1.125552654266357,1.463840126991272,0.5379049181938171,XArbitraryZVertical,0.2135090112334481,0.3804617819484096,-0.8997629912474067,0.009451357563675045,0.391406774520874,0.6806149482727051,-0.6193254590034485,0,0,0,-1,-1,3791.49742625,unknown,2,2022-06-30T09:29:57.078+02:00,2022-06-30T08:20:05.567+02:00,1147,1.44327,0,0,894.856,0,0,2022-06-30T09:28:40.657+02:00
2022-06-30T09:30:00.374+02:00,3794.792467916667,-0.656951904296875,2.337448120117188,0.16900634765625,3794.787491916667,-2.939442968977877,0.590719962378399,-0.7364739784517901,3.178669691085815,5.874115943908691,-2.135042428970337,-1.11597204208374,1.535687208175659,0.6728244423866272,XArbitraryZVertical,0.2354356863616522,0.370028136848464,-0.8985810896681834,-0.01418497041237968,0.4126184284687042,0.6716798543930054,-0.6152984499931335,0,0,0,-1,-1,3791.49742625,unknown,2,2022-06-30T09:29:57.078+02:00,2022-06-30T08:20:05.567+02:00,1147,1.44327,0,0,894.856,0,0,2022-06-30T09:28:40.657+02:00
2022-06-30T09:30:00.383+02:00,3794.802418916667,-0.5877838134765625,2.422744750976562,0.2306060791015625,3794.797442916667,-2.98913025166356,0.6166285024308921,-0.7199038919558958,3.798161029815674,5.967295169830322,-2.113903760910034,-1.091748476028442,1.678135871887207,0.782406210899353,XArbitraryZVertical,0.257620859929086,0.3562748148339602,-0.8973323468395531,-0.03865871522212155,0.4347968101501465,0.6593124270439148,-0.6133995056152344,0,0,0,-1,-1,3791.49742625,unknown,2,2022-06-30T09:29:57.078+02:00,2022-06-30T08:20:05.567+02:00,1147,1.44327,0,0,894.856,0,0,2022-06-30T09:28:40.657+02:00
2022-06-30T09:30:00.394+02:00,3794.812369916667,-0.48602294921875,2.439193725585938,0.2602691650390625,3794.807393916667,-3.043714012383773,0.6404547694507526,-0.6986672688521889,4.543503761291504,5.95079517364502,-2.105757236480713,-1.045335412025452,1.779547214508057,0.8445632457733154,XArbitraryZVertical,0.2795230432445224,0.3389520078126663,-0.8960382787747825,-0.0639837035650682,0.457551896572113,0.643197774887085,-0.6139568090438843,0,0,0,-1,-1,3791.49742625,unknown,2,2022-06-30T09:29:57.078+02:00,2022-06-30T08:20:05.567+02:00,1147,1.44327,0,0,894.856,0,0,2022-06-30T09:28:40.657+02:00
2022-06-30T09:30:00.404+02:00,3794.822320916667,-0.382080078125,2.41064453125,0.43304443359375,3794.817344916667,-3.10230592540218,0.6613711215686038,-0.6731334439122473,4.990054607391357,5.683180332183838,-2.021503925323486,-0.966248095035553,1.815754890441895,0.8772844672203064,XArbitraryZVertical,0.3002799467787196,0.3183150595133229,-0.8946878482582488,-0.08967259540667566,0.4802253544330597,0.6234390139579773,-0.6170149445533752,0,0,0,-1,-1,3791.49742625,unknown,2,2022-06-30T09:29:57.078+02:00,2022-06-30T08:20:05.567+02:00,1147,1.44327,0,0,894.856,0,0,2022-06-30T09:28:40.657+02:00
2022-06-30T09:30:00.413+02:00,3794.832271916667,-0.3388824462890625,2.26812744140625,0.5889129638671875,3794.827296916667,3.122378216030279,0.6800826914378886,-0.6462486533871248,4.965699672698975,5.285067081451416,-1.903832316398621,-0.8841271996498108,1.808449029922485,1.05377733707428,XArbitraryZVertical,0.3191266802177214,0.2962969956574549,-0.8928935112802717,-0.1144881375822291,0.5020473003387451,0.6021957397460938,-0.6207324862480164,0,0,0,-1,-1,3791.49742625,unknown,2,2022-06-30T09:29:57.078+02:00,2022-06-30T08:20:05.567+02:00,1147,1.44327,0,0,894.856,0,0,2022-06-30T09:28:40.657+02:00
2022-06-30T09:30:00.423+02:00,3794.842222916667,-0.33746337890625,2.128921508789062,0.6873626708984375,3794.837247916667,3.066330731605257,0.6980957631660767,-0.6207025027887237,4.757533073425293,5.037015914916992,-1.848879098892212,-0.8617483973503113,1.68652081489563,1.21208643913269,XArbitraryZVertical,0.3362306579128755,0.2745222046862189,-0.8902429624132935,-0.1380359662655567,0.5228660702705383,0.5816067457199097,-0.6231729984283447,0,0,0,-1,-1,3791.49742625,unknown,2,2022-06-30T09:29:57.078+02:00,2022-06-30T08:20:05.567+02:00,1147,1.44327,0,0,894.856,0,0,2022-06-30T09:28:40.657+02:00
2022-06-30T09:30:00.433+02:00,3794.852173916667,-0.307708740234375,2.075271606445312,0.7774810791015625,3794.847198916667,3.01313353674589,0.717633194425617,-0.5977078473297189,4.425518989562988,5.030131816864014,-1.816772699356079,-0.8810564279556274,1.56617259979248,1.310114860534668,XArbitraryZVertical,0.3526030708689467,0.2535649648538635,-0.8863291909639849,-0.1606128045375299,0.5435932278633118,0.5627492070198059,-0.622751772403717,0,0,0,-1,-1,3791.49742625,unknown,2,2022-06-30T09:29:57.078+02:00,2022-06-30T08:20:05.567+02:00,1147,1.44327,0,0,894.856,0,0,2022-06-30T09:28:40.657+02:00
2022-06-30T09:30:00.443+02:00,3794.862124916667,-0.2210235595703125,2.03326416015625,0.754638671875,3794.857149916667,2.963363168276604,0.7405459550800594,-0.5781015993545269,4.07368278503418,5.123369693756104,-1.764614701271057,-0.8727633357048035,1.528836846351624,1.395641565322876,XArbitraryZVertical,0.3691300097863152,0.233801143120063,-0.8808293735289322,-0.1822625857772728,0.565054714679718,0.5464349985122681,-0.6181601285934448,0,0,0,-1,-1,3791.49742625,unknown,2,2022-06-30T09:29:57.078+02:00,2022-06-30T08:20:05.567+02:00,1147,1.44327,0,0,894.856,0,0,2022-06-30T09:28:40.657+02:00
2022-06-30T09:30:00.453+02:00,3794.872075916667,-0.0945587158203125,2.0042724609375,0.708648681640625,3794.867100916667,2.916674764267534,0.7665946129278287,-0.5605539421540268,3.919953107833862,5.160645961761475,-1.56948447227478,-0.8085486888885498,1.501609086990356,1.364685535430908,XArbitraryZVertical,0.3859076425944438,0.2145973857172695,-0.8740076951057558,-0.2028152548819837,0.5875252485275269,0.5316554307937622,-0.6100465059280396,0,0,0,-1,-1,3791.49742625,unknown,2,2022-06-30T09:29:57.078+02:00,2022-06-30T08:20:05.567+02:00,1147,1.44327,0,0,894.856,0,0,2022-06-30T09:28:40.657+02:00
2022-06-30T09:30:00.463+02:00,3794.882026916667,-0.003448486328125,1.979873657226562,0.7095184326171875,3794.877051916667,2.872637538683597,0.7945259126956542,-0.5428443245232798,3.932503461837769,5.085034370422363,-1.286954522132874,-0.7055149078369141,1.487699270248413,1.308552622795105,XArbitraryZVertical,0.4025124734924635,0.1950177486671854,-0.86643747112132,-0.2218964035655087,0.6109563112258911,0.5165734887123108,-0.5999035835266113,0,0,0,-1,-1,3791.49742625,unknown,2,2022-06-30T09:29:57.078+02:00,2022-06-30T08:20:05.567+02:00,1147,1.44327,0,0,894.856,0,0,2022-06-30T09:28:40.657+02:00
2022-06-30T09:30:00.473+02:00,3794.891978916667,0.01849365234375,1.975341796875,0.7093505859375,3794.887002916667,2.829688748893346,0.8226791626063905,-0.5238150122035857,4.088111877441406,4.969889163970947,-1.098687887191772,-0.6381406784057617,1.479686737060547,1.298567533493042,XArbitraryZVertical,0.4183768267912204,0.1744603121589493,-0.858504435344462,-0.2397806693562736,0.6346923112869263,0.5001872777938843,-0.5890488624572754,0,0,0,-1,-1,3791.49742625,unknown,2,2022-06-30T09:29:57.078+02:00,2022-06-30T08:20:05.567+02:00,1147,1.44327,0,0,894.856,0,0,2022-06-30T09:28:40.657+02:00
2022-06-30T09:30:00.483+02:00,3794.901929916667,0.01171875,1.990524291992188,0.6812896728515625,3794.896953916667,2.78582719022201,0.8505308150919239,-0.5035196954640972,4.360674858093262,4.975764274597168,-1.028393745422363,-0.6398518681526184,1.492830753326416,1.287074089050293,XArbitraryZVertical,0.433404620719803,0.1526396989590187,-0.8501067037309165,-0.2572553598039722,0.6583455801010132,0.4825113713741302,-0.5777230858802795,0,0,0,-1,-1,3791.49742625,unknown,2,2022-06-30T09:29:57.078+02:00,2022-06-30T08:20:05.567+02:00,1147,1.44327,0,0,894.856,0,0,2022-06-30T09:28:40.657+02:00
2022-06-30T09:30:00.493+02:00,3794.911880916667,0.0605010986328125,1.94219970703125,0.7423095703125,3794.906904916667,2.74013745392991,0.8787283965740694,-0.4824039508031068,4.513465404510498,5.043612480163574,-1.003218173980713,-0.6703468561172485,1.526614546775818,1.246598720550537,XArbitraryZVertical,0.4478601948334279,0.1294870987041568,-0.8409195029467613,-0.2747885175083154,0.6820656061172485,0.4639101326465607,-0.565308690071106,0,0,0,-1,-1,3791.49742625,unknown,2,2022-06-30T09:29:57.078+02:00,2022-06-30T08:20:05.567+02:00,1147,1.44327,0,0,894.856,0,0,2022-06-30T09:28:40.657+02:00
2022-06-30T09:30:00.503+02:00,3794.921831916667,0.163543701171875,1.723358154296875,0.7227020263671875,3794.916855916667,2.693527076773791,0.9081693873524109,-0.4616776090542927,4.591592311859131,5.125205516815186,-0.9738138318061829,-0.6453396081924438,1.496749401092529,1.29309344291687,XArbitraryZVertical,0.4620126056716387,0.1056056534306744,-0.8306674174963641,-0.2922045342430414,0.7058407068252563,0.4454506933689117,-0.5507835745811462,0,0,0,-1,-1,3791.49742625,unknown,2,2022-06-30T09:29:57.078+02:00,2022-06-30T08:20:05.567+02:00,1147,1.44327,0,0,894.856,0,0,2022-06-30T09:28:40.657+02:00
2022-06-30T09:30:00.513+02:00,3794.931782916667,0.262298583984375,1.454238891601562,0.67962646484375,3794.926806916667,2.647089442861886,0.9392614102760392,-0.4413990811663127,4.538093566894531,5.170691013336182,-0.8216136693954468,-0.5662198662757874,1.296153664588928,1.256501197814941,XArbitraryZVertical,0.475927171109981,0.08120284769650565,-0.8193985387016347,-0.3090072359438192,0.7297635078430176,0.4272048771381378,-0.53379887342453,0,0,0,-1,-1,3791.49742625,unknown,2,2022-06-30T09:29:57.078+02:00,2022-06-30T08:20:05.567+02:00,1147,1.44327,0,0,894.856,0,0,2022-06-30T09:28:40.657+02:00
2022-06-30T09:30:00.523+02:00,3794.941733916667,0.278533935546875,1.2557373046875,0.6900177001953125,3794.936757916667,2.603428498786673,0.9717984637357896,-0.4217941033648827,4.185906410217285,5.017004489898682,-0.5617395043373108,-0.4912170767784119,1.044841289520264,1.194026708602905,XArbitraryZVertical,0.4894340954501215,0.0570458326316446,-0.8075593551045761,-0.3241112370353813,0.7535157799720764,0.4093979597091675,-0.5144000649452209,0,0,0,-1,-1,3791.49742625,unknown,2,2022-06-30T09:29:57.078+02:00,2022-06-30T08:20:05.567+02:00,1147,1.44327,0,0,894.856,0,0,2022-06-30T09:28:40.657+02:00
2022-06-30T09:30:00.533+02:00,3794.951684916667,0.1728515625,1.141647338867188,0.7268218994140625,3794.946708916667,2.565959184075024,1.005760515190064,-0.404405446383136,3.480321645736694,4.839859962463379,-0.3299199640750885,-0.4979096651077271,0.8622654676437378,1.182273149490356,XArbitraryZVertical,0.5026607337564958,0.03470743522752041,-0.7955651791832584,-0.3364577323630276,0.7764436006546021,0.3934722244739532,-0.4922551512718201,0,0,0,-1,-1,3791.49742625,unknown,2,2022-06-30T09:29:57.078+02:00,2022-06-30T08:20:05.567+02:00,1147,1.44327,0,0,894.856,0,0,2022-06-30T09:28:40.657+02:00
2022-06-30T09:30:00.543+02:00,3794.961635916667,0.04400634765625,1.137588500976562,0.7615814208984375,3794.956659916667,2.535986307279699,1.042327699119219,-0.3905337061036623,2.704063892364502,4.870877265930176,-0.1991859078407288,-0.6257063150405884,0.7609657049179077,1.193069577217102,XArbitraryZVertical,0.5163839024213466,0.01496593372752536,-0.7832460922908399,-0.3459034747880532,0.7985578179359436,0.3806819915771484,-0.4662473797798157,0,0,0,-1,-1,3791.49742625,unknown,2,2022-06-30T09:29:57.078+02:00,2022-06-30T08:20:05.567+02:00,1147,1.44327,0,0,894.856,0,0,2022-06-30T09:28:40.657+02:00
2022-06-30T09:30:00.553+02:00,3794.971586916667,0.008544921875,1.17877197265625,0.7599029541015625,3794.966611916667,2.513403216523442,1.082992041143924,-0.3805359902343969,1.967979073524475,5.007631778717041,-0.1002190113067627,-0.7761669754981995,0.7661707401275635,1.196741819381714,XArbitraryZVertical,0.53142727272392,-0.002230562050766501,-0.7701899041921446,-0.3526861560075558,0.8201732039451599,0.3714181780815125,-0.4351601600646973,0,0,0,-1,-1,3791.49742625,unknown,2,2022-06-30T09:29:57.078+02:00,2022-06-30T08:20:05.567+02:00,1147,1.44327,0,0,894.856,0,0,2022-06-30T09:28:40.657+02:00
2022-06-30T09:30:00.563+02:00,3794.981537916667,0.093902587890625,1.172760009765625,0.749114990234375,3794.976562916667,2.496595562320002,1.126979525639566,-0.3729873549950725,1.561710715293884,5.04738187789917,0.0488455668091774,-0.8324786424636841,0.8143733739852905,1.159769296646118,XArbitraryZVertical,0.5474981048191968,-0.01768562306630488,-0.7565215042978622,-0.3572232596661651,0.8410236239433289,0.3643990159034729,-0.3998660743236542,0,0,0,-1,-1,3791.49742625,unknown,2,2022-06-30T09:29:57.078+02:00,2022-06-30T08:20:05.567+02:00,1147,1.44327,0,0,894.856,0,0,2022-06-30T09:28:40.657+02:00
2022-06-30T09:30:00.573+02:00,3794.991488916667,0.1838531494140625,1.15087890625,0.7584686279296875,3794.986513916667,2.482749356668536,1.172210943982294,-0.3655834037882571,1.438557505607605,5.041469097137451,0.2357599288225174,-0.7668041586875916,0.8152662515640259,1.111581802368164,XArbitraryZVertical,0.563649034897387,-0.03265676001784974,-0.7426464382910796,-0.3601523580555883,0.8607066869735718,0.3574942052364349,-0.3624666035175323,0,0,0,-1,-1,3791.49742625,unknown,2,2022-06-30T09:29:57.078+02:00,2022-06-30T08:20:05.567+02:00,1147,1.44327,0,0,894.856,0,0,2022-06-30T09:28:40.657+02:00
2022-06-30T09:30:00.583+02:00,3795.001439916667,0.240753173828125,1.10992431640625,0.788970947265625,3794.996464916667,2.469285672145032,1.217454407749117,-0.3572696033159088,1.570120334625244,4.993026733398438,0.3855856359004974,-0.695124626159668,0.8011617660522461,1.082653760910034,XArbitraryZVertical,0.5793123010865399,-0.04800838826768943,-0.7286213151131294,-0.362220362797507,0.8789778351783752,0.3497175574302673,-0.3241848945617676,0,0,0,-1,-1,3791.49742625,unknown,2,2022-06-30T09:29:57.078+02:00,2022-06-30T08:20:05.567+02:00,1147,1.44327,0,0,894.856,0,0,2022-06-30T09:28:40.657+02:00
2022-06-30T09:30:00.592+02:00,3795.011390916667,0.263946533203125,1.049346923828125,0.7898101806640625,3795.006415916667,2.453587661355406,1.261672926603905,-0.3472492680573536,1.90257453918457,4.982387065887451,0.5593940615653992,-0.6549890637397766,0.769612193107605,1.075036525726318,XArbitraryZVertical,0.5939648455303221,-0.06459952369366946,-0.7144285952853585,-0.3641764728229392,0.8957421779632568,0.3403125405311584,-0.2860653400421143,0,0,0,-1,-1,3791.49742625,unknown,2,2022-06-30T09:29:57.078+02:00,2022-06-30T08:20:05.567+02:00,1147,1.44327,0,0,894.856,0,0,2022-06-30T09:28:40.657+02:00
