loggingTime(txt),locationTimestamp_since1970(s),locationLatitude(WGS84),locationLongitude(WGS84),locationAltitude(m),locationSpeed(m/s),locationSpeedAccuracy(m/s),locationCourse(°),locationCourseAccuracy(°),locationVerticalAccuracy(m),locationHorizontalAccuracy(m),locationFloor(Z),accelerometerTimestamp_sinceReboot(s),accelerometerAccelerationX(G),accelerometerAccelerationY(G),accelerometerAccelerationZ(G),motionTimestamp_sinceReboot(s),motionYaw(rad),motionRoll(rad),motionPitch(rad),motionRotationRateX(rad/s),motionRotationRateY(rad/s),motionRotationRateZ(rad/s),motionUserAccelerationX(G),motionUserAccelerationY(G),motionUserAccelerationZ(G),motionAttitudeReferenceFrame(txt),motionQuaternionX(R),motionQuaternionY(R),motionQuaternionZ(R),motionQuaternionW(R),motionGravityX(G),motionGravityY(G),motionGravityZ(G),motionMagneticFieldX(µT),motionMagneticFieldY(µT),motionMagneticFieldZ(µT),motionHeading(°),motionMagneticFieldCalibrationAccuracy(Z),activityTimestamp_sinceReboot(s),activity(txt),activityActivityConfidence(Z),activityActivityStartDate(txt),pedometerStartDate(txt),pedometerNumberofSteps(N),pedometerAverageActivePace(s/m),pedometerCurrentPace(s/m),pedometerCurrentCadence(steps/s),pedometerDistance(m),pedometerFloorAscended(N),pedometerFloorDescended(N),pedometerEndDate(txt),altimeterTimestamp_sinceReboot(s),altimeterReset(bool),altimeterRelativeAltitude(m),altimeterPressure(kPa),batteryState(N),batteryLevel(R)
2022-06-30T09:13:15.336+02:00,1656573195.059504,53.2290640287597,10.39857063443437,39.16378,0,0.07,-1,103.9230494294148,4,5,-9999,2789.743435875,0.1406707763671875,-0.4231719970703125,-0.886444091796875,2789.738459875,-0.007300510527330735,0.1702838515098711,0.4023620397283634,-0.1520266681909561,-0.01470190566033125,-0.08733107149600983,-0.1007989794015884,-0.0940946638584137,0.03358519077301025,XArbitraryZVertical,0.1994056282195691,0.08259662658171625,0.0134292910237793,0.976337558331112,0.1559286266565323,-0.3915928304195404,-0.906830370426178,0,0,0,-1,-1,2785.09797575,unknown,2,2022-06-30T09:13:10.678+02:00,2022-06-30T08:20:05.567+02:00,833,1.490593,0,0,651.261,0,0,2022-06-30T09:09:38.916+02:00,678265993.2254606,0,-1.14,100.9231,1,0.97
2022-06-30T09:13:15.337+02:00,1656573195.059504,53.2290640287597,10.39857063443437,39.16378,0,0.07,-1,103.9230494294148,4,5,-9999,2789.753387875,0.185760498046875,-0.38232421875,-0.9237823486328125,2789.748411875,-0.007980536780116544,0.1704582725413695,0.4004361890127359,-0.1881527155637741,-0.01083020213991404,-0.1059614792466164,-0.01554401218891144,-0.03335219621658325,0.02110064029693604,XArbitraryZVertical,0.1984924590968323,0.08263406095537792,0.01303362834848766,0.9765258096481787,0.1562144309282303,-0.3898200690746307,-0.907544732093811,0,0,0,-1,-1,2785.09797575,unknown,2,2022-06-30T09:13:10.678+02:00,2022-06-30T08:20:05.567+02:00,833,1.490593,0,0,651.261,0,0,2022-06-30T09:09:38.916+02:00,678265993.2254606,0,-1.14,100.9231,1,0.97
2022-06-30T09:13:15.344+02:00,1656573195.059504,53.2290640287597,10.39857063443437,39.16378,0,0.07,-1,103.9230494294148,4,5,-9999,2789.763339875,0.17999267578125,-0.3417510986328125,-0.9448394775390625,2789.758363875,-0.008929895485306255,0.1706219386782667,0.3986682137687719,-0.1236313134431839,-0.03311888873577118,-0.1230907663702965,0.0292803943157196,0.005866855382919312,-0.01558542251586914,XArbitraryZVertical,0.1976674568478745,0.08263854744224244,0.01251173381765576,0.9766995642949441,0.1564797461032867,-0.3881913423538208,-0.9081968665122986,0,0,0,-1,-1,2785.09797575,unknown,2,2022-06-30T09:13:10.678+02:00,2022-06-30T08:20:05.567+02:00,833,1.490593,0,0,651.261,0,0,2022-06-30T09:09:38.916+02:00,678265993.2254606,0,-1.14,100.9231,1,0.97
2022-06-30T09:13:15.355+02:00,1656573195.059504,53.2290640287597,10.39857063443437,39.16378,0,0.07,-1,103.9230494294148,4,5,-9999,2789.773291875,0.1332244873046875,-0.3289642333984375,-0.9626007080078125,2789.768315875,-0.01004711639985272,0.1706991372711131,0.3976867141692474,-0.0337645411491394,-0.03154895454645157,-0.1107342317700386,0.02337779104709625,0.04553529620170593,-0.03627955913543701,XArbitraryZVertical,0.1972338716089982,0.08257649806076138,0.0119322761320598,0.9767997013396937,0.1566144973039627,-0.3872866332530975,-0.9085598587989807,0,0,0,-1,-1,2785.09797575,unknown,2,2022-06-30T09:13:10.678+02:00,2022-06-30T08:20:05.567+02:00,833,1.490593,0,0,651.261,0,0,2022-06-30T09:09:38.916+02:00,678265993.2254606,0,-1.14,100.9231,1,0.97
2022-06-30T09:13:15.364+02:00,1656573195.059504,53.2290640287597,10.39857063443437,39.16378,0,0.07,-1,103.9230494294148,4,5,-9999,2789.783243875,0.111968994140625,-0.326812744140625,-0.9555511474609375,2789.778267875,-0.01110131846638923,0.1709360702994137,0.3974777636595243,0.0202382393181324,-0.0001454672310501337,-0.08824809640645981,-0.02361941337585449,0.05812948942184448,-0.05399823188781738,XArbitraryZVertical,0.1971739853516625,0.08259057085319786,0.01143191669479746,0.9768165786332252,0.1568435281515121,-0.3870939612388611,-0.9086024165153503,0,0,0,-1,-1,2785.09797575,unknown,2,2022-06-30T09:13:10.678+02:00,2022-06-30T08:20:05.567+02:00,833,1.490593,0,0,651.261,0,0,2022-06-30T09:09:38.916+02:00,678265993.2254606,0,-1.14,100.9231,1,0.97
2022-06-30T09:13:15.374+02:00,1656573195.059504,53.2290640287597,10.39857063443437,39.16378,0,0.07,-1,103.9230494294148,4,5,-9999,2789.793195875,0.1301116943359375,-0.343353271484375,-0.9472503662109375,2789.788219875,-0.01198111311813181,0.1714067925020768,0.3977156286864977,0.05069121718406677,0.02677749469876289,-0.0657193511724472,-0.0452868640422821,0.06050026416778564,-0.04711335897445679,XArbitraryZVertical,0.197323845654251,0.08273102160143979,0.01105875075995713,0.976778751678911,0.1572555005550385,-0.3873132765293121,-0.9084377288818359,0,0,0,-1,-1,2785.09797575,unknown,2,2022-06-30T09:13:10.678+02:00,2022-06-30T08:20:05.567+02:00,833,1.490593,0,0,651.261,0,0,2022-06-30T09:09:38.916+02:00,678265993.2254606,0,-1.14,100.9231,1,0.97
2022-06-30T09:13:15.384+02:00,1656573195.059504,53.2290640287597,10.39857063443437,39.16378,0,0.07,-1,103.9230494294148,4,5,-9999,2789.803147875,0.1533050537109375,-0.3708343505859375,-0.926300048828125,2789.798171875,-0.01275762752990709,0.1720227315233839,0.3981817383364729,0.06356147676706314,0.03280366957187653,-0.06258614361286163,-0.02767276763916016,0.04438948631286621,-0.03908753395080566,XArbitraryZVertical,0.1975802422412683,0.08294981191508774,0.0107602072333414,0.9767116663659067,0.1577840894460678,-0.3877429664134979,-0.9081627726554871,0,0,0,-1,-1,2785.09797575,unknown,2,2022-06-30T09:13:10.678+02:00,2022-06-30T08:20:05.567+02:00,833,1.490593,0,0,651.261,0,0,2022-06-30T09:09:38.916+02:00,678265993.2254606,0,-1.14,100.9231,1,0.97
2022-06-30T09:13:15.394+02:00,1656573195.059504,53.2290640287597,10.39857063443437,39.16378,0,0.07,-1,103.9230494294148,4,5,-9999,2789.813099875,0.1534423828125,-0.3950958251953125,-0.9130859375,2789.808123875,-0.01351930873591868,0.1726430666729671,0.3986060108768134,0.03955121710896492,0.03359436243772507,-0.05966172739863396,-0.00501444935798645,0.01729941368103027,-0.01839745044708252,XArbitraryZVertical,0.1978157179873542,0.08317247863816904,0.01046773555423443,0.9766482771563563,0.1583191454410553,-0.3881340026855469,-0.9079025387763977,0,0,0,-1,-1,2785.09797575,unknown,2,2022-06-30T09:13:10.678+02:00,2022-06-30T08:20:05.567+02:00,833,1.490593,0,0,651.261,0,0,2022-06-30T09:09:38.916+02:00,678265993.2254606,0,-1.14,100.9231,1,0.97
2022-06-30T09:13:15.404+02:00,1656573195.059504,53.2290640287597,10.39857063443437,39.16378,0,0.07,-1,103.9230494294148,4,5,-9999,2789.823051875,0.1602783203125,-0.4188995361328125,-0.9113922119140625,2789.818075875,-0.01422621932017902,0.1732983058311462,0.3986613584110225,-0.01190312020480633,0.0407714731991291,-0.07303415983915329,-0.005468294024467468,-0.00691106915473938,-0.005308449268341064,XArbitraryZVertical,0.1978687913066851,0.08342185171996443,0.01018973593174581,0.9766192217097234,0.1589103043079376,-0.3881850242614746,-0.9077774882316589,0,0,0,-1,-1,2785.09797575,unknown,2,2022-06-30T09:13:10.678+02:00,2022-06-30T08:20:05.567+02:00,833,1.490593,0,0,651.261,0,0,2022-06-30T09:09:38.916+02:00,678265993.2254606,0,-1.14,100.9231,1,0.97
2022-06-30T09:13:15.414+02:00,1656573195.059504,53.2290640287597,10.39857063443437,39.16378,0,0.07,-1,103.9230494294148,4,5,-9999,2789.833003875,0.161468505859375,-0.4130096435546875,-0.9031524658203125,2789.828027875,-0.01491114222632116,0.174013513229601,0.3980324783556478,-0.08607935160398483,0.04770021885633469,-0.06999868899583817,0.0006761997938156128,-0.03129440546035767,-0.003488302230834961,XArbitraryZVertical,0.1975868309289847,0.08371102976364179,0.009898810469497563,0.976654418818394,0.1596017479896545,-0.3876053690910339,-0.907903790473938,0,0,0,-1,-1,2785.09797575,unknown,2,2022-06-30T09:13:10.678+02:00,2022-06-30T08:20:05.567+02:00,833,1.490593,0,0,651.261,0,0,2022-06-30T09:09:38.916+02:00,678265993.2254606,0,-1.14,100.9231,1,0.97
2022-06-30T09:13:15.424+02:00,1656573195.059504,53.2290640287597,10.39857063443437,39.16378,0,0.07,-1,103.9230494294148,4,5,-9999,2789.842955875,0.1619873046875,-0.3898162841796875,-0.9036712646484375,2789.837979875,-0.0154446697332656,0.1747084858145218,0.3968476653786682,-0.1210910603404045,0.04604948312044144,-0.07300689071416855,0.001155748963356018,-0.02649697661399841,0.00509190559387207,XArbitraryZVertical,0.1970273376367073,0.0840123504112581,0.009655371331400958,0.9767440993976425,0.1603123843669891,-0.3865129053592682,-0.9082443118095398,0,0,0,-1,-1,2785.09797575,unknown,2,2022-06-30T09:13:10.678+02:00,2022-06-30T08:20:05.567+02:00,833,1.490593,0,0,651.261,0,0,2022-06-30T09:09:38.916+02:00,678265993.2254606,0,-1.14,100.9231,1,0.97
2022-06-30T09:13:15.434+02:00,1656573195.059504,53.2290640287597,10.39857063443437,39.16378,0,0.07,-1,103.9230494294148,4,5,-9999,2789.852907875,0.163482666015625,-0.360809326171875,-0.90130615234375,2789.847931875,-0.01601538264597249,0.1753452779289425,0.3955691051365872,-0.1030510738492012,0.03319919854402542,-0.07348253577947617,0.001010149717330933,-0.004483133554458618,0.004956662654876709,XArbitraryZVertical,0.1964240467580108,0.08428312809369247,0.009383508023683644,0.9768449231805975,0.1609767973423004,-0.3853334188461304,-0.9086278676986694,0,0,0,-1,-1,2785.09797575,unknown,2,2022-06-30T09:13:10.678+02:00,2022-06-30T08:20:05.567+02:00,833,1.490593,0,0,651.261,0,0,2022-06-30T09:09:38.916+02:00,678265993.2254606,0,-1.14,100.9231,1,0.97
2022-06-30T09:13:15.444+02:00,1656573195.059504,53.2290640287597,10.39857063443437,39.16378,0,0.07,-1,103.9230494294148,4,5,-9999,2789.862859875,0.1571502685546875,-0.35406494140625,-0.89788818359375,2789.857883875,-0.01664169671935964,0.1758048260989397,0.3947226246121398,-0.0330631323158741,0.01263967901468277,-0.07296538352966309,0.00203096866607666,0.02374258637428284,0.007568538188934326,XArbitraryZVertical,0.1960350247970353,0.08445680311893822,0.009085623384927174,0.9769108159732417,0.1614513248205185,-0.3845521509647369,-0.9088746309280396,0,0,0,-1,-1,2785.09797575,unknown,2,2022-06-30T09:13:10.678+02:00,2022-06-30T08:20:05.567+02:00,833,1.490593,0,0,651.261,0,0,2022-06-30T09:09:38.916+02:00,678265993.2254606,0,-1.14,100.9231,1,0.97
2022-06-30T09:13:15.454+02:00,1656573195.059504,53.2290640287597,10.39857063443437,39.16378,0,0.07,-1,103.9230494294148,4,5,-9999,2789.872811875,0.152679443359375,-0.3672637939453125,-0.8919677734375,2789.867835875,-0.0174240484547269,0.1761038499055738,0.3946433825514198,0.04761280491948128,-0.004227984230965376,-0.07278136163949966,-0.004578545689582825,0.03041383624076843,0.01096820831298828,XArbitraryZVertical,0.1960280433116995,0.08452718950461305,0.008729307886924692,0.976909409163458,0.1617284417152405,-0.3844790160655975,-0.9088563323020935,0,0,0,-1,-1,2785.09797575,unknown,2,2022-06-30T09:13:10.678+02:00,2022-06-30T08:20:05.567+02:00,833,1.490593,0,0,651.261,0,0,2022-06-30T09:09:38.916+02:00,678265993.2254606,0,-1.14,100.9231,1,0.97
2022-06-30T09:13:15.464+02:00,1656573195.059504,53.2290640287597,10.39857063443437,39.16378,0,0.07,-1,103.9230494294148,4,5,-9999,2789.882763875,0.1533660888671875,-0.393829345703125,-0.889617919921875,2789.877787875,-0.01827369777586558,0.1763203909801149,0.3951595112771545,0.0807989165186882,-0.01299679279327393,-0.06479423493146896,-0.009211316704750061,0.01769137382507324,0.01665806770324707,XArbitraryZVertical,0.1963150413313065,0.08454291115950341,0.008358257866205228,0.9768537009886407,0.1618904024362564,-0.3849554061889648,-0.9086257815361023,0,0,0,-1,-1,2785.09797575,unknown,2,2022-06-30T09:13:10.678+02:00,2022-06-30T08:20:05.567+02:00,833,1.490593,0,0,651.261,0,0,2022-06-30T09:09:38.916+02:00,678265993.2254606,0,-1.14,100.9231,1,0.97
2022-06-30T09:13:15.474+02:00,1656573195.059504,53.2290640287597,10.39857063443437,39.16378,0,0.07,-1,103.9230494294148,4,5,-9999,2789.892715875,0.1587371826171875,-0.4127349853515625,-0.8883056640625,2789.887739875,-0.01909231289623762,0.1764530245802911,0.3957424859700975,0.05960841476917267,-0.02406622283160686,-0.06396759301424026,-0.008605778217315674,-0.00833621621131897,0.01876533031463623,XArbitraryZVertical,0.1966337450836255,0.08451957367301267,0.007997173340633382,0.97679459634243,0.1619714945554733,-0.3854933977127075,-0.9083832502365112,0,0,0,-1,-1,2785.09797575,unknown,2,2022-06-30T09:13:10.678+02:00,2022-06-30T08:20:05.567+02:00,833,1.490593,0,0,651.261,0,0,2022-06-30T09:09:38.916+02:00,678265993.2254606,0,-1.14,100.9231,1,0.97
2022-06-30T09:13:15.484+02:00,1656573195.059504,53.2290640287597,10.39857063443437,39.16378,0,0.07,-1,103.9230494294148,4,5,-9999,2789.902667875,0.1631927490234375,-0.417144775390625,-0.890869140625,2789.897691875,-0.01982214470528959,0.1764340516736253,0.3959741009267861,0.004840240813791752,-0.03121468052268028,-0.06178753077983856,-0.003201767802238464,-0.02702814340591431,0.01999276876449585,XArbitraryZVertical,0.1967777265873394,0.08443541979693743,0.007649087386689713,0.9767756665491387,0.1619385927915573,-0.3857071101665497,-0.9082983732223511,0,0,0,-1,-1,2785.09797575,unknown,2,2022-06-30T09:13:10.678+02:00,2022-06-30T08:20:05.567+02:00,833,1.490593,0,0,651.261,0,0,2022-06-30T09:09:38.916+02:00,678265993.2254606,0,-1.14,100.9231,1,0.97
2022-06-30T09:13:15.494+02:00,1656573195.059504,53.2290640287597,10.39857063443437,39.16378,0,0.07,-1,103.9230494294148,4,5,-9999,2789.912619875,0.165496826171875,-0.4019012451171875,-0.890869140625,2789.907643875,-0.02043347949849796,0.1763250325977855,0.3956925819666125,-0.04760405793786049,-0.03870748355984688,-0.06202507764101028,0.00133378803730011,-0.03169766068458557,0.01755380630493164,XArbitraryZVertical,0.1966664784346304,0.08432586280257463,0.007327357098034741,0.9768100259939213,0.1618586033582687,-0.3854473531246185,-0.9084228873252869,0,0,0,-1,-1,2785.09797575,unknown,2,2022-06-30T09:13:10.678+02:00,2022-06-30T08:20:05.567+02:00,833,1.490593,0,0,651.261,0,0,2022-06-30T09:09:38.916+02:00,678265993.2254606,0,-1.14,100.9231,1,0.97
2022-06-30T09:13:15.504+02:00,1656573195.059504,53.2290640287597,10.39857063443437,39.16378,0,0.07,-1,103.9230494294148,4,5,-9999,2789.922571875,0.164459228515625,-0.38214111328125,-0.8946685791015625,2789.917595875,-0.02101458024807343,0.1761265247937733,0.3950134998763671,-0.06866759806871414,-0.04677563905715942,-0.0640312060713768,0.003772348165512085,-0.01708081364631653,0.01784342527389526,XArbitraryZVertical,0.1963601109306214,0.08418111402489478,0.006994044778915287,0.9768865843790892,0.1617241054773331,-0.3848206400871277,-0.9087125062942505,0,0,0,-1,-1,2785.09797575,unknown,2,2022-06-30T09:13:10.678+02:00,2022-06-30T08:20:05.567+02:00,833,1.490593,0,0,651.261,0,0,2022-06-30T09:09:38.916+02:00,678265993.2254606,0,-1.14,100.9231,1,0.97
2022-06-30T09:13:15.514+02:00,1656573195.059504,53.2290640287597,10.39857063443437,39.16378,0,0.07,-1,103.9230494294148,4,5,-9999,2789.932523875,0.166107177734375,-0.35791015625,-0.8909759521484375,2789.927547875,-0.02158674848771941,0.1758379633333072,0.3943872522831424,-0.03658849000930786,-0.05550015345215797,-0.06376702338457108,0.002954870462417603,0.00210118293762207,0.01432770490646362,XArbitraryZVertical,0.1960793690214467,0.08399267990918234,0.006658619450258483,0.9769615332146727,0.1615040004253387,-0.3842425644397736,-0.9089962244033813,0,0,0,-1,-1,2785.09797575,unknown,2,2022-06-30T09:13:10.678+02:00,2022-06-30T08:20:05.567+02:00,833,1.490593,0,0,651.261,0,0,2022-06-30T09:09:38.916+02:00,678265993.2254606,0,-1.14,100.9231,1,0.97
2022-06-30T09:13:15.524+02:00,1656573195.059504,53.2290640287597,10.39857063443437,39.16378,0,0.07,-1,103.9230494294148,4,5,-9999,2789.942475875,0.16290283203125,-0.344635009765625,-0.8923492431640625,2789.937499875,-0.02223421777425681,0.1754645368015385,0.3941406490488764,0.01890319585800171,-0.06944099068641663,-0.05940220132470131,0.004925712943077087,0.02610448002815247,0.01817387342453003,XArbitraryZVertical,0.1959873150801233,0.0837502398744662,0.006294866202642739,0.9770032197685692,0.1611810773611069,-0.3840148746967316,-0.9091497659683228,0,0,0,-1,-1,2785.09797575,unknown,2,2022-06-30T09:13:10.678+02:00,2022-06-30T08:20:05.567+02:00,833,1.490593,0,0,651.261,0,0,2022-06-30T09:09:38.916+02:00,678265993.2254606,0,-1.14,100.9231,1,0.97
2022-06-30T09:13:15.534+02:00,1656573195.059504,53.2290640287597,10.39857063443437,39.16378,0,0.07,-1,103.9230494294148,4,5,-9999,2789.952427875,0.1549072265625,-0.35260009765625,-0.896636962890625,2789.947451875,-0.02295362749338881,0.1749871232354878,0.3944917242058214,0.079029381275177,-0.08079058676958084,-0.05723225697875023,0.002178922295570374,0.03970372676849365,0.01674455404281616,XArbitraryZVertical,0.1961902676561773,0.08344154190204453,0.005912074717234538,0.9769913197771453,0.1607235372066498,-0.3843390047550201,-0.9090937972068787,0,0,0,-1,-1,2785.09797575,unknown,2,2022-06-30T09:13:10.678+02:00,2022-06-30T08:20:05.567+02:00,833,1.490593,0,0,651.261,0,0,2022-06-30T09:09:38.916+02:00,678265993.2254606,0,-1.14,100.9231,1,0.97
2022-06-30T09:13:15.544+02:00,1656573195.059504,53.2290640287597,10.39857063443437,39.16378,0,0.07,-1,103.9230494294148,4,5,-9999,2789.962379875,0.14898681640625,-0.375885009765625,-0.89862060546875,2789.957403875,-0.023740070624583,0.1744373110710283,0.3952753345337479,0.09759820997714996,-0.08790610730648041,-0.05733368918299675,-0.005264490842819214,0.03246194124221802,0.01224821805953979,XArbitraryZVertical,0.1966071960467004,0.08308456495842413,0.005508328722312075,0.9769403169897762,0.1601713746786118,-0.3850623071193695,-0.90888512134552,0,0,0,-1,-1,2785.09797575,unknown,2,2022-06-30T09:13:10.678+02:00,2022-06-30T08:20:05.567+02:00,833,1.490593,0,0,651.261,0,0,2022-06-30T09:09:38.916+02:00,678265993.2254606,0,-1.14,100.9231,1,0.97
2022-06-30T09:13:15.554+02:00,1656573195.059504,53.2290640287597,10.39857063443437,39.16378,0,0.07,-1,103.9230494294148,4,5,-9999,2789.972330875,0.14935302734375,-0.3914947509765625,-0.8921661376953125,2789.967355875,-0.02449451565508393,0.1738618797180028,0.3959880656186185,0.05306669324636459,-0.08654416352510452,-0.05804102495312691,-0.01061436533927917,0.009834706783294678,0.0100860595703125,XArbitraryZVertical,0.1969880031518293,0.08271897133121221,0.005114420000996445,0.9768967061731415,0.1596008241176605,-0.3857199847698212,-0.9087066054344177,0,0,0,-1,-1,2785.09797575,unknown,2,2022-06-30T09:13:10.678+02:00,2022-06-30T08:20:05.567+02:00,833,1.490593,0,0,651.261,0,0,2022-06-30T09:09:38.916+02:00,678265993.2254606,0,-1.14,100.9231,1,0.97
2022-06-30T09:13:15.564+02:00,1656573195.059504,53.2290640287597,10.39857063443437,39.16378,0,0.07,-1,103.9230494294148,4,5,-9999,2789.982282875,0.1526641845703125,-0.401031494140625,-0.897216796875,2789.977306875,-0.02513904586908575,0.1733131483209979,0.3960552097335103,-0.03239048644900322,-0.0796997994184494,-0.05880878493189812,-0.009745016694068909,-0.005713105201721191,0.01660245656967163,XArbitraryZVertical,0.1970487366416641,0.08238646817999699,0.004748475920482254,0.9769144314027894,0.1590977013111115,-0.3857819437980652,-0.9087685346603394,0,0,0,-1,-1,2785.09797575,unknown,2,2022-06-30T09:13:10.678+02:00,2022-06-30T08:20:05.567+02:00,833,1.490593,0,0,651.261,0,0,2022-06-30T09:09:38.916+02:00,678265993.2254606,0,-1.14,100.9231,1,0.97
2022-06-30T09:13:15.574+02:00,1656573195.059504,53.2290640287597,10.39857063443437,39.16378,0,0.07,-1,103.9230494294148,4,5,-9999,2789.992234875,0.1552276611328125,-0.3797149658203125,-0.8961639404296875,2789.987258875,-0.02565218941258101,0.1727465797219473,0.3954267715871845,-0.08735200017690659,-0.08027397841215134,-0.0605827160179615,-0.005960598587989807,-0.01582968235015869,0.01188039779663086,XArbitraryZVertical,0.196764286180768,0.08206842413147102,0.004414635070264861,0.9770001092114278,0.1586244404315948,-0.3852020502090454,-0.9090971946716309,0,0,0,-1,-1,2785.09797575,unknown,2,2022-06-30T09:13:10.678+02:00,2022-06-30T08:20:05.567+02:00,833,1.490593,0,0,651.261,0,0,2022-06-30T09:09:38.916+02:00,678265993.2254606,0,-1.14,100.9231,1,0.97
2022-06-30T09:13:15.583+02:00,1656573195.059504,53.2290640287597,10.39857063443437,39.16378,0,0.07,-1,103.9230494294148,4,5,-9999,2790.002186875,0.1512451171875,-0.34796142578125,-0.9021148681640625,2789.997210875,-0.02612978447354283,0.1721621143401018,0.3944041533928973,-0.09581732749938965,-0.07842957973480225,-0.05864010378718376,-0.00293317437171936,0.004542917013168335,0.01341342926025391,XArbitraryZVertical,0.1962857332621596,0.08175107019388339,0.004079416125097371,0.977124410716591,0.158160462975502,-0.3842581510543823,-0.9095773696899414,0,0,0,-1,-1,2785.09797575,unknown,2,2022-06-30T09:13:10.678+02:00,2022-06-30T08:20:05.567+02:00,833,1.490593,0,0,651.261,0,0,2022-06-30T09:09:38.916+02:00,678265993.2254606,0,-1.14,100.9231,1,0.97
2022-06-30T09:13:15.593+02:00,1656573195.059504,53.2290640287597,10.39857063443437,39.16378,0,0.07,-1,103.9230494294148,4,5,-9999,2790.012138875,0.145263671875,-0.323333740234375,-0.9046478271484375,2790.007162875,-0.02659563678509072,0.1715743141827782,0.3936136243924092,-0.04267048463225365,-0.08051163703203201,-0.05204132199287415,-0.006432861089706421,0.0355665385723114,0.0078544020652771,XArbitraryZVertical,0.1959198327391678,0.08142993490922763,0.003759892053974018,0.9772258852093481,0.1576776057481766,-0.3835282027721405,-0.90996915102005,0,0,0,-1,-1,2785.09797575,unknown,2,2022-06-30T09:13:10.678+02:00,2022-06-30T08:20:05.567+02:00,833,1.490593,0,0,651.261,0,0,2022-06-30T09:09:38.916+02:00,678265993.2254606,0,-1.14,100.9231,1,0.97
2022-06-30T09:13:15.603+02:00,1656573195.059504,53.2290640287597,10.39857063443437,39.16378,0,0.07,-1,103.9230494294148,4,5,-9999,2790.022090875,0.143524169921875,-0.3310546875,-0.90924072265625,2790.017114875,-0.02714449581185977,0.1709799058042326,0.3934162986689271,0.02631444111466408,-0.08739463239908218,-0.05058231204748154,-0.01188625395298004,0.06001195311546326,0.005489528179168701,XArbitraryZVertical,0.1958468125166497,0.08108867589801816,0.003424952722977728,0.977270197251819,0.1571495532989502,-0.3833459615707397,-0.9101372957229614,0,0,0,-1,-1,2785.09797575,unknown,2,2022-06-30T09:13:10.678+02:00,2022-06-30T08:20:05.567+02:00,833,1.490593,0,0,651.261,0,0,2022-06-30T09:09:38.916+02:00,678265993.2254606,0,-1.14,100.9231,1,0.97
2022-06-30T09:13:15.613+02:00,1656573195.059504,53.2290640287597,10.39857063443437,39.16378,0,0.07,-1,103.9230494294148,4,5,-9999,2790.032042875,0.142852783203125,-0.3513336181640625,-0.9005279541015625,2790.027066875,-0.02777995064002018,0.1703683977725813,0.3938018314225347,0.0687527135014534,-0.08690834045410156,-0.05436399951577187,-0.01304410398006439,0.05264711380004883,0.00084686279296875,XArbitraryZVertical,0.1960618142647216,0.08072181747324889,0.003071163752296552,0.9772585981950117,0.1565679013729095,-0.3837020099163055,-0.910087525844574,0,0,0,-1,-1,2785.09797575,unknown,2,2022-06-30T09:13:10.678+02:00,2022-06-30T08:20:05.567+02:00,833,1.490593,0,0,651.261,0,0,2022-06-30T09:09:38.916+02:00,678265993.2254606,0,-1.14,100.9231,1,0.97
2022-06-30T09:13:15.623+02:00,1656573195.059504,53.2290640287597,10.39857063443437,39.16378,0,0.07,-1,103.9230494294148,4,5,-9999,2790.041994875,0.1458587646484375,-0.3780059814453125,-0.8982696533203125,2790.037018875,-0.02844461505733745,0.1697484625831905,0.3942676137703853,0.04632017388939857,-0.08672875165939331,-0.05009205639362335,-0.01312103867530823,0.03279820084571838,0.00948023796081543,XArbitraryZVertical,0.1963169589043121,0.080346632706121,0.002705612952515051,0.9772393685513086,0.1559734642505646,-0.3841320872306824,-0.9100081324577332,0,0,0,-1,-1,2785.09797575,unknown,2,2022-06-30T09:13:10.678+02:00,2022-06-30T08:20:05.567+02:00,833,1.490593,0,0,651.261,0,0,2022-06-30T09:09:38.916+02:00,678265993.2254606,0,-1.14,100.9231,1,0.97
2022-06-30T09:13:15.633+02:00,1656573195.059504,53.2290640287597,10.39857063443437,39.16378,0,0.07,-1,103.9230494294148,4,5,-9999,2790.051946875,0.146209716796875,-0.397247314453125,-0.8969879150390625,2790.046970875,-0.02905512531968417,0.1691526667389676,0.3943208006841133,-0.02079974114894867,-0.07956245541572571,-0.06045468524098396,-0.009569421410560608,0.006174951791763306,0.01181113719940186,XArbitraryZVertical,0.1963681685981599,0.0799947664535334,0.002351095323395233,0.9772588234651672,0.1554278284311295,-0.3841812014579773,-0.9100807309150696,0,0,0,-1,-1,2785.09797575,unknown,2,2022-06-30T09:13:10.678+02:00,2022-06-30T08:20:05.567+02:00,833,1.490593,0,0,651.261,0,0,2022-06-30T09:09:38.916+02:00,678265993.2254606,0,-1.14,100.9231,1,0.97
2022-06-30T09:13:15.659+02:00,1656573195.059504,53.2290640287597,10.39857063443437,39.16378,0,0.07,-1,103.9230494294148,4,5,-9999,2790.061898875,0.1497955322265625,-0.3976593017578125,-0.89776611328125,2790.056922875,-0.029628071056208,0.1686193842851371,0.3936433458064608,-0.09983810037374496,-0.07269934564828873,-0.06717117875814438,-0.008776754140853882,-0.01369190216064453,0.01343202590942383,XArbitraryZVertical,0.1960607268278158,0.07968840723636431,0.00198981983678747,0.9773464654667288,0.1549861133098602,-0.3835556507110596,-0.9104198813438416,0,0,0,-1,-1,2785.09797575,unknown,2,2022-06-30T09:13:10.678+02:00,2022-06-30T08:20:05.567+02:00,833,1.490593,0,0,651.261,0,0,2022-06-30T09:09:38.916+02:00,678265993.2254606,0,-1.14,100.9231,1,0.97
2022-06-30T09:13:15.662+02:00,1656573195.059504,53.2290640287597,10.39857063443437,39.16378,0,0.07,-1,103.9230494294148,4,5,-9999,2790.071850875,0.153411865234375,-0.3846893310546875,-0.905364990234375,2790.066874875,-0.0301192599215288,0.1681268605605061,0.3923331725210646,-0.1448386013507843,-0.06683240085840225,-0.06809849292039871,-0.004826486110687256,-0.01531422138214111,0.01322472095489502,XArbitraryZVertical,0.1954407519167567,0.07941995081212937,0.001645645471598251,0.9774930582335938,0.1546216458082199,-0.3823453485965729,-0.9109907746315002,0,0,0,-1,-1,2785.09797575,unknown,2,2022-06-30T09:13:10.678+02:00,2022-06-30T08:20:05.567+02:00,833,1.490593,0,0,651.261,0,0,2022-06-30T09:09:38.916+02:00,678265993.2254606,0,-1.14,100.9231,1,0.97
2022-06-30T09:13:15.664+02:00,1656573195.059504,53.2290640287597,10.39857063443437,39.16378,0,0.07,-1,103.9230494294148,4,5,-9999,2790.081802875,0.1499786376953125,-0.367431640625,-0.9108734130859375,2790.076826875,-0.03063248793425834,0.1676429123266086,0.3907803114166312,-0.1411801427602768,-0.06978633999824524,-0.07959019392728806,-0.0008681416511535645,-0.003779590129852295,0.006284832954406738,XArbitraryZVertical,0.1947028200248687,0.07915753379626607,0.001281449925022364,0.9776621199499637,0.1542796343564987,-0.3809100091457367,-0.9116498231887817,0,0,0,-1,-1,2785.09797575,unknown,2,2022-06-30T09:13:10.678+02:00,2022-06-30T08:20:05.567+02:00,833,1.490593,0,0,651.261,0,0,2022-06-30T09:09:38.916+02:00,678265993.2254606,0,-1.14,100.9231,1,0.97
2022-06-30T09:13:15.673+02:00,1656573195.059504,53.2290640287597,10.39857063443437,39.16378,0,0.07,-1,103.9230494294148,4,5,-9999,2790.091754875,0.145263671875,-0.35888671875,-0.91143798828125,2790.086778875,-0.03128880940444811,0.1671539207638523,0.3894599179032026,-0.08910655975341797,-0.07601308077573776,-0.08514288812875748,-0.003939107060432434,0.01225695013999939,0.001346886157989502,XArbitraryZVertical,0.1940838421250758,0.07887537566339724,0.0008569525590213038,0.9778084661990777,0.1539173722267151,-0.3796888291835785,-0.912220299243927,0,0,0,-1,-1,2785.09797575,unknown,2,2022-06-30T09:13:10.678+02:00,2022-06-30T08:20:05.567+02:00,833,1.490593,0,0,651.261,0,0,2022-06-30T09:09:38.916+02:00,678265993.2254606,0,-1.14,100.9231,1,0.97
2022-06-30T09:13:15.683+02:00,1656573195.059504,53.2290640287597,10.39857063443437,39.16378,0,0.07,-1,103.9230494294148,4,5,-9999,2790.101706875,0.1313629150390625,-0.3650970458984375,-0.9083404541015625,2790.096730875,-0.0321044034848216,0.1666715231326913,0.3886205624076495,-0.03631119057536125,-0.07781852036714554,-0.09043622016906738,-0.008266821503639221,0.02002525329589844,0.001170456409454346,XArbitraryZVertical,0.193705918356247,0.07857370997892851,0.0003758156298666919,0.9779080170576128,0.1535301208496094,-0.3789122104644775,-0.9126083850860596,0,0,0,-1,-1,2785.09797575,unknown,2,2022-06-30T09:13:10.678+02:00,2022-06-30T08:20:05.567+02:00,833,1.490593,0,0,651.261,0,0,2022-06-30T09:09:38.916+02:00,678265993.2254606,0,-1.14,100.9231,1,0.97
2022-06-30T09:13:15.693+02:00,1656573195.059504,53.2290640287597,10.39857063443437,39.16378,0,0.07,-1,103.9230494294148,4,5,-9999,2790.111658875,0.119110107421875,-0.379852294921875,-0.9089508056640625,2790.106682875,-0.03304123222027155,0.1662755629757091,0.3881737520800318,-0.008367439731955528,-0.06860717386007309,-0.09604909271001816,-0.02183419466018677,0.01340135931968689,0.004495561122894287,XArbitraryZVertical,0.1935243347654268,0.07829655182732841,-0.000139516260752186,0.9779661988244086,0.1531967669725418,-0.3784986734390259,-0.912835955619812,0,0,0,-1,-1,2785.09797575,unknown,2,2022-06-30T09:13:10.678+02:00,2022-06-30T08:20:05.567+02:00,833,1.490593,0,0,651.261,0,0,2022-06-30T09:09:38.916+02:00,678265993.2254606,0,-1.14,100.9231,1,0.97
2022-06-30T09:13:15.703+02:00,1656573195.059504,53.2290640287597,10.39857063443437,39.16378,0,0.07,-1,103.9230494294148,4,5,-9999,2790.121610875,0.1169891357421875,-0.392730712890625,-0.8998260498046875,2790.116634875,-0.03406913549834932,0.1660033103442392,0.3879387799777416,0.0004676631651818752,-0.05965962633490562,-0.101720467209816,-0.03385317325592041,-0.001571387052536011,0.004014551639556885,XArbitraryZVertical,0.193449612283839,0.07806778188487964,-0.000678435543298836,0.9779991058388307,0.1529629230499268,-0.3782811760902405,-0.9129653573036194,0,0,0,-1,-1,2785.09797575,unknown,2,2022-06-30T09:13:10.678+02:00,2022-06-30T08:20:05.567+02:00,833,1.490593,0,0,651.261,0,0,2022-06-30T09:09:38.916+02:00,678265993.2254606,0,-1.14,100.9231,1,0.97
2022-06-30T09:13:15.713+02:00,1656573195.059504,53.2290640287597,10.39857063443437,39.16378,0,0.07,-1,103.9230494294148,4,5,-9999,2790.131562875,0.1220550537109375,-0.401824951171875,-0.9055633544921875,2790.126586875,-0.03521510341062042,0.1658559631770235,0.3876956740763189,-0.01910177804529667,-0.05459296330809593,-0.1152855455875397,-0.03585481643676758,-0.0146748423576355,0.01325255632400513,XArbitraryZVertical,0.1933754163802578,0.07788890843587766,-0.001263356585475121,0.9780274186674757,0.1528435796499252,-0.3780561089515686,-0.9130785465240479,0,0,0,-1,-1,2785.09797575,unknown,2,2022-06-30T09:13:10.678+02:00,2022-06-30T08:20:05.567+02:00,833,1.490593,0,0,651.261,0,0,2022-06-30T09:09:38.916+02:00,678265993.2254606,0,-1.14,100.9231,1,0.97
2022-06-30T09:13:15.723+02:00,1656573195.059504,53.2290640287597,10.39857063443437,39.16378,0,0.07,-1,103.9230494294148,4,5,-9999,2790.141514875,0.1200408935546875,-0.406890869140625,-0.9128875732421875,2790.136538875,-0.03646104649962112,0.1658151637906226,0.3871923884820974,-0.05579667165875435,-0.0466463565826416,-0.1308493167161942,-0.03078301250934601,-0.02423509955406189,0.007709026336669922,XArbitraryZVertical,0.1931778883039622,0.07775697117945944,-0.001897911666603845,0.9780759324921738,0.1528377085924149,-0.377590149641037,-0.9132723212242126,0,0,0,-1,-1,2785.09797575,unknown,2,2022-06-30T09:13:10.678+02:00,2022-06-30T08:20:05.567+02:00,833,1.490593,0,0,651.261,0,0,2022-06-30T09:09:38.916+02:00,678265993.2254606,0,-1.14,100.9231,1,0.97
2022-06-30T09:13:15.733+02:00,1656573195.059504,53.2290640287597,10.39857063443437,39.16378,0,0.07,-1,103.9230494294148,4,5,-9999,2790.151466875,0.1126251220703125,-0.4157257080078125,-0.9249114990234375,2790.146490875,-0.03783200229401427,0.1659118545681654,0.3862392546603969,-0.1042004302144051,-0.03574230894446373,-0.1556614488363266,-0.03294484317302704,-0.03018373250961304,0.0007245540618896484,XArbitraryZVertical,0.1927654173561708,0.07768822161539637,-0.002599490782315765,0.978161156061546,0.1529853790998459,-0.3767073750495911,-0.9136120676994324,0,0,0,-1,-1,2785.09797575,unknown,2,2022-06-30T09:13:10.678+02:00,2022-06-30T08:20:05.567+02:00,833,1.490593,0,0,651.261,0,0,2022-06-30T09:09:38.916+02:00,678265993.2254606,0,-1.14,100.9231,1,0.97
2022-06-30T09:13:15.742+02:00,1656573195.059504,53.2290640287597,10.39857063443437,39.16378,0,0.07,-1,103.9230494294148,4,5,-9999,2790.161418875,0.101837158203125,-0.4119415283203125,-0.9288177490234375,2790.156442875,-0.03937280109498143,0.1661993317557934,0.3847717951578593,-0.1423488855361938,-0.02104485407471657,-0.1769305169582367,-0.04071454703807831,-0.04037833213806152,-0.01079916954040527,XArbitraryZVertical,0.192108397293361,0.07770607990543499,-0.003387869527916005,0.978286604064319,0.1533393114805222,-0.3753476142883301,-0.9141122698783875,0,0,0,-1,-1,2785.09797575,unknown,2,2022-06-30T09:13:10.678+02:00,2022-06-30T08:20:05.567+02:00,833,1.490593,0,0,651.261,0,0,2022-06-30T09:09:38.916+02:00,678265993.2254606,0,-1.14,100.9231,1,0.97
2022-06-30T09:13:15.753+02:00,1656573195.059504,53.2290640287597,10.39857063443437,39.16378,0,0.07,-1,103.9230494294148,4,5,-9999,2790.171370875,0.0929107666015625,-0.3913726806640625,-0.9199676513671875,2790.166394875,-0.04107999046025394,0.1667398590787896,0.3828998734589453,-0.168696328997612,-0.0004192041233181953,-0.1979087740182877,-0.05211293697357178,-0.03832986950874329,-0.01409721374511719,XArbitraryZVertical,0.1912606987929756,0.07784012687696237,-0.004251138629351208,0.9784386878401379,0.1539497375488281,-0.3736119270324707,-0.9147205352783203,0,0,0,-1,-1,2785.09797575,unknown,2,2022-06-30T09:13:10.678+02:00,2022-06-30T08:20:05.567+02:00,833,1.490593,0,0,651.261,0,0,2022-06-30T09:09:38.916+02:00,678265993.2254606,0,-1.14,100.9231,1,0.97
2022-06-30T09:13:15.762+02:00,1656573195.059504,53.2290640287597,10.39857063443437,39.16378,0,0.07,-1,103.9230494294148,4,5,-9999,2790.181322875,0.0872039794921875,-0.38055419921875,-0.922515869140625,2790.176346875,-0.04295996644457437,0.1674852748064566,0.3807961299858793,-0.1795210093259811,0.01432192511856556,-0.2175479978322983,-0.06185181438922882,-0.01971325278282166,-0.00458914041519165,XArbitraryZVertical,0.1903071514863686,0.07806377030954412,-0.005190182701902802,0.9786022677041453,0.1547622233629227,-0.3716596961021423,-0.9153784513473511,0,0,0,-1,-1,2785.09797575,unknown,2,2022-06-30T09:13:10.678+02:00,2022-06-30T08:20:05.567+02:00,833,1.490593,0,0,651.261,0,0,2022-06-30T09:09:38.916+02:00,678265993.2254606,0,-1.14,100.9231,1,0.97
2022-06-30T09:13:15.772+02:00,1656573195.059504,53.2290640287597,10.39857063443437,39.16378,0,0.07,-1,103.9230494294148,4,5,-9999,2790.191274875,0.087554931640625,-0.3797454833984375,-0.916839599609375,2790.186298875,-0.04501409019012768,0.1683951116242527,0.3787474263239702,-0.1608565151691437,0.02886092104017735,-0.2342521399259567,-0.06851866841316223,-0.01079750061035156,-0.006529808044433594,XArbitraryZVertical,0.1893882708290301,0.07835226011456264,-0.006197565310635648,0.9787515951765112,0.1557222902774811,-0.3697569668292999,-0.9159860014915466,0,0,0,-1,-1,2785.09797575,unknown,2,2022-06-30T09:13:10.678+02:00,2022-06-30T08:20:05.567+02:00,833,1.490593,0,0,651.261,0,0,2022-06-30T09:09:38.916+02:00,678265993.2254606,0,-1.14,100.9231,1,0.97
2022-06-30T09:13:15.782+02:00,1656573195.059504,53.2290640287597,10.39857063443437,39.16378,0,0.07,-1,103.9230494294148,4,5,-9999,2790.201226875,0.1004180908203125,-0.3746490478515625,-0.9033355712890625,2790.196250875,-0.04722207585168666,0.1694876005798192,0.3768681515039796,-0.1525877267122269,0.04189964756369591,-0.2402451634407043,-0.06928525865077972,-0.01173552870750427,-0.0003409385681152344,XArbitraryZVertical,0.1885595943326078,0.07871438982984783,-0.00725684372768184,0.9788752874217999,0.1568398326635361,-0.3680102229118347,-0.9164986610412598,0,0,0,-1,-1,2785.09797575,unknown,2,2022-06-30T09:13:10.678+02:00,2022-06-30T08:20:05.567+02:00,833,1.490593,0,0,651.261,0,0,2022-06-30T09:09:38.916+02:00,678265995.7748064,0,-0.96,100.9222,1,0.97
2022-06-30T09:13:15.792+02:00,1656573195.059504,53.2290640287597,10.39857063443437,39.16378,0,0.07,-1,103.9230494294148,4,5,-9999,2790.211178875,0.1101531982421875,-0.38348388671875,-0.9061737060546875,2790.206202875,-0.04938013992239201,0.170644524252309,0.3750837028890476,-0.1458680480718613,0.04871281236410141,-0.2260252088308334,-0.05759358406066895,-0.008298903703689575,0.01362675428390503,XArbitraryZVertical,0.1877765041465913,0.07911287378287846,-0.008282724477073313,0.9789855123843175,0.1580113172531128,-0.3663504123687744,-0.9169622659683228,0,0,0,-1,-1,2785.09797575,unknown,2,2022-06-30T09:13:10.678+02:00,2022-06-30T08:20:05.567+02:00,833,1.490593,0,0,651.261,0,0,2022-06-30T09:09:38.916+02:00,678265995.7748064,0,-0.96,100.9222,1,0.97
2022-06-30T09:13:15.803+02:00,1656573195.059504,53.2290640287597,10.39857063443437,39.16378,0,0.07,-1,103.9230494294148,4,5,-9999,2790.221130875,0.11785888671875,-0.3945159912109375,-0.907958984375,2790.216154875,-0.05141560470672583,0.1718539538387198,0.3733754203497562,-0.1484375298023224,0.05939105898141861,-0.2166953235864639,-0.04907414317131042,-0.01872378587722778,0.01121211051940918,XArbitraryZVertical,0.1870269900424049,0.07954883821728864,-0.009241533080774399,0.9790850748785487,0.1592269986867905,-0.3647603690624237,-0.9173857569694519,0,0,0,-1,-1,2785.09797575,unknown,2,2022-06-30T09:13:10.678+02:00,2022-06-30T08:20:05.567+02:00,833,1.490593,0,0,651.261,0,0,2022-06-30T09:09:38.916+02:00,678265995.7748064,0,-0.96,100.9222,1,0.97
2022-06-30T09:13:15.812+02:00,1656573195.059504,53.2290640287597,10.39857063443437,39.16378,0,0.07,-1,103.9230494294148,4,5,-9999,2790.231082875,0.1243438720703125,-0.4022064208984375,-0.911407470703125,2790.226106875,-0.05326133246773267,0.1730213668703976,0.3716328894092698,-0.1630683988332748,0.0595063753426075,-0.1929772198200226,-0.04254849255084991,-0.03137892484664917,0.009865045547485352,XArbitraryZVertical,0.186253902238116,0.07998433562992784,-0.01011410810209475,0.9791882819514229,0.1604070365428925,-0.3631373345851898,-0.9178239703178406,0,0,0,-1,-1,2785.09797575,unknown,2,2022-06-30T09:13:10.678+02:00,2022-06-30T08:20:05.567+02:00,833,1.490593,0,0,651.261,0,0,2022-06-30T09:09:38.916+02:00,678265995.7748064,0,-0.96,100.9222,1,0.97
2022-06-30T09:13:15.822+02:00,1656573195.059504,53.2290640287597,10.39857063443437,39.16378,0,0.07,-1,103.9230494294148,4,5,-9999,2790.241034875,0.1269989013671875,-0.4057769775390625,-0.9123687744140625,2790.236058875,-0.05479853389714948,0.1740609515202544,0.3697532047748592,-0.1888933479785919,0.05967798084020615,-0.1734250783920288,-0.03713551163673401,-0.040821373462677,0.006919980049133301,XArbitraryZVertical,0.1854014478553466,0.0803903739758572,-0.01085485338831713,0.9793089068741233,0.1614790260791779,-0.361385315656662,-0.9183273911476135,0,0,0,-1,-1,2785.09797575,unknown,2,2022-06-30T09:13:10.678+02:00,2022-06-30T08:20:05.567+02:00,833,1.490593,0,0,651.261,0,0,2022-06-30T09:09:38.916+02:00,678265995.7748064,0,-0.96,100.9222,1,0.97
2022-06-30T09:13:15.832+02:00,1656573195.059504,53.2290640287597,10.39857063443437,39.16378,0,0.07,-1,103.9230494294148,4,5,-9999,2790.250986875,0.1273651123046875,-0.4144439697265625,-0.9098358154296875,2790.246010875,-0.05608433880820068,0.1749390688473886,0.3675665222390524,-0.2261251360177994,0.05658977851271629,-0.1599428206682205,-0.03542396426200867,-0.04643169045448303,0.006592452526092529,XArbitraryZVertical,0.1843883243197394,0.08074864792449073,-0.01150247916382174,0.9794632774246906,0.1624225229024887,-0.359345555305481,-0.918961226940155,0,0,0,-1,-1,2785.09797575,unknown,2,2022-06-30T09:13:10.678+02:00,2022-06-30T08:20:05.567+02:00,833,1.490593,0,0,651.261,0,0,2022-06-30T09:09:38.916+02:00,678265995.7748064,0,-0.96,100.9222,1,0.97
2022-06-30T09:13:15.842+02:00,1656573195.059504,53.2290640287597,10.39857063443437,39.16378,0,0.07,-1,103.9230494294148,4,5,-9999,2790.260938875,0.1215667724609375,-0.421722412109375,-0.904998779296875,2790.255962875,-0.05719103029204051,0.1757009231434159,0.3649994245614723,-0.2614321112632751,0.05304515734314919,-0.1523414254188538,-0.03591853380203247,-0.05749547481536865,0.009906649589538574,XArbitraryZVertical,0.183181437870609,0.08107614813956467,-0.01209154723464809,0.9796555624517848,0.1632832884788513,-0.3569487631320953,-0.9197424650192261,0,0,0,-1,-1,2785.09797575,unknown,2,2022-06-30T09:13:10.678+02:00,2022-06-30T08:20:05.567+02:00,833,1.490593,0,0,651.261,0,0,2022-06-30T09:09:38.916+02:00,678265995.7748064,0,-0.96,100.9222,1,0.97
2022-06-30T09:13:15.852+02:00,1656573195.059504,53.2290640287597,10.39857063443437,39.16378,0,0.07,-1,103.9230494294148,4,5,-9999,2790.270890875,0.1098480224609375,-0.4243316650390625,-0.90533447265625,2790.265914875,-0.058234066454245,0.1763999328117805,0.3620994290053551,-0.285315603017807,0.0578249990940094,-0.1646833121776581,-0.04254069924354553,-0.06748437881469727,0.01564455032348633,XArbitraryZVertical,0.1818088041672004,0.08138743023965385,-0.01267158269190291,0.9798780679629976,0.1641071289777756,-0.3542383015155792,-0.9206432700157166,0,0,0,-1,-1,2785.09797575,unknown,2,2022-06-30T09:13:10.678+02:00,2022-06-30T08:20:05.567+02:00,833,1.490593,0,0,651.261,0,0,2022-06-30T09:09:38.916+02:00,678265995.7748064,0,-0.96,100.9222,1,0.97
2022-06-30T09:13:15.862+02:00,1656573195.059504,53.2290640287597,10.39857063443437,39.16378,0,0.07,-1,103.9230494294148,4,5,-9999,2790.280842875,0.0949859619140625,-0.4116363525390625,-0.8994598388671875,2790.275866875,-0.05946929392556217,0.1772976334862982,0.3591510573456654,-0.2664593756198883,0.07124336063861847,-0.1845771223306656,-0.05526934564113617,-0.07285237312316895,0.0161852240562439,XArbitraryZVertical,0.180421709771482,0.08178127369510638,-0.01333130878443564,0.9800929360634126,0.165117010474205,-0.3514795899391174,-0.9215196371078491,0,0,0,-1,-1,2785.09797575,unknown,2,2022-06-30T09:13:10.678+02:00,2022-06-30T08:20:05.567+02:00,833,1.490593,0,0,651.261,0,0,2022-06-30T09:09:38.916+02:00,678265995.7748064,0,-0.96,100.9222,1,0.97
2022-06-30T09:13:15.872+02:00,1656573195.059504,53.2290640287597,10.39857063443437,39.16378,0,0.07,-1,103.9230494294148,4,5,-9999,2790.290794875,0.07830810546875,-0.395843505859375,-0.895782470703125,2790.285818875,-0.0609960523137154,0.178429821191096,0.3564845548392483,-0.2216586023569107,0.07791191339492798,-0.2061018645763397,-0.07134038209915161,-0.06265464425086975,0.02279138565063477,XArbitraryZVertical,0.1791865263190493,0.0822593008729894,-0.01410135817235032,0.9802687519959625,0.1663259863853455,-0.3489819765090942,-0.9222511649131775,0,0,0,-1,-1,2785.09797575,unknown,2,2022-06-30T09:13:10.678+02:00,2022-06-30T08:20:05.567+02:00,833,1.490593,0,0,651.261,0,0,2022-06-30T09:09:38.916+02:00,678265995.7748064,0,-0.96,100.9222,1,0.97
2022-06-30T09:13:15.882+02:00,1656573195.059504,53.2290640287597,10.39857063443437,39.16378,0,0.07,-1,103.9230494294148,4,5,-9999,2790.300746875,0.05377197265625,-0.425994873046875,-0.90325927734375,2790.295770875,-0.06297134584088783,0.1799833170265746,0.3542009448629564,-0.167186513543129,0.0986025333404541,-0.2475892901420593,-0.08959296345710754,-0.04900273680686951,0.02699089050292969,XArbitraryZVertical,0.1781611673447208,0.08289703248383937,-0.01503753671930935,0.9803880459804141,0.1679007261991501,-0.346841037273407,-0.9227733612060547,0,0,0,-1,-1,2785.09797575,unknown,2,2022-06-30T09:13:10.678+02:00,2022-06-30T08:20:05.567+02:00,833,1.490593,0,0,651.261,0,0,2022-06-30T09:09:38.916+02:00,678265995.7748064,0,-0.96,100.9222,1,0.97
2022-06-30T09:13:15.892+02:00,1656573195.059504,53.2290640287597,10.39857063443437,39.16378,0,0.07,-1,103.9230494294148,4,5,-9999,2790.310698875,0.02642822265625,-0.5090484619140625,-0.8946380615234375,2790.305722875,-0.06562713813122571,0.1820502914172359,0.3520387587270682,-0.1833399087190628,0.1294768303632736,-0.326029509305954,-0.1161714792251587,-0.08118289709091187,0.01990050077438354,XArbitraryZVertical,0.1772291387234829,0.08372555665474894,-0.01625802160715674,0.9804670781932581,0.16994309425354,-0.3448122441768646,-0.9231597185134888,0,0,0,-1,-1,2785.09797575,unknown,2,2022-06-30T09:13:10.678+02:00,2022-06-30T08:20:05.567+02:00,833,1.490593,0,0,651.261,0,0,2022-06-30T09:09:38.916+02:00,678265995.7748064,0,-0.96,100.9222,1,0.97
2022-06-30T09:13:15.902+02:00,1656573195.059504,53.2290640287597,10.39857063443437,39.16378,0,0.07,-1,103.9230494294148,4,5,-9999,2790.320650875,-0.0188751220703125,-0.61187744140625,-0.862518310546875,2790.315674875,-0.06926466662005612,0.1848165823582645,0.3491078637266383,-0.2852882742881775,0.1764618903398514,-0.4594761729240417,-0.1462532728910446,-0.1669891178607941,0.0290374755859375,XArbitraryZVertical,0.1759707580991337,0.0848324078708647,-0.01793775613655159,0.9805692504126154,0.172681137919426,-0.3420596122741699,-0.923675537109375,0,0,0,-1,-1,2785.09797575,unknown,2,2022-06-30T09:13:10.678+02:00,2022-06-30T08:20:05.567+02:00,833,1.490593,0,0,651.261,0,0,2022-06-30T09:09:38.916+02:00,678265995.7748064,0,-0.96,100.9222,1,0.97
2022-06-30T09:13:15.912+02:00,1656573195.059504,53.2290640287597,10.39857063443437,39.16378,0,0.07,-1,103.9230494294148,4,5,-9999,2790.330602875,-0.0815582275390625,-0.6584930419921875,-0.836395263671875,2790.325626875,-0.07415391196527463,0.1885739946121246,0.3443186343788492,-0.504479706287384,0.2478897422552109,-0.6276633143424988,-0.1953310966491699,-0.2743223011493683,0.06210047006607056,XArbitraryZVertical,0.1738703265526808,0.08636984603848502,-0.02024095733480249,0.9807648200559176,0.1764556169509888,-0.3375553786754608,-0.9246187210083008,0,0,0,-1,-1,2785.09797575,unknown,2,2022-06-30T09:13:10.678+02:00,2022-06-30T08:20:05.567+02:00,833,1.490593,0,0,651.261,0,0,2022-06-30T09:09:38.916+02:00,678265995.7748064,0,-0.96,100.9222,1,0.97
2022-06-30T09:13:15.922+02:00,1656573195.059504,53.2290640287597,10.39857063443437,39.16378,0,0.07,-1,103.9230494294148,4,5,-9999,2790.340554875,-0.1438446044921875,-0.67242431640625,-0.822509765625,2790.335578875,-0.08025984130751079,0.1936338463757267,0.3365001859807744,-0.8201771378517151,0.3636690080165863,-0.8069174289703369,-0.2631926536560059,-0.328307718038559,0.08988040685653687,XArbitraryZVertical,0.1703623800079868,0.08853723863549294,-0.02319304979142898,0.9811217935690379,0.1816340684890747,-0.33018559217453,-0.9262756109237671,0,0,0,-1,-1,2785.09797575,unknown,2,2022-06-30T09:13:10.678+02:00,2022-06-30T08:20:05.567+02:00,833,1.490593,0,0,651.261,0,0,2022-06-30T09:09:38.916+02:00,678265995.7748064,0,-0.96,100.9222,1,0.97
2022-06-30T09:13:15.932+02:00,1656573195.059504,53.2290640287597,10.39857063443437,39.16378,0,0.07,-1,103.9230494294148,4,5,-9999,2790.350506875,-0.1817169189453125,-0.6898956298828125,-0.8220977783203125,2790.345530875,-0.08743958440797618,0.2003823148696247,0.3250003064590827,-1.194379687309265,0.5241218209266663,-0.9861841201782227,-0.3324691355228424,-0.3531155288219452,0.1061789393424988,XArbitraryZVertical,0.1651347783591058,0.09157603828994956,-0.02674683469866734,0.9816460766523961,0.1886241883039474,-0.3193090856075287,-0.928688645362854,0,0,0,-1,-1,2785.09797575,unknown,2,2022-06-30T09:13:10.678+02:00,2022-06-30T08:20:05.567+02:00,833,1.490593,0,0,651.261,0,0,2022-06-30T09:09:38.916+02:00,678265995.7748064,0,-0.96,100.9222,1,0.97
2022-06-30T09:13:15.942+02:00,1656573195.059504,53.2290640287597,10.39857063443437,39.16378,0,0.07,-1,103.9230494294148,4,5,-9999,2790.360458875,-0.1974029541015625,-0.746185302734375,-0.834564208984375,2790.355482875,-0.09544307792782609,0.2088088500225903,0.3087225420220175,-1.717945337295532,0.6718776226043701,-1.179003238677979,-0.3792116641998291,-0.3860540986061096,0.1099302172660828,XArbitraryZVertical,0.1576500147468615,0.09556408323636933,-0.03087487728524132,0.9823750442660606,0.1974943876266479,-0.3038418292999268,-0.9320279359817505,0,0,0,-1,-1,2785.09797575,unknown,2,2022-06-30T09:13:10.678+02:00,2022-06-30T08:20:05.567+02:00,833,1.490593,0,0,651.261,0,0,2022-06-30T09:09:38.916+02:00,678265995.7748064,0,-0.96,100.9222,1,0.97
2022-06-30T09:13:15.952+02:00,1656573195.059504,53.2290640287597,10.39857063443437,39.16378,0,0.07,-1,103.9230494294148,4,5,-9999,2790.370410875,-0.2055511474609375,-0.8169097900390625,-0.8070068359375,2790.365434875,-0.1041563095412592,0.2188398847297862,0.2861624103314047,-2.375852108001709,0.8346865177154541,-1.428766489028931,-0.405672162771225,-0.4639127850532532,0.1018898487091064,XArbitraryZVertical,0.1471749431479729,0.1005610371268288,-0.03566421652701019,0.9833387284806682,0.2082688808441162,-0.2822727859020233,-0.9364539980888367,0,0,0,-1,-1,2785.09797575,unknown,2,2022-06-30T09:13:10.678+02:00,2022-06-30T08:20:05.567+02:00,833,1.490593,0,0,651.261,0,0,2022-06-30T09:09:38.916+02:00,678265995.7748064,0,-0.96,100.9222,1,0.97
2022-06-30T09:13:15.962+02:00,1656573195.059504,53.2290640287597,10.39857063443437,39.16378,0,0.07,-1,103.9230494294148,4,5,-9999,2790.380362875,-0.194488525390625,-0.7880859375,-0.7984466552734375,2790.375386875,-0.1133598295969451,0.2303802582498797,0.2557739130067972,-3.20097827911377,0.9911856651306152,-1.662808895111084,-0.4264705777168274,-0.5639158487319946,0.1349000930786133,XArbitraryZVertical,0.1329478530277693,0.1066367514445072,-0.041179408994245,0.9845089298985558,0.2209191024303436,-0.2529942095279694,-0.9419069290161133,0,0,0,-1,-1,2785.09797575,unknown,2,2022-06-30T09:13:10.678+02:00,2022-06-30T08:20:05.567+02:00,833,1.490593,0,0,651.261,0,0,2022-06-30T09:09:38.916+02:00,678265995.7748064,0,-0.96,100.9222,1,0.97
2022-06-30T09:13:15.972+02:00,1656573195.059504,53.2290640287597,10.39857063443437,39.16378,0,0.07,-1,103.9230494294148,4,5,-9999,2790.390314875,-0.176971435546875,-0.6895751953125,-0.7928314208984375,2790.385338875,-0.1220496480913045,0.2431453558362217,0.2162318093043895,-4.127462863922119,1.162302851676941,-1.850032567977905,-0.4296389520168304,-0.5735355019569397,0.149536669254303,XArbitraryZVertical,0.1142624906156237,0.1138086497636436,-0.04712165398845809,0.9857846488535993,0.2351501137018204,-0.214550718665123,-0.9479833245277405,0,0,0,-1,-1,2785.09797575,unknown,2,2022-06-30T09:13:10.678+02:00,2022-06-30T08:20:05.567+02:00,833,1.490593,0,0,651.261,0,0,2022-06-30T09:09:38.916+02:00,678265995.7748064,0,-0.96,100.9222,1,0.97
2022-06-30T09:13:15.981+02:00,1656573195.059504,53.2290640287597,10.39857063443437,39.16378,0,0.07,-1,103.9230494294148,4,5,-9999,2790.400266875,-0.14788818359375,-0.5728607177734375,-0.818603515625,2790.395290875,-0.1295761785367713,0.2570736913690298,0.1673468835047172,-5.000219821929932,1.35671055316925,-2.017503023147583,-0.4276714026927948,-0.5230085849761963,0.1607959270477295,XArbitraryZVertical,0.09098237849301175,0.1221004461623613,-0.05329349561662911,0.9869010222202171,0.2506996393203735,-0.1665668785572052,-0.953627347946167,0,0,0,-1,-1,2785.09797575,unknown,2,2022-06-30T09:13:10.678+02:00,2022-06-30T08:20:05.567+02:00,833,1.490593,0,0,651.261,0,0,2022-06-30T09:09:38.916+02:00,678265995.7748064,0,-0.96,100.9222,1,0.97
2022-06-30T09:13:15.991+02:00,1656573195.059504,53.2290640287597,10.39857063443437,39.16378,0,0.07,-1,103.9230494294148,4,5,-9999,2790.410218875,-0.088714599609375,-0.3911285400390625,-0.846221923828125,2790.405242875,-0.1355134944300303,0.2726115555092007,0.11017197308734,-5.785118579864502,1.604604959487915,-2.120740413665771,-0.415503591299057,-0.4629117846488953,0.1386286020278931,XArbitraryZVertical,0.06360834598611712,0.131673507040879,-0.05951082691504814,0.9874587173896767,0.2676150798797607,-0.1099492311477661,-0.9572321176528931,0,0,0,-1,-1,2785.09797575,unknown,2,2022-06-30T09:13:10.678+02:00,2022-06-30T08:20:05.567+02:00,833,1.490593,0,0,651.261,0,0,2022-06-30T09:09:38.916+02:00,678265995.7748064,0,-0.96,100.9222,1,0.97
2022-06-30T09:13:16.001+02:00,1656573195.059504,53.2290640287597,10.39857063443437,39.16378,0,0.07,-1,103.9230494294148,4,5,-9999,2790.420170875,-0.0316162109375,-0.2067718505859375,-0.8919219970703125,2790.415194875,-0.1390576857194877,0.29029120768246,0.04542682027963978,-6.491040229797363,1.893956065177917,-2.170912742614746,-0.3746508955955505,-0.3457176387310028,0.1109501123428345,XArbitraryZVertical,0.03246405869694406,0.1426885758881654,-0.06544761578235798,0.9870677740107893,0.2859359681606293,-0.04541119933128357,-0.9571720957756042,0,0,0,-1,-1,2785.09797575,unknown,2,2022-06-30T09:13:10.678+02:00,2022-06-30T08:20:05.567+02:00,833,1.490593,0,0,651.261,0,0,2022-06-30T09:09:38.916+02:00,678265995.7748064,0,-0.96,100.9222,1,0.97
2022-06-30T09:13:16.011+02:00,1656573195.059504,53.2290640287597,10.39857063443437,39.16378,0,0.07,-1,103.9230494294148,4,5,-9999,2790.430122875,0.05108642578125,-0.0330047607421875,-0.914825439453125,2790.425146875,-0.1397713208593881,0.3105206848730496,-0.02536374104788341,-7.057590484619141,2.163158178329468,-2.162588119506836,-0.3370727002620697,-0.2321331650018692,0.05994623899459839,XArbitraryZVertical,-0.001701138047514774,0.1551223165062928,-0.0709395380026598,0.9853435201593242,0.3054561913013458,0.02536102198064327,-0.9518683552742004,0,0,0,-1,-1,2785.09797575,unknown,2,2022-06-30T09:13:10.678+02:00,2022-06-30T08:20:05.567+02:00,833,1.490593,0,0,651.261,0,0,2022-06-30T09:09:38.916+02:00,678265995.7748064,0,-0.96,100.9222,1,0.97
2022-06-30T09:13:16.021+02:00,1656573195.059504,53.2290640287597,10.39857063443437,39.16378,0,0.07,-1,103.9230494294148,4,5,-9999,2790.440074875,0.135406494140625,0.0790557861328125,-0.937713623046875,2790.435098875,-0.1366997693008717,0.3335007365282047,-0.1011953291868675,-7.581082820892334,2.416027307510376,-2.062514543533325,-0.2745920717716217,-0.1340277642011642,0.02524262666702271,XArbitraryZVertical,-0.03843681434605841,0.1687854536490647,-0.07563810791956958,0.9819944645445549,0.3256781995296478,0.1010227054357529,-0.9400681853294373,0,0,0,-1,-1,2785.09797575,unknown,2,2022-06-30T09:13:10.678+02:00,2022-06-30T08:20:05.567+02:00,833,1.490593,0,0,651.261,0,0,2022-06-30T09:09:38.916+02:00,678265995.7748064,0,-0.96,100.9222,1,0.97
2022-06-30T09:13:16.032+02:00,1656573195.059504,53.2290640287597,10.39857063443437,39.16378,0,0.07,-1,103.9230494294148,4,5,-9999,2790.450026875,0.19610595703125,0.1255950927734375,-0.9217681884765625,2790.445050875,-0.1289421424979407,0.3600935672049904,-0.1810868442173344,-8.038117408752441,2.712924480438232,-1.942389369010925,-0.2111939489841461,-0.1010432541370392,-0.01715266704559326,XArbitraryZVertical,-0.07728339546576125,0.1837027961501996,-0.07928367286461513,0.9767265439593429,0.3466001749038696,0.180098757147789,-0.9205611348152161,0,0,0,-1,-1,2785.09797575,unknown,2,2022-06-30T09:13:10.678+02:00,2022-06-30T08:20:05.567+02:00,833,1.490593,0,0,651.261,0,0,2022-06-30T09:09:38.916+02:00,678265995.7748064,0,-0.96,100.9222,1,0.97
2022-06-30T09:13:16.041+02:00,1656573195.059504,53.2290640287597,10.39857063443437,39.16378,0,0.07,-1,103.9230494294148,4,5,-9999,2790.459978875,0.2613525390625,0.186431884765625,-0.843109130859375,2790.455002875,-0.1157699760975752,0.3916757405103097,-0.264318365646367,-8.474153518676758,3.042370557785034,-1.786834955215454,-0.1723746359348297,-0.1356565356254578,-0.02959686517715454,XArbitraryZVertical,-0.1178801423822434,0.2000463118118213,-0.08185086848243188,0.9692193859701171,0.3684803545475006,0.2612513601779938,-0.8921715021133423,0,0,0,-1,-1,2785.09797575,unknown,2,2022-06-30T09:13:10.678+02:00,2022-06-30T08:20:05.567+02:00,833,1.490593,0,0,651.261,0,0,2022-06-30T09:09:38.916+02:00,678265995.7748064,0,-0.96,100.9222,1,0.97
2022-06-30T09:13:16.051+02:00,1656573195.059504,53.2290640287597,10.39857063443437,39.16378,0,0.07,-1,103.9230494294148,4,5,-9999,2790.469930875,0.32891845703125,0.2994842529296875,-0.726287841796875,2790.464954875,-0.09550267469839642,0.4297337157226547,-0.3503254316979557,-8.924306869506836,3.363529682159424,-1.54686975479126,-0.1299708783626556,-0.1567718684673309,0.01075100898742676,XArbitraryZVertical,-0.1600451428564383,0.2178425212808343,-0.08303663564196048,0.9591845942214511,0.3913231492042542,0.3432034850120544,-0.8538603782653809,0,0,0,-1,-1,2785.09797575,unknown,2,2022-06-30T09:13:10.678+02:00,2022-06-30T08:20:05.567+02:00,833,1.490593,0,0,651.261,0,0,2022-06-30T09:09:38.916+02:00,678265995.7748064,0,-0.96,100.9222,1,0.97
2022-06-30T09:13:16.061+02:00,1656573195.059504,53.2290640287597,10.39857063443437,39.16378,0,0.07,-1,103.9230494294148,4,5,-9999,2790.479882875,0.4082183837890625,0.456451416015625,-0.5960235595703125,2790.474906875,-0.06618265433055413,0.4760826370057218,-0.4380193179106682,-9.288042068481445,3.672824382781982,-1.262055158615112,-0.08611616492271423,-0.1246626079082489,0.07860082387924194,XArbitraryZVertical,-0.2034058595548359,0.2370266116690126,-0.08258681741201454,0.9463740601294857,0.4150343835353851,0.4241465926170349,-0.804888904094696,0,0,0,-1,-1,2785.09797575,unknown,2,2022-06-30T09:13:10.678+02:00,2022-06-30T08:20:05.567+02:00,833,1.490593,0,0,651.261,0,0,2022-06-30T09:09:38.916+02:00,678265995.7748064,0,-0.96,100.9222,1,0.97
2022-06-30T09:13:16.071+02:00,1656573195.059504,53.2290640287597,10.39857063443437,39.16378,0,0.07,-1,103.9230494294148,4,5,-9999,2790.489834875,0.49554443359375,0.63934326171875,-0.4203338623046875,2790.484858875,-0.02581807796056012,0.5326412006706081,-0.5255506843522063,-9.587762832641602,3.918248653411865,-0.9393208622932434,-0.03106215596199036,-0.04523831605911255,0.1491879224777222,XArbitraryZVertical,-0.2473023214591981,0.2573629737955185,-0.08038538869248206,0.9306685859709029,0.4392802715301514,0.5016894340515137,-0.7452117204666138,0,0,0,-1,-1,2785.09797575,unknown,2,2022-06-30T09:13:10.678+02:00,2022-06-30T08:20:05.567+02:00,833,1.490593,0,0,651.261,0,0,2022-06-30T09:09:38.916+02:00,678265995.7748064,0,-0.96,100.9222,1,0.97
2022-06-30T09:13:16.081+02:00,1656573195.059504,53.2290640287597,10.39857063443437,39.16378,0,0.07,-1,103.9230494294148,4,5,-9999,2790.499786875,0.58941650390625,0.7988128662109375,-0.244049072265625,2790.494810875,0.02815466640841217,0.601623840942397,-0.6111138513771661,-9.812358856201172,4.078784465789795,-0.5758894681930542,0.03199964761734009,0.06556302309036255,0.2548717260360718,XArbitraryZVertical,-0.2912654308997346,0.2784986859575517,-0.07630213081733127,0.9120203222177879,0.4635445773601532,0.5737800598144531,-0.6752058863639832,0,0,0,-1,-1,2785.09797575,unknown,2,2022-06-30T09:13:10.678+02:00,2022-06-30T08:20:05.567+02:00,833,1.490593,0,0,651.261,0,0,2022-06-30T09:09:38.916+02:00,678265995.7748064,0,-0.96,100.9222,1,0.97
2022-06-30T09:13:16.091+02:00,1656573195.059504,53.2290640287597,10.39857063443437,39.16378,0,0.07,-1,103.9230494294148,4,5,-9999,2790.509738875,0.6609649658203125,0.896453857421875,-0.098785400390625,2790.504762875,0.09827367131478422,0.6854921701687321,-0.6921022172125745,-9.911632537841797,4.201423168182373,-0.2278984785079956,0.1020240485668182,0.1606556177139282,0.3519408106803894,XArbitraryZVertical,-0.3345999204514672,0.3000796413525082,-0.07033627923802094,0.8905323848352465,0.487392246723175,0.6381571292877197,-0.5959901809692383,0,0,0,-1,-1,2785.09797575,unknown,2,2022-06-30T09:13:10.678+02:00,2022-06-30T08:20:05.567+02:00,833,1.490593,0,0,651.261,0,0,2022-06-30T09:09:38.916+02:00,678265995.7748064,0,-0.96,100.9222,1,0.97
2022-06-30T09:13:16.101+02:00,1656573195.059504,53.2290640287597,10.39857063443437,39.16378,0,0.07,-1,103.9230494294148,4,5,-9999,2790.519690875,0.7172698974609375,0.928131103515625,0.012420654296875,2790.514714875,0.1858457278787744,0.7861703566342644,-0.765597169385943,-9.814699172973633,4.282025337219238,0.05007439106702805,0.1507694125175476,0.2034860849380493,0.4106222987174988,XArbitraryZVertical,-0.3765113983413462,0.3217687850469554,-0.06294639002885348,0.8664535768411148,0.5101953744888306,0.6929676532745361,-0.5094080567359924,0,0,0,-1,-1,2785.09797575,unknown,2,2022-06-30T09:13:10.678+02:00,2022-06-30T08:20:05.567+02:00,833,1.490593,0,0,651.261,0,0,2022-06-30T09:09:38.916+02:00,678265995.7748064,0,-0.96,100.9222,1,0.97
2022-06-30T09:13:16.111+02:00,1656573195.059504,53.2290640287597,10.39857063443437,39.16378,0,0.07,-1,103.9230494294148,4,5,-9999,2790.529642875,0.7362518310546875,0.907196044921875,0.15362548828125,2790.524666875,0.2902485047718827,0.9037101313740792,-0.8281168497060323,-9.445376396179199,4.314181327819824,0.2924260497093201,0.1859777569770813,0.1914718747138977,0.4308246374130249,XArbitraryZVertical,-0.4159532445079926,0.3431919625483481,-0.05471648667656259,0.8403620638462399,0.5312920212745667,0.7366591691970825,-0.4184043407440186,0,0,0,-1,-1,2785.09797575,unknown,2,2022-06-30T09:13:10.678+02:00,2022-06-30T08:20:05.567+02:00,833,1.490593,0,0,651.261,0,0,2022-06-30T09:09:38.916+02:00,678265995.7748064,0,-0.96,100.9222,1,0.97
2022-06-30T09:13:16.121+02:00,1656573196.060708,53.2290640287597,10.39857063443437,39.36422,0,0.07,-1,103.9230494294148,4,5,-9999,2790.539593875,0.7320404052734375,1.009902954101562,0.3472900390625,2790.534617875,0.4030387991313228,1.031361231427177,-0.8746967895053024,-8.193272590637207,4.260391712188721,0.4632721543312073,0.186077356338501,0.1398469209671021,0.4829936027526855,XArbitraryZVertical,-0.4504176956053805,0.3639225986890766,-0.04689223996571792,0.8139320740307967,0.550174355506897,0.7673491239547729,-0.3293684720993042,0,0,0,-1,-1,2785.09797575,unknown,2,2022-06-30T09:13:10.678+02:00,2022-06-30T08:20:05.567+02:00,833,1.490593,0,0,651.261,0,0,2022-06-30T09:09:38.916+02:00,678265995.7748064,0,-0.96,100.9222,1,0.97
2022-06-30T09:13:16.131+02:00,1656573196.060708,53.2290640287597,10.39857063443437,39.36422,0,0.07,-1,103.9230494294148,4,5,-9999,2790.549545875,0.7673492431640625,1.19720458984375,0.5517578125,2790.544569875,0.5145874196763195,1.159477584179772,-0.9051017831568061,-7.141105651855469,4.048393726348877,0.5779057741165161,0.1659464836120605,0.2234148979187012,0.5942196846008301,XArbitraryZVertical,-0.4791377600606518,0.383356195068786,-0.04019303758542875,0.7885743766652064,0.5660937428474426,0.7864879965782166,-0.2469300627708435,0,0,0,-1,-1,2785.09797575,unknown,2,2022-06-30T09:13:10.678+02:00,2022-06-30T08:20:05.567+02:00,833,1.490593,0,0,651.261,0,0,2022-06-30T09:09:38.916+02:00,678265995.7748064,0,-0.96,100.9222,1,0.97
2022-06-30T09:13:16.144+02:00,1656573196.060708,53.2290640287597,10.39857063443437,39.36422,0,0.07,-1,103.9230494294148,4,5,-9999,2790.559497875,0.8496246337890625,1.165679931640625,0.6419677734375,2790.554521875,0.6180106369340013,1.280144030910308,-0.9214515229228246,-5.910212993621826,3.771898984909058,0.7384206056594849,0.188045859336853,0.4007243514060974,0.7250405550003052,XArbitraryZVertical,-0.5023946228405654,0.4011958295070527,-0.03448058664846407,0.7651487230960452,0.5793032050132751,0.796480119228363,-0.1732831001281738,0,0,0,-1,-1,2785.09797575,unknown,2,2022-06-30T09:13:10.678+02:00,2022-06-30T08:20:05.567+02:00,833,1.490593,0,0,651.261,0,0,2022-06-30T09:09:38.916+02:00,678265995.7748064,0,-0.96,100.9222,1,0.97
2022-06-30T09:13:16.154+02:00,1656573196.060708,53.2290640287597,10.39857063443437,39.36422,0,0.07,-1,103.9230494294148,4,5,-9999,2790.569449875,0.912567138671875,1.015792846679688,0.76702880859375,2790.564473875,0.708357406244788,1.387453765450828,-0.9260752899528093,-4.986588478088379,3.292844533920288,0.9166526198387146,0.2587215304374695,0.3664124608039856,0.7515355348587036,XArbitraryZVertical,-0.5205207864650638,0.417461443304728,-0.02929599259385979,0.7442618753247577,0.5909029245376587,0.7992674708366394,-0.1095681115984917,0,0,0,-1,-1,2785.09797575,unknown,2,2022-06-30T09:13:10.678+02:00,2022-06-30T08:20:05.567+02:00,833,1.490593,0,0,651.261,0,0,2022-06-30T09:09:38.916+02:00,678265995.7748064,0,-0.96,100.9222,1,0.97
2022-06-30T09:13:16.160+02:00,1656573196.060708,53.2290640287597,10.39857063443437,39.36422,0,0.07,-1,103.9230494294148,4,5,-9999,2790.579401875,0.9128570556640625,0.787322998046875,0.893341064453125,2790.574425875,0.7865278972569532,1.480087509131746,-0.9227695799247606,-4.3243088722229,2.780502796173096,1.027533888816833,0.311434268951416,0.2185164093971252,0.8217065334320068,XArbitraryZVertical,-0.5350329030000665,0.4317415297775873,-0.0238982604253413,0.7257877847250688,0.6011327505111694,0.7972764372825623,-0.05467808991670609,0,0,0,-1,-1,2785.09797575,unknown,2,2022-06-30T09:13:10.678+02:00,2022-06-30T08:20:05.567+02:00,833,1.490593,0,0,651.261,0,0,2022-06-30T09:09:38.916+02:00,678265995.7748064,0,-0.96,100.9222,1,0.97
2022-06-30T09:13:16.171+02:00,1656573196.060708,53.2290640287597,10.39857063443437,39.36422,0,0.07,-1,103.9230494294148,4,5,-9999,2790.589353875,0.8450927734375,0.6205596923828125,1.089599609375,2790.584377875,0.85242761444718,1.557629688505155,-0.9141556418267491,-3.58344578742981,2.266265869140625,1.094796776771545,0.3024502992630005,-0.004724383354187012,0.9013781547546387,XArbitraryZVertical,-0.5466065276083124,0.4440749596417188,-0.01822261686444067,0.7097088745465214,0.6104066967964172,0.7920474410057068,-0.008037468418478966,0,0,0,-1,-1,2785.09797575,unknown,2,2022-06-30T09:13:10.678+02:00,2022-06-30T08:20:05.567+02:00,833,1.490593,0,0,651.261,0,0,2022-06-30T09:09:38.916+02:00,678265995.7748064,0,-0.96,100.9222,1,0.97
2022-06-30T09:13:16.180+02:00,1656573196.060708,53.2290640287597,10.39857063443437,39.36422,0,0.07,-1,103.9230494294148,4,5,-9999,2790.599305875,0.8137664794921875,0.66973876953125,1.275115966796875,2790.594329875,0.9037090023690927,1.617894825277863,-0.9033621865953051,-2.781028270721436,1.69099235534668,0.950907289981842,0.2268062233924866,-0.1648526787757874,1.060457348823547,XArbitraryZVertical,-0.555295220266426,0.4541125146502331,-0.01295652796202645,0.6966069359979933,0.6182864308357239,0.7854124307632446,0.02914191596210003,0,0,0,-1,-1,2785.09797575,unknown,2,2022-06-30T09:13:10.678+02:00,2022-06-30T08:20:05.567+02:00,833,1.490593,0,0,651.261,0,0,2022-06-30T09:09:38.916+02:00,678265995.7748064,0,-0.96,100.9222,1,0.97
2022-06-30T09:13:16.190+02:00,1656573196.060708,53.2290640287597,10.39857063443437,39.36422,0,0.07,-1,103.9230494294148,4,5,-9999,2790.609257875,0.8545379638671875,0.6893463134765625,1.2359619140625,2790.604281875,0.9395924557599137,1.659005102196922,-0.8932084522063931,-1.825951218605042,0.9047957062721252,0.7839145660400391,0.1892882585525513,-0.1093484163284302,1.219887852668762,XArbitraryZVertical,-0.5612071149158473,0.461151228390162,-0.008354073922416577,0.6872526910418776,0.6244781017303467,0.7790871858596802,0.05522776395082474,0,0,0,-1,-1,2785.09797575,unknown,2,2022-06-30T09:13:10.678+02:00,2022-06-30T08:20:05.567+02:00,833,1.490593,0,0,651.261,0,0,2022-06-30T09:09:38.916+02:00,678265995.7748064,0,-0.96,100.9222,1,0.97
2022-06-30T09:13:16.200+02:00,1656573196.060708,53.2290640287597,10.39857063443437,39.36422,0,0.07,-1,103.9230494294148,4,5,-9999,2790.619209875,0.8207550048828125,0.6466217041015625,1.280593872070312,2790.614233875,0.9585226751706059,1.678400815675686,-0.8850612085330214,-0.6879207491874695,0.04975225776433945,0.6070270538330078,0.2249581217765808,-0.08460730314254761,1.167953252792358,XArbitraryZVertical,-0.5639232350038579,0.464752338441787,-0.004365245446164364,0.6826250317017615,0.6295798420906067,0.7739537358283997,0.06800830364227295,0,0,0,-1,-1,2785.09797575,unknown,2,2022-06-30T09:13:10.678+02:00,2022-06-30T08:20:05.567+02:00,833,1.490593,0,0,651.261,0,0,2022-06-30T09:09:38.916+02:00,678265995.7748064,0,-0.96,100.9222,1,0.97
2022-06-30T09:13:16.210+02:00,1656573196.060708,53.2290640287597,10.39857063443437,39.36422,0,0.07,-1,103.9230494294148,4,5,-9999,2790.629161875,0.7772979736328125,0.6820831298828125,1.562896728515625,2790.624185875,0.9614826578737999,1.67696133993515,-0.87990790204904,0.06896989047527313,-0.8148073554039001,0.3771733641624451,0.1871203184127808,-0.1240582466125488,1.213069796562195,XArbitraryZVertical,-0.5636099415237075,0.4648716945245694,-0.001072177698762485,0.6828156216579242,0.6336347460746765,0.7706801891326904,0.06752371788024902,0,0,0,-1,-1,2785.09797575,unknown,2,2022-06-30T09:13:10.678+02:00,2022-06-30T08:20:05.567+02:00,833,1.490593,0,0,651.261,0,0,2022-06-30T09:09:38.916+02:00,678265995.7748064,0,-0.96,100.9222,1,0.97
2022-06-30T09:13:16.220+02:00,1656573196.060708,53.2290640287597,10.39857063443437,39.36422,0,0.07,-1,103.9230494294148,4,5,-9999,2790.639113875,0.6737823486328125,0.6380767822265625,1.872024536132812,2790.634137875,0.9609376567410949,1.663965390637739,-0.8770614516944135,-0.1668965518474579,-1.697893857955933,0.2058874219655991,0.140657901763916,-0.0867801308631897,1.503409028053284,XArbitraryZVertical,-0.5629171518889236,0.4613761686903597,0.003435989726450363,0.6857437364013608,0.6366400122642517,0.7688632607460022,0.05948737636208534,0,0,0,-1,-1,2785.09797575,unknown,2,2022-06-30T09:13:10.678+02:00,2022-06-30T08:20:05.567+02:00,833,1.490593,0,0,651.261,0,0,2022-06-30T09:09:38.916+02:00,678265995.7748064,0,-0.96,100.9222,1,0.97
2022-06-30T09:13:16.230+02:00,1656573196.060708,53.2290640287597,10.39857063443437,39.36422,0,0.07,-1,103.9230494294148,4,5,-9999,2790.649065625,0.5463409423828125,0.69842529296875,2.350738525390625,2790.644089625,0.9701578380432155,1.650616414092259,-0.8757450114963914,-1.112994909286499,-2.404754161834717,-0.05429462343454361,0.0353962779045105,-0.1299439072608948,1.820959687232971,XArbitraryZVertical,-0.5647195096640035,0.454559276039657,0.01084427123236118,0.6887309133651097,0.6383860111236572,0.7680208683013916,0.05106452107429504,0,0,0,-1,-1,2785.09797575,unknown,2,2022-06-30T09:13:10.678+02:00,2022-06-30T08:20:05.567+02:00,833,1.490593,0,0,651.261,0,0,2022-06-30T09:09:38.916+02:00,678265995.7748064,0,-0.96,100.9222,1,0.97
2022-06-30T09:13:16.240+02:00,1656573196.060708,53.2290640287597,10.39857063443437,39.36422,0,0.07,-1,103.9230494294148,4,5,-9999,2790.659017625,0.5423583984375,0.8704986572265625,2.764007568359375,2790.654041625,0.9982842685204028,1.643660979139776,-0.8756263722438427,-2.50952672958374,-3.383389949798584,-0.1634893268346786,-0.09247571229934692,-0.06951940059661865,2.304108619689941,XArbitraryZVertical,-0.5709578831642454,0.4442093476325629,0.022557223262621,0.6900553756899245,0.6388165354728699,0.767944872379303,0.04662969708442688,0,0,0,-1,-1,2785.09797575,unknown,2,2022-06-30T09:13:10.678+02:00,2022-06-30T08:20:05.567+02:00,833,1.490593,0,0,651.261,0,0,2022-06-30T09:09:38.916+02:00,678265995.7748064,0,-0.96,100.9222,1,0.97
2022-06-30T09:13:16.250+02:00,1656573196.060708,53.2290640287597,10.39857063443437,39.36422,0,0.07,-1,103.9230494294148,4,5,-9999,2790.668969625,0.53955078125,0.783050537109375,2.922561645507812,2790.663993625,1.043782629879084,1.638913236914268,-0.8761318634384306,-3.143638372421265,-4.597183704376221,-0.4201400279998779,-0.09628492593765259,0.1022301912307739,2.720437288284302,XArbitraryZVertical,-0.5809186675425627,0.4293231949008404,0.03944560968226026,0.6904050485017441,0.638643205165863,0.7682685256004333,0.04356980696320534,0,0,0,-1,-1,2785.09797575,unknown,2,2022-06-30T09:13:10.678+02:00,2022-06-30T08:20:05.567+02:00,833,1.490593,0,0,651.261,0,0,2022-06-30T09:09:38.916+02:00,678265995.7748064,0,-0.96,100.9222,1,0.97
2022-06-30T09:13:16.261+02:00,1656573196.060708,53.2290640287597,10.39857063443437,39.36422,0,0.07,-1,103.9230494294148,4,5,-9999,2790.678921625,0.65093994140625,0.616058349609375,2.914718627929688,2790.673945625,1.092574792707677,1.623097474860789,-0.8813448960009467,-3.052671909332275,-6.197885513305664,-0.9992209672927856,-0.09569364786148071,0.01145553588867188,2.889307022094727,XArbitraryZVertical,-0.591724755392622,0.408030610617153,0.05909032795572111,0.6927345876227178,0.6352442502975464,0.7715950608253479,0.03325432911515236,0,0,0,-1,-1,2785.09797575,unknown,2,2022-06-30T09:13:10.678+02:00,2022-06-30T08:20:05.567+02:00,833,1.490593,0,0,651.261,0,0,2022-06-30T09:09:38.916+02:00,678265995.7748064,0,-0.96,100.9222,1,0.97
2022-06-30T09:13:16.270+02:00,1656573196.060708,53.2290640287597,10.39857063443437,39.36422,0,0.07,-1,103.9230494294148,4,5,-9999,2790.688873625,0.5850372314453125,0.428802490234375,2.417572021484375,2790.683897625,1.139591867708412,1.588708142337292,-0.8920776167998818,-2.784134149551392,-8.003754615783691,-1.354096531867981,0.02324420213699341,-0.1623193025588989,2.903473854064941,XArbitraryZVertical,-0.6017422940422416,0.3788514166213987,0.08190050113675482,0.6983338187722814,0.6276955008506775,0.7783777713775635,0.01124436873942614,0,0,0,-1,-1,2785.09797575,unknown,2,2022-06-30T09:13:10.678+02:00,2022-06-30T08:20:05.567+02:00,833,1.490593,0,0,651.261,0,0,2022-06-30T09:09:38.916+02:00,678265995.7748064,0,-0.96,100.9222,1,0.97
2022-06-30T09:13:16.280+02:00,1656573196.060708,53.2290640287597,10.39857063443437,39.36422,0,0.07,-1,103.9230494294148,4,5,-9999,2790.698825625,0.254486083984375,0.5814971923828125,2.00189208984375,2790.693849625,1.178937286825428,1.532607106267651,-0.9067789821473338,-2.17402720451355,-9.419010162353516,-1.535417795181274,-0.03079944849014282,-0.3587200045585632,2.441101551055908,XArbitraryZVertical,-0.6088894922922702,0.342766257167695,0.1075713111687713,0.7072435999313695,0.6158365607261658,0.7875227332115173,-0.02352975867688656,0,0,0,-1,-1,2785.09797575,unknown,2,2022-06-30T09:13:10.678+02:00,2022-06-30T08:20:05.567+02:00,833,1.490593,0,0,651.261,0,0,2022-06-30T09:09:38.916+02:00,678265995.7748064,0,-0.96,100.9222,1,0.97
2022-06-30T09:13:16.290+02:00,1656573196.060708,53.2290640287597,10.39857063443437,39.36422,0,0.07,-1,103.9230494294148,4,5,-9999,2790.708777625,-0.2436981201171875,1.06396484375,1.052474975585938,2790.703801625,1.208783884794695,1.457528418041787,-0.9230473986603361,-1.696637630462646,-10.31165218353271,-1.415075659751892,-0.3450404405593872,-0.2159467935562134,2.070090770721436,XArbitraryZVertical,-0.612191544045508,0.3018642367804024,0.1355493882360375,0.7181405332100205,0.5995262861251831,0.7974441051483154,-0.06819899380207062,0,0,0,-1,-1,2785.09797575,unknown,2,2022-06-30T09:13:10.678+02:00,2022-06-30T08:20:05.567+02:00,833,1.490593,0,0,651.261,0,0,2022-06-30T09:09:38.916+02:00,678265995.7748064,0,-0.96,100.9222,1,0.97
2022-06-30T09:13:16.300+02:00,1656573196.060708,53.2290640287597,10.39857063443437,39.36422,0,0.07,-1,103.9230494294148,4,5,-9999,2790.718729625,-0.9073944091796875,1.412429809570312,2.159866333007812,2790.713753625,1.22900025272717,1.37033254696267,-0.9375677043963179,-1.134724378585815,-10.39311695098877,-1.095757484436035,-0.8235986232757568,0.2578437328338623,1.170306324958801,XArbitraryZVertical,-0.6113201006412895,0.259561026720334,0.1646703937939622,0.7292457799526038,0.5799002051353455,0.8061211705207825,-0.1178316175937653,0,0,0,-1,-1,2785.09797575,unknown,2,2022-06-30T09:13:10.678+02:00,2022-06-30T08:20:05.567+02:00,833,1.490593,0,0,651.261,0,0,2022-06-30T09:09:38.916+02:00,678265995.7748064,0,-0.96,100.9222,1,0.97
2022-06-30T09:13:16.310+02:00,1656573196.060708,53.2290640287597,10.39857063443437,39.36422,0,0.07,-1,103.9230494294148,4,5,-9999,2790.728681625,-6.316070556640625,4.416046142578125,-19.41700744628906,2790.723705625,1.275415566782195,1.372210718373882,-0.9503479883629687,-6.712011337280273,2.318223714828491,0.1203542500734329,-1.477368354797363,0.5988121032714844,2.274566411972046,XArbitraryZVertical,-0.6197912880876056,0.2418855257644594,0.1767336468719597,0.7253381210332676,0.5699735283851624,0.8136178851127625,-0.1147003024816513,0,0,0,-1,-1,2785.09797575,unknown,2,2022-06-30T09:13:10.678+02:00,2022-06-30T08:20:05.567+02:00,833,1.490593,0,0,651.261,0,0,2022-06-30T09:09:38.916+02:00,678265995.7748064,0,-0.96,100.9222,1,0.97
2022-06-30T09:13:16.320+02:00,1656573196.060708,53.2290640287597,10.39857063443437,39.36422,0,0.07,-1,103.9230494294148,4,5,-9999,2790.738633625,-1.769058227539062,5.216812133789062,-8.845245361328125,2790.733657625,1.326414360357234,1.45746068769463,-0.9330079493169173,1.140645623207092,3.659954309463501,3.353857040405273,-6.907670974731445,3.612631797790527,-19.34967041015625,XArbitraryZVertical,-0.630575366686508,0.2621177742329615,0.1741888335619167,0.7094556749512242,0.591600239276886,0.8034145832061768,-0.06733796000480652,0,0,0,-1,-1,2785.09797575,unknown,2,2022-06-30T09:13:10.678+02:00,2022-06-30T08:20:05.567+02:00,833,1.490593,0,0,651.261,0,0,2022-06-30T09:09:38.916+02:00,678265995.7748064,0,-0.96,100.9222,1,0.97
2022-06-30T09:13:16.330+02:00,1656573196.060708,53.2290640287597,10.39857063443437,39.36422,0,0.07,-1,103.9230494294148,4,5,-9999,2790.748585625,-1.08782958984375,2.447509765625,-1.756195068359375,2790.743609625,1.290094671410893,1.440937892773939,-0.9088096208041259,3.3903648853302,0.5679417252540588,0.9957820177078247,-2.378568172454834,4.42803955078125,-8.765647888183594,XArbitraryZVertical,-0.619981689520716,0.2753611263192901,0.1745840981648575,0.7136661881310522,0.6095097661018372,0.7887725830078125,-0.07959791272878647,0,0,0,-1,-1,2785.09797575,unknown,2,2022-06-30T09:13:10.678+02:00,2022-06-30T08:20:05.567+02:00,833,1.490593,0,0,651.261,0,0,2022-06-30T09:09:38.916+02:00,678265995.7748064,0,-0.96,100.9222,1,0.97
2022-06-30T09:13:16.340+02:00,1656573196.060708,53.2290640287597,10.39857063443437,39.36422,0,0.07,-1,103.9230494294148,4,5,-9999,2790.758537625,0.5433197021484375,0.5858306884765625,2.634780883789062,2790.753561625,1.232520887068829,1.410304571298707,-0.8912582278134594,3.942874908447266,2.7259681224823,1.643328428268433,-1.708187580108643,1.669646859169006,-1.655769348144531,XArbitraryZVertical,-0.6058886684761086,0.2875515671485168,0.1691822998489835,0.722212175581841,0.6203577518463135,0.777863085269928,-0.1004260331392288,0,0,0,-1,-1,2785.09797575,unknown,2,2022-06-30T09:13:10.678+02:00,2022-06-30T08:20:05.567+02:00,833,1.490593,0,0,651.261,0,0,2022-06-30T09:09:38.916+02:00,678265995.7748064,0,-0.96,100.9222,1,0.97
2022-06-30T09:13:16.350+02:00,1656573196.060708,53.2290640287597,10.39857063443437,39.36422,0,0.07,-1,103.9230494294148,4,5,-9999,2790.768489625,1.790664672851562,-0.619598388671875,2.535125732421875,2790.763513625,1.199805149440921,1.41410047631086,-0.870512144681757,0.4830559492111206,2.482377290725708,1.604730129241943,-0.09322017431259155,-0.1788281798362732,2.735348224639893,XArbitraryZVertical,-0.5971353766107566,0.3051975648696757,0.1631342985895947,0.7236511990940308,0.6365396976470947,0.7646591067314148,-0.1005675792694092,0,0,0,-1,-1,2785.09797575,unknown,2,2022-06-30T09:13:10.678+02:00,2022-06-30T08:20:05.567+02:00,833,1.490593,0,0,651.261,0,0,2022-06-30T09:09:38.916+02:00,678265995.7748064,0,-0.96,100.9222,1,0.97
2022-06-30T09:13:16.360+02:00,1656573196.060708,53.2290640287597,10.39857063443437,39.36422,0,0.07,-1,103.9230494294148,4,5,-9999,2790.778441625,2.052078247070312,-1.773956298828125,-0.00079345703125,2790.773465625,1.211183033631319,1.42880227471993,-0.8594733886693326,-1.084031701087952,-0.8855558037757874,0.5538172721862793,1.144398212432861,-1.377097129821777,2.62751317024231,XArbitraryZVertical,-0.5978253629092214,0.3105011667185215,0.1665359723532474,0.7200414683885843,0.6462662816047668,0.7574988603591919,-0.09238772094249725,0,0,0,-1,-1,2785.09797575,unknown,2,2022-06-30T09:13:10.678+02:00,2022-06-30T08:20:05.567+02:00,833,1.490593,0,0,651.261,0,0,2022-06-30T09:09:38.916+02:00,678265995.7748064,0,-0.96,100.9222,1,0.97
2022-06-30T09:13:16.370+02:00,1656573196.060708,53.2290640287597,10.39857063443437,39.36422,0,0.07,-1,103.9230494294148,4,5,-9999,2790.788393625,0.463165283203125,-0.0715789794921875,-0.45697021484375,2790.783417625,1.226582658690884,1.42784731254311,-0.8622293536316226,-1.007129669189453,-1.291239619255066,-0.6699896454811096,1.407969117164612,-2.533251285552979,0.09191334247589111,XArbitraryZVertical,-0.600673501791347,0.3046929805571387,0.1714410169466101,0.7190003709130719,0.6441088914871216,0.7592951655387878,-0.09270706027746201,0,0,0,-1,-1,2785.09797575,unknown,2,2022-06-30T09:13:10.678+02:00,2022-06-30T08:20:05.567+02:00,833,1.490593,0,0,651.261,0,0,2022-06-30T09:09:38.916+02:00,678265995.7748064,0,-0.96,100.9222,1,0.97
2022-06-30T09:13:16.380+02:00,1656573196.060708,53.2290640287597,10.39857063443437,39.36422,0,0.07,-1,103.9230494294148,4,5,-9999,2790.798345625,0.139312744140625,0.8948974609375,-0.2918701171875,2790.793369625,1.232301819984996,1.419701421902104,-0.8685647991111601,0.2778613865375519,-1.179692506790161,-0.4789456129074097,-0.1753986477851868,-0.8349815607070923,-0.3597457408905029,XArbitraryZVertical,-0.6021105216588446,0.2980781118197577,0.1738331628962421,0.7199960682246807,0.6385636925697327,0.7634027004241943,-0.09722471982240677,0,0,0,-1,-1,2785.09797575,unknown,2,2022-06-30T09:13:10.678+02:00,2022-06-30T08:20:05.567+02:00,833,1.490593,0,0,651.261,0,0,2022-06-30T09:09:38.916+02:00,678265995.7748064,0,-0.96,100.9222,1,0.97
2022-06-30T09:13:16.389+02:00,1656573196.060708,53.2290640287597,10.39857063443437,39.36422,0,0.07,-1,103.9230494294148,4,5,-9999,2790.808297625,0.3120880126953125,0.9515380859375,-0.35577392578125,2790.803321625,1.210383916448792,1.388412170205646,-0.8714496486274173,2.483477830886841,-1.698691964149475,-0.6797251105308533,-0.4937288761138916,0.1296347975730896,-0.1751161813735962,XArbitraryZVertical,-0.5967441679524416,0.2924368540724256,0.1743259615807543,0.7266276100001338,0.6330413818359375,0.7652629017829895,-0.1167541667819023,0,0,0,-1,-1,2785.09797575,unknown,2,2022-06-30T09:13:10.678+02:00,2022-06-30T08:20:05.567+02:00,833,1.490593,0,0,651.261,0,0,2022-06-30T09:09:38.916+02:00,678265995.7748064,0,-0.96,100.9222,1,0.97
2022-06-30T09:13:16.399+02:00,1656573196.060708,53.2290640287597,10.39857063443437,39.36422,0,0.07,-1,103.9230494294148,4,5,-9999,2790.818249625,0.6352386474609375,0.9940643310546875,-0.862945556640625,2790.813273625,1.155410498259173,1.328073064530815,-0.8721109524285686,4.193398952484131,-1.803045749664307,-0.9262784123420715,-0.3122696280479431,0.1858498454093933,-0.2011802196502686,XArbitraryZVertical,-0.5837104371645165,0.2863304427835486,0.171756565442142,0.7401329863790296,0.6243574023246765,0.765688419342041,-0.1545940041542053,0,0,0,-1,-1,2785.09797575,unknown,2,2022-06-30T09:13:10.678+02:00,2022-06-30T08:20:05.567+02:00,833,1.490593,0,0,651.261,0,0,2022-06-30T09:09:38.916+02:00,678265995.7748064,0,-0.96,100.9222,1,0.97
2022-06-30T09:13:16.409+02:00,1656573196.060708,53.2290640287597,10.39857063443437,39.36422,0,0.07,-1,103.9230494294148,4,5,-9999,2790.828201625,0.7545013427734375,0.881683349609375,-1.005950927734375,2790.823225625,1.094126423997636,1.266539264453961,-0.8693482516995019,3.416432619094849,-1.030752539634705,-0.6605146527290344,0.01955372095108032,0.2301559448242188,-0.6696166396141052,XArbitraryZVertical,-0.5691256306387722,0.2818357935470093,0.1674848926140577,0.7540646029115174,0.6156846880912781,0.7639085054397583,-0.1933292001485825,0,0,0,-1,-1,2785.09797575,unknown,2,2022-06-30T09:13:10.678+02:00,2022-06-30T08:20:05.567+02:00,833,1.490593,0,0,651.261,0,0,2022-06-30T09:09:38.916+02:00,678265995.7748064,0,-0.96,100.9222,1,0.97
2022-06-30T09:13:16.419+02:00,1656573196.060708,53.2290640287597,10.39857063443437,39.36422,0,0.07,-1,103.9230494294148,4,5,-9999,2790.838153625,0.733154296875,0.66064453125,-0.7448272705078125,2790.833177625,1.049763296864225,1.22635748780584,-0.8659813720287626,2.277241706848145,-0.2968503832817078,-0.6045421361923218,0.144662082195282,0.1199520230293274,-0.7871781587600708,XArbitraryZVertical,-0.5587161512213891,0.280088803812456,0.1630440909876575,0.7634154670985033,0.6098389625549316,0.7617314457893372,-0.2187730520963669,0,0,0,-1,-1,2785.09797575,unknown,2,2022-06-30T09:13:10.678+02:00,2022-06-30T08:20:05.567+02:00,833,1.490593,0,0,651.261,0,0,2022-06-30T09:09:38.916+02:00,678265995.7748064,0,-0.96,100.9222,1,0.97
2022-06-30T09:13:16.429+02:00,1656573196.060708,53.2290640287597,10.39857063443437,39.36422,0,0.07,-1,103.9230494294148,4,5,-9999,2790.848105625,0.8219451904296875,0.883697509765625,-0.0866851806640625,2790.843129625,1.021724223209083,1.203872852931061,-0.865096864771402,1.18382740020752,0.04072336480021477,-0.4653589427471161,0.1277590394020081,-0.1005133986473083,-0.5121572613716125,XArbitraryZVertical,-0.5527497817689772,0.2795219876012018,0.1588255333109187,0.7688366200913448,0.6053950190544128,0.7611581087112427,-0.2326702773571014,0,0,0,-1,-1,2785.09797575,unknown,2,2022-06-30T09:13:10.678+02:00,2022-06-30T08:20:05.567+02:00,833,1.490593,0,0,651.261,0,0,2022-06-30T09:09:38.916+02:00,678265995.7748064,0,-0.96,100.9222,1,0.97
2022-06-30T09:13:16.440+02:00,1656573196.060708,53.2290640287597,10.39857063443437,39.36422,0,0.07,-1,103.9230494294148,4,5,-9999,2790.858057625,0.761505126953125,1.011138916015625,0.1993560791015625,2790.853081625,1.010092775906021,1.196434706344724,-0.8655719969116944,0.3023009300231934,0.2413968741893768,-0.2117514610290527,0.2186340093612671,0.1222314834594727,0.1503490805625916,XArbitraryZVertical,-0.5506658026387186,0.2797318540812132,0.1562539635385996,0.7707801873976896,0.6033109426498413,0.7614661455154419,-0.2370345294475555,0,0,0,-1,-1,2785.09797575,unknown,2,2022-06-30T09:13:10.678+02:00,2022-06-30T08:20:05.567+02:00,833,1.490593,0,0,651.261,0,0,2022-06-30T09:09:38.916+02:00,678265995.7748064,0,-0.96,100.9222,1,0.97
2022-06-30T09:13:16.449+02:00,1656573196.060708,53.2290640287597,10.39857063443437,39.36422,0,0.07,-1,103.9230494294148,4,5,-9999,2790.868009625,0.733062744140625,1.026580810546875,0.2952117919921875,2790.863033625,1.005485318812665,1.195820586496841,-0.8666993060766232,0.224034920334816,0.3077149093151093,-0.2382901310920715,0.1591388583183289,0.2489426136016846,0.4364461898803711,XArbitraryZVertical,-0.5502788964495245,0.2804424218489945,0.1543001415012255,0.7711916798290549,0.6023659706115723,0.76219642162323,-0.2370903640985489,0,0,0,-1,-1,2785.09797575,unknown,2,2022-06-30T09:13:10.678+02:00,2022-06-30T08:20:05.567+02:00,833,1.490593,0,0,651.261,0,0,2022-06-30T09:09:38.916+02:00,678265995.7748064,0,-0.96,100.9222,1,0.97
2022-06-30T09:13:16.459+02:00,1656573196.060708,53.2290640287597,10.39857063443437,39.36422,0,0.07,-1,103.9230494294148,4,5,-9999,2790.877961625,0.7717742919921875,0.917266845703125,0.2704620361328125,2790.872985625,1.002020782703928,1.19591199485126,-0.8682385539907271,0.06149280443787575,0.2422973960638046,-0.1961246579885483,0.1317670941352844,0.2633890509605408,0.5318170189857483,XArbitraryZVertical,-0.5502179841862646,0.2809936098711762,0.1524657131257842,0.7713994556241424,0.6012954115867615,0.7631919384002686,-0.2366055250167847,0,0,0,-1,-1,2785.09797575,unknown,2,2022-06-30T09:13:10.678+02:00,2022-06-30T08:20:05.567+02:00,833,1.490593,0,0,651.261,0,0,2022-06-30T09:09:38.916+02:00,678265995.7748064,0,-0.96,100.9222,1,0.97
2022-06-30T09:13:16.469+02:00,1656573196.060708,53.2290640287597,10.39857063443437,39.36422,0,0.07,-1,103.9230494294148,4,5,-9999,2790.887913625,0.7104339599609375,0.673431396484375,0.032745361328125,2790.882937625,1.001421386453436,1.1984898928093,-0.8700488537283623,-0.1389857083559036,0.396884024143219,-0.1921775937080383,0.1711587905883789,0.1529065370559692,0.5050133466720581,XArbitraryZVertical,-0.5508211179748581,0.2816385633971788,0.150967960249905,0.7710282063120779,0.6006152629852295,0.7643604278564453,-0.2345516383647919,0,0,0,-1,-1,2785.09797575,unknown,2,2022-06-30T09:13:10.678+02:00,2022-06-30T08:20:05.567+02:00,833,1.490593,0,0,651.261,0,0,2022-06-30T09:09:38.916+02:00,678265995.7748064,0,-0.96,100.9222,1,0.97
2022-06-30T09:13:16.479+02:00,1656573196.060708,53.2290640287597,10.39857063443437,39.36422,0,0.07,-1,103.9230494294148,4,5,-9999,2790.897865625,0.6685943603515625,0.608001708984375,-0.2101593017578125,2790.892889625,1.004296376282545,1.205918250975418,-0.8728260724378425,-0.4020443558692932,0.6391828656196594,-0.1757059991359711,0.1100780367851257,-0.09271669387817383,0.2620702981948853,XArbitraryZVertical,-0.5525353377932296,0.2829170775190014,0.1491696745438724,0.7696824505891491,0.6003556251525879,0.7661482095718384,-0.2293252497911453,0,0,0,-1,-1,2785.09797575,unknown,2,2022-06-30T09:13:10.678+02:00,2022-06-30T08:20:05.567+02:00,833,1.490593,0,0,651.261,0,0,2022-06-30T09:09:38.916+02:00,678265995.7748064,0,-0.96,100.9222,1,0.97
2022-06-30T09:13:16.489+02:00,1656573196.060708,53.2290640287597,10.39857063443437,39.36422,0,0.07,-1,103.9230494294148,4,5,-9999,2790.907817625,0.571197509765625,0.69598388671875,-0.311767578125,2790.902841625,1.010304669547712,1.217709568940495,-0.8756238672697553,-0.4912043213844299,0.785878598690033,-0.07321052998304367,0.06758987903594971,-0.1599414348602295,0.01132883131504059,XArbitraryZVertical,-0.5550121194363331,0.2849865925256558,0.1473466493190062,0.7674849422082659,0.6010041832923889,0.767943263053894,-0.2214883714914322,0,0,0,-1,-1,2785.09797575,unknown,2,2022-06-30T09:13:10.678+02:00,2022-06-30T08:20:05.567+02:00,833,1.490593,0,0,651.261,0,0,2022-06-30T09:09:38.916+02:00,678265995.7748064,0,-0.96,100.9222,1,0.97
2022-06-30T09:13:16.499+02:00,1656573196.060708,53.2290640287597,10.39857063443437,39.36422,0,0.07,-1,103.9230494294148,4,5,-9999,2790.917769625,0.47027587890625,0.8369140625,-0.2759857177734375,2790.912793625,1.01606527587092,1.230370153433743,-0.8772088388724133,-0.2719981372356415,0.8582956194877625,0.02119450643658638,-0.03141480684280396,-0.07297348976135254,-0.09831272065639496,XArbitraryZVertical,-0.5571838905338785,0.2877821508045424,0.1455396508352874,0.7652095918680609,0.6026120185852051,0.7689574956893921,-0.2134550958871841,0,0,0,-1,-1,2785.09797575,unknown,2,2022-06-30T09:13:10.678+02:00,2022-06-30T08:20:05.567+02:00,833,1.490593,0,0,651.261,0,0,2022-06-30T09:09:38.916+02:00,678265995.7748064,0,-0.96,100.9222,1,0.97
2022-06-30T09:13:16.509+02:00,1656573196.060708,53.2290640287597,10.39857063443437,39.36422,0,0.07,-1,103.9230494294148,4,5,-9999,2790.927721625,0.446258544921875,0.915252685546875,-0.1632232666015625,2790.922745625,1.017316784660119,1.240101486159353,-0.8768906634102428,0.1553779542446136,0.8938024640083313,0.09160315990447998,-0.134616494178772,0.06816017627716064,-0.0683256983757019,XArbitraryZVertical,-0.5579844489948576,0.2912442189360279,0.14340468851188,0.7637180691296251,0.6048921346664429,0.7687540650367737,-0.2076603174209595,0,0,0,-1,-1,2785.09797575,unknown,2,2022-06-30T09:13:10.678+02:00,2022-06-30T08:20:05.567+02:00,833,1.490593,0,0,651.261,0,0,2022-06-30T09:09:38.916+02:00,678265995.7748064,0,-0.96,100.9222,1,0.97
2022-06-30T09:13:16.519+02:00,1656573196.060708,53.2290640287597,10.39857063443437,39.36422,0,0.07,-1,103.9230494294148,4,5,-9999,2790.937673625,0.507598876953125,0.90362548828125,-0.0338897705078125,2790.932697625,1.012380967431493,1.245105011189156,-0.8744758074923099,0.5897266268730164,0.867605984210968,0.1679098159074783,-0.1614223718643188,0.1480454206466675,0.04200102388858795,XArbitraryZVertical,-0.5569840603789138,0.2952227882497931,0.1408842056827714,0.7633897516874144,0.60768061876297,0.7672073841094971,-0.2052245289087296,0,0,0,-1,-1,2785.09797575,unknown,2,2022-06-30T09:13:10.678+02:00,2022-06-30T08:20:05.567+02:00,833,1.490593,0,0,651.261,0,0,2022-06-30T09:09:38.916+02:00,678265995.7748064,0,-0.96,100.9222,1,0.97
2022-06-30T09:13:16.529+02:00,1656573196.060708,53.2290640287597,10.39857063443437,39.36422,0,0.07,-1,103.9230494294148,4,5,-9999,2790.947625625,0.5890655517578125,0.833831787109375,0.0956878662109375,2790.942649625,1.002324596328646,1.245742619917068,-0.8701702679083806,0.8871548771858215,0.794914722442627,0.228925496339798,-0.1033373475074768,0.1391868591308594,0.1719999462366104,XArbitraryZVertical,-0.5544012583543384,0.299489952598149,0.1382200612656426,0.7640943681486696,0.6109359264373779,0.7644387483596802,-0.205890029668808,0,0,0,-1,-1,2785.09797575,unknown,2,2022-06-30T09:13:10.678+02:00,2022-06-30T08:20:05.567+02:00,833,1.490593,0,0,651.261,0,0,2022-06-30T09:09:38.916+02:00,678265995.7748064,0,-0.96,100.9222,1,0.97
2022-06-30T09:13:16.539+02:00,1656573196.060708,53.2290640287597,10.39857063443437,39.36422,0,0.07,-1,103.9230494294148,4,5,-9999,2790.957577625,0.642791748046875,0.7431182861328125,0.1949615478515625,2790.952601625,0.9902949931390111,1.243758924157827,-0.865191400072793,0.8848245739936829,0.6416254639625549,0.2134006321430206,-0.02505785226821899,0.07261264324188232,0.3040092289447784,XArbitraryZVertical,-0.551131243746537,0.3034691273098101,0.1357318009087071,0.7653351459991502,0.6141232252120972,0.7612193822860718,-0.208321675658226,0,0,0,-1,-1,2785.09797575,unknown,2,2022-06-30T09:13:10.678+02:00,2022-06-30T08:20:05.567+02:00,833,1.490593,0,0,651.261,0,0,2022-06-30T09:09:38.916+02:00,678265995.7748064,0,-0.96,100.9222,1,0.97
2022-06-30T09:13:16.549+02:00,1656573196.060708,53.2290640287597,10.39857063443437,39.36422,0,0.07,-1,103.9230494294148,4,5,-9999,2790.967529625,0.6557464599609375,0.6571044921875,0.26739501953125,2790.962553625,0.98002444081596,1.241656958925218,-0.8609055634496877,0.6389567255973816,0.5098011493682861,0.1692472845315933,0.02602589130401611,-0.01531463861465454,0.4056259393692017,XArbitraryZVertical,-0.5482751998165299,0.3066952390001114,0.1337194808862182,0.7664539014224447,0.6167656779289246,0.7584331035614014,-0.2106646746397018,0,0,0,-1,-1,2785.09797575,unknown,2,2022-06-30T09:13:10.678+02:00,2022-06-30T08:20:05.567+02:00,833,1.490593,0,0,651.261,0,0,2022-06-30T09:09:38.916+02:00,678265995.7748064,0,-0.96,100.9222,1,0.97
2022-06-30T09:13:16.559+02:00,1656573196.060708,53.2290640287597,10.39857063443437,39.36422,0,0.07,-1,103.9230494294148,4,5,-9999,2790.977481625,0.642730712890625,0.635711669921875,0.2722930908203125,2790.972505625,0.9741646866382743,1.241891531925857,-0.8580937092504984,0.2565622329711914,0.4278820157051086,0.1138494089245796,0.03691542148590088,-0.09949290752410889,0.4786026477813721,XArbitraryZVertical,-0.5466306358596825,0.3091779048920266,0.1322891506286552,0.766879096251152,0.6188307404518127,0.7565974593162537,-0.2112079411745071,0,0,0,-1,-1,2785.09797575,unknown,2,2022-06-30T09:13:10.678+02:00,2022-06-30T08:20:05.567+02:00,833,1.490593,0,0,651.261,0,0,2022-06-30T09:09:38.916+02:00,678265995.7748064,0,-0.96,100.9222,1,0.97
2022-06-30T09:13:16.569+02:00,1656573196.060708,53.2290640287597,10.39857063443437,39.36422,0,0.07,-1,103.9230494294148,4,5,-9999,2790.987433625,0.6069488525390625,0.6559906005859375,0.2099151611328125,2790.982457625,0.973928859047236,1.245624550521938,-0.8570589085332719,-0.1480513066053391,0.3569439351558685,0.07654411345720291,0.02237397432327271,-0.1202086210250854,0.4814392328262329,XArbitraryZVertical,-0.5465608972236783,0.3109629976252209,0.1315026322653527,0.7663421582320046,0.6203565001487732,0.75592041015625,-0.2091463953256607,0,0,0,-1,-1,2785.09797575,unknown,2,2022-06-30T09:13:10.678+02:00,2022-06-30T08:20:05.567+02:00,833,1.490593,0,0,651.261,0,0,2022-06-30T09:09:38.916+02:00,678265995.7748064,0,-0.96,100.9222,1,0.97
2022-06-30T09:13:16.579+02:00,1656573196.060708,53.2290640287597,10.39857063443437,39.36422,0,0.07,-1,103.9230494294148,4,5,-9999,2790.997385625,0.5711669921875,0.6754608154296875,0.141204833984375,2790.992409625,0.9781504629396108,1.25209155976382,-0.8573001165669041,-0.365030825138092,0.3035138249397278,0.05275479704141617,-0.01457422971725464,-0.1000876426696777,0.4149878919124603,XArbitraryZVertical,-0.5477083392690688,0.3122163608540846,0.1312739698848277,0.7650513969268381,0.621522843837738,0.75607830286026,-0.2050730437040329,0,0,0,-1,-1,2785.09797575,unknown,2,2022-06-30T09:13:10.678+02:00,2022-06-30T08:20:05.567+02:00,833,1.490593,0,0,651.261,0,0,2022-06-30T09:09:38.916+02:00,678265995.7748064,0,-0.96,100.9222,1,0.97
2022-06-30T09:13:16.589+02:00,1656573196.060708,53.2290640287597,10.39857063443437,39.36422,0,0.07,-1,103.9230494294148,4,5,-9999,2791.007337625,0.5454864501953125,0.6948394775390625,0.0462646484375,2791.002361625,0.9844494750954398,1.259600802994348,-0.85825710925793,-0.4551844000816345,0.2426581978797913,0.02334444224834442,-0.0511893630027771,-0.08124339580535889,0.3413829803466797,XArbitraryZVertical,-0.549441554642255,0.3130890286686337,0.1313199082366737,0.7634423744912308,0.622356116771698,0.7567042708396912,-0.200178474187851,0,0,0,-1,-1,2785.09797575,unknown,2,2022-06-30T09:13:10.678+02:00,2022-06-30T08:20:05.567+02:00,833,1.490593,0,0,651.261,0,0,2022-06-30T09:09:38.916+02:00,678265995.7748064,0,-0.96,100.9222,1,0.97
2022-06-30T09:13:16.598+02:00,1656573196.060708,53.2290640287597,10.39857063443437,39.36422,0,0.07,-1,103.9230494294148,4,5,-9999,2791.017289625,0.53289794921875,0.6978302001953125,0.0522003173828125,2791.012313625,0.9903705413600633,1.266321972772291,-0.8593363383439426,-0.3292695581912994,0.2042399942874908,-0.0009685193654149771,-0.07742190361022949,-0.06256967782974243,0.2420104444026947,XArbitraryZVertical,-0.5510966528054384,0.313718680434927,0.1313877814076587,0.7619779550859288,0.6229081749916077,0.757409393787384,-0.1957461386919022,0,0,0,-1,-1,2785.09797575,unknown,2,2022-06-30T09:13:10.678+02:00,2022-06-30T08:20:05.567+02:00,833,1.490593,0,0,651.261,0,0,2022-06-30T09:09:38.916+02:00,678265995.7748064,0,-0.96,100.9222,1,0.97
2022-06-30T09:13:16.609+02:00,1656573196.060708,53.2290640287597,10.39857063443437,39.36422,0,0.07,-1,103.9230494294148,4,5,-9999,2791.027241625,0.5396270751953125,0.72119140625,0.0369110107421875,2791.022265625,0.9936990009158774,1.270469535846775,-0.8602616450936429,-0.1348289847373962,0.1200113967061043,-0.04400520399212837,-0.09014725685119629,-0.06018286943435669,0.245153546333313,XArbitraryZVertical,-0.5521349255584672,0.3141182258156795,0.1312181613950902,0.7610904846038182,0.623045027256012,0.7580132484436035,-0.1929535269737244,0,0,0,-1,-1,2785.09797575,unknown,2,2022-06-30T09:13:10.678+02:00,2022-06-30T08:20:05.567+02:00,833,1.490593,0,0,651.261,0,0,2022-06-30T09:09:38.916+02:00,678265995.7748064,0,-0.96,100.9222,1,0.97
2022-06-30T09:13:16.618+02:00,1656573196.060708,53.2290640287597,10.39857063443437,39.36422,0,0.07,-1,103.9230494294148,4,5,-9999,2791.037193625,0.555511474609375,0.7174835205078125,0.04345703125,2791.032217625,0.9935755818864069,1.271060436550997,-0.8607471603479785,0.1260770559310913,0.01847942173480988,-0.05444606021046638,-0.08318042755126953,-0.03713822364807129,0.2293874025344849,XArbitraryZVertical,-0.5522817195060321,0.3142396851427937,0.1308540907721989,0.7609965110225176,0.6228072643280029,0.7583298087120056,-0.1924766451120377,0,0,0,-1,-1,2785.09797575,unknown,2,2022-06-30T09:13:10.678+02:00,2022-06-30T08:20:05.567+02:00,833,1.490593,0,0,651.261,0,0,2022-06-30T09:09:38.916+02:00,678265995.7748064,0,-0.96,100.9222,1,0.97
2022-06-30T09:13:16.628+02:00,1656573196.060708,53.2290640287597,10.39857063443437,39.36422,0,0.07,-1,103.9230494294148,4,5,-9999,2791.047145625,0.577911376953125,0.648223876953125,0.1149139404296875,2791.042169625,0.9899262686885432,1.267861347113632,-0.8608670417350928,0.2990395128726959,-0.1100319474935532,-0.1150492206215858,-0.06659013032913208,-0.04092437028884888,0.2378976494073868,XArbitraryZVertical,-0.5515312618782164,0.313994932355277,0.1303096174191083,0.7617347787617481,0.622101366519928,0.7584079504013062,-0.1944409012794495,0,0,0,-1,-1,2785.09797575,unknown,2,2022-06-30T09:13:10.678+02:00,2022-06-30T08:20:05.567+02:00,833,1.490593,0,0,651.261,0,0,2022-06-30T09:09:38.916+02:00,678265995.7748064,0,-0.96,100.9222,1,0.97
2022-06-30T09:13:16.643+02:00,1656573196.060708,53.2290640287597,10.39857063443437,39.36422,0,0.07,-1,103.9230494294148,4,5,-9999,2791.057097625,0.619873046875,0.56109619140625,0.150360107421875,2791.052121625,0.9849283583883288,1.262257987909077,-0.8613581197285877,0.2666450440883636,-0.2508428990840912,-0.1721525490283966,-0.04273617267608643,-0.1105039119720459,0.312724232673645,XArbitraryZVertical,-0.5505130663095636,0.3130975114134034,0.1297930974497755,0.7629280710404932,0.6206473708152771,0.7587279677391052,-0.1978106200695038,0,0,0,-1,-1,2785.09797575,unknown,2,2022-06-30T09:13:10.678+02:00,2022-06-30T08:20:05.567+02:00,833,1.490593,0,0,651.261,0,0,2022-06-30T09:09:38.916+02:00,678265995.7748064,0,-0.96,100.9222,1,0.97
2022-06-30T09:13:16.653+02:00,1656573196.060708,53.2290640287597,10.39857063443437,39.36422,0,0.07,-1,103.9230494294148,4,5,-9999,2791.067049625,0.6313629150390625,0.54278564453125,0.0991973876953125,2791.062073625,0.9817762509336642,1.256887567255179,-0.862643962703126,0.02553173713386059,-0.3418705463409424,-0.2014680951833725,0.00122535228729248,-0.1984686255455017,0.351199209690094,XArbitraryZVertical,-0.5500139733828255,0.3115524190847264,0.1296616562875827,0.7639421709091729,0.6186475157737732,0.7595649361610413,-0.2008394449949265,0,0,0,-1,-1,2785.09797575,unknown,2,2022-06-30T09:13:10.678+02:00,2022-06-30T08:20:05.567+02:00,833,1.490593,0,0,651.261,0,0,2022-06-30T09:09:38.916+02:00,678265995.7748064,0,-0.96,100.9222,1,0.97
2022-06-30T09:13:16.659+02:00,1656573196.060708,53.2290640287597,10.39857063443437,39.36422,0,0.07,-1,103.9230494294148,4,5,-9999,2791.077000625,0.61175537109375,0.5799102783203125,-0.0178985595703125,2791.072025625,0.9823211233883382,1.25368473572106,-0.8651145063152255,-0.2373416423797607,-0.3799585998058319,-0.249052956700325,0.01514649391174316,-0.2183837890625,0.3014311194419861,XArbitraryZVertical,-0.5505482396398198,0.3094828206754858,0.1299727366276739,0.7643455466015359,0.6162161827087402,0.7611695528030396,-0.2022340446710587,0,0,0,-1,-1,2785.09797575,unknown,2,2022-06-30T09:13:10.678+02:00,2022-06-30T08:20:05.567+02:00,833,1.490593,0,0,651.261,0,0,2022-06-30T09:09:38.916+02:00,678265995.7748064,0,-0.96,100.9222,1,0.97
2022-06-30T09:13:16.668+02:00,1656573196.060708,53.2290640287597,10.39857063443437,39.36422,0,0.07,-1,103.9230494294148,4,5,-9999,2791.086952625,0.6053009033203125,0.6580810546875,-0.1469268798828125,2791.081976625,0.9856645545499274,1.252349616525737,-0.8686037222326827,-0.3794710636138916,-0.396765798330307,-0.273461639881134,-0.001664459705352783,-0.1835173964500427,0.1843249797821045,XArbitraryZVertical,-0.5519041313915986,0.3070666147192593,0.1305198419599194,0.7642490419517691,0.6134195923805237,0.7634278535842896,-0.2022238522768021,0,0,0,-1,-1,2785.09797575,unknown,2,2022-06-30T09:13:10.678+02:00,2022-06-30T08:20:05.567+02:00,833,1.490593,0,0,651.261,0,0,2022-06-30T09:09:38.916+02:00,678265995.7748064,0,-0.96,100.9222,1,0.97
2022-06-30T09:13:16.678+02:00,1656573196.060708,53.2290640287597,10.39857063443437,39.36422,0,0.07,-1,103.9230494294148,4,5,-9999,2791.096904625,0.5992584228515625,0.723602294921875,-0.1937713623046875,2791.091928625,0.9899964196256512,1.251590086227248,-0.8723494649282397,-0.3675244152545929,-0.4211699068546295,-0.2636716961860657,-0.005245566368103027,-0.1077607274055481,0.05486366152763367,XArbitraryZVertical,-0.553509243417439,0.304519452685367,0.1312052613071474,0.7639898901701473,0.6105462312698364,0.7658418416976929,-0.20179083943367,0,0,0,-1,-1,2785.09797575,unknown,2,2022-06-30T09:13:10.678+02:00,2022-06-30T08:20:05.567+02:00,833,1.490593,0,0,651.261,0,0,2022-06-30T09:09:38.916+02:00,678265995.7748064,0,-0.96,100.9222,1,0.97
2022-06-30T09:13:16.688+02:00,1656573196.060708,53.2290640287597,10.39857063443437,39.36422,0,0.07,-1,103.9230494294148,4,5,-9999,2791.106856625,0.604034423828125,0.7563323974609375,-0.2073211669921875,2791.101880625,0.9931651919528764,1.249720782581271,-0.8759059414080091,-0.2417334467172623,-0.4379323720932007,-0.2933254837989807,-0.008321404457092285,-0.04452157020568848,0.008299261331558228,XArbitraryZVertical,-0.5548060855938517,0.3019184365467098,0.1318138106119505,0.7639767785738809,0.6075795292854309,0.7681238651275635,-0.2020709365606308,0,0,0,-1,-1,2785.09797575,unknown,2,2022-06-30T09:13:10.678+02:00,2022-06-30T08:20:05.567+02:00,833,1.490593,0,0,651.261,0,0,2022-06-30T09:09:38.916+02:00,678265995.7748064,0,-0.96,100.9222,1,0.97
2022-06-30T09:13:16.698+02:00,1656573196.060708,53.2290640287597,10.39857063443437,39.36422,0,0.07,-1,103.9230494294148,4,5,-9999,2791.116808625,0.63140869140625,0.770751953125,-0.2158050537109375,2791.111832625,0.9940171512805555,1.246044713980493,-0.8794731736267556,-0.09643631428480148,-0.4298259615898132,-0.3522830009460449,-0.0001979470252990723,-0.01407057046890259,-0.003893911838531494,XArbitraryZVertical,-0.5556325331997178,0.2992636095728212,0.1320374953152986,0.764382112340185,0.604232132434845,0.7704030871391296,-0.2034275531768799,0,0,0,-1,-1,2785.09797575,unknown,2,2022-06-30T09:13:10.678+02:00,2022-06-30T08:20:05.567+02:00,833,1.490593,0,0,651.261,0,0,2022-06-30T09:09:38.916+02:00,678265995.7748064,0,-0.96,100.9222,1,0.97
2022-06-30T09:13:16.708+02:00,1656573196.060708,53.2290640287597,10.39857063443437,39.36422,0,0.07,-1,103.9230494294148,4,5,-9999,2791.126760625,0.6584320068359375,0.7530670166015625,-0.2340545654296875,2791.121784625,0.9929318766064578,1.241088668444921,-0.8831373352344131,-0.01019889675080776,-0.3913675248622894,-0.3855277895927429,0.03086680173873901,-0.001981914043426514,-0.01030105352401733,XArbitraryZVertical,-0.5561111260216104,0.2966281488434993,0.1318487148710257,0.7650935935608969,0.6005416512489319,0.7727340459823608,-0.2055043131113052,0,0,0,-1,-1,2785.09797575,unknown,2,2022-06-30T09:13:10.678+02:00,2022-06-30T08:20:05.567+02:00,833,1.490593,0,0,651.261,0,0,2022-06-30T09:09:38.916+02:00,678265995.7748064,0,-0.96,100.9222,1,0.97
2022-06-30T09:13:16.720+02:00,1656573196.060708,53.2290640287597,10.39857063443437,39.36422,0,0.07,-1,103.9230494294148,4,5,-9999,2791.136712625,0.6704864501953125,0.7592926025390625,-0.2415313720703125,2791.131736625,0.9903534911507607,1.235530604399074,-0.8867312379667618,0.07905028760433197,-0.3278005421161652,-0.4040937423706055,0.06166809797286987,-0.02194303274154663,-0.0261310338973999,XArbitraryZVertical,-0.5563154572966597,0.2941958229225374,0.1312804586509021,0.7659813470784977,0.5967637300491333,0.7750102281570435,-0.2079238593578339,0,0,0,-1,-1,2785.09797575,unknown,2,2022-06-30T09:13:10.678+02:00,2022-06-30T08:20:05.567+02:00,833,1.490593,0,0,651.261,0,0,2022-06-30T09:09:38.916+02:00,678265995.7748064,0,-0.96,100.9222,1,0.97
2022-06-30T09:13:16.734+02:00,1656573196.060708,53.2290640287597,10.39857063443437,39.36422,0,0.07,-1,103.9230494294148,4,5,-9999,2791.146664625,0.6237945556640625,0.72100830078125,-0.2647857666015625,2791.141688625,0.9869882981152384,1.229826870266547,-0.8905474984176479,0.05983398109674454,-0.2915884852409363,-0.4706916809082031,0.07770973443984985,-0.01812338829040527,-0.0311979353427887,XArbitraryZVertical,-0.5564618428730027,0.2918618686618087,0.1303834180280523,0.7669206254848108,0.5927765965461731,0.7774162292480469,-0.2103337347507477,0,0,0,-1,-1,2785.09797575,unknown,2,2022-06-30T09:13:10.678+02:00,2022-06-30T08:20:05.567+02:00,833,1.490593,0,0,651.261,0,0,2022-06-30T09:09:38.916+02:00,678265995.7748064,0,-0.96,100.9222,1,0.97
2022-06-30T09:13:16.739+02:00,1656573196.060708,53.2290640287597,10.39857063443437,39.36422,0,0.07,-1,103.9230494294148,4,5,-9999,2791.156616625,0.56561279296875,0.656646728515625,-0.27935791015625,2791.151640625,0.9839095591175704,1.225024907291693,-0.8953980051390964,-0.03563754260540009,-0.1860626041889191,-0.5734430551528931,0.03558939695358276,-0.05944955348968506,-0.05288885533809662,XArbitraryZVertical,-0.5569933368993069,0.2894992834788272,0.12902398466175,0.7676597049207644,0.5882048606872559,0.7804579734802246,-0.2118971794843674,0,0,0,-1,-1,2785.09797575,unknown,2,2022-06-30T09:13:10.678+02:00,2022-06-30T08:20:05.567+02:00,833,1.490593,0,0,651.261,0,0,2022-06-30T09:09:38.916+02:00,678265995.7748064,0,-0.96,100.9222,1,0.97
2022-06-30T09:13:16.748+02:00,1656573196.060708,53.2290640287597,10.39857063443437,39.36422,0,0.07,-1,103.9230494294148,4,5,-9999,2791.166568625,0.5679931640625,0.664031982421875,-0.2998809814453125,2791.161592625,0.9822154814041012,1.222187725420772,-0.9012934910615861,-0.1839223504066467,-0.1206058412790298,-0.6034632325172424,-0.0176541805267334,-0.1274834871292114,-0.06736849248409271,XArbitraryZVertical,-0.5581366654005082,0.2872082856643994,0.1273254883398857,0.7679733519041435,0.5832666754722595,0.7841302752494812,-0.2119897305965424,0,0,0,-1,-1,2785.09797575,unknown,2,2022-06-30T09:13:10.678+02:00,2022-06-30T08:20:05.567+02:00,833,1.490593,0,0,651.261,0,0,2022-06-30T09:09:38.916+02:00,678265995.7748064,0,-0.96,100.9222,1,0.97
2022-06-30T09:13:16.758+02:00,1656573196.060708,53.2290640287597,10.39857063443437,39.36422,0,0.07,-1,103.9230494294148,4,5,-9999,2791.176520625,0.54180908203125,0.6931304931640625,-0.3333282470703125,2791.171544625,0.9832529426665336,1.221961644570871,-0.9079024446444218,-0.3891550600528717,-0.07961771637201309,-0.602815568447113,-0.01034301519393921,-0.1241825819015503,-0.08953557908535004,XArbitraryZVertical,-0.5600261810315426,0.2849523510873018,0.1257254432504766,0.7677017508836878,0.5783359408378601,0.7882146239280701,-0.210345670580864,0,0,0,-1,-1,2785.09797575,unknown,2,2022-06-30T09:13:10.678+02:00,2022-06-30T08:20:05.567+02:00,833,1.490593,0,0,651.261,0,0,2022-06-30T09:09:38.916+02:00,678265995.7748064,0,-0.96,100.9222,1,0.97
2022-06-30T09:13:16.768+02:00,1656573196.060708,53.2290640287597,10.39857063443437,39.36422,0,0.07,-1,103.9230494294148,4,5,-9999,2791.186472625,0.53057861328125,0.792205810546875,-0.3325042724609375,2791.181496625,0.9877062196811113,1.22515117056578,-0.915161552058548,-0.62758469581604,0.01445525325834751,-0.5763802528381348,-0.03179651498794556,-0.09953045845031738,-0.1267725229263306,XArbitraryZVertical,-0.5627742260856538,0.2828554091521295,0.1242706979545645,0.7667038820238846,0.5736053586006165,0.7926610708236694,-0.2065559774637222,0,0,0,-1,-1,2785.09797575,unknown,2,2022-06-30T09:13:10.678+02:00,2022-06-30T08:20:05.567+02:00,833,1.490593,0,0,651.261,0,0,2022-06-30T09:09:38.916+02:00,678265995.7748064,0,-0.96,100.9222,1,0.97
2022-06-30T09:13:16.778+02:00,1656573196.060708,53.2290640287597,10.39857063443437,39.36422,0,0.07,-1,103.9230494294148,4,5,-9999,2791.196424625,0.52313232421875,0.8486328125,-0.3724822998046875,2791.191448625,0.9955360165384466,1.231942009045735,-0.9227814164096831,-0.7446949481964111,0.09667548537254333,-0.5557365417480469,-0.0387033224105835,-0.005077600479125977,-0.1318621635437012,XArbitraryZVertical,-0.5662889948859322,0.2810615150350301,0.1229640236341854,0.7649843947812573,0.5692816972732544,0.7972835898399353,-0.200642392039299,0,0,0,-1,-1,2785.09797575,unknown,2,2022-06-30T09:13:10.678+02:00,2022-06-30T08:20:05.567+02:00,833,1.490593,0,0,651.261,0,0,2022-06-30T09:09:38.916+02:00,678265995.7748064,0,-0.96,100.9222,1,0.97
2022-06-30T09:13:16.787+02:00,1656573196.060708,53.2290640287597,10.39857063443437,39.36422,0,0.07,-1,103.9230494294148,4,5,-9999,2791.206376625,0.5574188232421875,0.89373779296875,-0.3306732177734375,2791.201400625,1.003244889526142,1.239359535567941,-0.930337507223123,-0.624862015247345,0.1418746560811996,-0.5700385570526123,-0.04190939664840698,0.04681116342544556,-0.1780342757701874,XArbitraryZVertical,-0.5697721470055431,0.2795273748218478,0.1214245844536419,0.763203908565525,0.5650414824485779,0.8018216490745544,-0.1944482922554016,0,0,0,-1,-1,2785.09797575,unknown,2,2022-06-30T09:13:10.678+02:00,2022-06-30T08:20:05.567+02:00,833,1.490593,0,0,651.261,0,0,2022-06-30T09:09:38.916+02:00,678265995.7748064,0,-0.96,100.9222,1,0.97
2022-06-30T09:13:16.797+02:00,1656573196.060708,53.2290640287597,10.39857063443437,39.36422,0,0.07,-1,103.9230494294148,4,5,-9999,2791.216328625,0.5688018798828125,0.9235687255859375,-0.2608184814453125,2791.211352625,1.00936238647689,1.24559851955202,-0.9373174477112006,-0.5259870886802673,0.1186545267701149,-0.5195841193199158,-0.00350797176361084,0.08776479959487915,-0.1415469944477081,XArbitraryZVertical,-0.5727804145063838,0.2781354927949816,0.1197696090547258,0.761720718648735,0.5609264969825745,0.8059730529785156,-0.1891264915466309,0,0,0,-1,-1,2785.09797575,unknown,2,2022-06-30T09:13:10.678+02:00,2022-06-30T08:20:05.567+02:00,833,1.490593,0,0,651.261,0,0,2022-06-30T09:09:38.916+02:00,678265995.7748064,0,-0.96,100.9222,1,0.97
2022-06-30T09:13:16.807+02:00,1656573196.060708,53.2290640287597,10.39857063443437,39.36422,0,0.07,-1,103.9230494294148,4,5,-9999,2791.226280625,0.5274810791015625,0.8770751953125,-0.2314605712890625,2791.221304625,1.014065530267493,1.250633162716001,-0.9436790507919516,-0.3951840400695801,0.1371264904737473,-0.5345367193222046,0.01180809736251831,0.1138463020324707,-0.07613615691661835,XArbitraryZVertical,-0.5753371660612656,0.2768498402909296,0.1180982286736406,0.7605222584391936,0.5569935441017151,0.8097224831581116,-0.184682622551918,0,0,0,-1,-1,2785.09797575,unknown,2,2022-06-30T09:13:10.678+02:00,2022-06-30T08:20:05.567+02:00,833,1.490593,0,0,651.261,0,0,2022-06-30T09:09:38.916+02:00,678265995.7748064,0,-0.96,100.9222,1,0.97
2022-06-30T09:13:16.817+02:00,1656573196.060708,53.2290640287597,10.39857063443437,39.36422,0,0.07,-1,103.9230494294148,4,5,-9999,2791.236232625,0.5095672607421875,0.888580322265625,-0.23846435546875,2791.231256625,1.015804442218387,1.253619988456504,-0.9500498708850993,-0.1934503465890884,0.177449032664299,-0.6145731806755066,-0.02514946460723877,0.06363081932067871,-0.05005526542663574,XArbitraryZVertical,-0.5773462639546765,0.27562379681956,0.1158746838844396,0.7597868110152169,0.5526303052902222,0.8134444952011108,-0.181405633687973,0,0,0,-1,-1,2785.09797575,unknown,2,2022-06-30T09:13:10.678+02:00,2022-06-30T08:20:05.567+02:00,833,1.490593,0,0,651.261,0,0,2022-06-30T09:09:38.916+02:00,678265995.7748064,0,-0.96,100.9222,1,0.97
2022-06-30T09:13:16.827+02:00,1656573196.060708,53.2290640287597,10.39857063443437,39.36422,0,0.07,-1,103.9230494294148,4,5,-9999,2791.246184625,0.5034942626953125,0.895843505859375,-0.2875213623046875,2791.241208625,1.013693048422786,1.253780893624436,-0.9562415622072178,0.03545820713043213,0.1966613382101059,-0.6346080899238586,-0.03829622268676758,0.07155019044876099,-0.05872148275375366,XArbitraryZVertical,-0.578607553024644,0.2744844622975567,0.1130569085384912,0.75966427780326,0.547863245010376,0.8170302510261536,-0.179743155837059,0,0,0,-1,-1,2785.09797575,unknown,2,2022-06-30T09:13:10.678+02:00,2022-06-30T08:20:05.567+02:00,833,1.490593,0,0,651.261,0,0,2022-06-30T09:09:38.916+02:00,678265995.7748064,0,-0.96,100.9222,1,0.97
2022-06-30T09:13:16.838+02:00,1656573196.060708,53.2290640287597,10.39857063443437,39.36422,0,0.07,-1,103.9230494294148,4,5,-9999,2791.256136625,0.4854736328125,0.84906005859375,-0.3387298583984375,2791.251160625,1.008264395254484,1.251389672810949,-0.9618220573478617,0.1985071152448654,0.2201194912195206,-0.6300610899925232,-0.03960061073303223,0.07560849189758301,-0.1079034209251404,XArbitraryZVertical,-0.5791200115869433,0.27351578974643,0.109911878916354,0.760084650269628,0.5430946350097656,0.8202351927757263,-0.1796182543039322,0,0,0,-1,-1,2785.09797575,unknown,2,2022-06-30T09:13:10.678+02:00,2022-06-30T08:20:05.567+02:00,833,1.490593,0,0,651.261,0,0,2022-06-30T09:09:38.916+02:00,678265995.7748064,0,-0.96,100.9222,1,0.97
2022-06-30T09:13:16.847+02:00,1656573196.060708,53.2290640287597,10.39857063443437,39.36422,0,0.07,-1,103.9230494294148,4,5,-9999,2791.266088625,0.47406005859375,0.780853271484375,-0.380340576171875,2791.261112625,1.001196896066402,1.248011558845421,-0.9672621208195041,0.1974314600229263,0.2751127183437347,-0.6687730550765991,-0.05277150869369507,0.02572524547576904,-0.1586965173482895,XArbitraryZVertical,-0.5793299024459511,0.272690346464211,0.1064749372839625,0.7607101524939496,0.5382448434829712,0.8233348727226257,-0.1800336837768555,0,0,0,-1,-1,2785.09797575,unknown,2,2022-06-30T09:13:10.678+02:00,2022-06-30T08:20:05.567+02:00,833,1.490593,0,0,651.261,0,0,2022-06-30T09:09:38.916+02:00,678265995.7748064,0,-0.96,100.9222,1,0.97
2022-06-30T09:13:16.857+02:00,1656573196.060708,53.2290640287597,10.39857063443437,39.36422,0,0.07,-1,103.9230494294148,4,5,-9999,2791.276040625,0.4899749755859375,0.7002716064453125,-0.384674072265625,2791.271064625,0.9955663640150695,1.246567356300234,-0.9732269243137426,0.0145886093378067,0.3741337060928345,-0.6604359745979309,-0.05925971269607544,-0.04585230350494385,-0.201097771525383,XArbitraryZVertical,-0.5799790624729864,0.2720344929709643,0.1028583639264482,0.7609478488647955,0.5333195328712463,0.8267055749893188,-0.1792430430650711,0,0,0,-1,-1,2785.09797575,unknown,2,2022-06-30T09:13:10.678+02:00,2022-06-30T08:20:05.567+02:00,833,1.490593,0,0,651.261,0,0,2022-06-30T09:09:38.916+02:00,678265995.7748064,0,-0.96,100.9222,1,0.97
2022-06-30T09:13:16.867+02:00,1656573196.060708,53.2290640287597,10.39857063443437,39.36422,0,0.07,-1,103.9230494294148,4,5,-9999,2791.285992625,0.4963531494140625,0.6865234375,-0.364013671875,2791.281016625,0.9937810096680714,1.249258546924192,-0.9797550933163756,-0.2545131742954254,0.4650319218635559,-0.6583338975906372,-0.03869378566741943,-0.1300892233848572,-0.2085764855146408,XArbitraryZVertical,-0.5815016989257498,0.2716741580912727,0.09932492288645481,0.760383811673624,0.5286684632301331,0.8303609490394592,-0.1760978549718857,0,0,0,-1,-1,2785.09797575,unknown,2,2022-06-30T09:13:10.678+02:00,2022-06-30T08:20:05.567+02:00,833,1.490593,0,0,651.261,0,0,2022-06-30T09:09:38.916+02:00,678265995.7748064,0,-0.96,100.9222,1,0.97
2022-06-30T09:13:16.877+02:00,1656573196.060708,53.2290640287597,10.39857063443437,39.36422,0,0.07,-1,103.9230494294148,4,5,-9999,2791.295944625,0.5076751708984375,0.6930084228515625,-0.2559051513671875,2791.290968625,0.9966801484363078,1.256545590571529,-0.9873965889075215,-0.5085738301277161,0.5038231611251831,-0.6958159208297729,-0.02753490209579468,-0.1480711102485657,-0.1937395185232162,XArbitraryZVertical,-0.5841435267716695,0.2713652855844955,0.09586981923093035,0.7589112288962888,0.5238878130912781,0.8345946669578552,-0.1702744364738464,0,0,0,-1,-1,2785.09797575,unknown,2,2022-06-30T09:13:10.678+02:00,2022-06-30T08:20:05.567+02:00,833,1.490593,0,0,651.261,0,0,2022-06-30T09:09:38.916+02:00,678265995.7748064,0,-0.96,100.9222,1,0.97
2022-06-30T09:13:16.887+02:00,1656573196.060708,53.2290640287597,10.39857063443437,39.36422,0,0.07,-1,103.9230494294148,4,5,-9999,2791.305896625,0.525726318359375,0.77996826171875,-0.0773468017578125,2791.300920625,1.003208014825653,1.266903474013495,-0.995738941582277,-0.7088608145713806,0.4682963490486145,-0.6786933541297913,-0.01128691434860229,-0.1461524963378906,-0.09315550327301025,XArbitraryZVertical,-0.5875556382667153,0.2709306057903159,0.09264204177423194,0.756830642104394,0.5189619064331055,0.8391610980033875,-0.1627499610185623,0,0,0,-1,-1,2785.09797575,unknown,2,2022-06-30T09:13:10.678+02:00,2022-06-30T08:20:05.567+02:00,833,1.490593,0,0,651.261,0,0,2022-06-30T09:09:38.916+02:00,678265995.7748064,0,-0.96,100.9222,1,0.97
2022-06-30T09:13:16.897+02:00,1656573196.060708,53.2290640287597,10.39857063443437,39.36422,0,0.07,-1,103.9230494294148,4,5,-9999,2791.315848625,0.4969635009765625,0.8393096923828125,-0.101318359375,2791.310872625,1.013931493796105,1.280412124444829,-1.004419347430507,-0.8788598775863647,0.4411202967166901,-0.650146484375,0.01161205768585205,-0.06388217210769653,0.07628621160984039,XArbitraryZVertical,-0.5917063895673872,0.2703088717097799,0.08991875949781487,0.7541427944772362,0.5141139626502991,0.8438505530357361,-0.153633326292038,0,0,0,-1,-1,2785.09797575,unknown,2,2022-06-30T09:13:10.678+02:00,2022-06-30T08:20:05.567+02:00,833,1.490593,0,0,651.261,0,0,2022-06-30T09:09:38.916+02:00,678265995.7748064,0,-0.96,100.9222,1,0.97
