loggingTime(txt),accelerometerTimestamp_sinceReboot(s),accelerometerAccelerationX(G),accelerometerAccelerationY(G),accelerometerAccelerationZ(G),motionTimestamp_sinceReboot(s),motionYaw(rad),motionRoll(rad),motionPitch(rad),motionRotationRateX(rad/s),motionRotationRateY(rad/s),motionRotationRateZ(rad/s),motionUserAccelerationX(G),motionUserAccelerationY(G),motionUserAccelerationZ(G),motionAttitudeReferenceFrame(txt),motionQuaternionX(R),motionQuaternionY(R),motionQuaternionZ(R),motionQuaternionW(R),motionGravityX(G),motionGravityY(G),motionGravityZ(G),motionMagneticFieldX(µT),motionMagneticFieldY(µT),motionMagneticFieldZ(µT),motionHeading(°),motionMagneticFieldCalibrationAccuracy(Z),activityTimestamp_sinceReboot(s),activity(txt),activityActivityConfidence(Z),activityActivityStartDate(txt),pedometerStartDate(txt),pedometerNumberofSteps(N),pedometerAverageActivePace(s/m),pedometerCurrentPace(s/m),pedometerCurrentCadence(steps/s),pedometerDistance(m),pedometerFloorAscended(N),pedometerFloorDescended(N),pedometerEndDate(txt)
2022-06-30T09:33:43.276+02:00,4017.67739575,0.0265350341796875,-0.6265716552734375,-0.82330322265625,4017.67242075,-1.313764622546241,0.03809604871939174,0.6566769967672947,0.163900300860405,0.1355299204587936,0.0004200803814455867,-0.04521074891090393,0.02148348093032837,-0.02687793970108032,XArbitraryZVertical,0.2663278677733493,-0.1826038569821059,-0.5730608513460401,0.7532108540029732,0.03016573563218117,-0.6104882955551147,-0.7914506196975708,0,0,0,-1,-1,4013.132098,running,2,2022-06-30T09:33:38.713+02:00,2022-06-30T08:20:05.567+02:00,1197,1.429728,0,0,932.105,0,0,2022-06-30T09:33:00.498+02:00
2022-06-30T09:33:43.277+02:00,4017.68734675,0.05706787109375,-0.6289215087890625,-0.7903289794921875,4017.68237175,-1.313763881561226,0.03922541195339226,0.6584474145507515,0.1852204948663712,0.1356066167354584,-0.02785363420844078,-0.00448194146156311,-0.01468241214752197,-0.03296816349029541,XArbitraryZVertical,0.2673113948504613,-0.1826943763923209,-0.5727225834019363,0.7530976987370953,0.03101711720228195,-0.6118896007537842,-0.7903347611427307,0,0,0,-1,-1,4013.132098,running,2,2022-06-30T09:33:38.713+02:00,2022-06-30T08:20:05.567+02:00,1197,1.429728,0,0,932.105,0,0,2022-06-30T09:33:00.498+02:00
2022-06-30T09:33:43.278+02:00,4017.69729775,0.082611083984375,-0.6464691162109375,-0.7757415771484375,4017.69232275,-1.314296511729712,0.04054595838800891,0.6601725537556082,0.1492680162191391,0.1024118289351463,-0.07527837157249451,0.02505007386207581,-0.01566874980926514,-0.001091420650482178,XArbitraryZVertical,0.2682835090329974,-0.1827712153398857,-0.5725628779165299,0.7528549449738823,0.03201793134212494,-0.6132531762123108,-0.7892372608184814,0,0,0,-1,-1,4013.132098,running,2,2022-06-30T09:33:38.713+02:00,2022-06-30T08:20:05.567+02:00,1197,1.429728,0,0,932.105,0,0,2022-06-30T09:33:00.498+02:00
2022-06-30T09:33:43.288+02:00,4017.70724875,0.0831756591796875,-0.6607666015625,-0.768096923828125,4017.70227375,-1.315276363306444,0.04165860427917398,0.6613777707540135,0.1118668466806412,0.03813989460468292,-0.09717807918787003,0.04974597692489624,-0.03226476907730103,0.01272082328796387,XArbitraryZVertical,0.2689611775585504,-0.182835522486299,-0.5726535035616902,0.7525284810921505,0.0328652448952198,-0.6142047047615051,-0.7884621024131775,0,0,0,-1,-1,4013.132098,running,2,2022-06-30T09:33:38.713+02:00,2022-06-30T08:20:05.567+02:00,1197,1.429728,0,0,932.105,0,0,2022-06-30T09:33:00.498+02:00
2022-06-30T09:33:43.298+02:00,4017.71719975,0.064697265625,-0.66650390625,-0.7619171142578125,4017.71222475,-1.316572123733099,0.04256407707856838,0.6617302085994722,0.03957800567150116,-0.01337522827088833,-0.09701083600521088,0.0496058464050293,-0.04628419876098633,0.0201190710067749,XArbitraryZVertical,0.2692331897739459,-0.1827721155586567,-0.572981355245853,0.7521969269768144,0.03356994688510895,-0.6144827604293823,-0.788215696811676,0,0,0,-1,-1,4013.132098,running,2,2022-06-30T09:33:38.713+02:00,2022-06-30T08:20:05.567+02:00,1197,1.429728,0,0,932.105,0,0,2022-06-30T09:33:00.498+02:00
2022-06-30T09:33:43.308+02:00,4017.72715075,0.036041259765625,-0.6613616943359375,-0.76959228515625,4017.72217575,-1.317953895947563,0.04332531617428426,0.6612126987027586,-0.04118741303682327,-0.02786735258996487,-0.1013826802372932,0.03051367402076721,-0.05242979526519775,0.02659070491790771,XArbitraryZVertical,0.2691327813465507,-0.1825206333259043,-0.5734540531558761,0.7519337248714462,0.03418372943997383,-0.6140744090080261,-0.7885075211524963,0,0,0,-1,-1,4013.132098,running,2,2022-06-30T09:33:38.713+02:00,2022-06-30T08:20:05.567+02:00,1197,1.429728,0,0,932.105,0,0,2022-06-30T09:33:00.498+02:00
2022-06-30T09:33:43.318+02:00,4017.73710175,-0.0074462890625,-0.6415252685546875,-0.782012939453125,4017.73212675,-1.319450116835242,0.04377891867690269,0.6596737009929883,-0.141995906829834,-0.001927485223859549,-0.1804930120706558,0.001458670943975449,-0.04850298166275024,0.01984316110610962,XArbitraryZVertical,0.2685546586508417,-0.1821011668344114,-0.5741208897790223,0.7517331477707403,0.0345827117562294,-0.6128590703010559,-0.7894351482391357,0,0,0,-1,-1,4013.132098,running,2,2022-06-30T09:33:38.713+02:00,2022-06-30T08:20:05.567+02:00,1197,1.429728,0,0,932.105,0,0,2022-06-30T09:33:00.498+02:00
2022-06-30T09:33:43.328+02:00,4017.74705275,0.0349884033203125,-0.605499267578125,-0.8013916015625,4017.74207775,-1.320123839623376,0.04363093164637199,0.6580890471993306,-0.1142194122076035,0.04753300920128822,-0.08997270464897156,-0.04195433855056763,-0.02991956472396851,0.00839686393737793,XArbitraryZVertical,0.2678621145904225,-0.1817831657821558,-0.5745639893631805,0.751718798135157,0.03450820595026016,-0.6116061210632324,-0.7904095649719238,0,0,0,-1,-1,4013.132098,running,2,2022-06-30T09:33:38.713+02:00,2022-06-30T08:20:05.567+02:00,1197,1.429728,0,0,932.105,0,0,2022-06-30T09:33:00.498+02:00
2022-06-30T09:33:43.338+02:00,4017.75700375,0.039306640625,-0.57159423828125,-0.8103790283203125,4017.75202875,-1.319772502018176,0.04315337566888031,0.6562376577157515,-0.08082769811153412,0.09663638472557068,-0.0320407897233963,0.000809013843536377,0.004640698432922363,-0.009835481643676758,XArbitraryZVertical,0.2670687584854478,-0.1813735423187391,-0.5746938963928987,0.752000655588554,0.03417952358722687,-0.610140323638916,-0.7915558218955994,0,0,0,-1,-1,4013.132098,running,2,2022-06-30T09:33:38.713+02:00,2022-06-30T08:20:05.567+02:00,1197,1.429728,0,0,932.105,0,0,2022-06-30T09:33:00.498+02:00
2022-06-30T09:33:43.348+02:00,4017.76695475,0.0506591796875,-0.5681304931640625,-0.816558837890625,4017.76197975,-1.320159553709303,0.04406017841513778,0.6557625196980131,0.02214315533638,0.07766535878181458,-0.06485492736101151,0.004396736621856689,0.03816914558410645,-0.01856470108032227,XArbitraryZVertical,0.2671176774990543,-0.1809451090442721,-0.5747691202480278,0.7520289602849789,0.03491006046533585,-0.6097638010978699,-0.7918140292167664,0,0,0,-1,-1,4013.132098,running,2,2022-06-30T09:33:38.713+02:00,2022-06-30T08:20:05.567+02:00,1197,1.429728,0,0,932.105,0,0,2022-06-30T09:33:00.498+02:00
2022-06-30T09:33:43.358+02:00,4017.77690575,0.051361083984375,-0.5854034423828125,-0.8068084716796875,4017.77193075,-1.321787460637585,0.04611043373685347,0.6567015582388308,0.08265983313322067,0.04050129652023315,-0.1141716465353966,0.01415231823921204,0.04237693548202515,-0.0253901481628418,XArbitraryZVertical,0.2679086591443813,-0.1806674459207104,-0.5750061278416007,0.7516330422824448,0.03650699555873871,-0.6105077862739563,-0.7911684513092041,0,0,0,-1,-1,4013.132098,running,2,2022-06-30T09:33:38.713+02:00,2022-06-30T08:20:05.567+02:00,1197,1.429728,0,0,932.105,0,0,2022-06-30T09:33:00.498+02:00
2022-06-30T09:33:43.368+02:00,4017.78685675,0.043304443359375,-0.6128082275390625,-0.803436279296875,4017.78188175,-1.324442711965343,0.04911665075572552,0.65872052596953,0.1132065504789352,0.02495056390762329,-0.1223009452223778,0.01253658533096313,0.02670180797576904,-0.01698577404022217,XArbitraryZVertical,0.2692823557308334,-0.1804877122858791,-0.5753816223168934,0.750897602161839,0.0388246551156044,-0.6121055483818054,-0.7898223996162415,0,0,0,-1,-1,4013.132098,running,2,2022-06-30T09:33:38.713+02:00,2022-06-30T08:20:05.567+02:00,1197,1.429728,0,0,932.105,0,0,2022-06-30T09:33:00.498+02:00
2022-06-30T09:33:43.378+02:00,4017.79680775,0.0288543701171875,-0.62841796875,-0.7987518310546875,4017.79183275,-1.326980301130703,0.05203975921519111,0.6611578506904077,0.09268942475318909,0.04705186933279037,-0.1127922013401985,0.002249062061309814,0.001222550868988037,-0.01522266864776611,XArbitraryZVertical,0.2707968837095468,-0.1804505373657169,-0.5756733102064753,0.750137911354233,0.04105549678206444,-0.6140311360359192,-0.788213312625885,0,0,0,-1,-1,4013.132098,running,2,2022-06-30T09:33:38.713+02:00,2022-06-30T08:20:05.567+02:00,1197,1.429728,0,0,932.105,0,0,2022-06-30T09:33:00.498+02:00
2022-06-30T09:33:43.388+02:00,4017.80675875,0.0268096923828125,-0.6334381103515625,-0.7945098876953125,4017.80178375,-1.328970628846934,0.05444179977894628,0.6635112845324123,0.06867970526218414,0.07976002246141434,-0.1088312789797783,-0.01401543617248535,-0.01253139972686768,-0.0120842456817627,XArbitraryZVertical,0.2721785428054373,-0.1805137233157678,-0.57583441649532,0.7494986946987586,0.04286994412541389,-0.615886926651001,-0.7866672873497009,0,0,0,-1,-1,4013.132098,running,2,2022-06-30T09:33:38.713+02:00,2022-06-30T08:20:05.567+02:00,1197,1.429728,0,0,932.105,0,0,2022-06-30T09:33:00.498+02:00
2022-06-30T09:33:43.398+02:00,4017.81670975,0.0267181396484375,-0.6491546630859375,-0.7820281982421875,4017.81173475,-1.33031565695826,0.05595377288244009,0.6651022849133255,-0.003582646138966084,0.08807697147130966,-0.1274886578321457,-0.01719462871551514,-0.01629883050918579,-0.008887410163879395,XArbitraryZVertical,0.2730796967321582,-0.18059998747468,-0.5759559056655625,0.7490567138686413,0.04400446265935898,-0.6171396374702454,-0.785622239112854,0,0,0,-1,-1,4013.132098,running,2,2022-06-30T09:33:38.713+02:00,2022-06-30T08:20:05.567+02:00,1197,1.429728,0,0,932.105,0,0,2022-06-30T09:33:00.498+02:00
2022-06-30T09:33:43.408+02:00,4017.82666075,0.0476837158203125,-0.6534881591796875,-0.8013763427734375,4017.82168575,-1.330770028527236,0.05615186826959302,0.6653947047854266,-0.04006635397672653,0.09627764672040939,-0.1101544052362442,-0.01743165031075478,-0.03178530931472778,0.003405392169952393,XArbitraryZVertical,0.2732035775092893,-0.1806742226075768,-0.5760665169334053,0.7489084659335017,0.04414995759725571,-0.6173697113990784,-0.7854332327842712,0,0,0,-1,-1,4013.132098,running,2,2022-06-30T09:33:38.713+02:00,2022-06-30T08:20:05.567+02:00,1197,1.429728,0,0,932.105,0,0,2022-06-30T09:33:00.498+02:00
2022-06-30T09:33:43.418+02:00,4017.83661175,0.048004150390625,-0.6251983642578125,-0.7984771728515625,4017.83163675,-1.33186368342269,0.05761261561228702,0.6641892567067256,-0.08929309248924255,0.1127118021249771,-0.1122763752937317,0.002343829721212387,-0.03706753253936768,-0.01526564359664917,XArbitraryZVertical,0.2730813746157929,-0.1799204349749338,-0.5764106702016443,0.7488698671885771,0.04534005001187325,-0.6164209246635437,-0.7861104011535645,0,0,0,-1,-1,4013.132098,running,2,2022-06-30T09:33:38.713+02:00,2022-06-30T08:20:05.567+02:00,1197,1.429728,0,0,932.105,0,0,2022-06-30T09:33:00.498+02:00
2022-06-30T09:33:43.428+02:00,4017.84656275,0.0545654296875,-0.602783203125,-0.804718017578125,4017.84158775,-1.333172473220435,0.05938012975530282,0.6618301044075341,-0.09670227020978928,0.1169169321656227,-0.131422370672226,0.001188695430755615,-0.01063716411590576,-0.01099836826324463,XArbitraryZVertical,0.2726041499632906,-0.1787392760383356,-0.5769224419481149,0.7489324603598815,0.04681561142206192,-0.6145616173744202,-0.787478506565094,0,0,0,-1,-1,4013.132098,running,2,2022-06-30T09:33:38.713+02:00,2022-06-30T08:20:05.567+02:00,1197,1.429728,0,0,932.105,0,0,2022-06-30T09:33:00.498+02:00
2022-06-30T09:33:43.456+02:00,4017.85651375,0.0576019287109375,-0.5928955078125,-0.8107452392578125,4017.85153875,-1.334872124748012,0.0615887546110143,0.6595782555952742,-0.06401995569467545,0.1152979284524918,-0.1440775692462921,0.005925770848989487,0.01000010967254639,-0.01596528291702271,XArbitraryZVertical,0.2722606565636607,-0.177476516893572,-0.5775091872748114,0.7489054601878687,0.04863979667425156,-0.6127836108207703,-0.7887524366378784,0,0,0,-1,-1,4013.132098,running,2,2022-06-30T09:33:38.713+02:00,2022-06-30T08:20:05.567+02:00,1197,1.429728,0,0,932.105,0,0,2022-06-30T09:33:00.498+02:00
2022-06-30T09:33:43.458+02:00,4017.86646475,0.0444488525390625,-0.60760498046875,-0.8046722412109375,4017.86148875,-1.336673902771278,0.06378890928891635,0.6582395353509741,-0.03970236703753471,0.1071915328502655,-0.1495165526866913,0.007174760103225708,0.01882928609848022,-0.02128344774246216,XArbitraryZVertical,0.2722439762999669,-0.1765006231352309,-0.5780339295185212,0.7487373223692853,0.05042730271816254,-0.6117251515388489,-0.7894614934921265,0,0,0,-1,-1,4013.132098,running,2,2022-06-30T09:33:38.713+02:00,2022-06-30T08:20:05.567+02:00,1197,1.429728,0,0,932.105,0,0,2022-06-30T09:33:00.498+02:00
2022-06-30T09:33:43.459+02:00,4017.87641575,0.0211944580078125,-0.661041259765625,-0.8154449462890625,4017.87143975,-1.338659795386831,0.06592381775448584,0.6574847655412699,-0.04400050640106201,0.125682458281517,-0.1996659785509109,-0.007694009691476822,0.003522574901580811,-0.01485937833786011,XArbitraryZVertical,0.2724087995199873,-0.1757474902124395,-0.5785711756649899,0.7484395431204162,0.05214301496744156,-0.6111279129981995,-0.7898125052452087,0,0,0,-1,-1,4013.132098,running,2,2022-06-30T09:33:38.713+02:00,2022-06-30T08:20:05.567+02:00,1197,1.429728,0,0,932.105,0,0,2022-06-30T09:33:00.498+02:00
2022-06-30T09:33:43.467+02:00,4017.88636675,0.029876708984375,-0.637603759765625,-0.816192626953125,4017.88139075,-1.340525074856898,0.06797562111804607,0.6571948867894912,-0.05609605461359024,0.1554187834262848,-0.1812747120857239,-0.03258085250854492,-0.05014318227767944,-0.02556407451629639,XArbitraryZVertical,0.2727324536454764,-0.1751477211604838,-0.5790220518154825,0.7481134603227499,0.05377547442913055,-0.6108984351158142,-0.7898805737495422,0,0,0,-1,-1,4013.132098,running,2,2022-06-30T09:33:38.713+02:00,2022-06-30T08:20:05.567+02:00,1197,1.429728,0,0,932.105,0,0,2022-06-30T09:33:00.498+02:00
2022-06-30T09:33:43.478+02:00,4017.89631775,0.022735595703125,-0.6051177978515625,-0.8209381103515625,4017.89134175,-1.342092850381404,0.06997998907667823,0.656655564797917,-0.1148617640137672,0.1867300122976303,-0.17833411693573,-0.02550473809242249,-0.02713274955749512,-0.02609258890151978,XArbitraryZVertical,0.2729779162425784,-0.1744510420018589,-0.5793958702455925,0.7478973558932057,0.05538160726428032,-0.6104713678359985,-0.7900997996330261,0,0,0,-1,-1,4013.132098,running,2,2022-06-30T09:33:38.713+02:00,2022-06-30T08:20:05.567+02:00,1197,1.429728,0,0,932.105,0,0,2022-06-30T09:33:00.498+02:00
2022-06-30T09:33:43.487+02:00,4017.906269625,0.0305938720703125,-0.5877532958984375,-0.826171875,4017.901293625,-1.343553935345037,0.07225040271113585,0.6565876249281142,-0.08818088471889496,0.2240417003631592,-0.1765990704298019,-0.03444257378578186,0.005299389362335205,-0.03092443943023682,XArbitraryZVertical,0.2734836695781248,-0.1737814496060465,-0.5796396907241735,0.7476795359953394,0.0571783110499382,-0.6104175448417664,-0.7900133728981018,0,0,0,-1,-1,4013.132098,running,2,2022-06-30T09:33:38.713+02:00,2022-06-30T08:20:05.567+02:00,1197,1.429728,0,0,932.105,0,0,2022-06-30T09:33:00.498+02:00
2022-06-30T09:33:43.497+02:00,4017.916220625,0.044342041015625,-0.5870361328125,-0.8269195556640625,4017.911244625,-1.345553085872343,0.07548333690263156,0.6566061953340714,-0.03396045789122581,0.2268268316984177,-0.1904122531414032,-0.02913722395896912,0.02267861366271973,-0.0363585352897644,XArbitraryZVertical,0.2742544513228428,-0.1728524397761431,-0.5799420940420608,0.7473779060730337,0.05973121151328087,-0.6104322671890259,-0.7898130416870117,0,0,0,-1,-1,4013.132098,running,2,2022-06-30T09:33:38.713+02:00,2022-06-30T08:20:05.567+02:00,1197,1.429728,0,0,932.105,0,0,2022-06-30T09:33:00.498+02:00
2022-06-30T09:33:43.507+02:00,4017.926171625,0.0516357421875,-0.6096954345703125,-0.8271636962890625,4017.921195625,-1.347604162346729,0.07864469954097827,0.6565357298455271,0.004875620361417532,0.2220456600189209,-0.1889696270227432,-0.01788899302482605,0.02333992719650269,-0.03725612163543701,XArbitraryZVertical,0.2749688462319114,-0.1719318136094618,-0.5802824046464893,0.7470635765454073,0.06223117560148239,-0.6103764176368713,-0.7896631956100464,0,0,0,-1,-1,4013.132098,running,2,2022-06-30T09:33:38.713+02:00,2022-06-30T08:20:05.567+02:00,1197,1.429728,0,0,932.105,0,0,2022-06-30T09:33:00.498+02:00
2022-06-30T09:33:43.517+02:00,4017.936122625,0.05230712890625,-0.635986328125,-0.8149566650390625,4017.931146625,-1.349789239421009,0.08193573174900957,0.6560758425336133,0.005180818494409323,0.2141610383987427,-0.1947815716266632,-0.01321673393249512,0.0003162622451782227,-0.03742963075637817,XArbitraryZVertical,0.2755687553301349,-0.1708653531274093,-0.5806985338355236,0.746763842554501,0.06485261023044586,-0.6100121140480042,-0.7897337675094604,0,0,0,-1,-1,4013.132098,running,2,2022-06-30T09:33:38.713+02:00,2022-06-30T08:20:05.567+02:00,1197,1.429728,0,0,932.105,0,0,2022-06-30T09:33:00.498+02:00
2022-06-30T09:33:43.528+02:00,4017.946073625,0.0573883056640625,-0.64404296875,-0.8047332763671875,4017.941097625,-1.352170685956568,0.08532512718956306,0.6553367345699024,-0.007122985552996397,0.2115263640880585,-0.2138508707284927,-0.01526007056236267,-0.02656042575836182,-0.02499794960021973,XArbitraryZVertical,0.2760808463509499,-0.1697060793432533,-0.5812058561369362,0.7464442510517527,0.06756735593080521,-0.6094262599945068,-0.7899584174156189,0,0,0,-1,-1,4013.132098,running,2,2022-06-30T09:33:38.713+02:00,2022-06-30T08:20:05.567+02:00,1197,1.429728,0,0,932.105,0,0,2022-06-30T09:33:00.498+02:00
2022-06-30T09:33:43.537+02:00,4017.956024625,0.060394287109375,-0.6226654052734375,-0.783599853515625,4017.951048625,-1.354568163587924,0.08845284962515695,0.6547996338006841,-0.02182470075786114,0.2068669497966766,-0.2370926737785339,-0.01267826557159424,-0.03504300117492676,-0.01466381549835205,XArbitraryZVertical,0.276591639591006,-0.1687082893059092,-0.5817309353561007,0.7460722056407384,0.07006669789552689,-0.6090003252029419,-0.7900691628456116,0,0,0,-1,-1,4013.132098,running,2,2022-06-30T09:33:38.713+02:00,2022-06-30T08:20:05.567+02:00,1197,1.429728,0,0,932.105,0,0,2022-06-30T09:33:00.498+02:00
2022-06-30T09:33:43.547+02:00,4017.965975625,0.0662078857421875,-0.5959014892578125,-0.7674713134765625,4017.960999625,-1.356812323265038,0.09108372198946615,0.6548929470797702,-0.0262769740074873,0.2118529230356216,-0.2537187933921814,-0.01174542307853699,-0.01359140872955322,0.006225943565368652,XArbitraryZVertical,0.2772021751515368,-0.1680660361348542,-0.5821926478269733,0.7456303694986505,0.07213985174894333,-0.6090743541717529,-0.7898254990577698,0,0,0,-1,-1,4013.132098,running,2,2022-06-30T09:33:38.713+02:00,2022-06-30T08:20:05.567+02:00,1197,1.429728,0,0,932.105,0,0,2022-06-30T09:33:00.498+02:00
2022-06-30T09:33:43.557+02:00,4017.975926625,0.07177734375,-0.584014892578125,-0.7699127197265625,4017.970950625,-1.359152091606335,0.09379649539556466,0.6546727857059754,-0.01061678677797318,0.2213396281003952,-0.2575510740280151,-0.008086748421192169,0.01299792528152466,0.02228933572769165,XArbitraryZVertical,0.2777160431589785,-0.167312953274888,-0.5827143238073577,0.7452007462970208,0.07429476082324982,-0.608899712562561,-0.7897603511810303,0,0,0,-1,-1,4013.132098,running,2,2022-06-30T09:33:38.713+02:00,2022-06-30T08:20:05.567+02:00,1197,1.429728,0,0,932.105,0,0,2022-06-30T09:33:00.498+02:00
2022-06-30T09:33:43.567+02:00,4017.985877625,0.0748443603515625,-0.589447021484375,-0.777801513671875,4017.980901625,-1.362382530634507,0.09800423946933176,0.6544744061239747,0.01808969303965569,0.2267871201038361,-0.2589388489723206,-0.005851529538631439,0.02472716569900513,0.01964855194091797,XArbitraryZVertical,0.2786014101760549,-0.1661348074806833,-0.5833558505637819,0.7446317553811559,0.07762901484966278,-0.608742356300354,-0.7895609736442566,0,0,0,-1,-1,4013.132098,running,2,2022-06-30T09:33:38.713+02:00,2022-06-30T08:20:05.567+02:00,1197,1.429728,0,0,932.105,0,0,2022-06-30T09:33:00.498+02:00
2022-06-30T09:33:43.577+02:00,4017.995828625,0.0735015869140625,-0.611053466796875,-0.7859039306640625,4017.990852625,-1.365630756396974,0.102284694418773,0.6545395620501238,0.04225281998515129,0.2359682023525238,-0.2589094042778015,-0.006159424781799316,0.01934665441513062,0.01138079166412354,XArbitraryZVertical,0.2796052355527151,-0.1650148477613243,-0.5839595847759202,0.7440311777866389,0.08100393414497375,-0.6087940335273743,-0.7891820073127747,0,0,0,-1,-1,4013.132098,running,2,2022-06-30T09:33:38.713+02:00,2022-06-30T08:20:05.567+02:00,1197,1.429728,0,0,932.105,0,0,2022-06-30T09:33:00.498+02:00
2022-06-30T09:33:43.587+02:00,4018.005779625,0.075531005859375,-0.628570556640625,-0.7852783203125,4018.000803625,-1.368874686211955,0.1065897962568944,0.6546533919459634,0.03395334258675575,0.2312136590480804,-0.2572582364082336,-0.01089155673980713,-0.002169489860534668,0.0028533935546875,XArbitraryZVertical,0.280637253103669,-0.1639030269187867,-0.5845491921300504,0.7434251179836104,0.08439330756664276,-0.608884334564209,-0.7887570858001709,0,0,0,-1,-1,4013.132098,running,2,2022-06-30T09:33:38.713+02:00,2022-06-30T08:20:05.567+02:00,1197,1.429728,0,0,932.105,0,0,2022-06-30T09:33:00.498+02:00
2022-06-30T09:33:43.597+02:00,4018.015730625,0.0784759521484375,-0.6337127685546875,-0.77996826171875,4018.010754625,-1.372046087052856,0.1107717071772735,0.6545040029977273,-0.008746515028178692,0.225150391459465,-0.2499405443668365,-0.01216995716094971,-0.01980507373809814,0.003209590911865234,XArbitraryZVertical,0.2815473237877164,-0.1627492172156836,-0.5851579958441285,0.7428552362890238,0.08770111948251724,-0.6087658405303955,-0.7884876132011414,0,0,0,-1,-1,4013.132098,running,2,2022-06-30T09:33:38.713+02:00,2022-06-30T08:20:05.567+02:00,1197,1.429728,0,0,932.105,0,0,2022-06-30T09:33:00.498+02:00
2022-06-30T09:33:43.607+02:00,4018.025681625,0.0843505859375,-0.616180419921875,-0.77667236328125,4018.020705625,-1.375108408994405,0.1148540218796684,0.6539709203293856,-0.0422046072781086,0.222426250576973,-0.2493000328540802,-0.01248030364513397,-0.02537029981613159,0.008477330207824707,XArbitraryZVertical,0.2823023126470768,-0.1615016039775148,-0.5857848063722503,0.7423468052065739,0.09095641225576401,-0.6083428263664246,-0.7884452939033508,0,0,0,-1,-1,4013.132098,running,2,2022-06-30T09:33:38.713+02:00,2022-06-30T08:20:05.567+02:00,1197,1.429728,0,0,932.105,0,0,2022-06-30T09:33:00.498+02:00
2022-06-30T09:33:43.617+02:00,4018.035631625,0.0928802490234375,-0.589324951171875,-0.76910400390625,4018.030656625,-1.378128942508304,0.1189278680171024,0.6531166619149632,-0.06917750090360641,0.2288444042205811,-0.2533491849899292,-0.009878531098365784,-0.008516192436218262,0.01191186904907227,XArbitraryZVertical,0.2829464767444058,-0.1601540970859514,-0.5864351053263469,0.741879916227274,0.09422928094863892,-0.6076645851135254,-0.7885839343070984,0,0,0,-1,-1,4013.132098,running,2,2022-06-30T09:33:38.713+02:00,2022-06-30T08:20:05.567+02:00,1197,1.429728,0,0,932.105,0,0,2022-06-30T09:33:00.498+02:00
2022-06-30T09:33:43.627+02:00,4018.045583625,0.1002960205078125,-0.57550048828125,-0.76483154296875,4018.040607625,-1.381168610827011,0.1231133504884821,0.6521105683732648,-0.07143080234527588,0.2429106831550598,-0.2553926110267639,-0.004723682999610901,0.01753991842269897,0.01968526840209961,XArbitraryZVertical,0.2835714268437599,-0.1587222923874292,-0.5870941676284226,0.7414276295208071,0.09760407358407974,-0.6068652272224426,-0.7887889742851257,0,0,0,-1,-1,4013.132098,running,2,2022-06-30T09:33:38.713+02:00,2022-06-30T08:20:05.567+02:00,1197,1.429728,0,0,932.105,0,0,2022-06-30T09:33:00.498+02:00
2022-06-30T09:33:43.637+02:00,4018.055533625,0.1029815673828125,-0.58758544921875,-0.760955810546875,4018.050558625,-1.384272953347089,0.127372312533401,0.651033011054727,-0.08022449910640717,0.2350932359695435,-0.2664643526077271,-0.000749439001083374,0.03050762414932251,0.02418303489685059,XArbitraryZVertical,0.2841915529061105,-0.157251431253208,-0.5877744480870774,0.7409644926375297,0.1010456159710884,-0.6060084700584412,-0.7890142798423767,0,0,0,-1,-1,4013.132098,running,2,2022-06-30T09:33:38.713+02:00,2022-06-30T08:20:05.567+02:00,1197,1.429728,0,0,932.105,0,0,2022-06-30T09:33:00.498+02:00
2022-06-30T09:33:43.647+02:00,4018.065484625,0.0987396240234375,-0.61077880859375,-0.756988525390625,4018.060509625,-1.387519474956529,0.1316018850758077,0.6498156529316298,-0.1006855666637421,0.2200674116611481,-0.2839251160621643,-0.001496896147727966,0.01745384931564331,0.02835512161254883,XArbitraryZVertical,0.2847465322241021,-0.1557694025665789,-0.5885279195169135,0.7404661816451361,0.104478619992733,-0.605039656162262,-0.7893106341362,0,0,0,-1,-1,4013.132098,running,2,2022-06-30T09:33:38.713+02:00,2022-06-30T08:20:05.567+02:00,1197,1.429728,0,0,932.105,0,0,2022-06-30T09:33:00.498+02:00
2022-06-30T09:33:43.657+02:00,4018.075435625,0.0877685546875,-0.62701416015625,-0.7494964599609375,4018.070460625,-1.390983203519005,0.1358089855621106,0.6481264863382085,-0.1675162613391876,0.2057908624410629,-0.3124419748783112,-0.009196847677230835,-0.007085263729095459,0.03288733959197998,XArbitraryZVertical,0.2851149299716311,-0.1541806925351144,-0.5894235456873623,0.7399444317399873,0.1079366132616997,-0.6036938428878784,-0.7898755669593811,0,0,0,-1,-1,4013.132098,running,2,2022-06-30T09:33:38.713+02:00,2022-06-30T08:20:05.567+02:00,1197,1.429728,0,0,932.105,0,0,2022-06-30T09:33:00.498+02:00
2022-06-30T09:33:43.667+02:00,4018.085386625,0.0748291015625,-0.63916015625,-0.7457122802734375,4018.080411625,-1.394638176053667,0.1400549566776449,0.6455940757125311,-0.2576967477798462,0.2065325528383255,-0.3416901230812073,-0.02373376488685608,-0.0253414511680603,0.04142528772354126,XArbitraryZVertical,0.2851862834053343,-0.1523418663477129,-0.5904909548862669,0.7394466256695885,0.1115024834871292,-0.6016730666160583,-0.7909214496612549,0,0,0,-1,-1,4013.132098,running,2,2022-06-30T09:33:38.713+02:00,2022-06-30T08:20:05.567+02:00,1197,1.429728,0,0,932.105,0,0,2022-06-30T09:33:00.498+02:00
2022-06-30T09:33:43.677+02:00,4018.095337625,0.0626068115234375,-0.64984130859375,-0.7448577880859375,4018.090362625,-1.398466477714909,0.1444711201162381,0.6420846401485871,-0.3530547022819519,0.2216315120458603,-0.3702901005744934,-0.0404682457447052,-0.04029428958892822,0.04679399728775024,XArbitraryZVertical,0.2849555953422064,-0.1501576305768763,-0.5917231162117448,0.7389971424611356,0.1152975037693977,-0.5988662242889404,-0.7925059795379639,0,0,0,-1,-1,4013.132098,running,2,2022-06-30T09:33:38.713+02:00,2022-06-30T08:20:05.567+02:00,1197,1.429728,0,0,932.105,0,0,2022-06-30T09:33:00.498+02:00
2022-06-30T09:33:43.686+02:00,4018.105288625,0.05023193359375,-0.6644439697265625,-0.753692626953125,4018.100313625,-1.402528073871284,0.1491621092586158,0.6376443596678385,-0.4330350160598755,0.2362826317548752,-0.4113222062587738,-0.05680090188980103,-0.05453729629516602,0.04972070455551147,XArbitraryZVertical,0.2844685546130928,-0.1476094229766275,-0.5931225906522581,0.7385761335067744,0.1194078549742699,-0.5953043103218079,-0.7945781946182251,0,0,0,-1,-1,4013.132098,running,2,2022-06-30T09:33:38.713+02:00,2022-06-30T08:20:05.567+02:00,1197,1.429728,0,0,932.105,0,0,2022-06-30T09:33:00.498+02:00
2022-06-30T09:33:43.696+02:00,4018.115239625,0.03314208984375,-0.6775665283203125,-0.753021240234375,4018.110264625,-1.406972847575798,0.1542078641876507,0.63237776802811,-0.5064746737480164,0.2504358887672424,-0.4642586410045624,-0.07366330921649933,-0.07337993383407593,0.04336023330688477,XArbitraryZVertical,0.2837782965629434,-0.1447190343874067,-0.5947209630757823,0.7381281632906426,0.1238954141736031,-0.5910643935203552,-0.7970525622367859,0,0,0,-1,-1,4013.132098,running,2,2022-06-30T09:33:38.713+02:00,2022-06-30T08:20:05.567+02:00,1197,1.429728,0,0,932.105,0,0,2022-06-30T09:33:00.498+02:00
2022-06-30T09:33:43.706+02:00,4018.125190625,0.0102691650390625,-0.6999969482421875,-0.755096435546875,4018.120215625,-1.41190332174063,0.159617176960604,0.6262066984351506,-0.5965384840965271,0.2568554282188416,-0.5266293287277222,-0.09564012289047241,-0.0914914608001709,0.04693573713302612,XArbitraryZVertical,0.2828567490845273,-0.1414698322717163,-0.5965656161449672,0.7376231266964521,0.1287823766469955,-0.5860754251480103,-0.7999566793441772,0,0,0,-1,-1,4013.132098,running,2,2022-06-30T09:33:38.713+02:00,2022-06-30T08:20:05.567+02:00,1197,1.429728,0,0,932.105,0,0,2022-06-30T09:33:00.498+02:00
2022-06-30T09:33:43.716+02:00,4018.135141625,-0.0224609375,-0.72900390625,-0.7649383544921875,4018.130166625,-1.417456228828333,0.1655075682497817,0.6189816558415788,-0.6889755129814148,0.2807127833366394,-0.6070718765258789,-0.1239169836044312,-0.1197912693023682,0.04824376106262207,XArbitraryZVertical,0.2816823727031696,-0.1377864294693226,-0.5987103103012242,0.7370318120445992,0.1341863125562668,-0.580206036567688,-0.8033398985862732,0,0,0,-1,-1,4013.132098,running,2,2022-06-30T09:33:38.713+02:00,2022-06-30T08:20:05.567+02:00,1197,1.429728,0,0,932.105,0,0,2022-06-30T09:33:00.498+02:00
2022-06-30T09:33:43.726+02:00,4018.145092625,-0.0666656494140625,-0.7559051513671875,-0.7655792236328125,4018.140117625,-1.423808890292174,0.172078243086123,0.6106746619376899,-0.7876853346824646,0.3080192506313324,-0.7056295871734619,-0.1627431213855743,-0.1555839776992798,0.04222363233566284,XArbitraryZVertical,0.2803008010913929,-0.1336061860819567,-0.6011967040992771,0.7363038492150475,0.1402823328971863,-0.5734202861785889,-0.8071616888046265,0,0,0,-1,-1,4013.132098,running,2,2022-06-30T09:33:38.713+02:00,2022-06-30T08:20:05.567+02:00,1197,1.429728,0,0,932.105,0,0,2022-06-30T09:33:00.498+02:00
2022-06-30T09:33:43.736+02:00,4018.155043625,-0.1153106689453125,-0.784759521484375,-0.7435302734375,4018.150068625,-1.431112891008351,0.1794684859618915,0.6009568754497084,-0.9321499466896057,0.3412187993526459,-0.824227511882782,-0.2138968408107758,-0.1904735565185547,0.04596877098083496,XArbitraryZVertical,0.2786395991227778,-0.128787131425912,-0.6041043074650265,0.7354127657648385,0.1472313702106476,-0.5654319524765015,-0.8115476965904236,0,0,0,-1,-1,4013.132098,running,2,2022-06-30T09:33:38.713+02:00,2022-06-30T08:20:05.567+02:00,1197,1.429728,0,0,932.105,0,0,2022-06-30T09:33:00.498+02:00
2022-06-30T09:33:43.746+02:00,4018.164994625,-0.165374755859375,-0.821990966796875,-0.72772216796875,4018.160019625,-1.439274678753249,0.1875931210239423,0.5891941008753131,-1.154484510421753,0.376440167427063,-0.9463579058647156,-0.2703601717948914,-0.2290686368942261,0.07327288389205933,XArbitraryZVertical,0.2764719610796376,-0.1231333445181886,-0.607493147172621,0.7344069546803373,0.1550496816635132,-0.5556911826133728,-0.8168028593063354,0,0,0,-1,-1,4013.132098,running,2,2022-06-30T09:33:38.713+02:00,2022-06-30T08:20:05.567+02:00,1197,1.429728,0,0,932.105,0,0,2022-06-30T09:33:00.498+02:00
2022-06-30T09:33:43.756+02:00,4018.174945625,-0.2165679931640625,-0.8516082763671875,-0.720306396484375,4018.169970625,-1.448217347364182,0.1965397529720544,0.5747753228213321,-1.403764843940735,0.4446367919445038,-1.083648085594177,-0.3292733430862427,-0.2783450484275818,0.09543424844741821,XArbitraryZVertical,0.2736339999919501,-0.1163889037407804,-0.6114016721400833,0.733325333987176,0.1638987064361572,-0.5436462163925171,-0.8231561183929443,0,0,0,-1,-1,4013.132098,running,2,2022-06-30T09:33:38.713+02:00,2022-06-30T08:20:05.567+02:00,1197,1.429728,0,0,932.105,0,0,2022-06-30T09:33:00.498+02:00
2022-06-30T09:33:43.766+02:00,4018.184896625,-0.242218017578125,-0.845428466796875,-0.70404052734375,4018.179921625,-1.457844717476899,0.206756048016273,0.5575002070912209,-1.677420616149902,0.5824934840202332,-1.209869146347046,-0.3907696008682251,-0.3225420713424683,0.1102011203765869,XArbitraryZVertical,0.2702206924478154,-0.1082919382130496,-0.6157583584964732,0.7321853154875694,0.1742017716169357,-0.5290665626525879,-0.8305072784423828,0,0,0,-1,-1,4013.132098,running,2,2022-06-30T09:33:38.713+02:00,2022-06-30T08:20:05.567+02:00,1197,1.429728,0,0,932.105,0,0,2022-06-30T09:33:00.498+02:00
2022-06-30T09:33:43.776+02:00,4018.194847625,-0.22857666015625,-0.832489013671875,-0.7024078369140625,4018.189872625,-1.467583908463186,0.2185465059807183,0.5369129927087873,-2.021790027618408,0.7739156484603882,-1.29277765750885,-0.4285216927528381,-0.3339430093765259,0.13481205701828,XArbitraryZVertical,0.2662234319664407,-0.09848323226492985,-0.620370043065306,0.7311409371260396,0.1863038390874863,-0.5114858150482178,-0.8388522863388062,0,0,0,-1,-1,4013.132098,running,2,2022-06-30T09:33:38.713+02:00,2022-06-30T08:20:05.567+02:00,1197,1.429728,0,0,932.105,0,0,2022-06-30T09:33:00.498+02:00
2022-06-30T09:33:43.786+02:00,4018.204798625,-0.19097900390625,-0.8306427001953125,-0.7309112548828125,4018.199823625,-1.476890743457566,0.2319584785654189,0.5126810235550403,-2.351063251495361,0.9865200519561768,-1.37791895866394,-0.4289048910140991,-0.3419740200042725,0.1456862688064575,XArbitraryZVertical,0.2615889541681631,-0.08674263080368184,-0.6250721082201499,0.730295629604875,0.2003283947706223,-0.4905153512954712,-0.8480938673019409,0,0,0,-1,-1,4013.132098,running,2,2022-06-30T09:33:38.713+02:00,2022-06-30T08:20:05.567+02:00,1197,1.429728,0,0,932.105,0,0,2022-06-30T09:33:00.498+02:00
2022-06-30T09:33:43.796+02:00,4018.214749625,-0.131622314453125,-0.798797607421875,-0.73956298828125,4018.209774625,-1.486030826744098,0.2470961459231644,0.485343457694201,-2.604021549224854,1.172072052955627,-1.494199752807617,-0.4073216915130615,-0.3641308844089508,0.1267381906509399,XArbitraryZVertical,0.256539925854448,-0.07323020216162386,-0.6298761556017021,0.7294386296666929,0.216342881321907,-0.4665121734142303,-0.8576492071151733,0,0,0,-1,-1,4013.132098,running,2,2022-06-30T09:33:38.713+02:00,2022-06-30T08:20:05.567+02:00,1197,1.429728,0,0,932.105,0,0,2022-06-30T09:33:00.498+02:00
2022-06-30T09:33:43.806+02:00,4018.224700625,-0.0628814697265625,-0.7627716064453125,-0.7532806396484375,4018.219725625,-1.495042579890602,0.2635521674763497,0.4549909377307882,-2.901930093765259,1.306725382804871,-1.607402920722961,-0.3656306862831116,-0.3593437969684601,0.1276857852935791,XArbitraryZVertical,0.2509941647099699,-0.05811758823055201,-0.6348314643978591,0.7284321263797834,0.2340085506439209,-0.4394541680812836,-0.86724853515625,0,0,0,-1,-1,4013.132098,running,2,2022-06-30T09:33:38.713+02:00,2022-06-30T08:20:05.567+02:00,1197,1.429728,0,0,932.105,0,0,2022-06-30T09:33:00.498+02:00
2022-06-30T09:33:43.816+02:00,4018.234651625,-0.0054473876953125,-0.7549896240234375,-0.772003173828125,4018.229676625,-1.50337115584698,0.2804000850687839,0.4208493312333032,-3.312242746353149,1.361409902572632,-1.696359515190125,-0.3154737055301666,-0.3542361557483673,0.123814582824707,XArbitraryZVertical,0.2444145885831218,-0.04140070412195874,-0.639932737047884,0.7273471094801346,0.2525924146175385,-0.4085358083248138,-0.8770949840545654,0,0,0,-1,-1,4018.222984625,unknown,2,2022-06-30T09:33:43.803+02:00,2022-06-30T08:20:05.567+02:00,1197,1.429728,0,0,932.105,0,0,2022-06-30T09:33:00.498+02:00
2022-06-30T09:33:43.826+02:00,4018.244602625,0.0173797607421875,-0.7520904541015625,-0.773834228515625,4018.239627625,-1.510515543476455,0.2967342405880872,0.3821365379888541,-3.779168605804443,1.358272433280945,-1.786605834960938,-0.2767552137374878,-0.3820862472057343,0.1153159141540527,XArbitraryZVertical,0.2362372782357123,-0.02307636562225151,-0.645168594327413,0.7262347805772037,0.271308034658432,-0.3729037344455719,-0.8873188495635986,0,0,0,-1,-1,4018.222984625,unknown,2,2022-06-30T09:33:43.803+02:00,2022-06-30T08:20:05.567+02:00,1197,1.429728,0,0,932.105,0,0,2022-06-30T09:33:00.498+02:00
2022-06-30T09:33:43.836+02:00,4018.254553625,0.021942138671875,-0.727386474609375,-0.7596893310546875,4018.249577625,-1.516072393064447,0.312112498555339,0.3380786373927752,-4.382844924926758,1.340309739112854,-1.863004326820374,-0.2723077237606049,-0.4204157292842865,0.1239814758300781,XArbitraryZVertical,0.2260160629673405,-0.002997808369845198,-0.6504740691995352,0.7251146370214108,0.2896876633167267,-0.331675112247467,-0.8978155255317688,0,0,0,-1,-1,4018.222984625,unknown,2,2022-06-30T09:33:43.803+02:00,2022-06-30T08:20:05.567+02:00,1197,1.429728,0,0,932.105,0,0,2022-06-30T09:33:00.498+02:00
2022-06-30T09:33:43.846+02:00,4018.264504625,0.0131988525390625,-0.6946563720703125,-0.7575836181640625,4018.259529625,-1.519136863528448,0.3264890882449297,0.2875773584665609,-5.057364940643311,1.376726388931274,-1.871645212173462,-0.2856065034866333,-0.4437569379806519,0.148588240146637,XArbitraryZVertical,0.2132836863030633,0.01927137446769286,-0.6555547903408681,0.7241453761926555,0.307548850774765,-0.2836298942565918,-0.9082773923873901,0,0,0,-1,-1,4018.222984625,unknown,2,2022-06-30T09:33:43.803+02:00,2022-06-30T08:20:05.567+02:00,1197,1.429728,0,0,932.105,0,0,2022-06-30T09:33:00.498+02:00
2022-06-30T09:33:43.856+02:00,4018.274455625,0.0027008056640625,-0.6136627197265625,-0.7607574462890625,4018.269479625,-1.519255549314309,0.3409691936042714,0.2315195370030804,-5.554973602294922,1.542119264602661,-1.84232497215271,-0.3122794032096863,-0.4651999473571777,0.1597024202346802,XArbitraryZVertical,0.1985896959044265,0.04380869380815533,-0.6599169892980664,0.723292775136459,0.3254784643650055,-0.2294567823410034,-0.9172858595848083,0,0,0,-1,-1,4018.222984625,unknown,2,2022-06-30T09:33:43.803+02:00,2022-06-30T08:20:05.567+02:00,1197,1.429728,0,0,932.105,0,0,2022-06-30T09:33:00.498+02:00
2022-06-30T09:33:43.866+02:00,4018.284406625,0.0046539306640625,-0.452056884765625,-0.73907470703125,4018.279430625,-1.516869581852712,0.3570595508051461,0.171890098318584,-5.843845367431641,1.792026877403259,-1.812356114387512,-0.3416689336299896,-0.4426182210445404,0.1623640060424805,XArbitraryZVertical,0.183009733533324,0.07033332315805997,-0.6632905040204853,0.7222231940872755,0.3443699479103088,-0.1710449010133743,-0.9231213331222534,0,0,0,-1,-1,4018.222984625,unknown,2,2022-06-30T09:33:43.803+02:00,2022-06-30T08:20:05.567+02:00,1197,1.429728,0,0,932.105,0,0,2022-06-30T09:33:00.498+02:00
2022-06-30T09:33:43.876+02:00,4018.294357625,0.0246124267578125,-0.2596282958984375,-0.717010498046875,4018.289381625,-1.512452695089756,0.375544386086937,0.1106252478234332,-5.950836658477783,2.048270463943481,-1.77230978012085,-0.3598828911781311,-0.3416575193405151,0.1855468153953552,XArbitraryZVertical,0.1674027528504753,0.09831398122884191,-0.6655819032900879,0.720632598956062,0.3645370006561279,-0.1103997454047203,-0.9246213436126709,0,0,0,-1,-1,4018.222984625,unknown,2,2022-06-30T09:33:43.803+02:00,2022-06-30T08:20:05.567+02:00,1197,1.429728,0,0,932.105,0,0,2022-06-30T09:33:00.498+02:00
2022-06-30T09:33:43.885+02:00,4018.304308625,0.0523223876953125,-0.0884246826171875,-0.7301025390625,4018.299332625,-1.506332855208683,0.3966395489284709,0.04934726757445972,-5.895106792449951,2.293769121170044,-1.7266765832901,-0.361238032579422,-0.2103014290332794,0.2042312026023865,XArbitraryZVertical,0.1523583020685319,0.1271461914329393,-0.6667958770125726,0.7183341881237115,0.3858506977558136,-0.04932724311947823,-0.9212415814399719,0,0,0,-1,-1,4018.222984625,unknown,2,2022-06-30T09:33:43.803+02:00,2022-06-30T08:20:05.567+02:00,1197,1.429728,0,0,932.105,0,0,2022-06-30T09:33:00.498+02:00
2022-06-30T09:33:43.895+02:00,4018.314259625,0.0872039794921875,0.0668487548828125,-0.77197265625,4018.309283625,-1.49909057874215,0.4206765093968396,-0.01002786498392208,-5.608003616333008,2.569586753845215,-1.674522280693054,-0.3560349345207214,-0.09845276176929474,0.1826645135879517,XArbitraryZVertical,0.1386592816391599,0.1561733371679608,-0.6670481587612037,0.7151435329302419,0.4083575308322906,0.01002769730985165,-0.9127669930458069,0,0,0,-1,-1,4018.222984625,unknown,2,2022-06-30T09:33:43.803+02:00,2022-06-30T08:20:05.567+02:00,1197,1.429728,0,0,932.105,0,0,2022-06-30T09:33:00.498+02:00
2022-06-30T09:33:43.905+02:00,4018.324210625,0.129730224609375,0.2201080322265625,-0.79815673828125,4018.319234625,-1.491461018061231,0.4478957504589562,-0.0656026803954424,-5.175703048706055,2.850617170333862,-1.638000011444092,-0.3449340164661407,0.001292750239372253,0.1274489164352417,XArbitraryZVertical,0.1271128668908131,0.1847473303045425,-0.6665594504459191,0.7109214340603275,0.4321382343769073,0.0655556321144104,-0.8994215130805969,0,0,0,-1,-1,4018.222984625,unknown,2,2022-06-30T09:33:43.803+02:00,2022-06-30T08:20:05.567+02:00,1197,1.429728,0,0,932.105,0,0,2022-06-30T09:33:00.498+02:00
2022-06-30T09:33:43.915+02:00,4018.334161625,0.18023681640625,0.3414306640625,-0.796539306640625,4018.329185625,-1.483937031463196,0.4784044117463698,-0.1173421838580275,-4.803969860076904,3.141883373260498,-1.672172784805298,-0.3274670839309692,0.1030345633625984,0.08346933126449585,XArbitraryZVertical,0.1178327736117077,0.2128437513371968,-0.6656114894410449,0.7055312492457804,0.457197517156601,0.117073081433773,-0.8816259503364563,0,0,0,-1,-1,4018.222984625,unknown,2,2022-06-30T09:33:43.803+02:00,2022-06-30T08:20:05.567+02:00,1197,1.429728,0,0,932.105,0,0,2022-06-30T09:33:00.498+02:00
2022-06-30T09:33:43.925+02:00,4018.344112625,0.2489471435546875,0.4037017822265625,-0.7965850830078125,4018.339136625,-1.477149705460248,0.5118974457587733,-0.1659209967889897,-4.427623748779297,3.39363431930542,-1.780672430992126,-0.3028682768344879,0.1762695461511612,0.06330442428588867,XArbitraryZVertical,0.1105751876637421,0.2405229150280255,-0.6645752929625259,0.6987572319126272,0.483105331659317,0.165160745382309,-0.8598437309265137,0,0,0,-1,-1,4018.222984625,unknown,2,2022-06-30T09:33:43.803+02:00,2022-06-30T08:20:05.567+02:00,1197,1.429728,0,0,932.105,0,0,2022-06-30T09:33:00.498+02:00
2022-06-30T09:33:43.937+02:00,4018.354063625,0.3225860595703125,0.4283905029296875,-0.7861175537109375,4018.349087625,-1.471680703618305,0.5476422883883323,-0.2114492720031516,-4.005580902099609,3.581593990325928,-1.907663702964783,-0.2601317763328552,0.193824291229248,0.0381544828414917,XArbitraryZVertical,0.1051799918540346,0.2675208783913284,-0.6637487563341873,0.6905124484299914,0.5090791583061218,0.2098771184682846,-0.8347395062446594,0,0,0,-1,-1,4018.222984625,unknown,2,2022-06-30T09:33:43.803+02:00,2022-06-30T08:20:05.567+02:00,1197,1.429728,0,0,932.105,0,0,2022-06-30T09:33:00.498+02:00
2022-06-30T09:33:43.947+02:00,4018.364014625,0.39324951171875,0.4529876708984375,-0.76312255859375,4018.359038625,-1.467983464870137,0.5846163423511969,-0.2536040678208675,-3.53702187538147,3.666977167129517,-2.019009828567505,-0.2116409540176392,0.1774957776069641,0.02113288640975952,XArbitraryZVertical,0.10155709796635,0.2933614987948615,-0.6633337105227022,0.6808917093711209,0.5342273116111755,0.2508943676948547,-0.8072503805160522,0,0,0,-1,-1,4018.222984625,unknown,2,2022-06-30T09:33:43.803+02:00,2022-06-30T08:20:05.567+02:00,1197,1.429728,0,0,932.105,0,0,2022-06-30T09:33:00.498+02:00
2022-06-30T09:33:43.955+02:00,4018.373965625,0.449981689453125,0.48663330078125,-0.70745849609375,4018.368989625,-1.466052666685023,0.6217301885214617,-0.2923517565443358,-3.096680879592896,3.677691221237183,-2.080315589904785,-0.1644789576530457,0.1647823452949524,0.01525825262069702,XArbitraryZVertical,0.09943341325600126,0.3176831823276604,-0.6633664235459682,0.6701757489349999,0.5577287077903748,0.2882049977779388,-0.778380811214447,0,0,0,-1,-1,4018.222984625,unknown,2,2022-06-30T09:33:43.803+02:00,2022-06-30T08:20:05.567+02:00,1197,1.429728,0,0,932.105,0,0,2022-06-30T09:33:00.498+02:00
2022-06-30T09:33:43.965+02:00,4018.383916625,0.494781494140625,0.5128631591796875,-0.6192779541015625,4018.378940625,-1.465425206302921,0.6583315838833546,-0.3279889786863633,-2.726672172546387,3.649995088577271,-2.093093872070312,-0.1292023658752441,0.1644930839538574,0.04138839244842529,XArbitraryZVertical,0.09847356463061986,0.3404108608602744,-0.663715442946612,0.6587149961187554,0.579184353351593,0.3221398591995239,-0.7488468289375305,0,0,0,-1,-1,4018.222984625,unknown,2,2022-06-30T09:33:43.803+02:00,2022-06-30T08:20:05.567+02:00,1197,1.429728,0,0,932.105,0,0,2022-06-30T09:33:00.498+02:00
2022-06-30T09:33:43.975+02:00,4018.393867625,0.5290069580078125,0.5291748046875,-0.5582275390625,4018.388891625,-1.465680968436268,0.6945242858419144,-0.3607401000614767,-2.377727508544922,3.64989161491394,-2.058443784713745,-0.1040439009666443,0.1598960161209106,0.09962570667266846,XArbitraryZVertical,0.0985982339351736,0.36169960381734,-0.6642243882200303,0.646728633009901,0.5988256931304932,0.3529667854309082,-0.7189035415649414,0,0,0,-1,-1,4018.222984625,unknown,2,2022-06-30T09:33:43.803+02:00,2022-06-30T08:20:05.567+02:00,1197,1.429728,0,0,932.105,0,0,2022-06-30T09:33:00.498+02:00
2022-06-30T09:33:43.985+02:00,4018.403818625,0.5625,0.55120849609375,-0.5203704833984375,4018.398842625,-1.466546294539503,0.7307109013250789,-0.3906585387618635,-2.074272155761719,3.698063135147095,-1.992995023727417,-0.08810913562774658,0.148377001285553,0.1303658485412598,XArbitraryZVertical,0.09989476104088534,0.3817386173078581,-0.6647634527661037,0.6343392794749134,0.617116391658783,0.380797415971756,-0.688593327999115,0,0,0,-1,-1,4018.222984625,unknown,2,2022-06-30T09:33:43.803+02:00,2022-06-30T08:20:05.567+02:00,1197,1.429728,0,0,932.105,0,0,2022-06-30T09:33:00.498+02:00
2022-06-30T09:33:43.995+02:00,4018.413769625,0.592071533203125,0.5863189697265625,-0.47564697265625,4018.408793625,-1.467855287962089,0.7673897993081221,-0.4180197541427527,-1.789507031440735,3.784684658050537,-1.929680466651917,-0.07197928428649902,0.1452566385269165,0.1373826265335083,XArbitraryZVertical,0.1024093439989681,0.4007939420058305,-0.6652493687984827,0.6215464075079365,0.6344795823097229,0.4059514999389648,-0.6577531099319458,0,0,0,-1,-1,4018.222984625,unknown,2,2022-06-30T09:33:43.803+02:00,2022-06-30T08:20:05.567+02:00,1197,1.429728,0,0,932.105,0,0,2022-06-30T09:33:00.498+02:00
2022-06-30T09:33:44.005+02:00,4018.423720625,0.627838134765625,0.6432342529296875,-0.4322967529296875,4018.418744625,-1.469858218397498,0.8046878136712405,-0.4431301023082632,-1.525030136108398,3.879323244094849,-1.905789732933044,-0.05894118547439575,0.1575492918491364,0.1507227420806885,XArbitraryZVertical,0.1061329948476563,0.4189880067882921,-0.6657467375021637,0.6082484443023768,0.6510130167007446,0.4287693500518799,-0.6263696551322937,0,0,0,-1,-1,4018.222984625,unknown,2,2022-06-30T09:33:43.803+02:00,2022-06-30T08:20:05.567+02:00,1197,1.429728,0,0,932.105,0,0,2022-06-30T09:33:00.498+02:00
2022-06-30T09:33:44.015+02:00,4018.433671625,0.6732940673828125,0.7134857177734375,-0.4024810791015625,4018.428695625,-1.472874515181708,0.8422694680183527,-0.4666691215313895,-1.291034460067749,3.939179658889771,-1.937453150749207,-0.03853249549865723,0.1933198571205139,0.1622848510742188,XArbitraryZVertical,0.1107908908085847,0.4363881628441355,-0.6663854848268582,0.5943241409565702,0.6663709282875061,0.4499140679836273,-0.5945814847946167,0,0,0,-1,-1,4018.222984625,unknown,2,2022-06-30T09:33:43.803+02:00,2022-06-30T08:20:05.567+02:00,1197,1.429728,0,0,932.105,0,0,2022-06-30T09:33:00.498+02:00
2022-06-30T09:33:44.026+02:00,4018.443621625,0.728759765625,0.7626953125,-0.380462646484375,4018.438646625,-1.477082128435202,0.8794605965675157,-0.4891259938041685,-1.092155456542969,3.918579816818237,-1.972064614295959,-0.006767153739929199,0.2436308860778809,0.1603271961212158,XArbitraryZVertical,0.1160426215394841,0.4529128159287676,-0.6672569282086935,0.5798037078492401,0.6800615191459656,0.4698545336723328,-0.5628081560134888,0,0,0,-1,-1,4018.222984625,unknown,2,2022-06-30T09:33:43.803+02:00,2022-06-30T08:20:05.567+02:00,1197,1.429728,0,0,932.105,0,0,2022-06-30T09:33:00.498+02:00
2022-06-30T09:33:44.035+02:00,4018.453572625,0.788543701171875,0.7440643310546875,-0.35858154296875,4018.448597625,-1.482370123836167,0.9153971965959554,-0.5104748296139915,-0.8327988386154175,3.792362451553345,-1.94575035572052,0.03702795505523682,0.2741034328937531,0.1513127088546753,XArbitraryZVertical,0.1216052567744121,0.4683209533147921,-0.6683456595956653,0.5649795073175745,0.6917321681976318,0.4885916113853455,-0.5317752957344055,0,0,0,-1,-1,4018.222984625,unknown,2,2022-06-30T09:33:43.803+02:00,2022-06-30T08:20:05.567+02:00,1197,1.429728,0,0,932.105,0,0,2022-06-30T09:33:00.498+02:00
2022-06-30T09:33:44.045+02:00,4018.463523625,0.8242645263671875,0.7043609619140625,-0.267730712890625,4018.458548625,-1.489228221654767,0.9486693754639669,-0.5291067232884089,-0.4357785582542419,3.577909231185913,-1.759117364883423,0.08702510595321655,0.2393015623092651,0.1444952487945557,XArbitraryZVertical,0.1277131939907068,0.4818204949216248,-0.669717246896504,0.5504700499991754,0.7015189528465271,0.5047624111175537,-0.5030766725540161,0,0,0,-1,-1,4018.222984625,unknown,2,2022-06-30T09:33:43.803+02:00,2022-06-30T08:20:05.567+02:00,1197,1.429728,0,0,932.105,0,0,2022-06-30T09:33:00.498+02:00
2022-06-30T09:33:44.055+02:00,4018.473474625,0.81793212890625,0.6958770751953125,-0.15753173828125,4018.468499625,-1.497489850688675,0.9789180790348415,-0.5440848862977058,-0.1295878440141678,3.360828876495361,-1.529712200164795,0.1142061948776245,0.1867252588272095,0.2096271812915802,XArbitraryZVertical,0.134546534307424,0.493171752205504,-0.6712412050376957,0.5367624977593209,0.7100585699081421,0.5176353454589844,-0.4773577153682709,0,0,0,-1,-1,4018.222984625,unknown,2,2022-06-30T09:33:43.803+02:00,2022-06-30T08:20:05.567+02:00,1197,1.429728,0,0,932.105,0,0,2022-06-30T09:33:00.498+02:00
2022-06-30T09:33:44.064+02:00,4018.483425625,0.7998046875,0.710540771484375,-0.0207366943359375,4018.478450625,-1.506295613087167,1.007153506753544,-0.5564372848341349,0.006544156465679407,3.259595394134521,-1.390511155128479,0.1001402139663696,0.1677124500274658,0.2961388230323792,XArbitraryZVertical,0.1418604805044711,0.5030312056084196,-0.6726882252649405,0.5237612084039459,0.7177922129631042,0.5281643271446228,-0.4536704123020172,0,0,0,-1,-1,4018.222984625,unknown,2,2022-06-30T09:33:43.803+02:00,2022-06-30T08:20:05.567+02:00,1197,1.429728,0,0,932.105,0,0,2022-06-30T09:33:00.498+02:00
2022-06-30T09:33:44.074+02:00,4018.493376625,0.80810546875,0.7497100830078125,0.0285491943359375,4018.488401625,-1.514912966641953,1.035105710827505,-0.5680364130200199,0.02648491039872169,3.291383266448975,-1.36651611328125,0.07493078708648682,0.1725626587867737,0.4095392227172852,XArbitraryZVertical,0.149380012652142,0.5123941017280214,-0.6739022029937952,0.5108754562289219,0.7248741984367371,0.5379778742790222,-0.4302757978439331,0,0,0,-1,-1,4018.222984625,unknown,2,2022-06-30T09:33:43.803+02:00,2022-06-30T08:20:05.567+02:00,1197,1.429728,0,0,932.105,0,0,2022-06-30T09:33:00.498+02:00
2022-06-30T09:33:44.084+02:00,4018.503327625,0.8583526611328125,0.8014984130859375,0.06256103515625,4018.498352625,-1.523268999507329,1.06347442904197,-0.5794293304025174,0.04153762757778168,3.317807912826538,-1.312110424041748,0.07672339677810669,0.2021632790565491,0.435086727142334,XArbitraryZVertical,0.1571208537152884,0.5215786980384715,-0.6748597452496287,0.4978283502613666,0.731382429599762,0.5475465059280396,-0.4065373837947845,0,0,0,-1,-1,4018.222984625,unknown,2,2022-06-30T09:33:43.803+02:00,2022-06-30T08:20:05.567+02:00,1197,1.429728,0,0,932.105,0,0,2022-06-30T09:33:00.498+02:00
2022-06-30T09:33:44.094+02:00,4018.513278625,0.9176177978515625,0.839996337890625,0.084320068359375,4018.508303625,-1.530595853645003,1.092123344720842,-0.590322506492058,-0.00362172769382596,3.236283779144287,-1.188051342964172,0.1209635734558105,0.2448691725730896,0.4452112317085266,XArbitraryZVertical,0.1649278632763807,0.5305410218547847,-0.6753553134626017,0.4849951224825516,0.7373894453048706,0.5566290020942688,-0.3826500475406647,0,0,0,-1,-1,4018.222984625,unknown,2,2022-06-30T09:33:43.803+02:00,2022-06-30T08:20:05.567+02:00,1197,1.429728,0,0,932.105,0,0,2022-06-30T09:33:00.498+02:00
2022-06-30T09:33:44.104+02:00,4018.523229625,0.9607086181640625,0.8374786376953125,0.1605377197265625,4018.518254625,-1.535987984851998,1.120349074395324,-0.6004429352453761,-0.1118653789162636,3.040102005004883,-1.033328294754028,0.174832820892334,0.2749881148338318,0.4435362815856934,XArbitraryZVertical,0.1723945830851012,0.5391401490322874,-0.6752207616494517,0.4729535377081309,0.7427852749824524,0.5650079846382141,-0.3592160046100616,0,0,0,-1,-1,4018.222984625,unknown,2,2022-06-30T09:33:43.803+02:00,2022-06-30T08:20:05.567+02:00,1197,1.429728,0,0,932.105,0,0,2022-06-30T09:33:00.498+02:00
2022-06-30T09:33:44.114+02:00,4018.533180625,0.9661865234375,0.814910888671875,0.2355499267578125,4018.528205625,-1.539013176244548,1.147672304576979,-0.6098432907740235,-0.2409811466932297,2.801476240158081,-0.8993222117424011,0.2132633328437805,0.2647393345832825,0.4971312582492828,XArbitraryZVertical,0.1791924698579218,0.5473512574966578,-0.6744370448797943,0.4619862729317434,0.7474456429481506,0.5727390050888062,-0.3365933299064636,0,0,0,-1,-1,4018.222984625,unknown,2,2022-06-30T09:33:43.803+02:00,2022-06-30T08:20:05.567+02:00,1197,1.429728,0,0,932.105,0,0,2022-06-30T09:33:00.498+02:00
2022-06-30T09:33:44.124+02:00,4018.543131625,0.9539337158203125,0.796142578125,0.33343505859375,4018.538156625,-1.539688633421792,1.174131741056512,-0.6189234036570666,-0.3869423568248749,2.603584051132202,-0.8236783146858215,0.2149256467819214,0.2347519993782043,0.5502287149429321,XArbitraryZVertical,0.1851697245678894,0.5553133010102046,-0.6730865858483203,0.4519887435365165,0.7512612342834473,0.5801585912704468,-0.3146786093711853,0,0,0,-1,-1,4018.222984625,unknown,2,2022-06-30T09:33:43.803+02:00,2022-06-30T08:20:05.567+02:00,1197,1.429728,0,0,932.105,0,0,2022-06-30T09:33:00.498+02:00
2022-06-30T09:33:44.134+02:00,4018.553082625,0.950469970703125,0.7852020263671875,0.4285736083984375,4018.548107625,-1.537917497397665,1.200381425182725,-0.6280073961257321,-0.5671703815460205,2.475589752197266,-0.7632309794425964,0.1996163129806519,0.2086088061332703,0.6263673901557922,XArbitraryZVertical,0.1903797044750996,0.5632845411696434,-0.6711595862078286,0.4427313534508863,0.7543177604675293,0.5875335335731506,-0.2929321825504303,0,0,0,-1,-1,4018.222984625,unknown,2,2022-06-30T09:33:43.803+02:00,2022-06-30T08:20:05.567+02:00,1197,1.429728,0,0,932.105,0,0,2022-06-30T09:33:00.498+02:00
2022-06-30T09:33:44.144+02:00,4018.563033625,0.969268798828125,0.7874603271484375,0.4796600341796875,4018.558058625,-1.533795221094053,1.226862713101383,-0.6370458513979251,-0.6837363839149475,2.354209184646606,-0.7039833664894104,0.1936911344528198,0.1903783679008484,0.6996285915374756,XArbitraryZVertical,0.1949856316524845,0.5713608654264869,-0.6686644950685484,0.4340681896448822,0.7567790746688843,0.5948233008384705,-0.2710547149181366,0,0,0,-1,-1,4018.222984625,unknown,2,2022-06-30T09:33:43.803+02:00,2022-06-30T08:20:05.567+02:00,1197,1.429728,0,0,932.105,0,0,2022-06-30T09:33:00.498+02:00
2022-06-30T09:33:44.155+02:00,4018.572984625,1.016815185546875,0.804168701171875,0.5414276123046875,4018.568009625,-1.528303944832736,1.252666998495462,-0.6453807977840759,-0.688727855682373,2.162566900253296,-0.5816868543624878,0.2104838490486145,0.1859573721885681,0.7295392751693726,XArbitraryZVertical,0.1991654591575826,0.5791317586512259,-0.6658567896727753,0.4261153957263059,0.7587852478027344,0.6015027165412903,-0.2498790472745895,0,0,0,-1,-1,4018.222984625,unknown,2,2022-06-30T09:33:43.803+02:00,2022-06-30T08:20:05.567+02:00,1197,1.429728,0,0,932.105,0,0,2022-06-30T09:33:00.498+02:00
2022-06-30T09:33:44.164+02:00,4018.582935625,1.042556762695312,0.833770751953125,0.6310272216796875,4018.577960625,-1.522103473508852,1.276684237790591,-0.652005265333152,-0.6615076661109924,1.906166076660156,-0.3892465531826019,0.2560785412788391,0.1973868608474731,0.7718524932861328,XArbitraryZVertical,0.2030752594218218,0.5861297854158132,-0.6628845095096232,0.4192809206735162,0.7607369422912598,0.606781542301178,-0.230424627661705,0,0,0,-1,-1,4018.222984625,unknown,2,2022-06-30T09:33:43.803+02:00,2022-06-30T08:20:05.567+02:00,1197,1.429728,0,0,932.105,0,0,2022-06-30T09:33:00.498+02:00
2022-06-30T09:33:44.174+02:00,4018.592886625,1.012466430664062,0.8663787841796875,0.7128448486328125,4018.587911625,-1.515029390987173,1.29838414474879,-0.6567667979777094,-0.7117554545402527,1.594001173973083,-0.2236548960208893,0.2797907590866089,0.2232111096382141,0.844111442565918,XArbitraryZVertical,0.2065423504912204,0.5922822454054836,-0.6597490544615976,0.413851820332744,0.762766420841217,0.6105594635009766,-0.2130839973688126,0,0,0,-1,-1,4018.222984625,unknown,2,2022-06-30T09:33:43.803+02:00,2022-06-30T08:20:05.567+02:00,1197,1.429728,0,0,932.105,0,0,2022-06-30T09:33:00.498+02:00
2022-06-30T09:33:44.184+02:00,4018.602837625,0.9438018798828125,0.8789825439453125,0.759429931640625,4018.597862625,-1.506197909213512,1.318156221217893,-0.6602848625424895,-0.8467164635658264,1.313735723495483,-0.1048060059547424,0.2477211952209473,0.2530366182327271,0.9102687239646912,XArbitraryZVertical,0.2092208357684352,0.5979254032766851,-0.6563032034077052,0.4098512660533297,0.7647455930709839,0.6133418679237366,-0.1974237114191055,0,0,0,-1,-1,4018.222984625,unknown,2,2022-06-30T09:33:43.803+02:00,2022-06-30T08:20:05.567+02:00,1197,1.429728,0,0,932.105,0,0,2022-06-30T09:33:00.498+02:00
2022-06-30T09:33:44.194+02:00,4018.612788625,0.8945465087890625,0.8707427978515625,0.791168212890625,4018.607813625,-1.495059601347237,1.336936323352647,-0.6629598627904713,-0.9928455352783203,1.101989030838013,0.01059345621615648,0.1770828366279602,0.2635298371315002,0.9420770406723022,XArbitraryZVertical,0.211108635097249,0.6034150393939733,-0.6523916058348689,0.4070733097024361,0.7667193412780762,0.6154524087905884,-0.1826468706130981,0,0,0,-1,-1,4018.222984625,unknown,2,2022-06-30T09:33:43.803+02:00,2022-06-30T08:20:05.567+02:00,1197,1.429728,0,0,932.105,0,0,2022-06-30T09:33:00.498+02:00
2022-06-30T09:33:44.204+02:00,4018.622739625,0.893524169921875,0.8753662109375,0.8427734375,4018.617764625,-1.482149818383095,1.354997003217282,-0.6646253477752254,-1.066639304161072,0.9317062497138977,0.1179846301674843,0.1256563067436218,0.2539781928062439,0.9597190618515015,XArbitraryZVertical,0.2125008800510662,0.6087430178216107,-0.6480741432773418,0.405308792500113,0.7688904404640198,0.61676424741745,-0.1685506254434586,0,0,0,-1,-1,4018.222984625,unknown,2,2022-06-30T09:33:43.803+02:00,2022-06-30T08:20:05.567+02:00,1197,1.429728,0,0,932.105,0,0,2022-06-30T09:33:00.498+02:00
2022-06-30T09:33:44.214+02:00,4018.632690625,0.9362945556640625,0.9087982177734375,0.9268035888671875,4018.627715625,-1.468198105846643,1.371743734427543,-0.6651633860690482,-1.119771242141724,0.6904317736625671,0.2276028245687485,0.122244656085968,0.2581782937049866,0.9983592629432678,XArbitraryZVertical,0.2134612084586457,0.6137112659305854,-0.6435387471939974,0.4045378173092639,0.7712799310684204,0.6171876788139343,-0.1555855870246887,0,0,0,-1,-1,4018.222984625,unknown,2,2022-06-30T09:33:43.803+02:00,2022-06-30T08:20:05.567+02:00,1197,1.429728,0,0,932.105,0,0,2022-06-30T09:33:00.498+02:00
2022-06-30T09:33:44.224+02:00,4018.642641625,0.96185302734375,0.93927001953125,0.9949493408203125,4018.637666625,-1.453359535925876,1.386340909487965,-0.6646843443297484,-1.169095158576965,0.3969378471374512,0.314438134431839,0.1625356674194336,0.2919872403144836,1.071168899536133,XArbitraryZVertical,0.213734720958333,0.618170618966484,-0.6389097711223489,0.4049407352609626,0.7737593054771423,0.61681067943573,-0.1443651169538498,0,0,0,-1,-1,4018.222984625,unknown,2,2022-06-30T09:33:43.803+02:00,2022-06-30T08:20:05.567+02:00,1197,1.429728,0,0,932.105,0,0,2022-06-30T09:33:00.498+02:00
2022-06-30T09:33:44.234+02:00,4018.652592625,0.944244384765625,0.9549407958984375,1.00787353515625,4018.647617625,-1.437832770847867,1.398183990807756,-0.6632330203156949,-1.196765065193176,0.06614759564399719,0.4090175032615662,0.1855576038360596,0.3236021399497986,1.130294680595398,XArbitraryZVertical,0.2131855213097827,0.6219962784875351,-0.6342855153277069,0.4066382060482735,0.7762959003448486,0.6156677007675171,-0.1353451311588287,0,0,0,-1,-1,4018.222984625,unknown,2,2022-06-30T09:33:43.803+02:00,2022-06-30T08:20:05.567+02:00,1197,1.429728,0,0,932.105,0,0,2022-06-30T09:33:00.498+02:00
2022-06-30T09:33:44.244+02:00,4018.662543625,0.9116973876953125,0.9557647705078125,1.030136108398438,4018.657567625,-1.421832795527435,1.407045599498002,-0.6606786655388466,-1.225709676742554,-0.255345493555069,0.520588219165802,0.1652309894561768,0.3412876725196838,1.136590242385864,XArbitraryZVertical,0.2118698378451304,0.6251022889198837,-0.6296978734662858,0.4096815162322784,0.7790136933326721,0.6136528253555298,-0.1287166029214859,0,0,0,-1,-1,4018.222984625,unknown,2,2022-06-30T09:33:43.803+02:00,2022-06-30T08:20:05.567+02:00,1197,1.429728,0,0,932.105,0,0,2022-06-30T09:33:00.498+02:00
2022-06-30T09:33:44.254+02:00,4018.672494625,0.8841400146484375,0.971343994140625,1.08782958984375,4018.667518625,-1.404914530154356,1.413250804354018,-0.6570968427173631,-1.340453028678894,-0.5812791585922241,0.6146407723426819,0.1297345161437988,0.344943642616272,1.15436053276062,XArbitraryZVertical,0.2097431731137002,0.6276110826722906,-0.6250108300474264,0.4140936869447803,0.7819631099700928,0.6108207702636719,-0.1242242604494095,0,0,0,-1,-1,4018.222984625,unknown,2,2022-06-30T09:33:43.803+02:00,2022-06-30T08:20:05.567+02:00,1197,1.429728,0,0,932.105,0,0,2022-06-30T09:33:00.498+02:00
2022-06-30T09:33:44.264+02:00,4018.682445625,0.863494873046875,0.994598388671875,1.154586791992188,4018.677469625,-1.385419038765559,1.417654506791928,-0.6530828274103453,-1.610845923423767,-0.9283124804496765,0.659237802028656,0.09922075271606445,0.3637059926986694,1.208982348442078,XArbitraryZVertical,0.2063606812067999,0.6299515599600738,-0.6198560356037779,0.4199463704318467,0.7849195599555969,0.6076377034187317,-0.1211526021361351,0,0,0,-1,-1,4018.222984625,unknown,2,2022-06-30T09:33:43.803+02:00,2022-06-30T08:20:05.567+02:00,1197,1.429728,0,0,932.105,0,0,2022-06-30T09:33:00.498+02:00
2022-06-30T09:33:44.274+02:00,4018.692396625,0.853240966796875,1.034149169921875,1.239242553710938,4018.687420625,-1.362163122828432,1.42051125296919,-0.6490149728029488,-1.961012959480286,-1.333394289016724,0.715808093547821,0.07579541206359863,0.3901960849761963,1.273865818977356,XArbitraryZVertical,0.2013022294766786,0.6323274321507811,-0.6139805438331795,0.4273959948730135,0.7876996994018555,0.6044019460678101,-0.1192788630723953,0,0,0,-1,-1,4018.222984625,unknown,2,2022-06-30T09:33:43.803+02:00,2022-06-30T08:20:05.567+02:00,1197,1.429728,0,0,932.105,0,0,2022-06-30T09:33:00.498+02:00
2022-06-30T09:33:44.284+02:00,4018.702347625,0.8326568603515625,1.07891845703125,1.337371826171875,4018.697371625,-1.334074960409671,1.421757692394642,-0.6447077764886118,-2.363848924636841,-1.828936576843262,0.8098344802856445,0.06282633543014526,0.4331839084625244,1.357925176620483,XArbitraryZVertical,0.1942730301021722,0.6347572658980601,-0.6070718848893287,0.436812259824818,0.7904149293899536,0.6009649038314819,-0.1186824068427086,0,0,0,-1,-1,4018.222984625,unknown,2,2022-06-30T09:33:43.803+02:00,2022-06-30T08:20:05.567+02:00,1197,1.429728,0,0,932.105,0,0,2022-06-30T09:33:00.498+02:00
2022-06-30T09:33:44.293+02:00,4018.712298625,0.801788330078125,1.143035888671875,1.389053344726562,4018.707322625,-1.301679193462023,1.419878570152526,-0.640346686189764,-2.632041215896606,-2.462689399719238,0.8229040503501892,0.0398830771446228,0.4814445972442627,1.457932353019714,XArbitraryZVertical,0.1849227876065778,0.6368071746674616,-0.5993332141208003,0.4484193178506783,0.7927740216255188,0.5974735021591187,-0.1205603703856468,0,0,0,-1,-1,4018.222984625,unknown,2,2022-06-30T09:33:43.803+02:00,2022-06-30T08:20:05.567+02:00,1197,1.429728,0,0,932.105,0,0,2022-06-30T09:33:00.498+02:00
2022-06-30T09:33:44.303+02:00,4018.722249625,0.812652587890625,1.23175048828125,1.415756225585938,4018.717273625,-1.266779213402636,1.412740154503555,-0.6364049889732583,-2.81198787689209,-3.175527572631836,0.8327612280845642,0.007575809955596924,0.5487275123596191,1.515639543533325,XArbitraryZVertical,0.1730559431015026,0.6377762872056062,-0.591333395467828,0.4621880840431934,0.7942126989364624,0.5943080186843872,-0.1265860944986343,0,0,0,-1,-1,4018.222984625,unknown,2,2022-06-30T09:33:43.803+02:00,2022-06-30T08:20:05.567+02:00,1197,1.429728,0,0,932.105,0,0,2022-06-30T09:33:00.498+02:00
2022-06-30T09:33:44.313+02:00,4018.732200625,0.8062896728515625,1.306625366210938,1.323318481445312,4018.727224625,-1.230620807949956,1.398124453277344,-0.632693399655774,-2.817084074020386,-4.08405065536499,0.8609340786933899,0.01820743083953857,0.6404312252998352,1.554314613342285,XArbitraryZVertical,0.1585510151722545,0.6368535752988982,-0.5833751388836554,0.4784899243112847,0.7944454550743103,0.5913189649581909,-0.1385581940412521,0,0,0,-1,-1,4018.222984625,unknown,2,2022-06-30T09:33:43.803+02:00,2022-06-30T08:20:05.567+02:00,1197,1.429728,0,0,932.105,0,0,2022-06-30T09:33:00.498+02:00
2022-06-30T09:33:44.323+02:00,4018.742151625,0.7834320068359375,1.376998901367188,1.249038696289062,4018.737175625,-1.194733074277593,1.373557211835558,-0.6291401083374671,-2.791958332061768,-5.137901782989502,0.9205135107040405,0.01343250274658203,0.7181752920150757,1.48176109790802,XArbitraryZVertical,0.1413047333171316,0.6330969382938608,-0.5758135426098517,0.4976544462019671,0.7928573489189148,0.5884497165679932,-0.1584424823522568,0,0,0,-1,-1,4018.222984625,unknown,2,2022-06-30T09:33:43.803+02:00,2022-06-30T08:20:05.567+02:00,1197,1.429728,0,0,932.105,0,0,2022-06-30T09:33:00.498+02:00
2022-06-30T09:33:44.333+02:00,4018.752102625,0.7324676513671875,1.3829345703125,1.188858032226562,4018.747126625,-1.158058485000198,1.337571288947749,-0.6257280896450343,-2.910243511199951,-6.430704116821289,1.018590450286865,-0.005160272121429443,0.7913109660148621,1.436367154121399,XArbitraryZVertical,0.120701500534037,0.6259128949892876,-0.5682168414056165,0.5203784715271957,0.7885924577713013,0.5856875777244568,-0.1873283982276917,0,0,0,-1,-1,4018.222984625,unknown,2,2022-06-30T09:33:43.803+02:00,2022-06-30T08:20:05.567+02:00,1197,1.429728,0,0,932.105,0,0,2022-06-30T09:33:00.498+02:00
2022-06-30T09:33:44.343+02:00,4018.762053625,0.6664276123046875,1.280288696289062,1.17431640625,4018.757077625,-1.119152086844212,1.29025756090582,-0.6229811524616599,-3.088260173797607,-7.626682281494141,1.129610657691956,-0.04792523384094238,0.7994753122329712,1.413718819618225,XArbitraryZVertical,0.09629380290165321,0.6150586610641767,-0.5599102596092387,0.5467456638330719,0.7803930640220642,0.5834589004516602,-0.2248606979846954,0,0,0,-1,-1,4018.222984625,unknown,2,2022-06-30T09:33:43.803+02:00,2022-06-30T08:20:05.567+02:00,1197,1.429728,0,0,932.105,0,0,2022-06-30T09:33:00.498+02:00
2022-06-30T09:33:44.353+02:00,4018.772004625,0.584075927734375,1.123367309570312,1.2607421875,4018.767028625,-1.077610244259901,1.233493298006689,-0.6212030616280247,-3.272710084915161,-8.627586364746094,1.280586242675781,-0.1009289026260376,0.6982744336128235,1.443432569503784,XArbitraryZVertical,0.06857473533471153,0.6006159048492916,-0.5502762744550325,0.5759809268874766,0.7673566937446594,0.5820139050483704,-0.269116073846817,0,0,0,-1,-1,4018.222984625,unknown,2,2022-06-30T09:33:43.803+02:00,2022-06-30T08:20:05.567+02:00,1197,1.429728,0,0,932.105,0,0,2022-06-30T09:33:00.498+02:00
2022-06-30T09:33:44.363+02:00,4018.781955625,0.461151123046875,0.985870361328125,1.172531127929688,4018.776979625,-1.033703651854289,1.168081937637816,-0.6206996496222636,-3.35973334312439,-9.653014183044434,1.379783630371094,-0.1643182635307312,0.5417624711990356,1.579555630683899,XArbitraryZVertical,0.03796275631356374,0.5823676829296286,-0.5389400837955673,0.6074127924279243,0.7483944892883301,0.5816044211387634,-0.3188134133815765,0,0,0,-1,-1,4018.222984625,unknown,2,2022-06-30T09:33:43.803+02:00,2022-06-30T08:20:05.567+02:00,1197,1.429728,0,0,932.105,0,0,2022-06-30T09:33:00.498+02:00
2022-06-30T09:33:44.373+02:00,4018.791906625,0.2980194091796875,0.932098388671875,0.81915283203125,4018.786930625,-0.9916171987072341,1.091660442563656,-0.6226157372728901,-2.930375814437866,-10.62010383605957,1.161664843559265,-0.2597280144691467,0.4027079343795776,1.547037243843079,XArbitraryZVertical,0.004828035676063575,0.5592169347865008,-0.5269349479244576,0.639994260039882,0.7208793759346008,0.5831620693206787,-0.3745062053203583,0,0,0,-1,-1,4018.222984625,unknown,2,2022-06-30T09:33:43.803+02:00,2022-06-30T08:20:05.567+02:00,1197,1.429728,0,0,932.105,0,0,2022-06-30T09:33:00.498+02:00
2022-06-30T09:33:44.383+02:00,4018.801857625,0.1736907958984375,0.9585418701171875,0.441131591796875,4018.796881625,-0.9606394446095288,1.000043825415571,-0.6259558214956021,-1.662994623184204,-11.40996742248535,0.7706217169761658,-0.3839306235313416,0.346225917339325,1.256985664367676,XArbitraryZVertical,-0.02885315858489481,0.5293873625185961,-0.5167092774872497,0.6722560066249827,0.6819502711296082,0.5858721137046814,-0.4378330409526825,0,0,0,-1,-1,4018.222984625,unknown,2,2022-06-30T09:33:43.803+02:00,2022-06-30T08:20:05.567+02:00,1197,1.429728,0,0,932.105,0,0,2022-06-30T09:33:00.498+02:00
2022-06-30T09:33:44.393+02:00,4018.811808625,0.1609039306640625,1.091232299804688,0.329345703125,4018.806832625,-0.9498134134771666,0.8885881872801378,-0.6240999961399885,0.5188724994659424,-12.32696056365967,0.581463098526001,-0.4561727643013,0.3741743564605713,0.9527824521064758,XArbitraryZVertical,-0.05948101269532963,0.4905471976173621,-0.5102799415804202,0.7038748304299078,0.6298637390136719,0.5843671560287476,-0.5116509199142456,0,0,0,-1,-1,4018.222984625,unknown,2,2022-06-30T09:33:43.803+02:00,2022-06-30T08:20:05.567+02:00,1197,1.429728,0,0,932.105,0,0,2022-06-30T09:33:00.498+02:00
2022-06-30T09:33:44.403+02:00,4018.821759625,0.0222625732421875,1.521331787109375,1.873382568359375,4018.816783625,-0.9621913335817163,0.7527160895813957,-0.6062765816703992,4.031592845916748,-13.75320529937744,0.5806108713150024,-0.4008809328079224,0.5214203000068665,0.929105818271637,XArbitraryZVertical,-0.08378729648764442,0.4394309679140183,-0.508001532813813,0.7360805173889939,0.5617849826812744,0.5698115825653076,-0.5997602343559265,0,0,0,-1,-1,4018.222984625,unknown,2,2022-06-30T09:33:43.803+02:00,2022-06-30T08:20:05.567+02:00,1197,1.429728,0,0,932.105,0,0,2022-06-30T09:33:00.498+02:00
2022-06-30T09:33:44.413+02:00,4018.831709625,-17.24311828613281,-2.030746459960938,-24.634521484375,4018.826734625,-0.9468164179606775,0.8042915711996234,-0.5901979125481821,-10.12572383880615,22.3312816619873,0.1830273121595383,-0.5762172937393188,0.9648059010505676,2.44966459274292,XArbitraryZVertical,-0.06746673485028015,0.455309997604965,-0.5027262554291856,0.7317153076328312,0.5984799861907959,0.5565254688262939,-0.5762820839881897,0,0,0,-1,-1,4018.222984625,unknown,2,2022-06-30T09:33:43.803+02:00,2022-06-30T08:20:05.567+02:00,1197,1.429728,0,0,932.105,0,0,2022-06-30T09:33:00.498+02:00
2022-06-30T09:33:44.423+02:00,4018.841661625,6.610641479492188,-0.8202972412109375,-9.23516845703125,4018.836685625,-1.006487225547088,0.8243008566996488,-0.6163689350110328,9.445205688476562,5.0799560546875,-6.584414958953857,-17.84210968017578,-2.608822822570801,-24.08041191101074,XArbitraryZVertical,-0.05938607654551035,0.4684211700062249,-0.5275095625180455,0.7062497057363565,0.5989911556243896,0.5780760645866394,-0.5541098117828369,0,0,0,-1,-1,4018.222984625,unknown,2,2022-06-30T09:33:43.803+02:00,2022-06-30T08:20:05.567+02:00,1197,1.429728,0,0,932.105,0,0,2022-06-30T09:33:00.498+02:00
2022-06-30T09:33:44.438+02:00,4018.851611625,1.522811889648438,2.352294921875,0.531036376953125,4018.846636625,-1.043868215312629,0.7815356547416323,-0.60638441378043,-1.502209901809692,-5.919689178466797,2.384626388549805,6.031850814819336,-1.39019775390625,-8.651888847351074,XArbitraryZVertical,-0.05806734702866507,0.4527565494753827,-0.5385315595022129,0.7082537516332373,0.5787908434867859,0.5699002146720886,-0.5832793712615967,0,0,0,-1,-1,4018.222984625,unknown,2,2022-06-30T09:33:43.803+02:00,2022-06-30T08:20:05.567+02:00,1197,1.429728,0,0,932.105,0,0,2022-06-30T09:33:00.498+02:00
2022-06-30T09:33:44.447+02:00,4018.861562625,0.9427337646484375,0.87286376953125,1.084426879882812,4018.856587625,-1.007781918021572,0.7446234867752881,-0.5945572741159555,-0.1141066253185272,-3.315472602844238,3.470070123672485,0.9614118933677673,1.792152523994446,1.140192031860352,XArbitraryZVertical,-0.07100136029048908,0.4363266346681996,-0.52334073650457,0.7284864099222114,0.5614002346992493,0.5601420402526855,-0.6091557741165161,0,0,0,-1,-1,4018.222984625,unknown,2,2022-06-30T09:33:43.803+02:00,2022-06-30T08:20:05.567+02:00,1197,1.429728,0,0,932.105,0,0,2022-06-30T09:33:00.498+02:00
2022-06-30T09:33:44.453+02:00,4018.871513625,0.390869140625,1.352020263671875,3.616714477539062,4018.866538625,-0.9801147274755772,0.7532505096310648,-0.5580704659524927,0.2054854184389114,3.209634065628052,4.068462371826172,0.362500011920929,0.3433130383491516,1.703219890594482,XArbitraryZVertical,-0.05956766464971359,0.4324986810854684,-0.5101342675444974,0.7410531138165045,0.5802339911460876,0.5295503735542297,-0.6187931895256042,0,0,0,-1,-1,4018.222984625,unknown,2,2022-06-30T09:33:43.803+02:00,2022-06-30T08:20:05.567+02:00,1197,1.429728,0,0,932.105,0,0,2022-06-30T09:33:00.498+02:00
2022-06-30T09:33:44.463+02:00,4018.881464625,-0.40338134765625,0.5897369384765625,1.287994384765625,4018.876489625,-0.9244883977420757,0.8115402434711995,-0.5666946552525319,-7.1241455078125,2.709701538085938,0.3642465770244598,-0.2210925817489624,0.8151736259460449,4.197488784790039,XArbitraryZVertical,-0.06089995675552477,0.4537665559127356,-0.4921797864430981,0.7403689973808689,0.6119619011878967,0.5368463397026062,-0.580774188041687,0,0,0,-1,-1,4018.222984625,unknown,2,2022-06-30T09:33:43.803+02:00,2022-06-30T08:20:05.567+02:00,1197,1.429728,0,0,932.105,0,0,2022-06-30T09:33:00.498+02:00
2022-06-30T09:33:44.473+02:00,4018.891415625,-0.05096435546875,0.087432861328125,-2.29248046875,4018.886440625,-0.8729447767744558,0.8611035361135791,-0.6150174957749318,-4.680230617523193,2.166426658630371,-2.106846570968628,-1.022946953773499,0.01276379823684692,1.820197820663452,XArbitraryZVertical,-0.08110815282873006,0.4767804868887359,-0.4806312680215094,0.7315022484211078,0.6195657849311829,0.5769727826118469,-0.5322036743164062,0,0,0,-1,-1,4018.222984625,unknown,2,2022-06-30T09:33:43.803+02:00,2022-06-30T08:20:05.567+02:00,1197,1.429728,0,0,932.105,0,0,2022-06-30T09:33:00.498+02:00
2022-06-30T09:33:44.482+02:00,4018.901367541667,0.1475067138671875,0.29937744140625,-2.5250244140625,4018.896391625,-0.880593951476326,0.8687892082716231,-0.6336899905800837,3.527664422988892,0.6212750673294067,-1.626775622367859,-0.6662675738334656,-0.5046898126602173,-1.772103071212769,XArbitraryZVertical,-0.08523117950909821,0.4822310938440083,-0.4860006393321556,0.7238730887616444,0.6153033971786499,0.5921223759651184,-0.5203776359558105,0,0,0,-1,-1,4018.222984625,unknown,2,2022-06-30T09:33:43.803+02:00,2022-06-30T08:20:05.567+02:00,1197,1.429728,0,0,932.105,0,0,2022-06-30T09:33:00.498+02:00
2022-06-30T09:33:44.492+02:00,4018.911318541667,-0.1197052001953125,1.498062133789062,-1.031890869140625,4018.906343541667,-0.9339977575016989,0.8360169881320271,-0.5979067685934295,6.680068492889404,-0.9206586480140686,0.8652334213256836,-0.4657502174377441,-0.2635365128517151,-1.970908999443054,XArbitraryZVertical,-0.06568884905750051,0.4675758593502981,-0.4999516793142068,0.7260208421513613,0.613257110118866,0.5629135966300964,-0.5541155934333801,0,0,0,-1,-1,4018.222984625,unknown,2,2022-06-30T09:33:43.803+02:00,2022-06-30T08:20:05.567+02:00,1197,1.429728,0,0,932.105,0,0,2022-06-30T09:33:00.498+02:00
2022-06-30T09:33:44.503+02:00,4018.921269541667,-0.6641998291015625,1.046768188476562,-0.3738555908203125,4018.916294541667,-0.970002129404343,0.7983236023835738,-0.5475778302782662,4.569849967956543,-2.401650428771973,1.863906502723694,-0.731177031993866,0.9774410724639893,-0.4360252022743225,XArbitraryZVertical,-0.04595342889590002,0.4471637180819145,-0.5065234778928632,0.7357763813469737,0.6114720106124878,0.5206207633018494,-0.595865786075592,0,0,0,-1,-1,4018.222984625,unknown,2,2022-06-30T09:33:43.803+02:00,2022-06-30T08:20:05.567+02:00,1197,1.429728,0,0,932.105,0,0,2022-06-30T09:33:00.498+02:00
2022-06-30T09:33:44.512+02:00,4018.931220541667,-0.983795166015625,0.05413818359375,-0.171539306640625,4018.926245541667,-0.9885249751438429,0.7660562691714206,-0.5117331024565174,2.985055446624756,-2.004440307617188,0.6433437466621399,-1.26868462562561,0.5570787191390991,0.2544773817062378,XArbitraryZVertical,-0.03513059018955305,0.4296502142762991,-0.5089478808680539,0.7450762454790755,0.604485034942627,0.4896890819072723,-0.6283330917358398,0,0,0,-1,-1,4018.222984625,unknown,2,2022-06-30T09:33:43.803+02:00,2022-06-30T08:20:05.567+02:00,1197,1.429728,0,0,932.105,0,0,2022-06-30T09:33:00.498+02:00
2022-06-30T09:33:44.522+02:00,4018.941171541667,-0.7542724609375,-0.654815673828125,-0.2303466796875,4018.936196541667,-1.009251680721163,0.7453460486760751,-0.494193973416749,2.209705114364624,-0.1012304201722145,-0.8584889769554138,-1.580872297286987,-0.4201844036579132,0.4753895998001099,XArbitraryZVertical,-0.028715517079924,0.4191788494042629,-0.514572057032801,0.747449073292441,0.5970772504806519,0.4743222296237946,-0.6469290256500244,0,0,0,-1,-1,4018.222984625,unknown,2,2022-06-30T09:33:43.803+02:00,2022-06-30T08:20:05.567+02:00,1197,1.429728,0,0,932.105,0,0,2022-06-30T09:33:00.498+02:00
2022-06-30T09:33:44.532+02:00,4018.951122541667,-0.1117706298828125,-0.8336639404296875,-0.2805023193359375,4018.946147541667,-1.032537989170714,0.7434138308952171,-0.4875788602822935,1.47356104850769,1.768410801887512,-1.12229585647583,-1.352208971977234,-1.12330436706543,0.4200303554534912,XArbitraryZVertical,-0.02159479737941161,0.4175465158325785,-0.5225725815325234,0.7430386542811876,0.5979366898536682,0.4684882462024689,-0.6503771543502808,0,0,0,-1,-1,4018.222984625,unknown,2,2022-06-30T09:33:43.803+02:00,2022-06-30T08:20:05.567+02:00,1197,1.429728,0,0,932.105,0,0,2022-06-30T09:33:00.498+02:00
2022-06-30T09:33:44.542+02:00,4018.961073541667,0.38763427734375,-0.474639892578125,-0.501708984375,4018.956098541667,-1.046816870059892,0.7576057524209011,-0.4869857271769336,0.3654487729072571,2.147588968276978,-0.6363606452941895,-0.7190675735473633,-1.301628470420837,0.3615254163742065,XArbitraryZVertical,-0.01462224733055489,0.4228147166362881,-0.5279239326050319,0.7364171115772269,0.6072971224784851,0.4679641723632812,-0.6420277953147888,0,0,0,-1,-1,4018.222984625,unknown,2,2022-06-30T09:33:43.803+02:00,2022-06-30T08:20:05.567+02:00,1197,1.429728,0,0,932.105,0,0,2022-06-30T09:33:00.498+02:00
2022-06-30T09:33:44.552+02:00,4018.971024541667,0.5807647705078125,0.120025634765625,-0.5690460205078125,4018.966049541667,-1.051350332114519,0.7729141730527241,-0.4910726453320903,-0.3367594182491302,1.222516775131226,-0.5724084377288818,-0.2280790209770203,-0.9462122917175293,0.1295726895332336,XArbitraryZVertical,-0.0112919129274734,0.4292220903078454,-0.5300973645128012,0.7311892080916823,0.6157134771347046,0.4715720415115356,-0.6312817931175232,0,0,0,-1,-1,4018.222984625,unknown,2,2022-06-30T09:33:43.803+02:00,2022-06-30T08:20:05.567+02:00,1197,1.429728,0,0,932.105,0,0,2022-06-30T09:33:00.498+02:00
2022-06-30T09:33:44.562+02:00,4018.980975541667,0.531982421875,0.683563232421875,-0.6073760986328125,4018.976000541667,-1.053705668626044,0.7784337581508779,-0.5001313799119319,-0.6132082939147949,0.1191055104136467,-0.9998508095741272,-0.03539866209030151,-0.3595155775547028,0.05576026439666748,XArbitraryZVertical,-0.01304472169618408,0.432927978158503,-0.5319092869942592,0.7276508945070865,0.6161636710166931,0.4795408248901367,-0.6248064041137695,0,0,0,-1,-1,4018.222984625,unknown,2,2022-06-30T09:33:43.803+02:00,2022-06-30T08:20:05.567+02:00,1197,1.429728,0,0,932.105,0,0,2022-06-30T09:33:00.498+02:00
2022-06-30T09:33:44.572+02:00,4018.990926541667,0.32025146484375,1.024688720703125,-0.7184906005859375,4018.985951541667,-1.0595798367971,0.7726923893148611,-0.5125758147005012,-0.3703528046607971,-0.6629618406295776,-1.430718779563904,-0.07637053728103638,0.1931392252445221,0.0166359543800354,XArbitraryZVertical,-0.01841783120938745,0.4331913175636064,-0.5352372777998704,0.7249325282639207,0.6083531379699707,0.4904236495494843,-0.6240121126174927,0,0,0,-1,-1,4018.222984625,unknown,2,2022-06-30T09:33:43.803+02:00,2022-06-30T08:20:05.567+02:00,1197,1.429728,0,0,932.105,0,0,2022-06-30T09:33:00.498+02:00
2022-06-30T09:33:44.584+02:00,4019.000877541667,0.020294189453125,1.12750244140625,-0.7742919921875,4018.995902541667,-1.072853798950054,0.7575304844179429,-0.5221823118741844,0.6751917004585266,-1.027295827865601,-1.537671327590942,-0.2753058671951294,0.5259155631065369,-0.08877885341644287,XArbitraryZVertical,-0.02357640650884291,0.4296373453226447,-0.5407958501200973,0.7227695709756586,0.5955575704574585,0.4987727999687195,-0.6297118067741394,0,0,0,-1,-1,4018.222984625,unknown,2,2022-06-30T09:33:43.803+02:00,2022-06-30T08:20:05.567+02:00,1197,1.429728,0,0,932.105,0,0,2022-06-30T09:33:00.498+02:00
2022-06-30T09:33:44.595+02:00,4019.010828541667,-0.263214111328125,1.083053588867188,-0.6856231689453125,4019.005853541667,-1.096232867650217,0.7354968484162688,-0.5234242112546155,1.878362417221069,-1.000203847885132,-1.617460966110229,-0.5608288049697876,0.6276532411575317,-0.1320717334747314,XArbitraryZVertical,-0.02510972373464533,0.4222076628266998,-0.5490758758461276,0.7208508364706498,0.5811232328414917,0.4998488128185272,-0.6422203779220581,0,0,0,-1,-1,4018.222984625,unknown,2,2022-06-30T09:33:43.803+02:00,2022-06-30T08:20:05.567+02:00,1197,1.429728,0,0,932.105,0,0,2022-06-30T09:33:00.498+02:00
2022-06-30T09:33:44.603+02:00,4019.020779541667,-0.4864044189453125,0.9025726318359375,-0.6146392822265625,4019.015804541667,-1.128329219874517,0.7115331764428972,-0.5177075942583171,2.598818063735962,-0.5697125792503357,-1.821715831756592,-0.8306384682655334,0.5881637930870056,-0.02750933170318604,XArbitraryZVertical,-0.02272150475383852,0.4128277685037939,-0.5598688638821031,0.7180557191130292,0.5674245357513428,0.4948894381523132,-0.658113956451416,0,0,0,-1,-1,4018.222984625,unknown,2,2022-06-30T09:33:43.803+02:00,2022-06-30T08:20:05.567+02:00,1197,1.429728,0,0,932.105,0,0,2022-06-30T09:33:00.498+02:00
2022-06-30T09:33:44.612+02:00,4019.030730541667,-0.570037841796875,0.6417083740234375,-0.572296142578125,4019.025755541667,-1.164981516601783,0.690895488304733,-0.5104297496991634,2.567644834518433,0.06832550466060638,-2.13472318649292,-1.042407274246216,0.4140200316905975,0.05780184268951416,XArbitraryZVertical,-0.01812593455345734,0.4042905215452096,-0.5722300888002314,0.7132835362346842,0.5560031533241272,0.4885522723197937,-0.6724412441253662,0,0,0,-1,-1,4018.222984625,unknown,2,2022-06-30T09:33:43.803+02:00,2022-06-30T08:20:05.567+02:00,1197,1.429728,0,0,932.105,0,0,2022-06-30T09:33:00.498+02:00
2022-06-30T09:33:44.622+02:00,4019.040681541667,-0.5070037841796875,0.4083099365234375,-0.6808929443359375,4019.035706541667,-1.202219877900328,0.6767056044170879,-0.5065118425584202,2.168825149536133,0.6914639472961426,-2.411525964736938,-1.117637753486633,0.156578004360199,0.1094537973403931,XArbitraryZVertical,-0.013181345351012,0.3986869210143711,-0.5850648077419187,0.7060978543637321,0.5476000905036926,0.4851300120353699,-0.6817499995231628,0,0,0,-1,-1,4018.222984625,unknown,2,2022-06-30T09:33:43.803+02:00,2022-06-30T08:20:05.567+02:00,1197,1.429728,0,0,932.105,0,0,2022-06-30T09:33:00.498+02:00
2022-06-30T09:33:44.632+02:00,4019.050632541667,-0.3501434326171875,0.327362060546875,-0.811767578125,4019.045656541667,-1.238820401276334,0.6676821966483151,-0.5057803556970547,1.985506892204285,1.024114727973938,-2.50080132484436,-1.048649311065674,-0.07618063688278198,0.006048858165740967,XArbitraryZVertical,-0.0082910868998644,0.3955506606141553,-0.5978110200831186,0.6972036742731214,0.5416457653045654,0.4844902455806732,-0.6869418621063232,0,0,0,-1,-1,4018.222984625,unknown,2,2022-06-30T09:33:43.803+02:00,2022-06-30T08:20:05.567+02:00,1197,1.429728,0,0,932.105,0,0,2022-06-30T09:33:00.498+02:00
2022-06-30T09:33:44.642+02:00,4019.060583541667,-0.207855224609375,0.4642791748046875,-0.8829498291015625,4019.055607541667,-1.274800989721172,0.6604499885537869,-0.5055693954403484,1.940430521965027,0.9892649054527283,-2.446645259857178,-0.8868693709373474,-0.1569439768791199,-0.1208457946777344,XArbitraryZVertical,-0.003298068031539358,0.3931007374158649,-0.6102365082243376,0.6878025891022544,0.5367262363433838,0.4843056797981262,-0.6909218430519104,0,0,0,-1,-1,4018.222984625,unknown,2,2022-06-30T09:33:43.803+02:00,2022-06-30T08:20:05.567+02:00,1197,1.429728,0,0,932.105,0,0,2022-06-30T09:33:00.498+02:00
2022-06-30T09:33:44.652+02:00,4019.070534541667,-0.15045166015625,0.6900634765625,-0.905120849609375,4019.065558541667,-1.309959575893253,0.6520926982435107,-0.5054391653948838,1.858933329582214,0.7408677935600281,-2.448944807052612,-0.73882657289505,-0.01991292834281921,-0.187516450881958,XArbitraryZVertical,0.001062954412582989,0.3902334962887481,-0.6222357271859927,0.6786305479552244,0.5309715867042542,0.4841917455196381,-0.6954333782196045,0,0,0,-1,-1,4018.222984625,unknown,2,2022-06-30T09:33:43.803+02:00,2022-06-30T08:20:05.567+02:00,1197,1.429728,0,0,932.105,0,0,2022-06-30T09:33:00.498+02:00
2022-06-30T09:33:44.661+02:00,4019.080485541667,-0.1838836669921875,0.8419647216796875,-0.9452667236328125,4019.075509541667,-1.345534425097021,0.6407712748339562,-0.5056102351627958,1.897012829780579,0.458562046289444,-2.579084634780884,-0.6734662652015686,0.2057217359542847,-0.2037872672080994,XArbitraryZVertical,0.004347817053813279,0.3864120634130112,-0.6342506389162464,0.6696215238960785,0.5230149030685425,0.4843414127826691,-0.7013336420059204,0,0,0,-1,-1,4018.222984625,unknown,2,2022-06-30T09:33:43.803+02:00,2022-06-30T08:20:05.567+02:00,1197,1.429728,0,0,932.105,0,0,2022-06-30T09:33:00.498+02:00
2022-06-30T09:33:44.672+02:00,4019.090436541667,-0.263671875,0.8693695068359375,-0.9767608642578125,4019.085460541667,-1.38346314561567,0.6258258506089482,-0.5056088003254468,2.056344032287598,0.2378214299678802,-2.798277139663696,-0.6963589191436768,0.3576242625713348,-0.2361944913864136,XArbitraryZVertical,0.0068412841502731,0.3813358836115418,-0.6469038894544872,0.6603420686851271,0.5124755501747131,0.4843401610851288,-0.7090722918510437,0,0,0,-1,-1,4018.222984625,unknown,2,2022-06-30T09:33:43.803+02:00,2022-06-30T08:20:05.567+02:00,1197,1.429728,0,0,932.105,0,0,2022-06-30T09:33:00.498+02:00
2022-06-30T09:33:44.682+02:00,4019.100387541667,-0.3412322998046875,0.7702484130859375,-0.97552490234375,4019.095411541667,-1.424351258431666,0.6077214926574438,-0.5050333269541658,2.185424089431763,0.1127921417355537,-2.988232851028442,-0.7633856534957886,0.3855325877666473,-0.2582985758781433,XArbitraryZVertical,0.008873257736709744,0.3750867906838706,-0.6603550118778595,0.6505095209800529,0.4997140467166901,0.4838366210460663,-0.718462347984314,0,0,0,-1,-1,4018.222984625,unknown,2,2022-06-30T09:33:43.803+02:00,2022-06-30T08:20:05.567+02:00,1197,1.429728,0,0,932.105,0,0,2022-06-30T09:33:00.498+02:00
2022-06-30T09:33:44.691+02:00,4019.110338541667,-0.3920745849609375,0.605743408203125,-0.92803955078125,4019.105362541667,-1.466965341856168,0.5877525404375625,-0.5042042495988425,2.143393278121948,0.02927891537547112,-3.107849836349487,-0.8267226815223694,0.2871372401714325,-0.2468941807746887,XArbitraryZVertical,0.01043721809348545,0.3682060550263779,-0.6741792068948206,0.640154560488194,0.4854906797409058,0.4831108748912811,-0.7286307215690613,0,0,0,-1,-1,4018.222984625,unknown,2,2022-06-30T09:33:43.803+02:00,2022-06-30T08:20:05.567+02:00,1197,1.429728,0,0,932.105,0,0,2022-06-30T09:33:00.498+02:00
2022-06-30T09:33:44.701+02:00,4019.120289541667,-0.42987060546875,0.4651336669921875,-0.8979339599609375,4019.115313541667,-1.509639481561022,0.5670497559198356,-0.5041546859190338,1.943133115768433,-0.04319368675351143,-3.168585538864136,-0.8623901605606079,0.1226756274700165,-0.1894944906234741,XArbitraryZVertical,0.01118932576429342,0.3613893570397098,-0.6878353967328857,0.629408491351635,0.4703159034252167,0.4830674827098846,-0.7385450601577759,0,0,0,-1,-1,4018.222984625,unknown,2,2022-06-30T09:33:43.803+02:00,2022-06-30T08:20:05.567+02:00,1197,1.429728,0,0,932.105,0,0,2022-06-30T09:33:00.498+02:00
2022-06-30T09:33:44.711+02:00,4019.130240541667,-0.465545654296875,0.4184417724609375,-0.8739013671875,4019.125264541667,-1.551255725977115,0.5462341929559174,-0.5053717330139733,1.712859153747559,-0.08407530188560486,-3.168980121612549,-0.8844064474105835,-0.0189993679523468,-0.1502625942230225,XArbitraryZVertical,0.01097789636931072,0.3550264965188941,-0.7009501186470396,0.6184696559650344,0.4545361399650574,0.4841327369213104,-0.747671365737915,0,0,0,-1,-1,4018.222984625,unknown,2,2022-06-30T09:33:43.803+02:00,2022-06-30T08:20:05.567+02:00,1197,1.429728,0,0,932.105,0,0,2022-06-30T09:33:00.498+02:00
2022-06-30T09:33:44.721+02:00,4019.140191541667,-0.5215301513671875,0.50177001953125,-0.8936004638671875,4019.135215541667,-1.59132614516379,0.5261488314714513,-0.5080486581448281,1.397890329360962,-0.02339997142553329,-3.158916234970093,-0.9043210744857788,-0.06803181767463684,-0.1183753609657288,XArbitraryZVertical,0.009987141197848298,0.3494814008419518,-0.7133498663773737,0.6073672781379165,0.4387757778167725,0.4864732921123505,-0.7555260062217712,0,0,0,-1,-1,4018.222984625,unknown,2,2022-06-30T09:33:43.803+02:00,2022-06-30T08:20:05.567+02:00,1197,1.429728,0,0,932.105,0,0,2022-06-30T09:33:00.498+02:00
2022-06-30T09:33:44.731+02:00,4019.150142541667,-0.5852508544921875,0.6249542236328125,-0.949798583984375,4019.145166541667,-1.62951004735476,0.5080413371125382,-0.5132809814314068,1.001881241798401,0.1548312902450562,-3.192035675048828,-0.9453096985816956,0.01073166728019714,-0.1324878931045532,XArbitraryZVertical,0.00829261325549039,0.3455068393054598,-0.7249071821677663,0.5958740387224324,0.4237798750400543,0.4910380840301514,-0.7611125111579895,0,0,0,-1,-1,4018.222984625,unknown,2,2022-06-30T09:33:43.803+02:00,2022-06-30T08:20:05.567+02:00,1197,1.429728,0,0,932.105,0,0,2022-06-30T09:33:00.498+02:00
2022-06-30T09:33:44.741+02:00,4019.160093541667,-0.6229705810546875,0.6988983154296875,-1.002288818359375,4019.155117541667,-1.666854388004736,0.4922216759542942,-0.5212325659064873,0.7368850111961365,0.3779759705066681,-3.306581974029541,-0.9950791001319885,0.1270045936107635,-0.1855427026748657,XArbitraryZVertical,0.006231124367822703,0.3432684789837832,-0.7358996046874356,0.5835922275273412,0.4098286032676697,0.4979493916034698,-0.7642558217048645,0,0,0,-1,-1,4018.222984625,unknown,2,2022-06-30T09:33:43.803+02:00,2022-06-30T08:20:05.567+02:00,1197,1.429728,0,0,932.105,0,0,2022-06-30T09:33:00.498+02:00
2022-06-30T09:33:44.751+02:00,4019.170044541667,-0.610107421875,0.73785400390625,-1.024490356445312,4019.165068541667,-1.704840827170943,0.4777656511222301,-0.5306459502032063,0.6890829801559448,0.546091616153717,-3.403849124908447,-1.019535422325134,0.1928074955940247,-0.2363851070404053,XArbitraryZVertical,0.004226559599102761,0.3420968872393852,-0.7467359482841809,0.5703836395984656,0.396565169095993,0.5060905814170837,-0.7659037113189697,0,0,0,-1,-1,4018.222984625,unknown,2,2022-06-30T09:33:43.803+02:00,2022-06-30T08:20:05.567+02:00,1197,1.429728,0,0,932.105,0,0,2022-06-30T09:33:00.498+02:00
2022-06-30T09:33:44.761+02:00,4019.179995541667,-0.58392333984375,0.7938690185546875,-1.027694702148438,4019.175019541667,-1.743433770415157,0.4638922790926851,-0.5402278122046096,0.5935945510864258,0.619533360004425,-3.405773162841797,-0.9938213229179382,0.2235223054885864,-0.2575309872627258,XArbitraryZVertical,0.002454638972110299,0.341341938407123,-0.757398845989225,0.5566206863796563,0.3837142586708069,0.5143314003944397,-0.7669593095779419,0,0,0,-1,-1,4018.222984625,unknown,2,2022-06-30T09:33:43.803+02:00,2022-06-30T08:20:05.567+02:00,1197,1.429728,0,0,932.105,0,0,2022-06-30T09:33:00.498+02:00
2022-06-30T09:33:44.771+02:00,4019.189946541667,-0.5792083740234375,0.8421783447265625,-1.066650390625,4019.184970541667,-1.781471750209918,0.4503971738051876,-0.5507431941078118,0.3897608518600464,0.6299123167991638,-3.39894437789917,-0.9548774361610413,0.2705481052398682,-0.2605386972427368,XArbitraryZVertical,0.0004149527120226224,0.3412064280248895,-0.7675280832311506,0.542659005602552,0.3709544539451599,0.5233206748962402,-0.7671560049057007,0,0,0,-1,-1,4018.222984625,unknown,2,2022-06-30T09:33:43.803+02:00,2022-06-30T08:20:05.567+02:00,1197,1.429728,0,0,932.105,0,0,2022-06-30T09:33:00.498+02:00
2022-06-30T09:33:44.781+02:00,4019.199897541667,-0.565277099609375,0.8746185302734375,-1.018112182617188,4019.194921541667,-1.819413855998932,0.4365029677540884,-0.5624942930488173,0.2723154425621033,0.6091727018356323,-3.467640399932861,-0.9368432760238647,0.3088802695274353,-0.3000406622886658,XArbitraryZVertical,-0.002177463278623941,0.3415997559769002,-0.7772203910418186,0.5284254526340745,0.3576352596282959,0.5332978367805481,-0.7666097283363342,0,0,0,-1,-1,4018.222984625,unknown,2,2022-06-30T09:33:43.803+02:00,2022-06-30T08:20:05.567+02:00,1197,1.429728,0,0,932.105,0,0,2022-06-30T09:33:00.498+02:00
2022-06-30T09:33:44.791+02:00,4019.209848541667,-0.5534515380859375,0.8783111572265625,-0.983367919921875,4019.204872541667,-1.858498308733382,0.4216872744680075,-0.5744287966679976,0.3277981579303741,0.6562234163284302,-3.545010805130005,-0.9088855981826782,0.33126300573349,-0.2521500587463379,XArbitraryZVertical,-0.004967237803059871,0.3420442744867974,-0.7868160911337709,0.5137135225422318,0.343608945608139,0.5433553457260132,-0.7659620642662048,0,0,0,-1,-1,4018.222984625,unknown,2,2022-06-30T09:33:43.803+02:00,2022-06-30T08:20:05.567+02:00,1197,1.429728,0,0,932.105,0,0,2022-06-30T09:33:00.498+02:00
2022-06-30T09:33:44.801+02:00,4019.219799541667,-0.5682373046875,0.878204345703125,-0.94635009765625,4019.214823541667,-1.899270147687578,0.406405679091493,-0.5848654635330008,0.5130223631858826,0.7744227647781372,-3.563443422317505,-0.883055567741394,0.3262237310409546,-0.217495322227478,XArbitraryZVertical,-0.0071796238133121,0.3420704592917792,-0.7965159887711095,0.4984963430106741,0.3296043872833252,0.5520871877670288,-0.7658724784851074,0,0,0,-1,-1,4018.222984625,unknown,2,2022-06-30T09:33:43.803+02:00,2022-06-30T08:20:05.567+02:00,1197,1.429728,0,0,932.105,0,0,2022-06-30T09:33:00.498+02:00
2022-06-30T09:33:44.811+02:00,4019.229750541667,-0.5949554443359375,0.892547607421875,-0.925079345703125,4019.224774541667,-1.940971692057083,0.391696651557183,-0.5929919132353119,0.6643107533454895,0.9287893772125244,-3.485228300094604,-0.8848175406455994,0.3193595409393311,-0.1798845529556274,XArbitraryZVertical,-0.008323138434732204,0.3416108181336721,-0.8061869505611208,0.4830067431361897,0.3165806531906128,0.5588446259498596,-0.7664655447006226,0,0,0,-1,-1,4018.222984625,unknown,2,2022-06-30T09:33:43.803+02:00,2022-06-30T08:20:05.567+02:00,1197,1.429728,0,0,932.105,0,0,2022-06-30T09:33:00.498+02:00
2022-06-30T09:33:44.821+02:00,4019.239701541667,-0.631805419921875,0.9293212890625,-0.9332733154296875,4019.234725541667,-1.982411477172655,0.3781564899823991,-0.5995396278026738,0.690217137336731,1.030161499977112,-3.393797874450684,-0.8997713327407837,0.3282849788665771,-0.1578147411346436,XArbitraryZVertical,-0.008602787929767692,0.341018618533454,-0.8155257927277828,0.4674934241558836,0.304816335439682,0.5642624497413635,-0.7672646045684814,0,0,0,-1,-1,4018.222984625,unknown,2,2022-06-30T09:33:43.803+02:00,2022-06-30T08:20:05.567+02:00,1197,1.429728,0,0,932.105,0,0,2022-06-30T09:33:00.498+02:00
2022-06-30T09:33:44.831+02:00,4019.249651541667,-0.6689453125,0.9781494140625,-0.97613525390625,4019.244676541667,-2.023379281989809,0.365626004124042,-0.6051591357145926,0.7249232530593872,1.121442198753357,-3.344894409179688,-0.9258451461791992,0.3604281544685364,-0.1652229428291321,XArbitraryZVertical,-0.008312449923025185,0.340449309219696,-0.8244677861884261,0.4519715620419034,0.2940401136875153,0.5688929557800293,-0.7680503129959106,0,0,0,-1,-1,4018.222984625,unknown,2,2022-06-30T09:33:43.803+02:00,2022-06-30T08:20:05.567+02:00,1197,1.429728,0,0,932.105,0,0,2022-06-30T09:33:00.498+02:00
2022-06-30T09:33:44.841+02:00,4019.259602541667,-0.7029876708984375,1.035614013671875,-1.024124145507812,4019.254627541667,-2.064567116108057,0.3537859762456145,-0.6099118574699989,0.7716255187988281,1.232771158218384,-3.363836288452148,-0.9529309272766113,0.4053540825843811,-0.2072024345397949,XArbitraryZVertical,-0.007487002894626405,0.3398198943014508,-0.8331817670911267,0.4362047179332763,0.2839860022068024,0.5727952122688293,-0.7689327597618103,0,0,0,-1,-1,4018.222984625,unknown,2,2022-06-30T09:33:43.803+02:00,2022-06-30T08:20:05.567+02:00,1197,1.429728,0,0,932.105,0,0,2022-06-30T09:33:00.498+02:00
2022-06-30T09:33:44.851+02:00,4019.269553541667,-0.712799072265625,1.0703125,-1.060272216796875,4019.264578541667,-2.1067975882369,0.3422070416238194,-0.6139478243414196,0.8232028484344482,1.312556624412537,-3.446451663970947,-0.9772729873657227,0.4595150351524353,-0.254138708114624,XArbitraryZVertical,-0.006214213295978912,0.3390703310182876,-0.8418314990794949,0.419895775960643,0.274285763502121,0.5760987997055054,-0.7699853777885437,0,0,0,-1,-1,4018.222984625,unknown,2,2022-06-30T09:33:43.803+02:00,2022-06-30T08:20:05.567+02:00,1197,1.429728,0,0,932.105,0,0,2022-06-30T09:33:00.498+02:00
2022-06-30T09:33:44.861+02:00,4019.279504541667,-0.69744873046875,1.089935302734375,-1.06170654296875,4019.274529541667,-2.150246346898792,0.3300615787858791,-0.6175994488910344,0.8442838788032532,1.27933931350708,-3.517945051193237,-0.9770289659500122,0.491232693195343,-0.2890076041221619,XArbitraryZVertical,-0.004909918320694884,0.3381473151245831,-0.8504013068356181,0.4030509068271327,0.2642303705215454,0.5790797472000122,-0.7712645530700684,0,0,0,-1,-1,4018.222984625,unknown,2,2022-06-30T09:33:43.803+02:00,2022-06-30T08:20:05.567+02:00,1197,1.429728,0,0,932.105,0,0,2022-06-30T09:33:00.498+02:00
2022-06-30T09:33:44.871+02:00,4019.289455541667,-0.686798095703125,1.140060424804688,-1.03302001953125,4019.284480541667,-2.194601502745003,0.3163630993315615,-0.6202014287096508,0.9531909823417664,1.135606050491333,-3.524347305297852,-0.9506193995475769,0.5087361335754395,-0.2883294820785522,XArbitraryZVertical,-0.00390799040731368,0.3365950238642665,-0.8588685192494174,0.386048512877037,0.2531711161136627,0.5811991095542908,-0.7733770608901978,0,0,0,-1,-1,4018.222984625,unknown,2,2022-06-30T09:33:43.803+02:00,2022-06-30T08:20:05.567+02:00,1197,1.429728,0,0,932.105,0,0,2022-06-30T09:33:00.498+02:00
2022-06-30T09:33:44.881+02:00,4019.299406541667,-0.7254791259765625,1.226608276367188,-1.020065307617188,4019.294431541667,-2.239281458603665,0.3008099065074873,-0.6217442975518275,0.9613360166549683,0.9751155972480774,-3.528474569320679,-0.9276441931724548,0.5576063990592957,-0.2566563487052917,XArbitraryZVertical,-0.00348106049890071,0.3343741753880066,-0.8671179492109897,0.369172502680784,0.2408465296030045,0.5824539065361023,-0.7763636112213135,0,0,0,-1,-1,4018.222984625,unknown,2,2022-06-30T09:33:43.803+02:00,2022-06-30T08:20:05.567+02:00,1197,1.429728,0,0,932.105,0,0,2022-06-30T09:33:00.498+02:00
2022-06-30T09:33:44.891+02:00,4019.309357541667,-0.78460693359375,1.298171997070312,-1.011184692382812,4019.304382541667,-2.284333553546202,0.2836364940428593,-0.6229160072488944,0.9064895510673523,0.8538742661476135,-3.596839189529419,-0.9527664184570312,0.6432022452354431,-0.2403358817100525,XArbitraryZVertical,-0.003716483840958939,0.331845625054704,-0.8750870550482128,0.3522604897587775,0.2272877097129822,0.5834059715270996,-0.7797293663024902,0,0,0,-1,-1,4018.222984625,unknown,2,2022-06-30T09:33:43.803+02:00,2022-06-30T08:20:05.567+02:00,1197,1.429728,0,0,932.105,0,0,2022-06-30T09:33:00.498+02:00
2022-06-30T09:33:44.901+02:00,4019.319308541667,-0.812469482421875,1.2757568359375,-0.8977203369140625,4019.314333541667,-2.330121699204609,0.2650377498383045,-0.624691039823061,0.7964890003204346,0.8058899641036987,-3.677998065948486,-0.9970821142196655,0.7133252620697021,-0.2283637523651123,XArbitraryZVertical,-0.004693069786050824,0.3294959037875519,-0.8827156043231856,0.3349980061640839,0.2124756425619125,0.5848466753959656,-0.7828208208084106,0,0,0,-1,-1,4018.222984625,unknown,2,2022-06-30T09:33:43.803+02:00,2022-06-30T08:20:05.567+02:00,1197,1.429728,0,0,932.105,0,0,2022-06-30T09:33:00.498+02:00
2022-06-30T09:33:44.910+02:00,4019.329259541667,-0.841766357421875,1.229324340820312,-0.8469696044921875,4019.324284541667,-2.376274272533413,0.2465013667255128,-0.6256436952243862,0.9345068335533142,0.9304174184799194,-3.626205444335938,-1.010262250900269,0.6901376247406006,-0.111636221408844,XArbitraryZVertical,-0.005524250806992725,0.3269976927034058,-0.8900850855632757,0.317475284948034,0.197793260216713,0.5856191515922546,-0.786083996295929,0,0,0,-1,-1,4018.222984625,unknown,2,2022-06-30T09:33:43.803+02:00,2022-06-30T08:20:05.567+02:00,1197,1.429728,0,0,932.105,0,0,2022-06-30T09:33:00.498+02:00
2022-06-30T09:33:44.920+02:00,4019.339210541667,-0.8977813720703125,1.237838745117188,-0.847747802734375,4019.334235541667,-2.42156253536051,0.2310892507440086,-0.624375551275017,1.029127597808838,1.319784641265869,-3.487492084503174,-1.027590870857239,0.6447335481643677,-0.05720829963684082,XArbitraryZVertical,-0.00479937803635096,0.3241857148992978,-0.8971897959110419,0.2998850283028666,0.1858249753713608,0.5845907330513,-0.7897611856460571,0,0,0,-1,-1,4018.222984625,unknown,2,2022-06-30T09:33:43.803+02:00,2022-06-30T08:20:05.567+02:00,1197,1.429728,0,0,932.105,0,0,2022-06-30T09:33:00.498+02:00
2022-06-30T09:33:44.930+02:00,4019.349161541667,-0.941070556640625,1.2845458984375,-0.9209747314453125,4019.344186541667,-2.465634618409209,0.2208991385027462,-0.6224732480035443,0.9212332367897034,1.801999926567078,-3.458590984344482,-1.075791954994202,0.6547924280166626,-0.05505037307739258,XArbitraryZVertical,-0.001930128428049047,0.3219434903933169,-0.90382036881189,0.2818818186893596,0.1780110597610474,0.5830463171005249,-0.7926973104476929,0,0,0,-1,-1,4018.222984625,unknown,2,2022-06-30T09:33:43.803+02:00,2022-06-30T08:20:05.567+02:00,1197,1.429728,0,0,932.105,0,0,2022-06-30T09:33:00.498+02:00
2022-06-30T09:33:44.940+02:00,4019.359112541667,-0.903045654296875,1.36505126953125,-1.049728393554688,4019.354137541667,-2.509713497988019,0.214984543736773,-0.6216559298272125,0.8034530878067017,2.150182247161865,-3.528375148773193,-1.11449122428894,0.7021638154983521,-0.126772940158844,XArbitraryZVertical,0.002607514399807608,0.3207683786276372,-0.9099295428716572,0.2629245998396924,0.1734210997819901,0.5823820829391479,-0.794201672077179,0,0,0,-1,-1,4018.222984625,unknown,2,2022-06-30T09:33:43.803+02:00,2022-06-30T08:20:05.567+02:00,1197,1.429728,0,0,932.105,0,0,2022-06-30T09:33:00.498+02:00
2022-06-30T09:33:44.950+02:00,4019.369063541667,-0.8102569580078125,1.501235961914062,-1.126556396484375,4019.364088541667,-2.553587228607519,0.2115922170827271,-0.6216941090544166,0.6840119361877441,2.274343729019165,-3.455539226531982,-1.073766469955444,0.7826381921768188,-0.2549646496772766,XArbitraryZVertical,0.008084354798539486,0.3202386905427616,-0.9154878571635134,0.2434418278401728,0.170721247792244,0.5824131369590759,-0.7947636246681213,0,0,0,-1,-1,4018.222984625,unknown,2,2022-06-30T09:33:43.803+02:00,2022-06-30T08:20:05.567+02:00,1197,1.429728,0,0,932.105,0,0,2022-06-30T09:33:00.498+02:00
2022-06-30T09:33:44.960+02:00,4019.379014541667,-0.747955322265625,1.6317138671875,-1.14532470703125,4019.374039541667,-2.595327251206911,0.2096755777246913,-0.6230678590597198,0.4641674160957336,2.214166879653931,-3.270099878311157,-0.9792875051498413,0.9177067279815674,-0.33225017786026,XArbitraryZVertical,0.01368687068915911,0.3204054102851713,-0.9201995386605052,0.2244682096792666,0.1690309643745422,0.5835292935371399,-0.7943060994148254,0,0,0,-1,-1,4018.222984625,unknown,2,2022-06-30T09:33:43.803+02:00,2022-06-30T08:20:05.567+02:00,1197,1.429728,0,0,932.105,0,0,2022-06-30T09:33:00.498+02:00
2022-06-30T09:33:44.970+02:00,4019.388965541667,-0.733306884765625,1.727218627929688,-1.147689819335938,4019.383990541667,-2.635014945189645,0.2078348546861763,-0.6251822451661651,0.5040820837020874,2.084568023681641,-3.163550138473511,-0.9152685403823853,1.0464688539505,-0.3519177436828613,XArbitraryZVertical,0.01890761237999847,0.3208411938534315,-0.9242040899755742,0.2062774954234914,0.1673136204481125,0.5852450728416443,-0.7934068441390991,0,0,0,-1,-1,4018.222984625,unknown,2,2022-06-30T09:33:43.803+02:00,2022-06-30T08:20:05.567+02:00,1197,1.429728,0,0,932.105,0,0,2022-06-30T09:33:00.498+02:00
2022-06-30T09:33:44.980+02:00,4019.398916541667,-0.734100341796875,1.838836669921875,-1.080337524414062,4019.393941541667,-2.674413104525049,0.2053296471699398,-0.6256348822736885,0.7155016660690308,2.054859638214111,-3.148362874984741,-0.898577868938446,1.141606569290161,-0.3541255593299866,XArbitraryZVertical,0.02400475979196701,0.3203774960797859,-0.9280565019606456,0.1883962934838783,0.1652714163064957,0.5856119990348816,-0.7935640811920166,0,0,0,-1,-1,4018.222984625,unknown,2,2022-06-30T09:33:43.803+02:00,2022-06-30T08:20:05.567+02:00,1197,1.429728,0,0,932.105,0,0,2022-06-30T09:33:00.498+02:00
2022-06-30T09:33:44.990+02:00,4019.408867541667,-0.7283935546875,1.879776000976562,-0.91900634765625,4019.403892541667,-2.714547953717116,0.2023815895452899,-0.6242481146116594,0.8798598647117615,2.082238674163818,-3.208601713180542,-0.8971942663192749,1.25434935092926,-0.2854947447776794,XArbitraryZVertical,0.0292154829126944,0.3189438106710727,-0.931886959590556,0.1703172210406332,0.1630942970514297,0.5844873785972595,-0.7948426008224487,0,0,0,-1,-1,4018.222984625,unknown,2,2022-06-30T09:33:43.803+02:00,2022-06-30T08:20:05.567+02:00,1197,1.429728,0,0,932.105,0,0,2022-06-30T09:33:00.498+02:00
2022-06-30T09:33:45.000+02:00,4019.418818541667,-0.724151611328125,1.859420776367188,-0.7592926025390625,4019.413843541667,-2.756163920552337,0.1991893017858193,-0.6205034472558769,1.239194869995117,2.166397571563721,-3.298280715942383,-0.8893812298774719,1.298331260681152,-0.1215071082115173,XArbitraryZVertical,0.0347480827832317,0.3162958270650784,-0.9358108809501514,0.1516820573631238,0.1609880775213242,0.5814448595046997,-0.7974990606307983,0,0,0,-1,-1,4018.222984625,unknown,2,2022-06-30T09:33:43.803+02:00,2022-06-30T08:20:05.567+02:00,1197,1.429728,0,0,932.105,0,0,2022-06-30T09:33:00.498+02:00
2022-06-30T09:33:45.010+02:00,4019.428769541667,-0.7247772216796875,1.866973876953125,-0.6049652099609375,4019.423794541667,-2.799434280277295,0.1966333359333007,-0.6126388592978856,1.697927117347717,2.362187623977661,-3.337772369384766,-0.8839888572692871,1.284392356872559,0.04307550191879272,XArbitraryZVertical,0.04113285723638629,0.3116474555756145,-0.9400331149683973,0.1323693371258456,0.1598376333713531,0.5750284194946289,-0.8023679256439209,0,0,0,-1,-1,4018.222984625,unknown,2,2022-06-30T09:33:43.803+02:00,2022-06-30T08:20:05.567+02:00,1197,1.429728,0,0,932.105,0,0,2022-06-30T09:33:00.498+02:00
2022-06-30T09:33:45.020+02:00,4019.438720541667,-0.7191162109375,1.92291259765625,-0.4761810302734375,4019.433745541667,-2.843561482983825,0.1962073652521219,-0.6005885979554703,2.066409587860107,2.615839719772339,-3.332608222961426,-0.885611891746521,1.301845788955688,0.2042087912559509,XArbitraryZVertical,0.04882144273115527,0.3050074721294721,-0.9444223634403406,0.112487345349911,0.1608350872993469,0.5651281476020813,-0.8091738224029541,0,0,0,-1,-1,4018.222984625,unknown,2,2022-06-30T09:33:43.803+02:00,2022-06-30T08:20:05.567+02:00,1197,1.429728,0,0,932.105,0,0,2022-06-30T09:33:00.498+02:00
2022-06-30T09:33:45.030+02:00,4019.448671541667,-0.70208740234375,1.968002319335938,-0.398284912109375,4019.443696541667,-2.887912848850922,0.1986229214959983,-0.5861501691491497,2.20344352722168,2.852393865585327,-3.350489139556885,-0.8834980726242065,1.369754791259766,0.3405166864395142,XArbitraryZVertical,0.0577925810050266,0.2971721074875369,-0.9486133154112434,0.09209581305971845,0.1643822342157364,0.5531579256057739,-0.8166975378990173,0,0,0,-1,-1,4018.222984625,unknown,2,2022-06-30T09:33:43.803+02:00,2022-06-30T08:20:05.567+02:00,1197,1.429728,0,0,932.105,0,0,2022-06-30T09:33:00.498+02:00
2022-06-30T09:33:45.040+02:00,4019.458622541667,-0.6692047119140625,2.010406494140625,-0.38983154296875,4019.453646541667,-2.932819509285721,0.2034239255081726,-0.5706897980261381,2.357131958007812,3.037727355957031,-3.447056770324707,-0.8720958232879639,1.427789807319641,0.4258919954299927,XArbitraryZVertical,0.06772195592354348,0.2886613256756049,-0.952387325565785,0.07104131771692992,0.1700088232755661,0.5402126908302307,-0.8241767287254333,0,0,0,-1,-1,4018.222984625,unknown,2,2022-06-30T09:33:43.803+02:00,2022-06-30T08:20:05.567+02:00,1197,1.429728,0,0,932.105,0,0,2022-06-30T09:33:00.498+02:00
2022-06-30T09:33:45.050+02:00,4019.468573541667,-0.6026153564453125,2.07769775390625,-0.3568267822265625,4019.463598541667,-2.979103125373266,0.2096429833285791,-0.5541215313502134,2.49170970916748,3.16950249671936,-3.567330837249756,-0.8461740016937256,1.484210252761841,0.4419132471084595,XArbitraryZVertical,0.07823088878311235,0.2792984669292506,-0.9557515247037089,0.04910710631971013,0.1769696623086929,0.5261964797973633,-0.8317446112632751,0,0,0,-1,-1,4018.222984625,unknown,2,2022-06-30T09:33:43.803+02:00,2022-06-30T08:20:05.567+02:00,1197,1.429728,0,0,932.105,0,0,2022-06-30T09:33:00.498+02:00
2022-06-30T09:33:45.060+02:00,4019.478524541667,-0.5208587646484375,2.132232666015625,-0.3552703857421875,4019.473548541667,-3.026290936767356,0.2172463025708576,-0.537202716431437,2.538211584091187,3.278502225875854,-3.629673719406128,-0.7877960205078125,1.565963268280029,0.482122540473938,XArbitraryZVertical,0.08914779140201877,0.26940326780948,-0.9585261067662075,0.02650319169324932,0.1851810663938522,0.5117347240447998,-0.8389490842819214,0,0,0,-1,-1,4018.222984625,unknown,2,2022-06-30T09:33:43.803+02:00,2022-06-30T08:20:05.567+02:00,1197,1.429728,0,0,932.105,0,0,2022-06-30T09:33:00.498+02:00
2022-06-30T09:33:45.070+02:00,4019.488475541667,-0.438995361328125,2.157501220703125,-0.3427276611328125,4019.483499541667,-3.073740299825369,0.2261033799167258,-0.5202344483910353,2.607563972473145,3.306368350982666,-3.648054838180542,-0.7153815627098083,1.635149240493774,0.490347146987915,XArbitraryZVertical,0.1002850784368177,0.2591027646540452,-0.9606226529674414,0.00357175444748363,0.1945231407880783,0.4970835745334625,-0.8456172943115234,0,0,0,-1,-1,4018.222984625,unknown,2,2022-06-30T09:33:43.803+02:00,2022-06-30T08:20:05.567+02:00,1197,1.429728,0,0,932.105,0,0,2022-06-30T09:33:00.498+02:00
2022-06-30T09:33:45.080+02:00,4019.498426541667,-0.3804779052734375,2.196853637695312,-0.329925537109375,4019.493450541667,-3.121248294028089,0.2354892421940525,-0.5021412723901343,2.851824283599854,3.245653629302979,-3.621487855911255,-0.6435115337371826,1.67619788646698,0.5096338987350464,XArbitraryZVertical,0.1112740863616251,0.2478656936694711,-0.9621872835115737,-0.01939869645362402,0.2045164853334427,0.4813035726547241,-0.8523613214492798,0,0,0,-1,-1,4018.222984625,unknown,2,2022-06-30T09:33:43.803+02:00,2022-06-30T08:20:05.567+02:00,1197,1.429728,0,0,932.105,0,0,2022-06-30T09:33:00.498+02:00
2022-06-30T09:33:45.090+02:00,4019.508377541667,-0.353607177734375,2.2369384765625,-0.265777587890625,4019.503401541667,3.114370851394675,0.244864323541974,-0.4817159977351432,3.131628274917603,3.155678272247314,-3.592604875564575,-0.595314621925354,1.733553290367126,0.5298407077789307,XArbitraryZVertical,0.1218124794666693,0.2351142480732241,-0.9633785034735801,-0.04224752390508244,0.214837059378624,0.4633005857467651,-0.8597660064697266,0,0,0,-1,-1,4018.222984625,unknown,2,2022-06-30T09:33:43.803+02:00,2022-06-30T08:20:05.567+02:00,1197,1.429728,0,0,932.105,0,0,2022-06-30T09:33:00.498+02:00
2022-06-30T09:33:45.099+02:00,4019.518328541667,-0.3278961181640625,2.185089111328125,-0.1286468505859375,4019.513352541667,3.066358652747274,0.2541415020545034,-0.4590563727468015,3.404602766036987,3.086637735366821,-3.623108148574829,-0.5789927244186401,1.793836355209351,0.6018985509872437,XArbitraryZVertical,0.1318056835363021,0.2208830081182788,-0.9641549902569114,-0.06513930332922875,0.2253858894109726,0.4431023597717285,-0.8676759004592896,0,0,0,-1,-1,4018.222984625,unknown,2,2022-06-30T09:33:43.803+02:00,2022-06-30T08:20:05.567+02:00,1197,1.429728,0,0,932.105,0,0,2022-06-30T09:33:00.498+02:00
2022-06-30T09:33:45.109+02:00,4019.528279541667,-0.2909698486328125,2.098861694335938,-0.037200927734375,4019.523303541667,3.017517207399131,0.2636465369963142,-0.4338043471827098,3.775081634521484,3.068396329879761,-3.626756906509399,-0.5643598437309265,1.764763593673706,0.7473733425140381,XArbitraryZVertical,0.1413415652023031,0.2049696817054234,-0.9644799498112053,-0.08825253208095971,0.2364640235900879,0.4203257858753204,-0.8760199546813965,0,0,0,-1,-1,4018.222984625,unknown,2,2022-06-30T09:33:43.803+02:00,2022-06-30T08:20:05.567+02:00,1197,1.429728,0,0,932.105,0,0,2022-06-30T09:33:00.498+02:00
2022-06-30T09:33:45.119+02:00,4019.538230541667,-0.2684478759765625,2.05096435546875,0.0236053466796875,4019.533254541667,2.968466154608981,0.2743867662845653,-0.4052959373977063,4.118890762329102,3.120955467224121,-3.519363880157471,-0.5399749279022217,1.70457124710083,0.8474071621894836,XArbitraryZVertical,0.150700039350795,0.1870442394382038,-0.9643201503959855,-0.1113127833861447,0.2490053325891495,0.3942907452583313,-0.8846079111099243,0,0,0,-1,-1,4018.222984625,unknown,2,2022-06-30T09:33:43.803+02:00,2022-06-30T08:20:05.567+02:00,1197,1.429728,0,0,932.105,0,0,2022-06-30T09:33:00.498+02:00
2022-06-30T09:33:45.129+02:00,4019.548181541667,-0.263092041015625,2.031143188476562,0.0822906494140625,4019.543205541667,2.920312671219127,0.2877675551775529,-0.3745218432182847,4.275465488433838,3.257236003875732,-3.372681617736816,-0.5325868129730225,1.685137152671814,0.9160184264183044,XArbitraryZVertical,0.1603629661372825,0.1675628019056614,-0.963472263740714,-0.1338941764261712,0.2641391754150391,0.3658275604248047,-0.8924128413200378,0,0,0,-1,-1,4018.222984625,unknown,2,2022-06-30T09:33:43.803+02:00,2022-06-30T08:20:05.567+02:00,1197,1.429728,0,0,932.105,0,0,2022-06-30T09:33:00.498+02:00
2022-06-30T09:33:45.139+02:00,4019.558132541667,-0.2288360595703125,1.98388671875,0.1385498046875,4019.553156541667,2.873134891840749,0.3046068833878839,-0.3431919457861138,4.318972110748291,3.46686577796936,-3.292216539382935,-0.5455203652381897,1.69464898109436,0.9806256890296936,XArbitraryZVertical,0.1707294572692716,0.147254994032539,-0.9616803462437249,-0.1560074737601758,0.2824285626411438,0.3364946246147156,-0.8983348608016968,0,0,0,-1,-1,4018.222984625,unknown,2,2022-06-30T09:33:43.803+02:00,2022-06-30T08:20:05.567+02:00,1197,1.429728,0,0,932.105,0,0,2022-06-30T09:33:00.498+02:00
2022-06-30T09:33:45.149+02:00,4019.568083541667,-0.162841796875,1.897994995117188,0.1619110107421875,4019.563107541667,2.826685123078439,0.3252391124644755,-0.3124864803083595,4.267107009887695,3.680822849273682,-3.193706750869751,-0.5328967571258545,1.676461458206177,1.040235280990601,XArbitraryZVertical,0.1820312718435425,0.1265778855864055,-0.9587772583556523,-0.1777322455909886,0.3040609359741211,0.3074256479740143,-0.9016852974891663,0,0,0,-1,-1,4018.222984625,unknown,2,2022-06-30T09:33:43.803+02:00,2022-06-30T08:20:05.567+02:00,1197,1.429728,0,0,932.105,0,0,2022-06-30T09:33:00.498+02:00
2022-06-30T09:33:45.159+02:00,4019.578034541667,-0.0984039306640625,1.781814575195312,0.2265472412109375,4019.573058541667,2.781724699158365,0.3497266592177145,-0.283503588825996,4.058078765869141,3.886903762817383,-3.029265880584717,-0.491804838180542,1.618274211883545,1.063875317573547,XArbitraryZVertical,0.1943461721577241,0.1060542163030186,-0.9547358028991688,-0.1986495876340675,0.3289632499217987,0.2797210812568665,-0.9019641280174255,0,0,0,-1,-1,4018.222984625,unknown,2,2022-06-30T09:33:43.803+02:00,2022-06-30T08:20:05.567+02:00,1197,1.429728,0,0,932.105,0,0,2022-06-30T09:33:00.498+02:00
2022-06-30T09:33:45.169+02:00,4019.587985541667,-0.045806884765625,1.663299560546875,0.2496337890625,4019.583009541667,2.739110423393131,0.3778589846338632,-0.2578216804054433,3.67650032043457,4.050929546356201,-2.857449054718018,-0.455141007900238,1.526840090751648,1.125283479690552,XArbitraryZVertical,0.2077294185024737,0.08648989497045957,-0.9495729481615088,-0.2183559481990475,0.3567373156547546,0.2549748420715332,-0.8987360000610352,0,0,0,-1,-1,4018.222984625,unknown,2,2022-06-30T09:33:43.803+02:00,2022-06-30T08:20:05.567+02:00,1197,1.429728,0,0,932.105,0,0,2022-06-30T09:33:00.498+02:00
2022-06-30T09:33:45.179+02:00,4019.597936541667,-0.0172119140625,1.608917236328125,0.2476348876953125,4019.592960541667,2.699215216034298,0.4093004378978388,-0.2368408524742285,3.193167448043823,4.235095500946045,-2.717398643493652,-0.432664692401886,1.428667068481445,1.141423344612122,XArbitraryZVertical,0.2222636192103946,0.06858707833516813,-0.9433201177440982,-0.236731733612318,0.3868580162525177,0.2346328496932983,-0.8917893767356873,0,0,0,-1,-1,4018.222984625,unknown,2,2022-06-30T09:33:43.803+02:00,2022-06-30T08:20:05.567+02:00,1197,1.429728,0,0,932.105,0,0,2022-06-30T09:33:00.498+02:00
2022-06-30T09:33:45.189+02:00,4019.607887541667,0.0239105224609375,1.595458984375,0.3148956298828125,4019.602911541667,2.661882494849859,0.4441663368881493,-0.2209164898203544,2.736489772796631,4.4790940284729,-2.616876363754272,-0.4364739060401917,1.389793634414673,1.12865948677063,XArbitraryZVertical,0.2381968137312542,0.05244129511620838,-0.9359736632501715,-0.2539005188536606,0.4192621409893036,0.2191239297389984,-0.8810243606567383,0,0,0,-1,-1,4018.222984625,unknown,2,2022-06-30T09:33:43.803+02:00,2022-06-30T08:20:05.567+02:00,1197,1.429728,0,0,932.105,0,0,2022-06-30T09:33:00.498+02:00
2022-06-30T09:33:45.199+02:00,4019.617838541667,0.0972900390625,1.566696166992188,0.394287109375,4019.612862541667,2.627225831253717,0.4829799084161904,-0.2097286701238267,2.32678484916687,4.81847620010376,-2.458493709564209,-0.4303329586982727,1.387264847755432,1.18110466003418,XArbitraryZVertical,0.2558651464970787,0.03779681121325923,-0.9275218458697193,-0.26982922224916,0.4542436599731445,0.2081945240497589,-0.8662088513374329,0,0,0,-1,-1,4018.222984625,unknown,2,2022-06-30T09:33:43.803+02:00,2022-06-30T08:20:05.567+02:00,1197,1.429728,0,0,932.105,0,0,2022-06-30T09:33:00.498+02:00
2022-06-30T09:33:45.209+02:00,4019.627789541667,0.1802520751953125,1.519546508789062,0.35931396484375,4019.622813541667,2.595752944968616,0.5263799638334443,-0.2019460315015295,2.056563138961792,5.205502510070801,-2.194605588912964,-0.3949066400527954,1.366120338439941,1.241347789764404,XArbitraryZVertical,0.2754916478329288,0.02395998295519912,-0.9180228131107863,-0.2841911418435586,0.492196798324585,0.2005762010812759,-0.8470605611801147,0,0,0,-1,-1,4018.222984625,unknown,2,2022-06-30T09:33:43.803+02:00,2022-06-30T08:20:05.567+02:00,1197,1.429728,0,0,932.105,0,0,2022-06-30T09:33:00.498+02:00
