loggingTime(txt),accelerometerTimestamp_sinceReboot(s),accelerometerAccelerationX(G),accelerometerAccelerationY(G),accelerometerAccelerationZ(G),motionTimestamp_sinceReboot(s),motionYaw(rad),motionRoll(rad),motionPitch(rad),motionRotationRateX(rad/s),motionRotationRateY(rad/s),motionRotationRateZ(rad/s),motionUserAccelerationX(G),motionUserAccelerationY(G),motionUserAccelerationZ(G),motionAttitudeReferenceFrame(txt),motionQuaternionX(R),motionQuaternionY(R),motionQuaternionZ(R),motionQuaternionW(R),motionGravityX(G),motionGravityY(G),motionGravityZ(G),motionMagneticFieldX(µT),motionMagneticFieldY(µT),motionMagneticFieldZ(µT),motionHeading(°),motionMagneticFieldCalibrationAccuracy(Z),activityTimestamp_sinceReboot(s),activity(txt),activityActivityConfidence(Z),activityActivityStartDate(txt),pedometerStartDate(txt),pedometerNumberofSteps(N),pedometerAverageActivePace(s/m),pedometerCurrentPace(s/m),pedometerCurrentCadence(steps/s),pedometerDistance(m),pedometerFloorAscended(N),pedometerFloorDescended(N),pedometerEndDate(txt)
2022-06-30T09:16:19.418+02:00,2973.821365541667,0.262451171875,-0.2053985595703125,-0.9440460205078125,2973.811413541667,-1.721987732132029,0.1320828964336134,0.07812204547236994,-0.03076839447021484,0.2626004815101624,0.05067040026187897,-0.4825392663478851,0.04497648775577545,0.05227702856063843,XArbitraryZVertical,-0.07541071762518212,-0.01341875767711406,0.7545803981214484,-0.6517221423554969,0.1312974989414215,-0.07804260402917862,-0.9882663488388062,0,0,0,-1,-1,2971.103598875,unknown,2,2022-06-30T09:16:16.684+02:00,2022-06-30T08:20:05.567+02:00,873,1.488614,0,0,680.226,0,0,2022-06-30T09:16:19.234+02:00
2022-06-30T09:16:19.421+02:00,2973.831317125,0.2049102783203125,-0.1712799072265625,-0.95318603515625,2973.821365541667,-1.721811232945078,0.1334429607699047,0.07730299141019399,-0.149147242307663,0.06505383551120758,-0.07996057718992233,-0.07991527020931244,-0.1042775958776474,0.01625663042068481,XArbitraryZVertical,-0.07565730416829708,-0.01417901242462692,0.7545012477462134,-0.6517691189029445,0.1326499432325363,-0.07722602039575577,-0.988149881362915,0,0,0,-1,-1,2971.103598875,unknown,2,2022-06-30T09:16:16.684+02:00,2022-06-30T08:20:05.567+02:00,873,1.488614,0,0,680.226,0,0,2022-06-30T09:16:19.234+02:00
2022-06-30T09:16:19.423+02:00,2973.841269125,0.0820159912109375,-0.124267578125,-0.9494476318359375,2973.831317125,-1.723330697332428,0.134256643956763,0.0753246648079967,-0.1958348453044891,0.07304695248603821,-0.2523493766784668,0.1289773434400558,-0.1301454305648804,0.04414510726928711,XArbitraryZVertical,-0.07533493957306776,-0.01513657325753665,0.7550370920708994,-0.6511640183342544,0.133474126458168,-0.07525345683097839,-0.9881910681724548,0,0,0,-1,-1,2971.103598875,unknown,2,2022-06-30T09:16:16.684+02:00,2022-06-30T08:20:05.567+02:00,873,1.488614,0,0,680.226,0,0,2022-06-30T09:16:19.234+02:00
2022-06-30T09:16:19.432+02:00,2973.851221125,-0.0704498291015625,-0.0785064697265625,-0.9433441162109375,2973.841269125,-1.725714127110271,0.1348530732151176,0.07322157758320308,-0.1596129238605499,0.007874606177210808,-0.2700165212154388,0.07082611322402954,-0.09812406450510025,0.0350799560546875,XArbitraryZVertical,-0.07489855318459934,-0.01603890800480921,0.755865681370515,-0.6502307646803812,0.134084478020668,-0.07315616309642792,-0.9882659316062927,0,0,0,-1,-1,2971.103598875,unknown,2,2022-06-30T09:16:16.684+02:00,2022-06-30T08:20:05.567+02:00,873,1.488614,0,0,680.226,0,0,2022-06-30T09:16:19.234+02:00
2022-06-30T09:16:19.443+02:00,2973.861172125,-0.1105194091796875,-0.095123291015625,-0.9479827880859375,2973.851221125,-1.728251813103562,0.1350483426373389,0.07163136023566687,-0.09265632927417755,0.01710051111876965,-0.2805612683296204,-0.05227664113044739,-0.05269777774810791,0.03890615701675415,XArbitraryZVertical,-0.07447944870393004,-0.01661144013208843,0.7567394459830502,-0.6492474385074475,0.13429294526577,-0.07157012075185776,-0.9883537292480469,0,0,0,-1,-1,2971.103598875,unknown,2,2022-06-30T09:16:16.684+02:00,2022-06-30T08:20:05.567+02:00,873,1.488614,0,0,680.226,0,0,2022-06-30T09:16:19.234+02:00
2022-06-30T09:16:19.452+02:00,2973.871124125,-0.059234619140625,-0.1547088623046875,-0.9362945556640625,2973.861172125,-1.731007754797663,0.1357195348268573,0.07055973704037583,-0.05765999481081963,0.08388113230466843,-0.2934373915195465,-0.2054161131381989,-0.008005589246749878,0.0449947714805603,XArbitraryZVertical,-0.07441117212838301,-0.01713395283047787,0.757646342574319,-0.6481832850409507,0.1349665820598602,-0.07050120085477829,-0.988338828086853,0,0,0,-1,-1,2971.103598875,unknown,2,2022-06-30T09:16:16.684+02:00,2022-06-30T08:20:05.567+02:00,873,1.488614,0,0,680.226,0,0,2022-06-30T09:16:19.234+02:00
2022-06-30T09:16:19.462+02:00,2973.881076125,-0.02203369140625,-0.2143096923828125,-0.9156341552734375,2973.871124125,-1.733972832940978,0.1367768020085388,0.06945196062437378,-0.1001623794436455,0.0865575298666954,-0.3285461664199829,-0.2465411424636841,-0.02572746574878693,0.04028964042663574,XArbitraryZVertical,-0.07448114684244939,-0.01778755203591852,0.7586062190509575,-0.6470337723864502,0.1360220164060593,-0.06939613819122314,-0.9882723093032837,0,0,0,-1,-1,2971.103598875,unknown,2,2022-06-30T09:16:16.684+02:00,2022-06-30T08:20:05.567+02:00,873,1.488614,0,0,680.226,0,0,2022-06-30T09:16:19.234+02:00
2022-06-30T09:16:19.474+02:00,2973.891028125,-0.0409698486328125,-0.2436676025390625,-0.8889617919921875,2973.881076125,-1.737379351159392,0.1377548078684563,0.06738111749501902,-0.2346480339765549,0.07453601807355881,-0.4076268672943115,-0.1962422430515289,-0.08737904578447342,0.05198454856872559,XArbitraryZVertical,-0.07421794945429232,-0.01876620343167608,0.759743639277606,-0.6457006000192956,0.1370079219341278,-0.06733014434576035,-0.9882790446281433,0,0,0,-1,-1,2971.103598875,unknown,2,2022-06-30T09:16:16.684+02:00,2022-06-30T08:20:05.567+02:00,873,1.488614,0,0,680.226,0,0,2022-06-30T09:16:19.234+02:00
2022-06-30T09:16:19.483+02:00,2973.900979125,-0.0947418212890625,-0.232421875,-0.8908843994140625,2973.891028125,-1.741491656067181,0.1386494803309086,0.06355282613959702,-0.4092625081539154,0.06863418221473694,-0.5155877470970154,-0.1599600613117218,-0.150799959897995,0.07277005910873413,XArbitraryZVertical,-0.07337056230844742,-0.02036415951833144,0.761169575410598,-0.6440676469862485,0.1379266679286957,-0.06351005285978317,-0.9884040951728821,0,0,0,-1,-1,2971.103598875,unknown,2,2022-06-30T09:16:16.684+02:00,2022-06-30T08:20:05.567+02:00,873,1.488614,0,0,680.226,0,0,2022-06-30T09:16:19.234+02:00
2022-06-30T09:16:19.492+02:00,2973.910931125,-0.082794189453125,-0.19439697265625,-0.906036376953125,2973.900979125,-1.746218799984196,0.1396952168925208,0.05793068736899906,-0.5906543731689453,0.08356732130050659,-0.588767409324646,-0.1799772679805756,-0.1857696324586868,0.09963560104370117,XArbitraryZVertical,-0.07202110801676324,-0.02267829191092161,0.7628424855620352,-0.642160487875579,0.1390077322721481,-0.05789829045534134,-0.9885973334312439,0,0,0,-1,-1,2971.103598875,unknown,2,2022-06-30T09:16:16.684+02:00,2022-06-30T08:20:05.567+02:00,873,1.488614,0,0,680.226,0,0,2022-06-30T09:16:19.234+02:00
2022-06-30T09:16:19.503+02:00,2973.920883125,-0.07305908203125,-0.1814422607421875,-0.93878173828125,2973.910931125,-1.751429326014357,0.1408204807410456,0.05058490466635443,-0.7129494547843933,0.1091258898377419,-0.6451621651649475,-0.2349175065755844,-0.1818588525056839,0.09795039892196655,XArbitraryZVertical,-0.07016985070514568,-0.02566800794161367,0.764713975234265,-0.6400234734152662,0.1401759833097458,-0.05056333541870117,-0.9888346791267395,0,0,0,-1,-1,2971.103598875,unknown,2,2022-06-30T09:16:16.684+02:00,2022-06-30T08:20:05.567+02:00,873,1.488614,0,0,680.226,0,0,2022-06-30T09:16:19.234+02:00
2022-06-30T09:16:19.512+02:00,2973.930835125,-0.026153564453125,-0.14556884765625,-0.9629364013671875,2973.920883125,-1.757081206564897,0.1422587245903665,0.04245667579017804,-0.7466051578521729,0.1380243897438049,-0.7134754061698914,-0.2244454920291901,-0.1519533693790436,0.08296990394592285,XArbitraryZVertical,-0.06821172479369596,-0.02905241814450477,0.76672575332361,-0.6376791995419595,0.1416516155004501,-0.04244391992688179,-0.9890062212944031,0,0,0,-1,-1,2971.103598875,unknown,2,2022-06-30T09:16:16.684+02:00,2022-06-30T08:20:05.567+02:00,873,1.488614,0,0,680.226,0,0,2022-06-30T09:16:19.234+02:00
2022-06-30T09:16:19.522+02:00,2973.940786125,0.007965087890625,-0.0941619873046875,-0.9853515625,2973.930835125,-1.763415583758497,0.1438145406628488,0.03424016974736904,-0.7043617963790894,0.1436557024717331,-0.7835227847099304,-0.216294065117836,-0.1472090929746628,0.05031472444534302,XArbitraryZVertical,-0.06630081918446049,-0.03249606509564462,0.7689364627047259,-0.6350471939911276,0.1432353109121323,-0.03423348069190979,-0.9890964031219482,0,0,0,-1,-1,2971.103598875,unknown,2,2022-06-30T09:16:16.684+02:00,2022-06-30T08:20:05.567+02:00,873,1.488614,0,0,680.226,0,0,2022-06-30T09:16:19.234+02:00
2022-06-30T09:16:19.532+02:00,2973.950738125,0.0323333740234375,-0.067413330078125,-1.005340576171875,2973.940786125,-1.770599350393615,0.1454125967824986,0.02655713921178927,-0.6215118765830994,0.1506728678941727,-0.8705748915672302,-0.1710028350353241,-0.1190151423215866,0.02616095542907715,XArbitraryZVertical,-0.06461140576962476,-0.03573112942665399,0.7713809073076605,-0.6320760143739739,0.1448495835065842,-0.02655401825904846,-0.9890972971916199,0,0,0,-1,-1,2971.103598875,unknown,2,2022-06-30T09:16:16.684+02:00,2022-06-30T08:20:05.567+02:00,873,1.488614,0,0,680.226,0,0,2022-06-30T09:16:19.234+02:00
2022-06-30T09:16:19.542+02:00,2973.960690125,0.0352020263671875,-0.084228515625,-1.01483154296875,2973.950738125,-1.778750896006024,0.146966829842284,0.01948849958600267,-0.5543361306190491,0.1428753733634949,-0.9561418294906616,-0.1384451240301132,-0.07467503100633621,0.00368046760559082,XArbitraryZVertical,-0.06314014788521939,-0.03869555187288445,0.7740950840572431,-0.6287230993333299,0.1464105248451233,-0.01948726549744606,-0.989031970500946,0,0,0,-1,-1,2971.103598875,unknown,2,2022-06-30T09:16:16.684+02:00,2022-06-30T08:20:05.567+02:00,873,1.488614,0,0,680.226,0,0,2022-06-30T09:16:19.234+02:00
2022-06-30T09:16:19.552+02:00,2973.970642125,0.0202484130859375,-0.0965423583984375,-1.024673461914062,2973.960690125,-1.787650195549045,0.1484937447334819,0.01267010570686299,-0.5561103820800781,0.1544321626424789,-1.014164924621582,-0.115603044629097,-0.05474387109279633,-0.01642483472824097,XArbitraryZVertical,-0.06177669554668055,-0.04154282177647511,0.7770161771734942,-0.6250630206558117,0.1479367464780807,-0.0126697663217783,-0.9889156818389893,0,0,0,-1,-1,2971.103598875,unknown,2,2022-06-30T09:16:16.684+02:00,2022-06-30T08:20:05.567+02:00,873,1.488614,0,0,680.226,0,0,2022-06-30T09:16:19.234+02:00
2022-06-30T09:16:19.562+02:00,2973.980593125,0.00244140625,-0.0710906982421875,-1.038345336914062,2973.970642125,-1.796994816700203,0.1502521127659784,0.005394821261905551,-0.6163755655288696,0.2053055763244629,-1.057926177978516,-0.1144828796386719,-0.07883401960134506,-0.02611249685287476,XArbitraryZVertical,-0.06039771518805332,-0.04463883094129983,0.7800562192357332,-0.621185671097756,0.1496852338314056,-0.005394794978201389,-0.9887189865112305,0,0,0,-1,-1,2971.103598875,unknown,2,2022-06-30T09:16:16.684+02:00,2022-06-30T08:20:05.567+02:00,873,1.488614,0,0,680.226,0,0,2022-06-30T09:16:19.234+02:00
2022-06-30T09:16:19.572+02:00,2973.990545125,-0.008148193359375,-0.0099334716796875,-1.045272827148438,2973.980593125,-1.806517760570478,0.1526561130270332,-0.002452046887425794,-0.6580681800842285,0.2894462943077087,-1.072492837905884,-0.1318146884441376,-0.09899469465017319,-0.03630572557449341,XArbitraryZVertical,-0.05912912131316396,-0.04816533101794027,0.7831191958432402,-0.617177665906557,0.1520634293556213,0.002452044514939189,-0.9883676767349243,0,0,0,-1,-1,2971.103598875,unknown,2,2022-06-30T09:16:16.684+02:00,2022-06-30T08:20:05.567+02:00,873,1.488614,0,0,680.226,0,0,2022-06-30T09:16:19.234+02:00
2022-06-30T09:16:19.582+02:00,2974.000497125,-0.003326416015625,0.0089874267578125,-1.049301147460938,2973.990545125,-1.816073919010929,0.1557309751301862,-0.01066884230889044,-0.6808211207389832,0.3521842360496521,-1.082462549209595,-0.1526516973972321,-0.08175963163375854,-0.05050307512283325,XArbitraryZVertical,-0.05804600138328746,-0.0520534673287039,0.7861530180997125,-0.6130942638184994,0.1550934463739395,0.01066864002496004,-0.9878422021865845,0,0,0,-1,-1,2971.103598875,unknown,2,2022-06-30T09:16:16.684+02:00,2022-06-30T08:20:05.567+02:00,873,1.488614,0,0,680.226,0,0,2022-06-30T09:16:19.234+02:00
2022-06-30T09:16:19.592+02:00,2974.010449125,0.0132293701171875,0.004058837890625,-1.037384033203125,2974.000497125,-1.825623411648167,0.1591812866405103,-0.01891722762624152,-0.6605883240699768,0.3856761455535889,-1.067825794219971,-0.1666293889284134,-0.02884986251592636,-0.05809205770492554,XArbitraryZVertical,-0.05713916104122867,-0.05607810286664239,0.7891461257435763,-0.6089653278871496,0.1584815382957458,0.01891610026359558,-0.9871807098388672,0,0,0,-1,-1,2971.103598875,unknown,2,2022-06-30T09:16:16.684+02:00,2022-06-30T08:20:05.567+02:00,873,1.488614,0,0,680.226,0,0,2022-06-30T09:16:19.234+02:00
2022-06-30T09:16:19.602+02:00,2974.020401125,0.037078857421875,-0.005035400390625,-1.038665771484375,2974.010449125,-1.834963985113868,0.1627723163169152,-0.02693828248045341,-0.6383710503578186,0.3990427255630493,-1.043837308883667,-0.1653217673301697,-0.01794788241386414,-0.06287729740142822,XArbitraryZVertical,-0.05638993804464498,-0.06006895273770187,0.7920389832687617,-0.6048852182409666,0.1619957089424133,0.0269350241869688,-0.9864237904548645,0,0,0,-1,-1,2971.103598875,unknown,2,2022-06-30T09:16:16.684+02:00,2022-06-30T08:20:05.567+02:00,873,1.488614,0,0,680.226,0,0,2022-06-30T09:16:19.234+02:00
2022-06-30T09:16:19.612+02:00,2974.030352125,0.0676422119140625,-0.0102996826171875,-1.0372314453125,2974.020401125,-1.844141535659591,0.1664416196058379,-0.03484007428967525,-0.6357776522636414,0.4157015979290009,-1.041786074638367,-0.1523439586162567,-0.03077446669340134,-0.05180191993713379,XArbitraryZVertical,-0.05574057010464198,-0.06404648579043658,0.7948509603066743,-0.6008352170793095,0.1655736565589905,0.03483302518725395,-0.9855820536613464,0,0,0,-1,-1,2971.103598875,unknown,2,2022-06-30T09:16:16.684+02:00,2022-06-30T08:20:05.567+02:00,873,1.488614,0,0,680.226,0,0,2022-06-30T09:16:19.234+02:00
2022-06-30T09:16:19.622+02:00,2974.040304125,0.1115264892578125,0.0075225830078125,-1.076629638671875,2974.030352125,-1.853362314172305,0.1701703384993351,-0.04291213661751133,-0.6689618825912476,0.4230912625789642,-1.054418802261353,-0.1321151256561279,-0.0479346439242363,-0.05401706695556641,XArbitraryZVertical,-0.05510247641078179,-0.06811308568517661,0.7976501756946982,-0.5967232879907676,0.1691943258047104,0.04289896786212921,-0.9846486449241638,0,0,0,-1,-1,2971.103598875,unknown,2,2022-06-30T09:16:16.684+02:00,2022-06-30T08:20:05.567+02:00,873,1.488614,0,0,680.226,0,0,2022-06-30T09:16:19.234+02:00
2022-06-30T09:16:19.631+02:00,2974.050256125,0.1677703857421875,0.0843048095703125,-1.074783325195312,2974.040304125,-1.862562330047387,0.1740959801067223,-0.05109152798589496,-0.6172725558280945,0.4682491421699524,-1.048604011535645,-0.1053492724895477,-0.06136925518512726,-0.05363303422927856,XArbitraryZVertical,-0.05454857753500509,-0.07228600433503574,0.8004116572516307,-0.5925710699733773,0.1729918271303177,0.05106930434703827,-0.9835983514785767,0,0,0,-1,-1,2971.103598875,unknown,2,2022-06-30T09:16:16.684+02:00,2022-06-30T08:20:05.567+02:00,873,1.488614,0,0,680.226,0,0,2022-06-30T09:16:19.234+02:00
2022-06-30T09:16:19.641+02:00,2974.060208125,0.2412109375,0.1425628662109375,-1.12701416015625,2974.050256125,-1.871924380713556,0.1784787733797395,-0.05847203940712976,-0.518054187297821,0.528318464756012,-1.069751262664795,-0.06570248305797577,-0.05091641470789909,-0.09419649839401245,XArbitraryZVertical,-0.05446009024565457,-0.07627303624808342,0.8031684214425301,-0.5883341541366328,0.1772293150424957,0.05843872576951981,-0.982433021068573,0,0,0,-1,-1,2971.103598875,unknown,2,2022-06-30T09:16:16.684+02:00,2022-06-30T08:20:05.567+02:00,873,1.488614,0,0,680.226,0,0,2022-06-30T09:16:19.234+02:00
2022-06-30T09:16:19.652+02:00,2974.070159125,0.28204345703125,0.13397216796875,-1.140487670898438,2974.060208125,-1.881739300389514,0.1830188911266893,-0.0646816773766775,-0.3643240630626678,0.5135946273803711,-1.087717533111572,-0.01384754478931427,0.01966795325279236,-0.0935407280921936,XArbitraryZVertical,-0.05483581952173622,-0.07982333541543711,0.8060095685571576,-0.5839263431345205,0.1816182881593704,0.06463658809661865,-0.9812425374984741,0,0,0,-1,-1,2971.103598875,unknown,2,2022-06-30T09:16:16.684+02:00,2022-06-30T08:20:05.567+02:00,873,1.488614,0,0,680.226,0,0,2022-06-30T09:16:19.234+02:00
2022-06-30T09:16:19.661+02:00,2974.080111125,0.2647705078125,0.080413818359375,-1.130905151367188,2974.070159125,-1.891938602616798,0.1871273085752738,-0.06958321194617963,-0.2474158108234406,0.4684562981128693,-1.105715990066528,0.05562436580657959,0.07303553074598312,-0.1468490958213806,XArbitraryZVertical,-0.05547111943937983,-0.08270696027529788,0.8089291445052641,-0.5794102224300773,0.1855869293212891,0.06952707469463348,-0.9801650047302246,0,0,0,-1,-1,2971.103598875,unknown,2,2022-06-30T09:16:16.684+02:00,2022-06-30T08:20:05.567+02:00,873,1.488614,0,0,680.226,0,0,2022-06-30T09:16:19.234+02:00
2022-06-30T09:16:19.671+02:00,2974.090063125,0.2249755859375,0.0192108154296875,-1.110153198242188,2974.080111125,-1.902557839607433,0.1909281366911058,-0.07403129584172001,-0.2554537653923035,0.4728401303291321,-1.151096224784851,0.09279336035251617,0.0600082203745842,-0.1613483428955078,XArbitraryZVertical,-0.05616163249098364,-0.08530095318189015,0.8119447867067835,-0.5747307752504065,0.1892504543066025,0.07396369427442551,-0.9791392087936401,0,0,0,-1,-1,2971.103598875,unknown,2,2022-06-30T09:16:16.684+02:00,2022-06-30T08:20:05.567+02:00,873,1.488614,0,0,680.226,0,0,2022-06-30T09:16:19.234+02:00
2022-06-30T09:16:19.681+02:00,2974.100015125,0.183563232421875,-0.03948974609375,-1.044097900390625,2974.090063125,-1.913355813482151,0.1950519733655513,-0.0793114641163791,-0.4034250676631927,0.5391911864280701,-1.170444369316101,0.07156260311603546,0.001185216009616852,-0.1529513597488403,XArbitraryZVertical,-0.05678074772116216,-0.08831249131823414,0.814983122402013,-0.5698942080189984,0.1932082623243332,0.07922834157943726,-0.9779536724090576,0,0,0,-1,-1,2971.103598875,unknown,2,2022-06-30T09:16:16.684+02:00,2022-06-30T08:20:05.567+02:00,873,1.488614,0,0,680.226,0,0,2022-06-30T09:16:19.234+02:00
2022-06-30T09:16:19.691+02:00,2974.109966125,0.1607208251953125,-0.1011199951171875,-0.9860687255859375,2974.100015125,-1.923863466521969,0.1998466488075487,-0.08688767095005444,-0.6920264959335327,0.6161085963249207,-1.195846676826477,0.02720578014850616,-0.06756782531738281,-0.1337533593177795,XArbitraryZVertical,-0.05703794885894525,-0.09244887267441074,0.8179139246982871,-0.5649927424160197,0.1977701485157013,0.08677838742733002,-0.9763997793197632,0,0,0,-1,-1,2971.103598875,unknown,2,2022-06-30T09:16:16.684+02:00,2022-06-30T08:20:05.567+02:00,873,1.488614,0,0,680.226,0,0,2022-06-30T09:16:19.234+02:00
2022-06-30T09:16:19.701+02:00,2974.119918125,0.146240234375,-0.091339111328125,-0.9304656982421875,2974.109966125,-1.93400258364313,0.2053816858413504,-0.09774156141170648,-1.060036182403564,0.7004024386405945,-1.226782917976379,-0.0194038450717926,-0.1370759904384613,-0.06978720426559448,XArbitraryZVertical,-0.05669426780157263,-0.09813484915562225,0.8207158507428477,-0.5599829289122419,0.2029674500226974,0.0975860059261322,-0.9743106365203857,0,0,0,-1,-1,2971.103598875,unknown,2,2022-06-30T09:16:16.684+02:00,2022-06-30T08:20:05.567+02:00,873,1.488614,0,0,680.226,0,0,2022-06-30T09:16:19.234+02:00
2022-06-30T09:16:19.711+02:00,2974.129870125,0.14208984375,-0.0249786376953125,-0.8826446533203125,2974.119918125,-1.943389434880048,0.2116703432912757,-0.112550189106953,-1.481479287147522,0.7716619968414307,-1.223657488822937,-0.04804277420043945,-0.2134329527616501,-0.01457321643829346,XArbitraryZVertical,-0.05556263895291629,-0.1056648194878451,0.8232722033415474,-0.5549511464807475,0.2087639719247818,0.1123127192258835,-0.9714954495429993,0,0,0,-1,-1,2971.103598875,unknown,2,2022-06-30T09:16:16.684+02:00,2022-06-30T08:20:05.567+02:00,873,1.488614,0,0,680.226,0,0,2022-06-30T09:16:19.234+02:00
2022-06-30T09:16:19.721+02:00,2974.139822125,0.1549530029296875,0.002838134765625,-0.85687255859375,2974.129870125,-1.951628434663867,0.2184201408544712,-0.1318507298147864,-1.97710907459259,0.8012730479240417,-1.212346792221069,-0.06856618821620941,-0.2228083908557892,0.03730189800262451,XArbitraryZVertical,-0.05336344973134859,-0.1151893582591562,0.8254609819814341,-0.5499982585437655,0.2148067802190781,0.1314690262079239,-0.9677675366401672,0,0,0,-1,-1,2971.103598875,unknown,2,2022-06-30T09:16:16.684+02:00,2022-06-30T08:20:05.567+02:00,873,1.488614,0,0,680.226,0,0,2022-06-30T09:16:19.234+02:00
2022-06-30T09:16:19.731+02:00,2974.149773125,0.1936492919921875,-0.0106048583984375,-0.8261566162109375,2974.139822125,-1.958638569247031,0.2254809739481788,-0.156327853466391,-2.530726909637451,0.8420966267585754,-1.23435378074646,-0.0787585973739624,-0.1806707680225372,0.08015644550323486,XArbitraryZVertical,-0.04984215632449809,-0.1269458293847304,0.8272277615629788,-0.5450640103642482,0.2208488434553146,0.1556918919086456,-0.9628010392189026,0,0,0,-1,-1,2971.103598875,unknown,2,2022-06-30T09:16:16.684+02:00,2022-06-30T08:20:05.567+02:00,873,1.488614,0,0,680.226,0,0,2022-06-30T09:16:19.234+02:00
2022-06-30T09:16:19.741+02:00,2974.159725125,0.2358856201171875,0.015777587890625,-0.8029632568359375,2974.149773125,-1.964368462664481,0.2330917419721801,-0.1866632488159524,-3.175506591796875,0.9063335061073303,-1.250016570091248,-0.07202088832855225,-0.1827432364225388,0.09918308258056641,XArbitraryZVertical,-0.04490021353969805,-0.1412663002971528,0.8284914675593791,-0.5400275319633759,0.2269742637872696,0.1855811476707458,-0.9560555815696716,0,0,0,-1,-1,2971.103598875,unknown,2,2022-06-30T09:16:16.684+02:00,2022-06-30T08:20:05.567+02:00,873,1.488614,0,0,680.226,0,0,2022-06-30T09:16:19.234+02:00
2022-06-30T09:16:19.751+02:00,2974.169677125,0.2462005615234375,0.0982513427734375,-0.799102783203125,2974.159725125,-1.9681716109349,0.241702253683373,-0.2237655824940527,-3.908616304397583,1.009562253952026,-1.229834675788879,-0.03973864018917084,-0.2325079888105392,0.1205688714981079,XArbitraryZVertical,-0.03840714622858071,-0.1586259299969368,0.8289755396699469,-0.5349413630148202,0.2333883047103882,0.2219028919935226,-0.9467254281044006,0,0,0,-1,-1,2971.103598875,unknown,2,2022-06-30T09:16:16.684+02:00,2022-06-30T08:20:05.567+02:00,873,1.488614,0,0,680.226,0,0,2022-06-30T09:16:19.234+02:00
2022-06-30T09:16:19.761+02:00,2974.179629125,0.246795654296875,0.2361297607421875,-0.807220458984375,2974.169677125,-1.969594585313194,0.2521335728219096,-0.2677774366507296,-4.618800640106201,1.172699928283691,-1.200942993164062,-0.004693835973739624,-0.2488113641738892,0.1309072971343994,XArbitraryZVertical,-0.03058041079770484,-0.1792472602951231,0.8284328512926045,-0.5297492616556733,0.2405798435211182,0.2645887434482574,-0.9338704943656921,0,0,0,-1,-1,2971.103598875,unknown,2,2022-06-30T09:16:16.684+02:00,2022-06-30T08:20:05.567+02:00,873,1.488614,0,0,680.226,0,0,2022-06-30T09:16:19.234+02:00
2022-06-30T09:16:19.771+02:00,2974.189581125,0.263946533203125,0.368927001953125,-0.8118133544921875,2974.179629125,-1.968250501762508,0.2649972293648449,-0.3184473442733639,-5.289211750030518,1.348286390304565,-1.14383864402771,-0.00253768265247345,-0.214841216802597,0.1174681782722473,XArbitraryZVertical,-0.02162538617350366,-0.2030932559939491,0.826642617027883,-0.5243544521623492,0.248738631606102,0.3130923509597778,-0.9165709614753723,0,0,0,-1,-1,2971.103598875,unknown,2,2022-06-30T09:16:16.684+02:00,2022-06-30T08:20:05.567+02:00,873,1.488614,0,0,680.226,0,0,2022-06-30T09:16:19.234+02:00
2022-06-30T09:16:19.781+02:00,2974.199532125,0.2833251953125,0.5250244140625,-0.8157196044921875,2974.189581125,-1.963596240489552,0.2809075118922158,-0.374858410076521,-5.861695289611816,1.55533492565155,-1.062791228294373,-0.0111808180809021,-0.1300112009048462,0.08686506748199463,XArbitraryZVertical,-0.0118704050387596,-0.2298180727141574,0.8233816151940935,-0.5187344859799886,0.2579768598079681,0.3661407828330994,-0.8940854668617249,0,0,0,-1,-1,2971.103598875,unknown,2,2022-06-30T09:16:16.684+02:00,2022-06-30T08:20:05.567+02:00,873,1.488614,0,0,680.226,0,0,2022-06-30T09:16:19.234+02:00
2022-06-30T09:16:19.791+02:00,2974.209484125,0.36431884765625,0.654205322265625,-0.8072509765625,2974.199532125,-1.955558422920368,0.3006557840414547,-0.4358533764891395,-6.310905933380127,1.807198286056519,-1.050057768821716,-0.004512995481491089,-0.05325734615325928,0.05403298139572144,XArbitraryZVertical,-0.001786975334692909,-0.2589858039877857,0.8186091705054181,-0.5126424846236376,0.2684599161148071,0.4221841394901276,-0.8658463358879089,0,0,0,-1,-1,2971.103598875,unknown,2,2022-06-30T09:16:16.684+02:00,2022-06-30T08:20:05.567+02:00,873,1.488614,0,0,680.226,0,0,2022-06-30T09:16:19.234+02:00
2022-06-30T09:16:19.801+02:00,2974.219436125,0.4912567138671875,0.777862548828125,-0.759490966796875,2974.209484125,-1.943744343198835,0.325461809401336,-0.5004910335289324,-6.697446823120117,2.106959581375122,-0.9213263392448425,0.002797037363052368,0.04516783356666565,0.01556956768035889,XArbitraryZVertical,0.008118837372250512,-0.2903265686027914,0.8122624356098989,-0.5058403933568714,0.2805285453796387,0.4798564016819,-0.8312891125679016,0,0,0,-1,-1,2971.103598875,unknown,2,2022-06-30T09:16:16.684+02:00,2022-06-30T08:20:05.567+02:00,873,1.488614,0,0,680.226,0,0,2022-06-30T09:16:19.234+02:00
2022-06-30T09:16:19.811+02:00,2974.229388125,0.5943145751953125,0.815521240234375,-0.650299072265625,2974.219436125,-1.926749718840123,0.3562444660941676,-0.5669913506382823,-6.865561485290527,2.339701414108276,-0.7618631720542908,0.07013547420501709,0.1171084642410278,-0.01669216156005859,XArbitraryZVertical,0.01744053433244105,-0.3231353366499292,0.8041595846266985,-0.4986048256925122,0.2941837310791016,0.5370966196060181,-0.7905587553977966,0,0,0,-1,-1,2971.103598875,unknown,2,2022-06-30T09:16:16.684+02:00,2022-06-30T08:20:05.567+02:00,873,1.488614,0,0,680.226,0,0,2022-06-30T09:16:19.234+02:00
2022-06-30T09:16:19.821+02:00,2974.239339125,0.6372222900390625,0.78839111328125,-0.527252197265625,2974.229388125,-1.904254344707201,0.3932018825054628,-0.6331541813473111,-6.869630336761475,2.549274444580078,-0.6343406438827515,0.1823765933513641,0.1861718893051147,-0.01484662294387817,XArbitraryZVertical,0.02584629106593882,-0.3563843415792549,0.7945224700490315,-0.4909747702811247,0.3088805079460144,0.5916904807090759,-0.7446443438529968,0,0,0,-1,-1,2971.103598875,unknown,2,2022-06-30T09:16:16.684+02:00,2022-06-30T08:20:05.567+02:00,873,1.488614,0,0,680.226,0,0,2022-06-30T09:16:19.234+02:00
2022-06-30T09:16:19.830+02:00,2974.249291125,0.66204833984375,0.7680816650390625,-0.4196624755859375,2974.239339125,-1.876191468954461,0.4367486978201003,-0.6979943804688876,-6.875275135040283,2.719895601272583,-0.5443984866142273,0.2702442109584808,0.1728386878967285,0.04391813278198242,XArbitraryZVertical,0.03322863234426147,-0.3895988514207346,0.7836277553192238,-0.4827382450113662,0.3240707814693451,0.6426824331283569,-0.6942172050476074,0,0,0,-1,-1,2971.103598875,unknown,2,2022-06-30T09:16:16.684+02:00,2022-06-30T08:20:05.567+02:00,873,1.488614,0,0,680.226,0,0,2022-06-30T09:16:19.234+02:00
2022-06-30T09:16:19.840+02:00,2974.259243125,0.66387939453125,0.7694244384765625,-0.3620758056640625,2974.249291125,-1.84063929241031,0.4883637104655635,-0.7615948407692028,-6.936060905456543,2.897824048995972,-0.3674178719520569,0.2976589202880859,0.09831440448760986,0.1118807792663574,XArbitraryZVertical,0.03977667442072581,-0.4229081974749619,0.7712876970101504,-0.4740062825094932,0.3395637571811676,0.6900765895843506,-0.6391329169273376,0,0,0,-1,-1,2971.103598875,unknown,2,2022-06-30T09:16:16.684+02:00,2022-06-30T08:20:05.567+02:00,873,1.488614,0,0,680.226,0,0,2022-06-30T09:16:19.234+02:00
2022-06-30T09:16:19.850+02:00,2974.269195125,0.6451263427734375,0.8544464111328125,-0.2921600341796875,2974.259243125,-1.794939920227073,0.5507286597347109,-0.8227252525570601,-6.95128059387207,3.105872869491577,-0.1155995056033134,0.3060807883739471,0.03507918119430542,0.15998774766922,XArbitraryZVertical,0.04512966186203724,-0.4562216548393631,0.7573379320093182,-0.4650423518207699,0.3559679687023163,0.7330023646354675,-0.5796502232551575,0,0,0,-1,-1,2971.103598875,unknown,2,2022-06-30T09:16:16.684+02:00,2022-06-30T08:20:05.567+02:00,873,1.488614,0,0,680.226,0,0,2022-06-30T09:16:19.234+02:00
2022-06-30T09:16:19.860+02:00,2974.279146125,0.679290771484375,0.9202728271484375,-0.2356414794921875,2974.269195125,-1.736623283362926,0.6263317580746555,-0.8803688816259446,-6.991421699523926,3.289135456085205,0.09997160732746124,0.2905632257461548,-0.001549482345581055,0.153903067111969,XArbitraryZVertical,0.04920558850894536,-0.4894786569084344,0.7417155831213675,-0.4559031432811082,0.373316615819931,0.7709738612174988,-0.5159789323806763,0,0,0,-1,-1,2971.103598875,unknown,2,2022-06-30T09:16:16.684+02:00,2022-06-30T08:20:05.567+02:00,873,1.488614,0,0,680.226,0,0,2022-06-30T09:16:19.234+02:00
2022-06-30T09:16:19.872+02:00,2974.289098125,0.7076416015625,0.9816741943359375,-0.16851806640625,2974.279146125,-1.663592878630099,0.7172388262498107,-0.9332777211850971,-6.959164142608643,3.408717632293701,0.3887535929679871,0.2538958489894867,0.05087107419967651,0.15639927983284,XArbitraryZVertical,0.05205426049214491,-0.5225042988794893,0.7244771523163086,-0.4465562560440005,0.3912308812141418,0.8035751581192017,-0.4485592246055603,0,0,0,-1,-1,2971.103598875,unknown,2,2022-06-30T09:16:16.684+02:00,2022-06-30T08:20:05.567+02:00,873,1.488614,0,0,680.226,0,0,2022-06-30T09:16:19.234+02:00
2022-06-30T09:16:19.882+02:00,2974.299050125,0.687591552734375,0.9884185791015625,-0.1089019775390625,2974.289098125,-1.574967666442047,0.8236474983135375,-0.9784751726081329,-6.708127021789551,3.434834241867065,0.665752649307251,0.2697144448757172,0.09062564373016357,0.1437432765960693,XArbitraryZVertical,0.05352890606661003,-0.554474770081439,0.7059030090772488,-0.4374853533891382,0.4095767438411713,0.8296470642089844,-0.3793847858905792,0,0,0,-1,-1,2971.103598875,unknown,2,2022-06-30T09:16:16.684+02:00,2022-06-30T08:20:05.567+02:00,873,1.488614,0,0,680.226,0,0,2022-06-30T09:16:19.234+02:00
2022-06-30T09:16:19.890+02:00,2974.309002125,0.6509246826171875,0.9404296875,-0.0301971435546875,2974.299050125,-1.473151094625983,0.9437655258964968,-1.013885322284251,-6.406396389007568,3.534162044525146,0.8908664584159851,0.2796228229999542,0.1327821612358093,0.1416147351264954,XArbitraryZVertical,0.05339368015395245,-0.584878370742666,0.686574168587456,-0.4285819557753574,0.4280191957950592,0.8488919138908386,-0.3101328015327454,0,0,0,-1,-1,2971.103598875,unknown,2,2022-06-30T09:16:16.684+02:00,2022-06-30T08:20:05.567+02:00,873,1.488614,0,0,680.226,0,0,2022-06-30T09:16:19.234+02:00
2022-06-30T09:16:19.900+02:00,2974.318953125,0.611785888671875,0.9122772216796875,0.1115570068359375,2974.309002125,-1.362606864360596,1.073933278009814,-1.038614010494492,-5.975382804870605,3.613128423690796,1.040233969688416,0.2415323555469513,0.1267166137695312,0.1329677253961563,XArbitraryZVertical,0.05154150756154934,-0.6135214942942179,0.6670119637837626,-0.4195592228457123,0.4460595846176147,0.8617017865180969,-0.2418697029352188,0,0,0,-1,-1,2971.103598875,unknown,2,2022-06-30T09:16:16.684+02:00,2022-06-30T08:20:05.567+02:00,873,1.488614,0,0,680.226,0,0,2022-06-30T09:16:19.234+02:00
2022-06-30T09:16:19.910+02:00,2974.328905125,0.61041259765625,0.905517578125,0.31011962890625,2974.318953125,-1.251023156926536,1.206509369109811,-1.052565571388557,-5.398514747619629,3.627151012420654,1.112139225006104,0.1880865097045898,0.07173258066177368,0.1462855935096741,XArbitraryZVertical,0.0481126276045259,-0.6398779651472214,0.6479422564616781,-0.4103806033114322,0.4628385901451111,0.868696928024292,-0.1764827221632004,0,0,0,-1,-1,2971.103598875,unknown,2,2022-06-30T09:16:16.684+02:00,2022-06-30T08:20:05.567+02:00,873,1.488614,0,0,680.226,0,0,2022-06-30T09:16:19.234+02:00
2022-06-30T09:16:19.920+02:00,2974.338857125,0.65399169921875,0.8730316162109375,0.5052642822265625,2974.328905125,-1.147456192030698,1.332455078944756,-1.056772636315751,-4.661715507507324,3.579258680343628,1.144493103027344,0.1340005993843079,0.04150390625,0.2276394963264465,XArbitraryZVertical,0.04317852445234086,-0.6633960899853509,0.6301916517200138,-0.4011232315794211,0.4777856767177582,0.8707731962203979,-0.1160824820399284,0,0,0,-1,-1,2971.103598875,unknown,2,2022-06-30T09:16:16.684+02:00,2022-06-30T08:20:05.567+02:00,873,1.488614,0,0,680.226,0,0,2022-06-30T09:16:19.234+02:00
2022-06-30T09:16:19.930+02:00,2974.348809125,0.70196533203125,0.8052978515625,0.7826995849609375,2974.338857125,-1.059785019906017,1.443713588658994,-1.053248987960233,-3.749316215515137,3.452707529067993,1.136518478393555,0.119652271270752,0.03648227453231812,0.3728247880935669,XArbitraryZVertical,0.03678626760394459,-0.6835892016657106,0.6145449884546431,-0.3920295895656365,0.4907607436180115,0.8690352439880371,-0.0627051442861557,0,0,0,-1,-1,2971.103598875,unknown,2,2022-06-30T09:16:16.684+02:00,2022-06-30T08:20:05.567+02:00,873,1.488614,0,0,680.226,0,0,2022-06-30T09:16:19.234+02:00
2022-06-30T09:16:19.940+02:00,2974.358761125,0.766876220703125,0.737579345703125,1.017776489257812,2974.348809125,-0.9922254417291022,1.535363774042513,-1.045191720206327,-2.918049335479736,3.17041540145874,1.025370836257935,0.1525707244873047,0.008010745048522949,0.523038387298584,XArbitraryZVertical,0.02938692832585853,-0.7001780979241021,0.6016267070397289,-0.3833177077346924,0.5014213919639587,0.865020751953125,-0.0177740789949894,0,0,0,-1,-1,2971.103598875,unknown,2,2022-06-30T09:16:16.684+02:00,2022-06-30T08:20:05.567+02:00,873,1.488614,0,0,680.226,0,0,2022-06-30T09:16:19.234+02:00
2022-06-30T09:16:19.950+02:00,2974.368712125,0.7824554443359375,0.6611785888671875,1.227996826171875,2974.358761125,-0.9410155494249602,1.608609570978726,-1.035517757617943,-2.325018405914307,2.660610675811768,0.9340299367904663,0.1922493577003479,-0.05482876300811768,0.7634164094924927,XArbitraryZVertical,0.02222985033900857,-0.7135456855747928,0.5910120654525483,-0.3755839736170683,0.5097164511680603,0.8601265549659729,0.0192832238972187,0,0,0,-1,-1,2971.103598875,unknown,2,2022-06-30T09:16:16.684+02:00,2022-06-30T08:20:05.567+02:00,873,1.488614,0,0,680.226,0,0,2022-06-30T09:16:19.234+02:00
2022-06-30T09:16:19.960+02:00,2974.378664125,0.740264892578125,0.6800537109375,1.371353149414062,2974.368712125,-0.9021222243939252,1.665245435089746,-1.025161419515812,-1.879365801811218,2.011895418167114,0.8833257555961609,0.2502286434173584,-0.1172187924385071,0.9688340425491333,XArbitraryZVertical,0.01601057307175606,-0.7240268934119783,0.5821337710422334,-0.3696607042267048,0.51664799451828,0.8547979593276978,0.04894256219267845,0,0,0,-1,-1,2971.103598875,unknown,2,2022-06-30T09:16:16.684+02:00,2022-06-30T08:20:05.567+02:00,873,1.488614,0,0,680.226,0,0,2022-06-30T09:16:19.234+02:00
2022-06-30T09:16:19.970+02:00,2974.388616125,0.6397247314453125,0.7001800537109375,1.400802612304688,2974.378664125,-0.8711223422542513,1.707605974776004,-1.014775192000069,-1.629517793655396,1.182105779647827,0.81891930103302,0.2595766186714172,-0.1881835460662842,1.156012296676636,XArbitraryZVertical,0.01151200490776885,-0.7320244295519858,0.5743872579719765,-0.3661789354655958,0.5228791832923889,0.8493618965148926,0.07198458164930344,0,0,0,-1,-1,2971.103598875,unknown,2,2022-06-30T09:16:16.684+02:00,2022-06-30T08:20:05.567+02:00,873,1.488614,0,0,680.226,0,0,2022-06-30T09:16:19.234+02:00
2022-06-30T09:16:19.980+02:00,2974.398568125,0.45758056640625,0.77142333984375,1.4075927734375,2974.388616125,-0.8460276218292225,1.735712311671889,-1.005174812950556,-1.338464379310608,0.1843474507331848,0.6762332916259766,0.2115959525108337,-0.164202094078064,1.283368110656738,XArbitraryZVertical,0.009483565643677604,-0.7374975402353596,0.5676757871221142,-0.3657208655586989,0.5286692976951599,0.8442556858062744,0.08798512071371078,0,0,0,-1,-1,2971.103598875,unknown,2,2022-06-30T09:16:16.684+02:00,2022-06-30T08:20:05.567+02:00,873,1.488614,0,0,680.226,0,0,2022-06-30T09:16:19.234+02:00
2022-06-30T09:16:19.990+02:00,2974.408519125,0.272369384765625,0.8791656494140625,1.464767456054688,2974.398568125,-0.8259101856124553,1.74884144846774,-0.9975217604258223,-1.076841831207275,-0.9426567554473877,0.4647367298603058,0.105912983417511,-0.1399494409561157,1.304742813110352,XArbitraryZVertical,0.01066098997158789,-0.7402136626393472,0.5621812517631652,-0.3686766780409267,0.5338122248649597,0.8401293754577637,0.09605984389781952,0,0,0,-1,-1,2971.103598875,unknown,2,2022-06-30T09:16:16.684+02:00,2022-06-30T08:20:05.567+02:00,873,1.488614,0,0,680.226,0,0,2022-06-30T09:16:19.234+02:00
2022-06-30T09:16:20.001+02:00,2974.418471125,0.2792510986328125,1.050567626953125,1.713973999023438,2974.408519125,-0.8109802741844379,1.746182713394697,-0.9929604170586279,-0.7002429366111755,-2.102084636688232,0.1565660983324051,-0.08025234937667847,-0.06622356176376343,1.31228494644165,XArbitraryZVertical,0.01541768709628486,-0.7398758244835929,0.5582561587742534,-0.3750949151593307,0.5378332734107971,0.8376466631889343,0.09530787914991379,0,0,0,-1,-1,2971.103598875,unknown,2,2022-06-30T09:16:16.684+02:00,2022-06-30T08:20:05.567+02:00,873,1.488614,0,0,680.226,0,0,2022-06-30T09:16:19.234+02:00
2022-06-30T09:16:20.010+02:00,2974.428423125,0.4447479248046875,1.178878784179688,2.020401000976562,2974.418471125,-0.8013853520919562,1.727448932168838,-0.991613275502222,-0.448030412197113,-3.272995233535767,-0.04233367368578911,-0.2682687640190125,0.04225552082061768,1.379375457763672,XArbitraryZVertical,0.02372896230114867,-0.7362968050716141,0.555914701512078,-0.3850493063942347,0.5406385660171509,0.8369100689888,0.08539209514856339,0,0,0,-1,-1,2971.103598875,unknown,2,2022-06-30T09:16:16.684+02:00,2022-06-30T08:20:05.567+02:00,873,1.488614,0,0,680.226,0,0,2022-06-30T09:16:19.234+02:00
2022-06-30T09:16:20.020+02:00,2974.438375125,0.5904388427734375,1.204177856445312,2.168014526367188,2974.428423125,-0.7938791664922683,1.69522652302161,-0.9920739928631054,-0.3545160889625549,-4.463882923126221,-0.1518855094909668,-0.2634747624397278,0.2134053111076355,1.646091818809509,XArbitraryZVertical,0.03557687102606141,-0.7298461512200783,0.5540789578926792,-0.3988176585144666,0.5427262783050537,0.8371621370315552,0.067882239818573,0,0,0,-1,-1,2971.103598875,unknown,2,2022-06-30T09:16:16.684+02:00,2022-06-30T08:20:05.567+02:00,873,1.488614,0,0,680.226,0,0,2022-06-30T09:16:19.234+02:00
2022-06-30T09:16:20.030+02:00,2974.448326125,0.568359375,1.215560913085938,2.020309448242188,2974.438375125,-0.7878441458316152,1.649639648082122,-0.9941403840265584,-0.3299345970153809,-5.705852508544922,-0.3206297755241394,-0.09878164529800415,0.3405879139900208,1.977458238601685,XArbitraryZVertical,0.0510779841481543,-0.7203210400080929,0.5523562576632287,-0.4164507048309291,0.5435299277305603,0.8382905721664429,0.04294272139668465,0,0,0,-1,-1,2971.103598875,unknown,2,2022-06-30T09:16:16.684+02:00,2022-06-30T08:20:05.567+02:00,873,1.488614,0,0,680.226,0,0,2022-06-30T09:16:19.234+02:00
2022-06-30T09:16:20.039+02:00,2974.458278125,0.38616943359375,1.154861450195312,1.553115844726562,2974.448326125,-0.7801216687635799,1.593361065247089,-0.9976404054800331,-0.4402115046977997,-6.878905296325684,-0.3982275426387787,0.0482909083366394,0.3639838695526123,2.155778884887695,XArbitraryZVertical,0.07055446623702891,-0.7079122983090339,0.5498053605636705,-0.4377171252541032,0.542148232460022,0.8401937484741211,0.01223550923168659,0,0,0,-1,-1,2971.103598875,unknown,2,2022-06-30T09:16:16.684+02:00,2022-06-30T08:20:05.567+02:00,873,1.488614,0,0,680.226,0,0,2022-06-30T09:16:19.234+02:00
2022-06-30T09:16:20.050+02:00,2974.468230125,0.1644744873046875,1.192123413085938,1.170211791992188,2974.458278125,-0.7748339487162513,1.524623987472852,-1.002203821447785,-0.1548535227775574,-7.783369541168213,-0.4984510838985443,0.030487060546875,0.3729009628295898,2.045161962509155,XArbitraryZVertical,0.092861818990866,-0.6920624478705824,0.5468150027167963,-0.4619735674025568,0.5378726720809937,0.8426596522331238,-0.02485250122845173,0,0,0,-1,-1,2971.103598875,unknown,2,2022-06-30T09:16:16.684+02:00,2022-06-30T08:20:05.567+02:00,873,1.488614,0,0,680.226,0,0,2022-06-30T09:16:19.234+02:00
2022-06-30T09:16:20.059+02:00,2974.478182125,-0.1536102294921875,1.058258056640625,0.561614990234375,2974.468230125,-0.7743356634999937,1.443883341161954,-1.006754362105817,-0.001334472093731165,-8.496394157409668,-0.3514558076858521,-0.1441370248794556,0.3097600936889648,1.620782375335693,XArbitraryZVertical,0.116682192695499,-0.6727198575899244,0.5434095992318234,-0.4884048754919365,0.530306875705719,0.8451011776924133,-0.06766651570796967,0,0,0,-1,-1,2971.103598875,unknown,2,2022-06-30T09:16:16.684+02:00,2022-06-30T08:20:05.567+02:00,873,1.488614,0,0,680.226,0,0,2022-06-30T09:16:19.234+02:00
2022-06-30T09:16:20.069+02:00,2974.488133125,-0.55096435546875,0.885101318359375,-0.0693817138671875,2974.478182125,-0.7775486731734541,1.354025265437063,-1.008743936368387,0.3177873492240906,-8.962491035461426,-0.1150395348668098,-0.3559772968292236,0.3459601402282715,1.284831643104553,XArbitraryZVertical,0.1406689490734725,-0.6503093728163185,0.5388153318328501,-0.5167089318731614,0.5204521417617798,0.8461631536483765,-0.1146199330687523,0,0,0,-1,-1,2971.103598875,unknown,2,2022-06-30T09:16:16.684+02:00,2022-06-30T08:20:05.567+02:00,873,1.488614,0,0,680.226,0,0,2022-06-30T09:16:19.234+02:00
2022-06-30T09:16:20.079+02:00,2974.498085125,-0.9029998779296875,0.5534820556640625,0.9397125244140625,2974.488133125,-0.790229337133151,1.253336769072743,-1.007929895092017,1.086432099342346,-9.051370620727539,-0.08935867249965668,-0.6605586409568787,0.2125287652015686,0.7281842231750488,XArbitraryZVertical,0.1633382235815545,-0.6245285892100089,0.5343909999410702,-0.5456288949662682,0.506948709487915,0.8457290530204773,-0.1665693372488022,0,0,0,-1,-1,2971.103598875,unknown,2,2022-06-30T09:16:16.684+02:00,2022-06-30T08:20:05.567+02:00,873,1.488614,0,0,680.226,0,0,2022-06-30T09:16:19.234+02:00
2022-06-30T09:16:20.089+02:00,2974.508037125,-6.3443603515625,1.333023071289062,-7.661224365234375,2974.498085125,-0.8193327986706661,1.142418217796356,-1.00344396577614,2.201867580413818,-7.535678863525391,-0.3258833289146423,-1.039806008338928,0.04177427291870117,0.1538524925708771,XArbitraryZVertical,0.1823055870097666,-0.5959425575563574,0.5322785134082748,-0.5729718427280879,0.4888419210910797,0.84332674741745,-0.2232342809438705,0,0,0,-1,-1,2971.103598875,unknown,2,2022-06-30T09:16:16.684+02:00,2022-06-30T08:20:05.567+02:00,873,1.488614,0,0,680.226,0,0,2022-06-30T09:16:19.234+02:00
2022-06-30T09:16:20.100+02:00,2974.517989125,-2.717208862304688,0.541839599609375,-10.92301940917969,2974.508037125,-0.8084300229166966,1.151838591945489,-1.004561209547563,-4.418036937713623,3.72076678276062,0.7977085709571838,-1.393061757087708,-0.2904448509216309,1.15794837474823,XArbitraryZVertical,0.1834923352616281,-0.5976726422284077,0.5301717642192058,-0.5727441869855907,0.4900621473789215,0.8439266681671143,-0.2182359546422958,0,0,0,-1,-1,2971.103598875,unknown,2,2022-06-30T09:16:16.684+02:00,2022-06-30T08:20:05.567+02:00,873,1.488614,0,0,680.226,0,0,2022-06-30T09:16:19.234+02:00
2022-06-30T09:16:20.109+02:00,2974.527941125,-0.2036590576171875,2.395050048828125,-6.711212158203125,2974.517989125,-0.7612805851129487,1.226498179319743,-1.009728612622918,1.54287850856781,1.459551334381104,-0.08097188174724579,-6.845223426818848,0.4863353371620178,-7.481624603271484,XArbitraryZVertical,0.1800998696012466,-0.6146252341191802,0.5243660494455691,-0.5611060734991344,0.5008633732795715,0.8466874957084656,-0.179599717259407,0,0,0,-1,-1,2971.103598875,unknown,2,2022-06-30T09:16:16.684+02:00,2022-06-30T08:20:05.567+02:00,873,1.488614,0,0,680.226,0,0,2022-06-30T09:16:19.234+02:00
2022-06-30T09:16:20.119+02:00,2974.537892125,-1.120010375976562,1.068008422851562,-2.861587524414062,2974.527941125,-0.8277172550731131,1.161416194643929,-0.9999914268847598,4.951023578643799,-1.54923951625824,-0.6064187288284302,-3.212871074676514,-0.2996269464492798,-10.70795440673828,XArbitraryZVertical,0.173376766461509,-0.6020032134073171,0.5358777511689952,-0.5660103724225631,0.4956626296043396,0.8414663672447205,-0.2150652557611465,0,0,0,-1,-1,2971.103598875,unknown,2,2022-06-30T09:16:16.684+02:00,2022-06-30T08:20:05.567+02:00,873,1.488614,0,0,680.226,0,0,2022-06-30T09:16:19.234+02:00
2022-06-30T09:16:20.129+02:00,2974.547844125,0.290863037109375,0.1718902587890625,-0.1939697265625,2974.537892125,-0.9225118739662536,1.087012605671088,-0.9817919514871323,5.664999485015869,2.107768774032593,-0.4146580994129181,-0.6954399943351746,1.563555717468262,-6.452816009521484,XArbitraryZVertical,0.1583337689074069,-0.5879899579424016,0.5542646762071535,-0.5674407546607959,0.4917812943458557,0.8314942121505737,-0.2583964467048645,0,0,0,-1,-1,2971.103598875,unknown,2,2022-06-30T09:16:16.684+02:00,2022-06-30T08:20:05.567+02:00,873,1.488614,0,0,680.226,0,0,2022-06-30T09:16:19.234+02:00
2022-06-30T09:16:20.139+02:00,2974.557796125,0.5042572021484375,0.217041015625,0.99267578125,2974.547844125,-1.000909391745544,1.049978335523956,-0.9583795181036494,4.473228454589844,3.075082302093506,0.2708662450313568,-1.618639349937439,0.249747097492218,-2.575549602508545,XArbitraryZVertical,0.1366381655167414,-0.5816451242992328,0.5711869200239073,-0.5628183736150986,0.4986292719841003,0.8182610869407654,-0.2860379219055176,0,0,0,-1,-1,2971.103598875,unknown,2,2022-06-30T09:16:16.684+02:00,2022-06-30T08:20:05.567+02:00,873,1.488614,0,0,680.226,0,0,2022-06-30T09:16:19.234+02:00
2022-06-30T09:16:20.149+02:00,2974.567748125,0.495330810546875,0.675537109375,0.939910888671875,2974.557796125,-1.056221187332745,1.032903826513385,-0.9360546114070315,3.253326892852783,2.442271709442139,0.2063218802213669,-0.21837317943573,-0.6333348751068115,0.1098246872425079,XArbitraryZVertical,0.1167768513338053,-0.5783302984027201,0.583475546489407,-0.5580802313552651,0.5092365145683289,0.8052248954772949,-0.3037944734096527,0,0,0,-1,-1,2971.103598875,unknown,2,2022-06-30T09:16:16.684+02:00,2022-06-30T08:20:05.567+02:00,873,1.488614,0,0,680.226,0,0,2022-06-30T09:16:19.234+02:00
2022-06-30T09:16:20.159+02:00,2974.577699125,0.211395263671875,0.59967041015625,0.1630706787109375,2974.567748125,-1.093101785476301,1.021856402936644,-0.923644294236449,1.921188116073608,1.371810078620911,-0.3429682552814484,-0.01007765531539917,-0.5807632207870483,1.307267546653748,XArbitraryZVertical,0.1045302672997168,-0.5760012658938441,0.5920160525649341,-0.5539071624570866,0.5143352746963501,0.7978041172027588,-0.3145919442176819,0,0,0,-1,-1,2971.103598875,unknown,2,2022-06-30T09:16:16.684+02:00,2022-06-30T08:20:05.567+02:00,873,1.488614,0,0,680.226,0,0,2022-06-30T09:16:19.234+02:00
2022-06-30T09:16:20.169+02:00,2974.587651125,-0.2969970703125,0.4881439208984375,-0.6971893310546875,2974.577699125,-1.122365568585711,1.009549307321303,-0.9209767311615663,1.411221265792847,1.01292097568512,-1.095796465873718,-0.01689326763153076,-0.1206560730934143,1.261940240859985,XArbitraryZVertical,0.09874408522829865,-0.5737899480022736,0.59924189369569,-0.5494760195731423,0.5122244358062744,0.7961929440498352,-0.3220294117927551,0,0,0,-1,-1,2971.103598875,unknown,2,2022-06-30T09:16:16.684+02:00,2022-06-30T08:20:05.567+02:00,873,1.488614,0,0,680.226,0,0,2022-06-30T09:16:19.234+02:00
2022-06-30T09:16:20.179+02:00,2974.597603125,-0.5636138916015625,0.425811767578125,-1.191253662109375,2974.587651125,-1.151661770399377,0.9973507959198821,-0.9268828694477821,0.939674973487854,1.349323749542236,-1.749956846237183,-0.2929034233093262,-0.2000824213027954,0.4887672960758209,XArbitraryZVertical,0.09632073900290783,-0.5726027986466548,0.6070948752434483,-0.5424796088937127,0.5042990446090698,0.7997525334358215,-0.3256967067718506,0,0,0,-1,-1,2971.103598875,unknown,2,2022-06-30T09:16:16.684+02:00,2022-06-30T08:20:05.567+02:00,873,1.488614,0,0,680.226,0,0,2022-06-30T09:16:19.234+02:00
2022-06-30T09:16:20.189+02:00,2974.607555125,-0.545379638671875,0.5598907470703125,-1.149932861328125,2974.597603125,-1.180401141417571,0.9903036771313612,-0.9382365909063072,0.7215418219566345,1.908600926399231,-1.984976887702942,-0.7913631200790405,-0.3183731436729431,-0.3729479014873505,XArbitraryZVertical,0.09463068328329204,-0.5735192313764779,0.6152651307716251,-0.5325124711096192,0.4943663775920868,0.8065168261528015,-0.3242414593696594,0,0,0,-1,-1,2971.103598875,unknown,2,2022-06-30T09:16:16.684+02:00,2022-06-30T08:20:05.567+02:00,873,1.488614,0,0,680.226,0,0,2022-06-30T09:16:19.234+02:00
2022-06-30T09:16:20.199+02:00,2974.617506125,-0.4293975830078125,0.726104736328125,-0.8544158935546875,2974.607555125,-1.209057396479112,0.9879000200360112,-0.9506329062754734,0.7419304251670837,2.28616189956665,-1.923569440841675,-1.048814535140991,-0.3879719376564026,-0.8713529706001282,XArbitraryZVertical,0.09191073308376871,-0.5758489656036022,0.6234696022295565,-0.520803384202028,0.4852010905742645,0.8137834668159485,-0.319900780916214,0,0,0,-1,-1,2971.103598875,unknown,2,2022-06-30T09:16:16.684+02:00,2022-06-30T08:20:05.567+02:00,873,1.488614,0,0,680.226,0,0,2022-06-30T09:16:19.234+02:00
2022-06-30T09:16:20.209+02:00,2974.627458125,-0.2957611083984375,0.7823486328125,-0.551300048828125,2974.617506125,-1.238769215639751,0.9874424149849681,-0.9621624831895218,0.8362494707107544,2.531658411026001,-1.931440234184265,-1.022570848464966,-0.2605393528938293,-0.8349995017051697,XArbitraryZVertical,0.08789006013146136,-0.5786264977898951,0.6317372344553037,-0.5083059001838155,0.477191686630249,0.8204298615455627,-0.3149334192276001,0,0,0,-1,-1,2971.103598875,unknown,2,2022-06-30T09:16:16.684+02:00,2022-06-30T08:20:05.567+02:00,873,1.488614,0,0,680.226,0,0,2022-06-30T09:16:19.234+02:00
2022-06-30T09:16:20.219+02:00,2974.637410125,-0.1578521728515625,0.79168701171875,-0.3619842529296875,2974.627458125,-1.27122878317954,0.9868434236815132,-0.9741678975282587,0.9049728512763977,2.738946437835693,-2.115577459335327,-0.8981485962867737,-0.1011300683021545,-0.544649600982666,XArbitraryZVertical,0.08323055321613483,-0.5815406392955067,0.6404441589025136,-0.494686373958684,0.4687514305114746,0.8272346258163452,-0.3097663223743439,0,0,0,-1,-1,2971.103598875,unknown,2,2022-06-30T09:16:16.684+02:00,2022-06-30T08:20:05.567+02:00,873,1.488614,0,0,680.226,0,0,2022-06-30T09:16:19.234+02:00
2022-06-30T09:16:20.228+02:00,2974.647362125,-0.1218719482421875,0.77972412109375,-0.244720458984375,2974.637410125,-1.307045109890046,0.9846799130114141,-0.9871107485052323,0.9962465167045593,2.815384864807129,-2.247553110122681,-0.7548820972442627,-0.05208873748779297,-0.2464684844017029,XArbitraryZVertical,0.07837574940967018,-0.5843298896344336,0.6496305543738767,-0.4799959720736389,0.459121435880661,0.8344371914863586,-0.3048316538333893,0,0,0,-1,-1,2971.103598875,unknown,2,2022-06-30T09:16:16.684+02:00,2022-06-30T08:20:05.567+02:00,873,1.488614,0,0,680.226,0,0,2022-06-30T09:16:19.234+02:00
2022-06-30T09:16:20.239+02:00,2974.657313125,-0.13592529296875,0.87371826171875,-0.1476898193359375,2974.647362125,-1.348224587518532,0.978160976749165,-1.000172751773737,1.303581953048706,2.828263998031616,-2.458670139312744,-0.6058965921401978,-0.04987746477127075,-0.0602802038192749,XArbitraryZVertical,0.0733501324331912,-0.5863170828479404,0.6595475717119407,-0.4645955752291546,0.4480448365211487,0.8415642976760864,-0.301704078912735,0,0,0,-1,-1,2971.103598875,unknown,2,2022-06-30T09:16:16.684+02:00,2022-06-30T08:20:05.567+02:00,873,1.488614,0,0,680.226,0,0,2022-06-30T09:16:19.234+02:00
2022-06-30T09:16:20.248+02:00,2974.667265125,-0.106353759765625,1.0458984375,0.001495361328125,2974.657313125,-1.398428571489629,0.9638772731987971,-1.013382928671159,1.607130765914917,2.844949007034302,-2.760731935501099,-0.5563911199569702,-0.06890237331390381,0.05698511004447937,XArbitraryZVertical,0.06827572600036338,-0.5869290134755791,0.670800407433318,-0.448195890783896,0.4345195889472961,0.8486262559890747,-0.3017055094242096,0,0,0,-1,-1,2971.103598875,unknown,2,2022-06-30T09:16:16.684+02:00,2022-06-30T08:20:05.567+02:00,873,1.488614,0,0,680.226,0,0,2022-06-30T09:16:19.234+02:00
2022-06-30T09:16:20.259+02:00,2974.677217125,-0.0568084716796875,1.165313720703125,0.1680755615234375,2974.667265125,-1.45584405361268,0.9431745670089767,-1.0268234879871,1.724371075630188,2.839768409729004,-2.895851850509644,-0.5548349618911743,0.01805871725082397,0.1562204658985138,XArbitraryZVertical,0.06336389518479087,-0.5865406159723908,0.6828647866379696,-0.4308721331387949,0.4189100563526154,0.8556593656539917,-0.3039102554321289,0,0,0,-1,-1,2971.103598875,unknown,2,2022-06-30T09:16:16.684+02:00,2022-06-30T08:20:05.567+02:00,873,1.488614,0,0,680.226,0,0,2022-06-30T09:16:19.234+02:00
2022-06-30T09:16:20.268+02:00,2974.687169125,-0.073333740234375,1.232833862304688,0.2133941650390625,2974.677217125,-1.516012359702909,0.9193607581010513,-1.039806936209699,1.616710186004639,2.750406980514526,-2.874289035797119,-0.5090393424034119,0.1835917830467224,0.3085322082042694,XArbitraryZVertical,0.05862192360227376,-0.585700491997136,0.6947657648109126,-0.4133025227354951,0.4026859700679779,0.8623064756393433,-0.307036817073822,0,0,0,-1,-1,2971.103598875,unknown,2,2022-06-30T09:16:16.684+02:00,2022-06-30T08:20:05.567+02:00,873,1.488614,0,0,680.226,0,0,2022-06-30T09:16:19.234+02:00
2022-06-30T09:16:20.278+02:00,2974.697120125,-0.14105224609375,1.205307006835938,0.174560546875,2974.687169125,-1.573508566912801,0.8959165535504822,-1.053425512938162,1.224158883094788,2.55133581161499,-2.837128639221191,-0.4429804384708405,0.2961910367012024,0.4771014451980591,XArbitraryZVertical,0.05483675700708985,-0.5852179133272523,0.7054528064391496,-0.3960421147770511,0.3861723840236664,0.8691225647926331,-0.3090258538722992,0,0,0,-1,-1,2971.103598875,unknown,2,2022-06-30T09:16:16.684+02:00,2022-06-30T08:20:05.567+02:00,873,1.488614,0,0,680.226,0,0,2022-06-30T09:16:19.234+02:00
2022-06-30T09:16:20.288+02:00,2974.707072125,-0.1814117431640625,1.239532470703125,0.1643829345703125,2974.697120125,-1.625981258030086,0.8747371101202495,-1.068978106937326,0.7392650842666626,2.416476249694824,-2.826431035995483,-0.4424564242362976,0.3561243414878845,0.5218239426612854,XArbitraryZVertical,0.05242800011380151,-0.5856931410026678,0.7145048030885456,-0.3790749778271312,0.369123101234436,0.8767094016075134,-0.3084296882152557,0,0,0,-1,-1,2971.103598875,unknown,2,2022-06-30T09:16:16.684+02:00,2022-06-30T08:20:05.567+02:00,873,1.488614,0,0,680.226,0,0,2022-06-30T09:16:19.234+02:00
2022-06-30T09:16:20.299+02:00,2974.717024125,-0.19757080078125,1.240097045898438,0.1105194091796875,2974.707072125,-1.671831453799987,0.857901129542667,-1.087073380604664,0.2317012548446655,2.332488775253296,-2.753467082977295,-0.4928703010082245,0.320037305355072,0.4787342548370361,XArbitraryZVertical,0.05124075861004597,-0.5876117584573459,0.7216848751299934,-0.3622952183747249,0.3518185019493103,0.8852695822715759,-0.304173618555069,0,0,0,-1,-1,2971.103598875,unknown,2,2022-06-30T09:16:16.684+02:00,2022-06-30T08:20:05.567+02:00,873,1.488614,0,0,680.226,0,0,2022-06-30T09:16:19.234+02:00
2022-06-30T09:16:20.308+02:00,2974.726976125,-0.20257568359375,1.27813720703125,0.08306884765625,2974.717024125,-1.714564828297856,0.842655209148371,-1.106235947596978,0.2287331521511078,2.252838611602783,-2.736549139022827,-0.5158265829086304,0.3455137610435486,0.4625394344329834,XArbitraryZVertical,0.05066049167348313,-0.5902163075749028,0.7276874223491426,-0.345759062799149,0.3344152569770813,0.8940185904502869,-0.2981564402580261,0,0,0,-1,-1,2971.103598875,unknown,2,2022-06-30T09:16:16.684+02:00,2022-06-30T08:20:05.567+02:00,873,1.488614,0,0,680.226,0,0,2022-06-30T09:16:19.234+02:00
2022-06-30T09:16:20.318+02:00,2974.736928125,-0.1895294189453125,1.292877197265625,0.0362548828125,2974.726976125,-1.764641651559693,0.8195712136549012,-1.123748998741827,0.7005679607391357,2.158334970474243,-2.839216947555542,-0.5135219097137451,0.3383694887161255,0.4055826663970947,XArbitraryZVertical,0.05011727565845192,-0.5915713682813579,0.7342523422382017,-0.3292493445795743,0.3159515261650085,0.9017274975776672,-0.2950631380081177,0,0,0,-1,-1,2971.103598875,unknown,2,2022-06-30T09:16:16.684+02:00,2022-06-30T08:20:05.567+02:00,873,1.488614,0,0,680.226,0,0,2022-06-30T09:16:19.234+02:00
2022-06-30T09:16:20.328+02:00,2974.746879125,-0.1806640625,1.292022705078125,-0.0196685791015625,2974.736928125,-1.830229865625644,0.7812170573704589,-1.136677045538681,1.538388013839722,2.07098913192749,-2.925374269485474,-0.4987464845180511,0.3708962798118591,0.3817272484302521,XArbitraryZVertical,0.04908985907007419,-0.590136465711547,0.7426577914601195,-0.3127116943045328,0.2961712181568146,0.9072408080101013,-0.2986582815647125,0,0,0,-1,-1,2971.103598875,unknown,2,2022-06-30T09:16:16.684+02:00,2022-06-30T08:20:05.567+02:00,873,1.488614,0,0,680.226,0,0,2022-06-30T09:16:19.234+02:00
2022-06-30T09:16:20.338+02:00,2974.756831125,-0.16357421875,1.3251953125,-0.0723419189453125,2974.746879125,-1.914571285257263,0.7245584554940154,-1.142198463242827,2.471973896026611,1.950007557868958,-2.984118938446045,-0.4649880230426788,0.3833277821540833,0.3474500179290771,XArbitraryZVertical,0.04723133863103263,-0.5849544335298297,0.7535291571445506,-0.2962961034162959,0.2754590511322021,0.909549355506897,-0.3111950159072876,0,0,0,-1,-1,2971.103598875,unknown,2,2022-06-30T09:16:16.684+02:00,2022-06-30T08:20:05.567+02:00,873,1.488614,0,0,680.226,0,0,2022-06-30T09:16:19.234+02:00
2022-06-30T09:16:20.348+02:00,2974.766783125,-0.150421142578125,1.367965698242188,-0.0486297607421875,2974.756831125,-2.012557774888751,0.654125808363331,-1.13901163162661,3.164746999740601,1.81364119052887,-2.914589166641235,-0.4353020191192627,0.3838023543357849,0.3124389052391052,XArbitraryZVertical,0.04461293617640312,-0.5761562302150948,0.7664654521560851,-0.2803292756338325,0.2546383738517761,0.9082202911376953,-0.3321073651313782,0,0,0,-1,-1,2971.103598875,unknown,2,2022-06-30T09:16:16.684+02:00,2022-06-30T08:20:05.567+02:00,873,1.488614,0,0,680.226,0,0,2022-06-30T09:16:19.234+02:00
2022-06-30T09:16:20.358+02:00,2974.776735125,-0.125244140625,1.344024658203125,-0.06390380859375,2974.766783125,-2.112165784565372,0.5814106571966388,-1.128485987112108,3.369462013244629,1.720382452011108,-2.754916191101074,-0.3986485600471497,0.4214300513267517,0.2853569090366364,XArbitraryZVertical,0.04139851956701918,-0.5651874039575441,0.7801089118777287,-0.265102755220977,0.2350747734308243,0.9037652015686035,-0.3576987087726593,0,0,0,-1,-1,2971.103598875,unknown,2,2022-06-30T09:16:16.684+02:00,2022-06-30T08:20:05.567+02:00,873,1.488614,0,0,680.226,0,0,2022-06-30T09:16:19.234+02:00
2022-06-30T09:16:20.368+02:00,2974.786686125,-0.1077880859375,1.312637329101562,-0.080963134765625,2974.776735125,-2.203473121872258,0.5156743122415,-1.114479576688459,3.098978519439697,1.610068798065186,-2.572809457778931,-0.3677121102809906,0.4702840447425842,0.3347137868404388,XArbitraryZVertical,0.03812058274285755,-0.5539631055368865,0.7929846268998185,-0.2506931044199406,0.217291384935379,0.8976815938949585,-0.3833433985710144,0,0,0,-1,-1,2971.103598875,unknown,2,2022-06-30T09:16:16.684+02:00,2022-06-30T08:20:05.567+02:00,873,1.488614,0,0,680.226,0,0,2022-06-30T09:16:19.234+02:00
2022-06-30T09:16:20.378+02:00,2974.796638125,-0.1001129150390625,1.349105834960938,-0.1017608642578125,2974.786686125,-2.282172544047487,0.4607843968672288,-1.101964346534339,2.354892015457153,1.527864813804626,-2.484639167785645,-0.3261568248271942,0.4519279599189758,0.340815395116806,XArbitraryZVertical,0.03546494020445778,-0.5444104222027546,0.8038916020876181,-0.2368920817823746,0.2009131014347076,0.8920966386795044,-0.4047190546989441,0,0,0,-1,-1,2971.103598875,unknown,2,2022-06-30T09:16:16.684+02:00,2022-06-30T08:20:05.567+02:00,873,1.488614,0,0,680.226,0,0,2022-06-30T09:16:19.234+02:00
2022-06-30T09:16:20.388+02:00,2974.806590125,-0.12847900390625,1.340927124023438,-0.220977783203125,2974.796638125,-2.348022703720279,0.4171961711907606,-1.095069215205535,1.43914520740509,1.522550463676453,-2.367921829223633,-0.2933625876903534,0.4236773252487183,0.3377399742603302,XArbitraryZVertical,0.03374370273750103,-0.5380612248029566,0.8120682956523328,-0.2233754108020309,0.1855749189853668,0.8889599442481995,-0.4187029600143433,0,0,0,-1,-1,2971.103598875,unknown,2,2022-06-30T09:16:16.684+02:00,2022-06-30T08:20:05.567+02:00,873,1.488614,0,0,680.226,0,0,2022-06-30T09:16:19.234+02:00
2022-06-30T09:16:20.398+02:00,2974.816542125,-0.1140899658203125,1.368209838867188,-0.26220703125,2974.806590125,-2.404293389105744,0.3828941815356122,-1.094237489312365,0.7439247965812683,1.6522376537323,-2.355131387710571,-0.2714949250221252,0.4605271220207214,0.3237461447715759,XArbitraryZVertical,0.03245643538487501,-0.5349702396589818,0.8177655481602661,-0.2097929484464507,0.1713824570178986,0.8885787129402161,-0.4255068302154541,0,0,0,-1,-1,2971.103598875,unknown,2,2022-06-30T09:16:16.684+02:00,2022-06-30T08:20:05.567+02:00,873,1.488614,0,0,680.226,0,0,2022-06-30T09:16:19.234+02:00
2022-06-30T09:16:20.408+02:00,2974.826493125,-0.053466796875,1.376663208007812,-0.2701263427734375,2974.816542125,-2.456155511577594,0.353828183822238,-1.097734737171655,0.3201628923416138,1.772509455680847,-2.310560464859009,-0.2863448560237885,0.4507495760917664,0.2064124345779419,XArbitraryZVertical,0.03117672191250323,-0.5341656894095201,0.8218169489067761,-0.1957345900948386,0.1578662842512131,0.8901775479316711,-0.427390068769455,0,0,0,-1,-1,2971.103598875,unknown,2,2022-06-30T09:16:16.684+02:00,2022-06-30T08:20:05.567+02:00,873,1.488614,0,0,680.226,0,0,2022-06-30T09:16:19.234+02:00
2022-06-30T09:16:20.418+02:00,2974.836445125,4.57763671875e-05,1.364974975585938,-0.2088623046875,2974.826493125,-2.504489947521353,0.3289173867611208,-1.102594379855182,0.2545936405658722,1.892850518226624,-2.173781871795654,-0.2598622441291809,0.4758288264274597,0.1648836731910706,XArbitraryZVertical,0.02938738214729148,-0.5344072088157091,0.8249316103193298,-0.1817508172003792,0.1457727402448654,0.8923811316490173,-0.4270906448364258,0,0,0,-1,-1,2971.103598875,unknown,2,2022-06-30T09:16:16.684+02:00,2022-06-30T08:20:05.567+02:00,873,1.488614,0,0,680.226,0,0,2022-06-30T09:16:19.234+02:00
2022-06-30T09:16:20.428+02:00,2974.846397125,0.072540283203125,1.343658447265625,-0.184967041015625,2974.836445125,-2.552301335633937,0.3055582485487521,-1.106163110085769,0.3779683113098145,1.999332547187805,-2.154454946517944,-0.188264861702919,0.4826774001121521,0.1572128534317017,XArbitraryZVertical,0.02685863960075916,-0.5344240633789586,0.8279718214059637,-0.1677272059711903,0.1347985118627548,0.8939859867095947,-0.4273390769958496,0,0,0,-1,-1,2971.103598875,unknown,2,2022-06-30T09:16:16.684+02:00,2022-06-30T08:20:05.567+02:00,873,1.488614,0,0,680.226,0,0,2022-06-30T09:16:19.234+02:00
2022-06-30T09:16:20.438+02:00,2974.856349125,0.096954345703125,1.227767944335938,-0.317047119140625,2974.846397125,-2.600453972298935,0.2828613934831799,-1.107993741082491,0.4971727728843689,2.095044612884521,-2.086732864379883,-0.1245621889829636,0.470170259475708,0.2198538184165955,XArbitraryZVertical,0.02369468228600956,-0.533929386476363,0.8311277119644266,-0.1535736745817365,0.1246083825826645,0.8948047757148743,-0.4287159442901611,0,0,0,-1,-1,2971.103598875,unknown,2,2022-06-30T09:16:16.684+02:00,2022-06-30T08:20:05.567+02:00,873,1.488614,0,0,680.226,0,0,2022-06-30T09:16:19.234+02:00
2022-06-30T09:16:20.448+02:00,2974.866300125,0.05999755859375,1.1712646484375,-0.433868408203125,2974.856349125,-2.648371188394432,0.2612706583470544,-1.107899723192777,0.6320856213569641,2.189688444137573,-2.053021430969238,-0.04280474781990051,0.4488956928253174,0.2464205026626587,XArbitraryZVertical,0.01989272161930419,-0.5328326383532738,0.8344243856492106,-0.1393902966867691,0.1153454557061195,0.8947628140449524,-0.4313873052597046,0,0,0,-1,-1,2971.103598875,unknown,2,2022-06-30T09:16:16.684+02:00,2022-06-30T08:20:05.567+02:00,873,1.488614,0,0,680.226,0,0,2022-06-30T09:16:19.234+02:00
2022-06-30T09:16:20.457+02:00,2974.876252125,-0.0118560791015625,1.154342651367188,-0.4692535400390625,2974.866300125,-2.695604946288672,0.2413950468162344,-1.10655124676659,0.6422669291496277,2.320401430130005,-1.975706100463867,-0.01008275151252747,0.3336082100868225,0.1177188754081726,XArbitraryZVertical,0.01545922287321975,-0.531392623034198,0.8376973838632125,-0.1250843589822491,0.1070375069975853,0.8941598534584045,-0.4347657859325409,0,0,0,-1,-1,2971.103598875,unknown,2,2022-06-30T09:16:16.684+02:00,2022-06-30T08:20:05.567+02:00,873,1.488614,0,0,680.226,0,0,2022-06-30T09:16:19.234+02:00
2022-06-30T09:16:20.467+02:00,2974.886204125,-0.074310302734375,1.249649047851562,-0.452606201171875,2974.876252125,-2.740533741550435,0.2251386668760632,-1.104468847942868,0.655316948890686,2.481643915176392,-1.8651362657547,-0.04037345200777054,0.278039276599884,0.004394173622131348,XArbitraryZVertical,0.01011323057736509,-0.5298740759969393,0.8407518693483319,-0.1107591983255177,0.1003714203834534,0.8932254910469055,-0.4382623732089996,0,0,0,-1,-1,2971.103598875,unknown,2,2022-06-30T09:16:16.684+02:00,2022-06-30T08:20:05.567+02:00,873,1.488614,0,0,680.226,0,0,2022-06-30T09:16:19.234+02:00
2022-06-30T09:16:20.477+02:00,2974.896156125,-0.117767333984375,1.272933959960938,-0.4371490478515625,2974.886204125,-2.78235917632739,0.212940648728975,-1.103100947190513,0.3980306386947632,2.596042633056641,-1.773570656776428,-0.1071319580078125,0.2617331147193909,-0.02860546112060547,XArbitraryZVertical,0.004030503790742226,-0.5288287155052072,0.843214130423695,-0.09650897569670043,0.09527628123760223,0.8926096558570862,-0.4406479001045227,0,0,0,-1,-1,2971.103598875,unknown,2,2022-06-30T09:16:16.684+02:00,2022-06-30T08:20:05.567+02:00,873,1.488614,0,0,680.226,0,0,2022-06-30T09:16:19.234+02:00
2022-06-30T09:16:20.487+02:00,2974.906108125,-0.1103057861328125,1.361541748046875,-0.39599609375,2974.896156125,-2.821380515045265,0.2047941743842819,-1.10318028343989,0.3064394593238831,2.771436452865601,-1.680257201194763,-0.1659789234399796,0.3570037484169006,-0.01126587390899658,XArbitraryZVertical,-0.002838292709978962,-0.5285091410873765,0.8449352002039093,-0.08218654227841793,0.09166902303695679,0.8926454186439514,-0.4413400590419769,0,0,0,-1,-1,2971.103598875,unknown,2,2022-06-30T09:16:16.684+02:00,2022-06-30T08:20:05.567+02:00,873,1.488614,0,0,680.226,0,0,2022-06-30T09:16:19.234+02:00
2022-06-30T09:16:20.497+02:00,2974.916059125,-0.085357666015625,1.403427124023438,-0.4077606201171875,2974.906108125,-2.858259674929092,0.1999636964536478,-1.102889767960763,0.4200654327869415,2.861166954040527,-1.593451738357544,-0.2073545306921005,0.3804196119308472,0.004883021116256714,XArbitraryZVertical,-0.01056358657239452,-0.5280838012599169,0.8464080789074381,-0.06789203617715243,0.08958757668733597,0.8925144076347351,-0.4420318305492401,0,0,0,-1,-1,2971.103598875,unknown,2,2022-06-30T09:16:16.684+02:00,2022-06-30T08:20:05.567+02:00,873,1.488614,0,0,680.226,0,0,2022-06-30T09:16:19.234+02:00
2022-06-30T09:16:20.507+02:00,2974.926011125,-0.06329345703125,1.419342041015625,-0.45050048828125,2974.916059125,-2.894947233328197,0.1958616323229157,-1.100027994533825,0.7830777168273926,2.892334938049316,-1.560726642608643,-0.1985756754875183,0.4703217148780823,0.0489031970500946,XArbitraryZVertical,-0.01873194964804949,-0.526497497105277,0.8482755454756381,-0.05364751696047518,0.08827027678489685,0.8912200331687927,-0.4448989927768707,0,0,0,-1,-1,2971.103598875,unknown,2,2022-06-30T09:16:16.684+02:00,2022-06-30T08:20:05.567+02:00,873,1.488614,0,0,680.226,0,0,2022-06-30T09:16:19.234+02:00
2022-06-30T09:16:20.517+02:00,2974.935963125,-0.074554443359375,1.406341552734375,-0.5006256103515625,2974.926011125,-2.932593295287143,0.1911346777771441,-1.092613385189649,1.348941206932068,2.892494440078735,-1.553903222084045,-0.1727765500545502,0.5155947208404541,0.04402643442153931,XArbitraryZVertical,-0.02714320991211987,-0.5228478345225556,0.8510815483319821,-0.03941595987723981,0.08741927146911621,0.8878325223922729,-0.4517867863178253,0,0,0,-1,-1,2971.103598875,unknown,2,2022-06-30T09:16:16.684+02:00,2022-06-30T08:20:05.567+02:00,873,1.488614,0,0,680.226,0,0,2022-06-30T09:16:19.234+02:00
2022-06-30T09:16:20.527+02:00,2974.945915125,-0.094268798828125,1.458847045898438,-0.4922027587890625,2974.935963125,-2.972839633604258,0.1844115795231122,-1.078058987264425,2.198772668838501,2.914272546768188,-1.606661796569824,-0.1500334590673447,0.5383008718490601,0.0145186185836792,XArbitraryZVertical,-0.03566284839744048,-0.5159638939186665,0.8555047187111222,-0.02492510052997578,0.08674037456512451,0.8810412883758545,-0.4650188386440277,0,0,0,-1,-1,2971.103598875,unknown,2,2022-06-30T09:16:16.684+02:00,2022-06-30T08:20:05.567+02:00,873,1.488614,0,0,680.226,0,0,2022-06-30T09:16:19.234+02:00
2022-06-30T09:16:20.537+02:00,2974.955866125,-0.095977783203125,1.569534301757812,-0.483001708984375,2974.945915125,-3.015768426308366,0.175878237782593,-1.05483417959732,3.179178714752197,2.94004487991333,-1.65727436542511,-0.1608808040618896,0.5365232229232788,-0.0148644745349884,XArbitraryZVertical,-0.0442203243229752,-0.5051377580830558,0.86184705599013,-0.01000163206113304,0.0863267183303833,0.8698184490203857,-0.4857608079910278,0,0,0,-1,-1,2971.103598875,unknown,2,2022-06-30T09:16:16.684+02:00,2022-06-30T08:20:05.567+02:00,873,1.488614,0,0,680.226,0,0,2022-06-30T09:16:19.234+02:00
2022-06-30T09:16:20.547+02:00,2974.965818125,-0.137969970703125,1.568450927734375,-0.4022674560546875,2974.955866125,-3.059417879786677,0.1674971309741967,-1.020864669164299,4.176344871520996,2.904571533203125,-1.566590785980225,-0.1813985705375671,0.6062870025634766,0.02311253547668457,XArbitraryZVertical,-0.05292896879034462,-0.4894293012961962,0.8704202566976896,0.005118988952531614,0.08713012933731079,0.8525602221488953,-0.5153149962425232,0,0,0,-1,-1,2971.103598875,unknown,2,2022-06-30T09:16:16.684+02:00,2022-06-30T08:20:05.567+02:00,873,1.488614,0,0,680.226,0,0,2022-06-30T09:16:19.234+02:00
2022-06-30T09:16:20.557+02:00,2974.975770125,-0.133758544921875,1.262664794921875,-0.4118804931640625,2974.965818125,-3.102487035572284,0.1597596688115631,-0.9780876859859466,5.01518726348877,2.836848735809326,-1.706026315689087,-0.1848416030406952,0.7401037812232971,0.06849473714828491,XArbitraryZVertical,-0.06127239996727171,-0.4695717722540049,0.8805322080523992,0.02027431319252172,0.08886415511369705,0.8294306397438049,-0.5514960885047913,0,0,0,-1,-1,2971.103598875,unknown,2,2022-06-30T09:16:16.684+02:00,2022-06-30T08:20:05.567+02:00,873,1.488614,0,0,680.226,0,0,2022-06-30T09:16:19.234+02:00
2022-06-30T09:16:20.567+02:00,2974.985722125,-0.0261383056640625,1.092864990234375,-0.488525390625,2974.975770125,3.135414897695159,0.1510934091382209,-0.9287681395342444,5.46383810043335,2.84243106842041,-1.937493920326233,-0.2281036972999573,0.7675682306289673,0.1897315979003906,XArbitraryZVertical,-0.06886104220436592,-0.4463841185739799,0.8914387550969686,0.03655680139733678,0.09013405442237854,0.800882875919342,-0.5919987559318542,0,0,0,-1,-1,2971.103598875,unknown,2,2022-06-30T09:16:16.684+02:00,2022-06-30T08:20:05.567+02:00,873,1.488614,0,0,680.226,0,0,2022-06-30T09:16:19.234+02:00
2022-06-30T09:16:20.577+02:00,2974.995673125,-0.0034637451171875,0.961212158203125,-0.6213531494140625,2974.985722125,3.092396119819012,0.1452639911228598,-0.8789067656505977,5.088099956512451,2.775603294372559,-1.865622401237488,-0.2261100858449936,0.4926230907440186,0.2193936705589294,XArbitraryZVertical,-0.07608973667530512,-0.422579503619032,0.9015658892186708,0.05306452225754484,0.09235186129808426,0.7700418829917908,-0.6312738060951233,0,0,0,-1,-1,2971.103598875,unknown,2,2022-06-30T09:16:16.684+02:00,2022-06-30T08:20:05.567+02:00,873,1.488614,0,0,680.226,0,0,2022-06-30T09:16:19.234+02:00
2022-06-30T09:16:20.587+02:00,2975.005625125,0.002593994140625,0.9306182861328125,-0.76434326171875,2974.995673125,3.054568036252042,0.1443252402139354,-0.8346150701236948,4.394554138183594,2.794171571731567,-1.801300644874573,-0.1227109730243683,0.351827085018158,0.1759567856788635,XArbitraryZVertical,-0.08343436227165038,-0.4009959543526581,0.9096701134564698,0.06885670110144176,0.09657297283411026,0.7410380840301514,-0.6644818782806396,0,0,0,-1,-1,2971.103598875,unknown,2,2022-06-30T09:16:16.684+02:00,2022-06-30T08:20:05.567+02:00,873,1.488614,0,0,680.226,0,0,2022-06-30T09:16:19.234+02:00
2022-06-30T09:16:20.597+02:00,2975.015577125,-0.0211181640625,1.070709228515625,-0.7967071533203125,2975.005625125,3.020420322092488,0.1477242378186099,-0.7964004717663676,3.865909337997437,2.88082480430603,-1.746761322021484,-0.1063893958926201,0.2463687658309937,0.07031536102294922,XArbitraryZVertical,-0.09131098371083123,-0.3818745892985257,0.9158279905949507,0.08422183959570899,0.1029259487986565,0.7148436307907104,-0.6916682124137878,0,0,0,-1,-1,2971.103598875,unknown,2,2022-06-30T09:16:16.684+02:00,2022-06-30T08:20:05.567+02:00,873,1.488614,0,0,680.226,0,0,2022-06-30T09:16:19.234+02:00
2022-06-30T09:16:20.607+02:00,2975.025529125,-0.1392669677734375,1.225753784179688,-0.7606353759765625,2975.015577125,2.989239547131091,0.1547380808716736,-0.7616415305448807,3.702239036560059,2.911537170410156,-1.631693959236145,-0.1089439541101456,0.2405081987380981,-0.0492856502532959,XArbitraryZVertical,-0.09974808494289593,-0.3640352336486714,0.9207122860517298,0.09908427061864679,0.1115382462739944,0.6901103854179382,-0.7150573134422302,0,0,0,-1,-1,2971.103598875,unknown,2,2022-06-30T09:16:16.684+02:00,2022-06-30T08:20:05.567+02:00,873,1.488614,0,0,680.226,0,0,2022-06-30T09:16:19.234+02:00
2022-06-30T09:16:20.617+02:00,2975.035480125,-0.2432708740234375,1.1217041015625,-0.7532501220703125,2975.025529125,2.959273423621582,0.1633443954817182,-0.7275917959868246,3.738731384277344,2.889150857925415,-1.715766668319702,-0.1425582021474838,0.4056363105773926,-0.05986911058425903,XArbitraryZVertical,-0.1082095151743578,-0.3462250816952606,0.9249276634095296,0.113700072140324,0.1214403137564659,0.6650731563568115,-0.7368378043174744,0,0,0,-1,-1,2971.103598875,unknown,2,2022-06-30T09:16:16.684+02:00,2022-06-30T08:20:05.567+02:00,873,1.488614,0,0,680.226,0,0,2022-06-30T09:16:19.234+02:00
2022-06-30T09:16:20.627+02:00,2975.045432125,-0.1578369140625,1.081619262695312,-0.7638702392578125,2975.035480125,2.926592869287548,0.1715014323918943,-0.691892914784886,4.107485294342041,3.023158311843872,-2.022011280059814,-0.2706831991672516,0.5877581834793091,-0.00189208984375,XArbitraryZVertical,-0.1163544682865069,-0.3272462934905646,0.9287718292046551,0.1294392349975704,0.1314164847135544,0.6379959583282471,-0.7587429881095886,0,0,0,-1,-1,2971.103598875,unknown,2,2022-06-30T09:16:16.684+02:00,2022-06-30T08:20:05.567+02:00,873,1.488614,0,0,680.226,0,0,2022-06-30T09:16:19.234+02:00
2022-06-30T09:16:20.637+02:00,2975.055384125,-0.0538482666015625,1.015518188476562,-0.802398681640625,2975.045432125,2.891318359908525,0.1798389669035479,-0.653964464831511,4.312620162963867,3.022405862808228,-2.089619398117065,-0.3852367699146271,0.51336669921875,0.02762842178344727,XArbitraryZVertical,-0.1243011075025701,-0.3067736541734143,0.9322150372018929,0.1463368336004223,0.1419661492109299,0.6083377003669739,-0.7808783054351807,0,0,0,-1,-1,2971.103598875,unknown,2,2022-06-30T09:16:16.684+02:00,2022-06-30T08:20:05.567+02:00,873,1.488614,0,0,680.226,0,0,2022-06-30T09:16:19.234+02:00
2022-06-30T09:16:20.646+02:00,2975.065336125,-0.052093505859375,0.9986114501953125,-0.803131103515625,2975.055384125,2.856013141051539,0.1880957310654617,-0.6144374693463532,4.469613075256348,2.822152853012085,-2.102268695831299,-0.3106246292591095,0.505120575428009,0.03881603479385376,XArbitraryZVertical,-0.1314454238136419,-0.2852702333001422,0.9352669492141308,0.1631526152725939,0.1527879536151886,0.5764989852905273,-0.8026859760284424,0,0,0,-1,-1,2971.103598875,unknown,2,2022-06-30T09:16:16.684+02:00,2022-06-30T08:20:05.567+02:00,873,1.488614,0,0,680.226,0,0,2022-06-30T09:16:19.234+02:00
2022-06-30T09:16:20.656+02:00,2975.075288125,-0.07159423828125,0.938507080078125,-0.8002777099609375,2975.065336125,2.820949827595269,0.1957306778978623,-0.5750072588734774,4.328680992126465,2.660418272018433,-2.133973360061646,-0.2170561552047729,0.4716776013374329,0.02076631784439087,XArbitraryZVertical,-0.1375466221586891,-0.2636257736444331,0.9377044836103059,0.1797017680295586,0.1632081270217896,0.5438408851623535,-0.8231647610664368,0,0,0,-1,-1,2971.103598875,unknown,2,2022-06-30T09:16:16.684+02:00,2022-06-30T08:20:05.567+02:00,873,1.488614,0,0,680.226,0,0,2022-06-30T09:16:19.234+02:00
2022-06-30T09:16:20.666+02:00,2975.085239125,-0.0328521728515625,0.9198760986328125,-0.7413330078125,2975.075288125,2.787239743536877,0.204311965138355,-0.5381173658388129,3.987706422805786,2.628634452819824,-2.030596494674683,-0.2263128459453583,0.4860914945602417,0.03768450021743774,XArbitraryZVertical,-0.1433778515489281,-0.2429714188731913,0.9392050876250565,0.1957078576004054,0.1742195785045624,0.5125203132629395,-0.8408153653144836,0,0,0,-1,-1,2971.103598875,unknown,2,2022-06-30T09:16:16.684+02:00,2022-06-30T08:20:05.567+02:00,873,1.488614,0,0,680.226,0,0,2022-06-30T09:16:19.234+02:00
2022-06-30T09:16:20.676+02:00,2975.095191125,-0.030914306640625,0.8508453369140625,-0.7315521240234375,2975.085239125,2.756915750054964,0.2148592911798129,-0.505842916518259,3.378293037414551,2.487042427062988,-1.823532819747925,-0.2581029236316681,0.4539624452590942,0.05437487363815308,XArbitraryZVertical,-0.1494551410336013,-0.2243590792262557,0.9397245582961565,0.2103423599108202,0.1865088939666748,0.484544962644577,-0.8546523451805115,0,0,0,-1,-1,2971.103598875,unknown,2,2022-06-30T09:16:16.684+02:00,2022-06-30T08:20:05.567+02:00,873,1.488614,0,0,680.226,0,0,2022-06-30T09:16:19.234+02:00
2022-06-30T09:16:20.686+02:00,2975.105143125,-0.0789337158203125,0.943145751953125,-0.744873046875,2975.095191125,2.729431785139719,0.2260777506513039,-0.4785216539606689,3.034849882125854,2.367991209030151,-1.784914374351501,-0.2318307459354401,0.4594090580940247,0.1237552165985107,XArbitraryZVertical,-0.15544973932579,-0.2080658153741231,0.9394176204814144,0.223692879494251,0.1989787667989731,0.4604673981666565,-0.8650879859924316,0,0,0,-1,-1,2971.103598875,unknown,2,2022-06-30T09:16:16.684+02:00,2022-06-30T08:20:05.567+02:00,873,1.488614,0,0,680.226,0,0,2022-06-30T09:16:19.234+02:00
2022-06-30T09:16:20.696+02:00,2975.115095125,-0.056915283203125,0.996246337890625,-0.8119049072265625,2975.105143125,2.702009274721684,0.2373051204232244,-0.4536377623399193,2.969491243362427,2.3349609375,-1.883462071418762,-0.2422215789556503,0.4126074016094208,0.1421164870262146,XArbitraryZVertical,-0.1612524076243771,-0.1927783246750576,0.9384558775783597,0.2369278041600748,0.2113074511289597,0.438238263130188,-0.873668372631073,0,0,0,-1,-1,2971.103598875,unknown,2,2022-06-30T09:16:16.684+02:00,2022-06-30T08:20:05.567+02:00,873,1.488614,0,0,680.226,0,0,2022-06-30T09:16:19.234+02:00
2022-06-30T09:16:20.706+02:00,2975.125046125,0.005828857421875,0.8910675048828125,-0.9016876220703125,2975.115095125,2.67354256101186,0.2478496971710024,-0.4277659751911243,3.304906606674194,2.175036907196045,-1.904426693916321,-0.3021488785743713,0.5283069610595703,0.1372175812721252,XArbitraryZVertical,-0.1663422912830634,-0.1768758156775534,0.9372021679811718,0.2503942783726576,0.223215326666832,0.414839118719101,-0.8820903897285461,0,0,0,-1,-1,2971.103598875,unknown,2,2022-06-30T09:16:16.684+02:00,2022-06-30T08:20:05.567+02:00,873,1.488614,0,0,680.226,0,0,2022-06-30T09:16:19.234+02:00
2022-06-30T09:16:20.716+02:00,2975.134998125,0.0392303466796875,0.876861572265625,-0.8915557861328125,2975.125046125,2.643917120597994,0.2567964592067901,-0.397600277468677,3.884744167327881,1.990695714950562,-1.888622999191284,-0.291085958480835,0.6090397834777832,0.07985472679138184,XArbitraryZVertical,-0.1698953453790696,-0.1589209607083308,0.9360612816190471,0.263949008818861,0.2341708540916443,0.3872069418430328,-0.8917593955993652,0,0,0,-1,-1,2971.103598875,unknown,2,2022-06-30T09:16:16.684+02:00,2022-06-30T08:20:05.567+02:00,873,1.488614,0,0,680.226,0,0,2022-06-30T09:16:19.234+02:00
2022-06-30T09:16:20.726+02:00,2975.144950125,0.0446929931640625,0.8703460693359375,-0.8575592041015625,2975.134998125,2.613167851028613,0.2644355854892647,-0.3623584697214481,4.371293067932129,1.794134974479675,-1.850389122962952,-0.2385633885860443,0.5365873575210571,0.0008733272552490234,XArbitraryZVertical,-0.1718207706846865,-0.1385541293738107,0.935007531858701,0.2775631443144482,0.2443923950195312,0.3544805347919464,-0.9025607705116272,0,0,0,-1,-1,2971.103598875,unknown,2,2022-06-30T09:16:16.684+02:00,2022-06-30T08:20:05.567+02:00,873,1.488614,0,0,680.226,0,0,2022-06-30T09:16:19.234+02:00
2022-06-30T09:16:20.736+02:00,2975.154902125,0.0432891845703125,0.820770263671875,-0.8730010986328125,2975.144950125,2.58183827472691,0.2706614137782951,-0.3228499307790042,4.79176664352417,1.543339252471924,-1.7957603931427,-0.2143247425556183,0.5595914125442505,0.02225464582443237,XArbitraryZVertical,-0.1719747616246085,-0.1162736309592287,0.9339312109306314,0.2909944106054793,0.2535552382469177,0.3172705471515656,-0.9138102531433105,0,0,0,-1,-1,2971.103598875,unknown,2,2022-06-30T09:16:16.684+02:00,2022-06-30T08:20:05.567+02:00,873,1.488614,0,0,680.226,0,0,2022-06-30T09:16:19.234+02:00
2022-06-30T09:16:20.746+02:00,2975.164853125,0.0946807861328125,0.866455078125,-0.8763275146484375,2975.154902125,2.549818675439126,0.2760778075269566,-0.2791555992922561,5.300360202789307,1.434592247009277,-1.786899328231812,-0.2173388004302979,0.5948024392127991,0.06732732057571411,XArbitraryZVertical,-0.1705226466659877,-0.09208066323496102,0.9326489077410232,0.3043178612771687,0.2620319426059723,0.2755440473556519,-0.9248863458633423,0,0,0,-1,-1,2971.103598875,unknown,2,2022-06-30T09:16:16.684+02:00,2022-06-30T08:20:05.567+02:00,873,1.488614,0,0,680.226,0,0,2022-06-30T09:16:19.234+02:00
2022-06-30T09:16:20.756+02:00,2975.174805125,0.1752777099609375,0.8325653076171875,-0.858489990234375,2975.164853125,2.516495849122322,0.2813611392289544,-0.2304971071080583,5.833206176757812,1.249698638916016,-1.745848536491394,-0.2270308136940002,0.5923091769218445,0.06227034330368042,XArbitraryZVertical,-0.1675482428804079,-0.06551294647942864,0.9309445912360447,0.3177701647005222,0.2703201472759247,0.2284615188837051,-0.9352712631225586,0,0,0,-1,-1,2971.103598875,unknown,2,2022-06-30T09:16:16.684+02:00,2022-06-30T08:20:05.567+02:00,873,1.488614,0,0,680.226,0,0,2022-06-30T09:16:19.234+02:00
2022-06-30T09:16:20.766+02:00,2975.184757125,0.1656341552734375,0.674163818359375,-0.858428955078125,2975.174805125,2.4829861576774,0.2856036960198023,-0.1769740267426874,6.27351713180542,0.9259008765220642,-1.611375451087952,-0.1826553642749786,0.6904038190841675,0.06817799806594849,XArbitraryZVertical,-0.1624301633568532,-0.03692905027756621,0.9289043325298154,0.3307407990116734,0.2773362696170807,0.1760516762733459,-0.9445053935050964,0,0,0,-1,-1,2971.103598875,unknown,2,2022-06-30T09:16:16.684+02:00,2022-06-30T08:20:05.567+02:00,873,1.488614,0,0,680.226,0,0,2022-06-30T09:16:19.234+02:00
2022-06-30T09:16:20.776+02:00,2975.194709125,0.1640167236328125,0.6382598876953125,-0.8740997314453125,2975.184757125,2.449494447830113,0.2887951258578635,-0.1202314263555964,6.478100776672363,0.6851373910903931,-1.574207782745361,-0.1074636578559875,0.7126237750053406,0.0931776762008667,XArbitraryZVertical,-0.1552875274194243,-0.00721068993602633,0.9263158843385089,0.3431802112092616,0.2827414870262146,0.1199419647455215,-0.9516676068305969,0,0,0,-1,-1,2971.103598875,unknown,2,2022-06-30T09:16:16.684+02:00,2022-06-30T08:20:05.567+02:00,873,1.488614,0,0,680.226,0,0,2022-06-30T09:16:19.234+02:00
2022-06-30T09:16:20.786+02:00,2975.204660125,0.2495880126953125,0.634521484375,-0.8544921875,2975.194709125,2.415538084084023,0.2916707577848881,-0.06239068427652458,6.542242050170898,0.4641243517398834,-1.623607039451599,-0.1213590800762177,0.611814022064209,0.09747236967086792,XArbitraryZVertical,-0.1467401661719087,0.02273053881363574,0.9228432829780372,0.3554025732354267,0.2869933247566223,0.06235021352767944,-0.9559012651443481,0,0,0,-1,-1,2971.103598875,unknown,2,2022-06-30T09:16:16.684+02:00,2022-06-30T08:20:05.567+02:00,873,1.488614,0,0,680.226,0,0,2022-06-30T09:16:19.234+02:00
2022-06-30T09:16:20.796+02:00,2975.214612125,0.3091583251953125,0.572998046875,-0.7926483154296875,2975.204660125,2.381758013422826,0.2939431025354632,-0.004609876909204389,6.477504253387451,0.1712850034236908,-1.507827401161194,-0.1257085502147675,0.6336504817008972,0.08299905061721802,XArbitraryZVertical,-0.1368461162225182,0.05218981830671546,0.9185555756954804,0.3671582378661339,0.2897253632545471,0.004609860479831696,-0.9570987224578857,0,0,0,-1,-1,2971.103598875,unknown,2,2022-06-30T09:16:16.684+02:00,2022-06-30T08:20:05.567+02:00,873,1.488614,0,0,680.226,0,0,2022-06-30T09:16:19.234+02:00
2022-06-30T09:16:20.806+02:00,2975.224564125,0.291748046875,0.5458526611328125,-0.706146240234375,2975.214612125,2.350024639591041,0.2951853389352215,0.05183366691838899,6.149297714233398,-0.1130402088165283,-1.308743000030518,-0.04093834757804871,0.6863323450088501,0.1009711027145386,XArbitraryZVertical,-0.125761477588606,0.08032693954812241,0.9138257247601207,0.3776958961873668,0.2905264496803284,-0.05181045830249786,-0.9554632902145386,0,0,0,-1,-1,2971.103598875,unknown,2,2022-06-30T09:16:16.684+02:00,2022-06-30T08:20:05.567+02:00,873,1.488614,0,0,680.226,0,0,2022-06-30T09:16:19.234+02:00
2022-06-30T09:16:20.816+02:00,2975.234516125,0.2760162353515625,0.509979248046875,-0.6630706787109375,2975.224564125,2.321347669610154,0.2953600040680543,0.1042731268688882,5.542190551757812,-0.3370074927806854,-1.133478283882141,0.01965516805648804,0.6770827770233154,0.158852756023407,XArbitraryZVertical,-0.1142056809034362,0.1058608141555789,0.9089146993783518,0.3868136338182612,0.2895032465457916,-0.1040842682123184,-0.9515010714530945,0,0,0,-1,-1,2971.103598875,unknown,2,2022-06-30T09:16:16.684+02:00,2022-06-30T08:20:05.567+02:00,873,1.488614,0,0,680.226,0,0,2022-06-30T09:16:19.234+02:00
2022-06-30T09:16:20.826+02:00,2975.244468125,0.2622833251953125,0.4535369873046875,-0.7207794189453125,2975.234516125,2.296000412800129,0.2946479566705292,0.1508933610474456,4.858534812927246,-0.4901445806026459,-0.9791815876960754,0.004644930362701416,0.6961745023727417,0.2398850321769714,XArbitraryZVertical,-0.102892819653628,0.1280523978154479,0.9040402239138028,0.3946224565124476,0.2871032059192657,-0.1503214091062546,-0.9460312724113464,0,0,0,-1,-1,2971.103598875,unknown,2,2022-06-30T09:16:16.684+02:00,2022-06-30T08:20:05.567+02:00,873,1.488614,0,0,680.226,0,0,2022-06-30T09:16:19.234+02:00
2022-06-30T09:16:20.836+02:00,2975.254419125,0.266815185546875,0.4340667724609375,-0.81298828125,2975.244468125,2.27360619848693,0.2936208503455939,0.1925013275264948,4.419604778289795,-0.5182192325592041,-0.853895902633667,-0.008057743310928345,0.7012943029403687,0.2764507532119751,XArbitraryZVertical,-0.09213195993433085,0.1474820399313393,0.8992909728437694,0.4012935280955592,0.284074068069458,-0.191314622759819,-0.9395214915275574,0,0,0,-1,-1,2971.103598875,unknown,2,2022-06-30T09:16:16.684+02:00,2022-06-30T08:20:05.567+02:00,873,1.488614,0,0,680.226,0,0,2022-06-30T09:16:19.234+02:00
2022-06-30T09:16:20.846+02:00,2975.264371125,0.29010009765625,0.38018798828125,-0.92803955078125,2975.254419125,2.253422913672483,0.292577323589025,0.2305951087189144,4.050450801849365,-0.5914777517318726,-0.7173891663551331,-0.01850327849388123,0.6820943355560303,0.2113796472549438,XArbitraryZVertical,-0.08185680424436548,0.1649845788141366,0.8946324098938352,0.4070778403974807,0.2807866334915161,-0.2285569161176682,-0.9321591258049011,0,0,0,-1,-1,2971.103598875,unknown,2,2022-06-30T09:16:16.684+02:00,2022-06-30T08:20:05.567+02:00,873,1.488614,0,0,680.226,0,0,2022-06-30T09:16:19.234+02:00
2022-06-30T09:16:20.855+02:00,2975.274323125,0.232269287109375,0.4159088134765625,-1.026382446289062,2975.264371125,2.235409010162513,0.2910430945159762,0.2666190858227712,3.907310485839844,-0.6184513568878174,-0.5686162114143372,-0.009997546672821045,0.6975386738777161,0.1111097931861877,XArbitraryZVertical,-0.07165178869117464,0.181154424614396,0.89013898409628,0.411948817306421,0.2768127918243408,-0.2634714841842651,-0.9240981936454773,0,0,0,-1,-1,2971.103598875,unknown,2,2022-06-30T09:16:16.684+02:00,2022-06-30T08:20:05.567+02:00,873,1.488614,0,0,680.226,0,0,2022-06-30T09:16:19.234+02:00
2022-06-30T09:16:20.866+02:00,2975.284275125,0.3283233642578125,0.3650054931640625,-1.1173095703125,2975.274323125,2.21817975288479,0.2904030451484792,0.3030732749528487,4.054152488708496,-0.5313678979873657,-0.5094146728515625,0.01681196689605713,0.6786432266235352,-0.01357901096343994,XArbitraryZVertical,-0.06151686331972692,0.1974470631922903,0.8854506557726443,0.4161821836933201,0.2732881903648376,-0.2984548211097717,-0.9144606590270996,0,0,0,-1,-1,2971.103598875,unknown,2,2022-06-30T09:16:16.684+02:00,2022-06-30T08:20:05.567+02:00,873,1.488614,0,0,680.226,0,0,2022-06-30T09:16:19.234+02:00
2022-06-30T09:16:20.875+02:00,2975.294226125,0.3838958740234375,0.2230072021484375,-1.187530517578125,2975.284275125,2.201333371574442,0.2904805220816079,0.3415083701225155,4.241599082946777,-0.5601447820663452,-0.3457501530647278,-0.03760313987731934,0.7508179545402527,-0.1236063241958618,XArbitraryZVertical,-0.05098570600698143,0.2145048366381856,0.8804350421140107,0.4197883868881374,0.2698724865913391,-0.3349087238311768,-0.9027762413024902,0,0,0,-1,-1,2971.103598875,unknown,2,2022-06-30T09:16:16.684+02:00,2022-06-30T08:20:05.567+02:00,873,1.488614,0,0,680.226,0,0,2022-06-30T09:16:19.234+02:00
2022-06-30T09:16:20.885+02:00,2975.304178125,0.3814849853515625,0.16937255859375,-1.216110229492188,2975.294226125,2.185420692753654,0.2909815141238931,0.3817658394229435,4.326240539550781,-0.4933047294616699,-0.1971391290426254,0.06208473443984985,0.7375656366348267,-0.2283124327659607,XArbitraryZVertical,-0.04001773513162303,0.2321636045956227,0.8751955811379574,0.4225296445440883,0.2662386894226074,-0.3725597560405731,-0.8889972567558289,0,0,0,-1,-1,2971.103598875,unknown,2,2022-06-30T09:16:16.684+02:00,2022-06-30T08:20:05.567+02:00,873,1.488614,0,0,680.226,0,0,2022-06-30T09:16:19.234+02:00
2022-06-30T09:16:20.895+02:00,2975.314130125,0.4068603515625,0.1730499267578125,-1.197525024414062,2975.304178125,2.17045504314689,0.292664550097426,0.4228159489569879,4.348773002624512,-0.3797718286514282,-0.07725533843040466,0.1207979619503021,0.633337676525116,-0.3143704533576965,XArbitraryZVertical,-0.02919871094337002,0.2501346415961934,0.8697575472710636,0.4243841439286076,0.2630979418754578,-0.410330057144165,-0.873160183429718,0,0,0,-1,-1,2971.103598875,unknown,2,2022-06-30T09:16:16.684+02:00,2022-06-30T08:20:05.567+02:00,873,1.488614,0,0,680.226,0,0,2022-06-30T09:16:19.234+02:00
2022-06-30T09:16:20.905+02:00,2975.324082125,0.4121551513671875,0.1536407470703125,-1.139450073242188,2975.314130125,2.156043700836256,0.2956763454267505,0.4642736475181901,4.352575302124023,-0.2969847917556763,-0.003776329336687922,0.1209422647953033,0.617146372795105,-0.3607645630836487,XArbitraryZVertical,-0.01864740487278278,0.2682897201928133,0.8640707378987161,0.4255053023336637,0.2605427503585815,-0.4477734565734863,-0.8553457856178284,0,0,0,-1,-1,2971.103598875,unknown,2,2022-06-30T09:16:16.684+02:00,2022-06-30T08:20:05.567+02:00,873,1.488614,0,0,680.226,0,0,2022-06-30T09:16:19.234+02:00
2022-06-30T09:16:20.915+02:00,2975.334033125,0.399169921875,0.0959014892578125,-1.085678100585938,2975.324082125,2.142073441743458,0.2998326533879024,0.5052705618052448,4.204257011413574,-0.1959559619426727,0.05398307368159294,0.1484072506427765,0.6570944786071777,-0.3615208864212036,XArbitraryZVertical,-0.008488492617749711,0.2862268046761577,0.8581952204265846,0.4260320641882451,0.2584531605243683,-0.484044224023819,-0.8360043168067932,0,0,0,-1,-1,2971.103598875,unknown,2,2022-06-30T09:16:16.684+02:00,2022-06-30T08:20:05.567+02:00,873,1.488614,0,0,680.226,0,0,2022-06-30T09:16:19.234+02:00
2022-06-30T09:16:20.925+02:00,2975.343985125,0.420501708984375,0.0341949462890625,-1.057052612304688,2975.334033125,2.129013545214951,0.3055146993876562,0.5439673064648737,3.864033460617065,0.0007989141158759594,0.1176792234182358,0.1547856330871582,0.6711758375167847,-0.3234118223190308,XArbitraryZVertical,0.0005742918435275848,0.303282804654781,0.8524148364154663,0.425920350632098,0.2573695778846741,-0.5175347328186035,-0.8160384297370911,0,0,0,-1,-1,2971.103598875,unknown,2,2022-06-30T09:16:16.684+02:00,2022-06-30T08:20:05.567+02:00,873,1.488614,0,0,680.226,0,0,2022-06-30T09:16:19.234+02:00
2022-06-30T09:16:20.935+02:00,2975.353937125,0.468475341796875,-0.0442962646484375,-1.052978515625,2975.343985125,2.117439690611809,0.3128818868171814,0.5789247244475302,3.391044616699219,0.1990762948989868,0.158457338809967,0.1415239572525024,0.6430260539054871,-0.2892652750015259,XArbitraryZVertical,0.007984754578621295,0.3189509876559255,0.8470510404945705,0.4251013804802893,0.2576460242271423,-0.5471242070198059,-0.7964130043983459,0,0,0,-1,-1,2971.103598875,unknown,2,2022-06-30T09:16:16.684+02:00,2022-06-30T08:20:05.567+02:00,873,1.488614,0,0,680.226,0,0,2022-06-30T09:16:19.234+02:00
2022-06-30T09:16:20.945+02:00,2975.363889125,0.463043212890625,-0.0696868896484375,-1.019302368164062,2975.353937125,2.107892781677341,0.321084633637528,0.6090856813132641,2.838180780410767,0.3530304431915283,0.224791094660759,0.1616589725017548,0.6063131093978882,-0.2787973284721375,XArbitraryZVertical,0.01368867442763001,0.3326933377468048,0.8423955876240545,0.4236714743576142,0.258842796087265,-0.572117805480957,-0.7782555222511292,0,0,0,-1,-1,2971.103598875,unknown,2,2022-06-30T09:16:16.684+02:00,2022-06-30T08:20:05.567+02:00,873,1.488614,0,0,680.226,0,0,2022-06-30T09:16:19.234+02:00
2022-06-30T09:16:20.955+02:00,2975.373840125,0.489227294921875,-0.0678863525390625,-1.067611694335938,2975.363889125,2.10008643725535,0.330437470733035,0.634440237198074,2.399731397628784,0.5865592956542969,0.2145760059356689,0.2071566581726074,0.548430860042572,-0.2911470532417297,XArbitraryZVertical,0.01753179071163065,0.3446401066024984,0.8384659278132872,0.4217709136021795,0.26131871342659,-0.5927267670631409,-0.7618316411972046,0,0,0,-1,-1,2971.103598875,unknown,2,2022-06-30T09:16:16.684+02:00,2022-06-30T08:20:05.567+02:00,873,1.488614,0,0,680.226,0,0,2022-06-30T09:16:19.234+02:00
2022-06-30T09:16:20.965+02:00,2975.383792125,0.496368408203125,-0.1219329833984375,-1.148208618164062,2975.373840125,2.093265467937881,0.3417883841770646,0.6563938250664391,2.118324995040894,0.8388978242874146,0.2251183986663818,0.1975201964378357,0.5405774712562561,-0.2729277610778809,XArbitraryZVertical,0.01960310534047123,0.3555676059997565,0.8350315087573773,0.4194160067775217,0.2655230760574341,-0.610264003276825,-0.746374785900116,0,0,0,-1,-1,2971.103598875,unknown,2,2022-06-30T09:16:16.684+02:00,2022-06-30T08:20:05.567+02:00,873,1.488614,0,0,680.226,0,0,2022-06-30T09:16:19.234+02:00
2022-06-30T09:16:20.975+02:00,2975.393744125,0.506072998046875,-0.136810302734375,-1.153350830078125,2975.383792125,2.087204290922257,0.3553326203067044,0.6760942210002007,1.920064687728882,1.105169653892517,0.2422387897968292,0.2178557217121124,0.5578651428222656,-0.3363165855407715,XArbitraryZVertical,0.0201353990432383,0.3659875482027264,0.831965441937684,0.4165108372805487,0.2713716626167297,-0.6257511973381042,-0.7312953472137451,0,0,0,-1,-1,2971.103598875,unknown,2,2022-06-30T09:16:16.684+02:00,2022-06-30T08:20:05.567+02:00,873,1.488614,0,0,680.226,0,0,2022-06-30T09:16:19.234+02:00
2022-06-30T09:16:20.985+02:00,2975.403696125,0.5567779541015625,-0.1567840576171875,-1.112213134765625,2975.393744125,2.081497361124283,0.3714529152221613,0.6942585764020123,1.79148006439209,1.375921845436096,0.2449261844158173,0.2174160182476044,0.5178831219673157,-0.4320934414863586,XArbitraryZVertical,0.01921946197460564,0.376261724285757,0.829128909612675,0.4130413244762225,0.2789524495601654,-0.6398158073425293,-0.7161154747009277,0,0,0,-1,-1,2971.103598875,unknown,2,2022-06-30T09:16:16.684+02:00,2022-06-30T08:20:05.567+02:00,873,1.488614,0,0,680.226,0,0,2022-06-30T09:16:19.234+02:00
2022-06-30T09:16:20.995+02:00,2975.413648125,0.5827484130859375,-0.1549072265625,-1.03955078125,2975.403696125,2.075959833714458,0.390357223350306,0.711224993452234,1.667537689208984,1.679568529129028,0.250850647687912,0.2178061902523041,0.5159522891044617,-0.4527772665023804,XArbitraryZVertical,0.01689093424729354,0.3865589310304187,0.8264539657635811,0.408975215427896,0.2882668972015381,-0.6527622938156128,-0.7005738019943237,0,0,0,-1,-1,2971.103598875,unknown,2,2022-06-30T09:16:16.684+02:00,2022-06-30T08:20:05.567+02:00,873,1.488614,0,0,680.226,0,0,2022-06-30T09:16:19.234+02:00
2022-06-30T09:16:21.005+02:00,2975.423599125,0.5977935791015625,-0.1485443115234375,-0.9325714111328125,2975.413648125,2.070441607205495,0.4124469037927538,0.7267987297340464,1.510148406028748,1.994768619537354,0.2161813378334045,0.2572189569473267,0.5076969861984253,-0.4275749325752258,XArbitraryZVertical,0.01296442208255081,0.3968787102898269,0.8239261268782424,0.4043080383501321,0.2995590567588806,-0.6644807457923889,-0.6846384406089783,0,0,0,-1,-1,2971.103598875,unknown,2,2022-06-30T09:16:16.684+02:00,2022-06-30T08:20:05.567+02:00,873,1.488614,0,0,680.226,0,0,2022-06-30T09:16:19.234+02:00
2022-06-30T09:16:21.024+02:00,2975.433551125,0.630889892578125,-0.23822021484375,-0.85260009765625,2975.423599125,2.064865791306205,0.4377678953693389,0.7401577924558791,1.236194729804993,2.321187019348145,0.1503857523202896,0.2697428166866302,0.5194975137710571,-0.3708162903785706,XArbitraryZVertical,0.007220259516829298,0.4069158487773052,0.8215949096378046,0.399185650776861,0.3130056858062744,-0.6744044423103333,-0.6687347292900085,0,0,0,-1,-1,2971.103598875,unknown,2,2022-06-30T09:16:16.684+02:00,2022-06-30T08:20:05.567+02:00,873,1.488614,0,0,680.226,0,0,2022-06-30T09:16:19.234+02:00
2022-06-30T09:16:21.032+02:00,2975.443503125,0.6126708984375,-0.22283935546875,-0.77911376953125,2975.433551125,2.059973971891369,0.466223591947196,0.7499893448677428,0.826070249080658,2.706257104873657,0.077455073595047,0.2688844799995422,0.5330869555473328,-0.2789678573608398,XArbitraryZVertical,-0.000812751780275925,0.4161699533533623,0.8197020154480759,0.3935613171939169,0.3289092183113098,-0.6816309690475464,-0.6536037921905518,0,0,0,-1,-1,2971.103598875,unknown,2,2022-06-30T09:16:16.684+02:00,2022-06-30T08:20:05.567+02:00,873,1.488614,0,0,680.226,0,0,2022-06-30T09:16:19.234+02:00
2022-06-30T09:16:21.034+02:00,2975.453455125,0.5853271484375,-0.26318359375,-0.727020263671875,2975.443503125,2.05623802809993,0.4976865188053893,0.7554718782482654,0.384004682302475,3.071375131607056,-0.04165653139352798,0.2833719253540039,0.4474123120307922,-0.2129600644111633,XArbitraryZVertical,-0.01142977603728975,0.4243220496842894,0.8183516311816132,0.3874544493946762,0.3475180864334106,-0.6856322288513184,-0.6396403312683105,0,0,0,-1,-1,2971.103598875,unknown,2,2022-06-30T09:16:16.684+02:00,2022-06-30T08:20:05.567+02:00,873,1.488614,0,0,680.226,0,0,2022-06-30T09:16:19.234+02:00
2022-06-30T09:16:21.044+02:00,2975.463406125,0.5781402587890625,-0.35968017578125,-0.6965789794921875,2975.453455125,2.053875490427308,0.5319554476055713,0.756075840634264,-0.1485766470432281,3.471386194229126,-0.1839505583047867,0.2436515986919403,0.463232696056366,-0.1521130204200745,XArbitraryZVertical,-0.02477522505393654,0.4311446115691026,0.8175322420381489,0.3809746591405823,0.3690194189548492,-0.6860717535018921,-0.6270010471343994,0,0,0,-1,-1,2971.103598875,unknown,2,2022-06-30T09:16:16.684+02:00,2022-06-30T08:20:05.567+02:00,873,1.488614,0,0,680.226,0,0,2022-06-30T09:16:19.234+02:00
2022-06-30T09:16:21.054+02:00,2975.473358125,0.53033447265625,-0.3755645751953125,-0.6688079833984375,2975.463406125,2.053747347509183,0.5689919340904629,0.7508520039257717,-0.7584733963012695,3.931278467178345,-0.3755894601345062,0.1914187073707581,0.4190785884857178,-0.1111027002334595,XArbitraryZVertical,-0.04131843876904834,0.4362726972649232,0.8173457802343487,0.3740385995999864,0.3939085602760315,-0.6822619438171387,-0.6159178614616394,0,0,0,-1,-1,2971.103598875,unknown,2,2022-06-30T09:16:16.684+02:00,2022-06-30T08:20:05.567+02:00,873,1.488614,0,0,680.226,0,0,2022-06-30T09:16:19.234+02:00
2022-06-30T09:16:21.064+02:00,2975.483310125,0.4919281005859375,-0.341705322265625,-0.6131439208984375,2975.473358125,2.055964924589169,0.6092029972808809,0.7394399048258763,-1.346321105957031,4.426643371582031,-0.6212671399116516,0.1553622782230377,0.31419438123703,-0.09064829349517822,XArbitraryZVertical,-0.06138637590273901,0.4396205984600209,0.8176276147773965,0.3666749240383728,0.4227780997753143,-0.6738741993904114,-0.6059308648109436,0,0,0,-1,-1,2971.103598875,unknown,2,2022-06-30T09:16:16.684+02:00,2022-06-30T08:20:05.567+02:00,873,1.488614,0,0,680.226,0,0,2022-06-30T09:16:19.234+02:00
2022-06-30T09:16:21.074+02:00,2975.493262125,0.4481658935546875,-0.312530517578125,-0.58551025390625,2975.483310125,2.060562011884807,0.6528752426605353,0.7220000240773105,-1.908999443054199,4.937727451324463,-0.880309522151947,0.07443505525588989,0.2853227257728577,-0.07266724109649658,XArbitraryZVertical,-0.08507875181868094,0.4412381547278709,0.8180971879675702,0.3588698951282647,0.455899566411972,-0.6608870029449463,-0.59614098072052,0,0,0,-1,-1,2971.103598875,unknown,2,2022-06-30T09:16:16.684+02:00,2022-06-30T08:20:05.567+02:00,873,1.488614,0,0,680.226,0,0,2022-06-30T09:16:19.234+02:00
2022-06-30T09:16:21.084+02:00,2975.503213125,0.4078369140625,-0.2795562744140625,-0.5514068603515625,2975.493262125,2.067484385508162,0.7004150475206022,0.6990061942410328,-2.377223968505859,5.496910095214844,-1.179813981056213,-0.001451820135116577,0.3017522692680359,-0.02787584066390991,XArbitraryZVertical,-0.112413372538311,0.4412812042715754,0.8183798915560487,0.350554661574979,0.4933800399303436,-0.643457293510437,-0.5852682590484619,0,0,0,-1,-1,2971.103598875,unknown,2,2022-06-30T09:16:16.684+02:00,2022-06-30T08:20:05.567+02:00,873,1.488614,0,0,680.226,0,0,2022-06-30T09:16:19.234+02:00
2022-06-30T09:16:21.094+02:00,2975.513165125,0.3715362548828125,-0.288818359375,-0.564300537109375,2975.503213125,2.07643875689861,0.7523997347204697,0.6709653101359896,-2.771193027496338,6.065934658050537,-1.523317813873291,-0.08708202838897705,0.3092120885848999,-0.01371848583221436,XArbitraryZVertical,-0.1433858344413441,0.4399369351017779,0.8180006180585764,0.3417179996499151,0.5352481603622437,-0.621742308139801,-0.5717920064926147,0,0,0,-1,-1,2971.103598875,unknown,2,2022-06-30T09:16:16.684+02:00,2022-06-30T08:20:05.567+02:00,873,1.488614,0,0,680.226,0,0,2022-06-30T09:16:19.234+02:00
2022-06-30T09:16:21.104+02:00,2975.523117125,0.370697021484375,-0.2532501220703125,-0.484527587890625,2975.513165125,2.087094941153281,0.8095209309236784,0.6381224411806673,-3.138186454772949,6.702983856201172,-1.908531546592712,-0.1736562848091125,0.3161324858665466,0.002687573432922363,XArbitraryZVertical,-0.178067718979405,0.4373152356577713,0.8164260201358666,0.3324091188611871,0.5814933776855469,-0.5956884026527405,-0.5540945529937744,0,0,0,-1,-1,2971.103598875,unknown,2,2022-06-30T09:16:16.684+02:00,2022-06-30T08:20:05.567+02:00,873,1.488614,0,0,680.226,0,0,2022-06-30T09:16:19.234+02:00
2022-06-30T09:16:21.114+02:00,2975.533069125,0.3802642822265625,-0.2445526123046875,-0.412384033203125,2975.523117125,2.100095287835013,0.8723561054972803,0.6003218493728425,-3.540366888046265,7.419683933258057,-2.348657846450806,-0.2604044675827026,0.2760900855064392,-0.03370696306228638,XArbitraryZVertical,-0.2167585918971331,0.4332653662716149,0.8132266068635798,0.3224272870802733,0.6319408416748047,-0.5649080872535706,-0.5305936932563782,0,0,0,-1,-1,2971.103598875,unknown,2,2022-06-30T09:16:16.684+02:00,2022-06-30T08:20:05.567+02:00,873,1.488614,0,0,680.226,0,0,2022-06-30T09:16:19.234+02:00
2022-06-30T09:16:21.124+02:00,2975.543020125,0.4353179931640625,-0.22967529296875,-0.2752227783203125,2975.533069125,2.115654563568209,0.941731948806329,0.5568475412023076,-3.918802261352539,8.216287612915039,-2.926929235458374,-0.315725564956665,0.2752628922462463,0.01497027277946472,XArbitraryZVertical,-0.2598426069331868,0.4274726233886274,0.8077620345257843,0.3118805029759354,0.6864227652549744,-0.5285125970840454,-0.4994979500770569,0,0,0,-1,-1,2971.103598875,unknown,2,2022-06-30T09:16:16.684+02:00,2022-06-30T08:20:05.567+02:00,873,1.488614,0,0,680.226,0,0,2022-06-30T09:16:19.234+02:00
2022-06-30T09:16:21.135+02:00,2975.552972125,0.4022064208984375,-0.192535400390625,-0.130126953125,2975.543020125,2.134915309950232,1.018009474561286,0.5070869265616539,-4.460198879241943,9.059787750244141,-3.532212257385254,-0.3637046813964844,0.2410805821418762,0.04660481214523315,XArbitraryZVertical,-0.3075704694131748,0.4194114087953879,0.7994344789092636,0.3006645471029899,0.7439691424369812,-0.4856328070163727,-0.4589889645576477,0,0,0,-1,-1,2971.103598875,unknown,2,2022-06-30T09:16:16.684+02:00,2022-06-30T08:20:05.567+02:00,873,1.488614,0,0,680.226,0,0,2022-06-30T09:16:19.234+02:00
2022-06-30T09:16:21.144+02:00,2975.562924125,0.3978118896484375,-0.138397216796875,-0.0584564208984375,2975.552972125,2.160483936111881,1.100864616992002,0.4499673858124085,-5.148702144622803,9.941007614135742,-4.267393112182617,-0.3675324320793152,0.2052612602710724,0.1325289309024811,XArbitraryZVertical,-0.3601674523570744,0.4079258919956307,0.7878155314836677,0.2884832304082883,0.802850604057312,-0.4349361658096313,-0.407751739025116,0,0,0,-1,-1,2971.103598875,unknown,2,2022-06-30T09:16:16.684+02:00,2022-06-30T08:20:05.567+02:00,873,1.488614,0,0,680.226,0,0,2022-06-30T09:16:19.234+02:00
2022-06-30T09:16:21.154+02:00,2975.572876125,0.4171600341796875,0.0369873046875,0.24151611328125,2975.562924125,2.193476626271719,1.191673363911904,0.3854731941553565,-5.743595600128174,10.9738597869873,-5.049568176269531,-0.4586143493652344,0.1834625899791718,0.2128207981586456,XArbitraryZVertical,-0.4176956262146673,0.3925002905923814,0.7718417995623582,0.2751987290795256,0.8608210682868958,-0.3759976625442505,-0.342947781085968,0,0,0,-1,-1,2971.103598875,unknown,2,2022-06-30T09:16:16.684+02:00,2022-06-30T08:20:05.567+02:00,873,1.488614,0,0,680.226,0,0,2022-06-30T09:16:19.234+02:00
2022-06-30T09:16:21.164+02:00,2975.582828125,0.5752716064453125,0.1933441162109375,0.808929443359375,2975.572876125,2.236253726758857,1.291829887200496,0.3145898645095837,-6.544977188110352,12.09597110748291,-5.844537734985352,-0.516349196434021,0.1710296869277954,0.203391969203949,XArbitraryZVertical,-0.4799115096543651,0.3725060492881966,0.7504958979952868,0.260154246223626,0.9141613245010376,-0.309426486492157,-0.2618483603000641,0,0,0,-1,-1,2971.103598875,unknown,2,2022-06-30T09:16:16.684+02:00,2022-06-30T08:20:05.567+02:00,873,1.488614,0,0,680.226,0,0,2022-06-30T09:16:19.234+02:00
2022-06-30T09:16:21.174+02:00,2975.592779125,0.65447998046875,0.37872314453125,1.512954711914062,2975.582828125,2.294303576332387,1.402632637318495,0.2383067107241325,-7.916881084442139,13.31744384765625,-6.633911609649658,-0.5408713221549988,0.2730452418327332,0.404158353805542,XArbitraryZVertical,-0.546679951102752,0.3461501874297917,0.7230457870663125,0.2419215654697366,0.9580316543579102,-0.2360575348138809,-0.1626421511173248,0,0,0,-1,-1,2971.103598875,unknown,2,2022-06-30T09:16:16.684+02:00,2022-06-30T08:20:05.567+02:00,873,1.488614,0,0,680.226,0,0,2022-06-30T09:16:19.234+02:00
2022-06-30T09:16:21.184+02:00,2975.602731125,0.342254638671875,0.607025146484375,2.118515014648438,2975.592779125,2.376382419547982,1.525839001381889,0.1599034361173579,-9.911286354064941,14.66818618774414,-7.3326096534729,-0.4109735488891602,0.3525674045085907,0.8532984256744385,XArbitraryZVertical,-0.6174691036757364,0.3107209087482826,0.6890209221480337,0.2177951392058688,0.9862452745437622,-0.1592228710651398,-0.04436884447932243,0,0,0,-1,-1,2971.103598875,unknown,2,2022-06-30T09:16:16.684+02:00,2022-06-30T08:20:05.567+02:00,873,1.488614,0,0,680.226,0,0,2022-06-30T09:16:19.234+02:00
2022-06-30T09:16:21.195+02:00,2975.612683125,-0.4046173095703125,1.079620361328125,3.441970825195312,2975.602731125,2.489548113141671,1.666856161694559,0.08669232032108248,-12.37133693695068,16.4758472442627,-7.980796813964844,-0.337171733379364,0.4653073251247406,1.417402982711792,XArbitraryZVertical,-0.6912577594935885,0.2644592673625532,0.6466008652929439,0.1847468674273333,0.9916517734527588,-0.08658377081155777,0.0955519899725914,0,0,0,-1,-1,2971.103598875,unknown,2,2022-06-30T09:16:16.684+02:00,2022-06-30T08:20:05.567+02:00,873,1.488614,0,0,680.226,0,0,2022-06-30T09:16:19.234+02:00
2022-06-30T09:16:21.204+02:00,2975.622635125,-1.36041259765625,1.571075439453125,5.360198974609375,2975.612683125,2.640741512509369,1.833026716186543,0.03160023119258787,-15.65325546264648,18.608154296875,-8.301485061645508,-0.623077392578125,0.6386204957962036,1.859409332275391,XArbitraryZVertical,-0.7662545859759975,0.2059293271149401,0.5926399797258178,0.1386542646038307,0.9653321504592896,-0.03159497305750847,0.2591059505939484,0,0,0,-1,-1,2971.103598875,unknown,2,2022-06-30T09:16:16.684+02:00,2022-06-30T08:20:05.567+02:00,873,1.488614,0,0,680.226,0,0,2022-06-30T09:16:19.234+02:00
2022-06-30T09:16:21.214+02:00,2975.632586125,-2.27789306640625,1.403945922851562,7.662200927734375,2975.622635125,2.833709765872588,2.027164657331209,0.0171614609847473,-19.87014007568359,21.17180824279785,-8.03966236114502,-1.302144169807434,1.096781373023987,3.001345157623291,XArbitraryZVertical,-0.8379683054906696,0.1346187520335662,0.5236675186866391,0.0738872319337292,0.8975268006324768,-0.01716061867773533,0.4406261742115021,0,0,0,-1,-1,2971.103598875,unknown,2,2022-06-30T09:16:16.684+02:00,2022-06-30T08:20:05.567+02:00,873,1.488614,0,0,680.226,0,0,2022-06-30T09:16:19.234+02:00
2022-06-30T09:16:21.224+02:00,2975.642538125,-3.320358276367188,-0.9979248046875,8.50604248046875,2975.632586125,3.06144621273966,2.240508059372122,0.07265474636453695,-24.80792808532715,23.46730422973633,-7.050227642059326,-2.142345190048218,1.643666505813599,4.741076946258545,XArbitraryZVertical,-0.898261380240519,0.05184363584779212,0.4361270895352101,-0.01523499463890207,0.7819325923919678,-0.07259084284305573,0.6191225647926331,0,0,0,-1,-1,2971.103598875,unknown,2,2022-06-30T09:16:16.684+02:00,2022-06-30T08:20:05.567+02:00,873,1.488614,0,0,680.226,0,0,2022-06-30T09:16:19.234+02:00
2022-06-30T09:16:21.234+02:00,2975.652490125,-5.315216064453125,-4.550750732421875,7.88311767578125,2975.642538125,-2.987878415444328,2.456385417191736,0.2087360227154298,-26.66946983337402,26.18623352050781,-6.406352519989014,-2.896990299224854,1.611169576644897,6.904720306396484,XArbitraryZVertical,-0.9366799242455489,-0.03703116726172065,0.3255921953772152,-0.1234880971065243,0.6190971732139587,-0.2072235196828842,0.7574811577796936,0,0,0,-1,-1,2971.103598875,unknown,2,2022-06-30T09:16:16.684+02:00,2022-06-30T08:20:05.567+02:00,873,1.488614,0,0,680.226,0,0,2022-06-30T09:16:19.234+02:00
2022-06-30T09:16:21.243+02:00,2975.662442125,-9.666656494140625,-7.199066162109375,8.422332763671875,2975.652490125,-2.792145335670073,2.67778419144229,0.3711050027453729,-20.55537796020508,29.57043075561523,-7.534305095672607,-3.737263202667236,-0.6352793574333191,7.672568798065186,XArbitraryZVertical,-0.9493320085686197,-0.124522558300818,0.1912344625383916,-0.2160842785126846,0.4169047176837921,-0.3626454472541809,0.8334742784500122,0,0,0,-1,-1,2971.103598875,unknown,2,2022-06-30T09:16:16.684+02:00,2022-06-30T08:20:05.567+02:00,873,1.488614,0,0,680.226,0,0,2022-06-30T09:16:19.234+02:00
2022-06-30T09:16:21.254+02:00,2975.672393125,-14.91645812988281,-7.491012573242188,11.92820739746094,2975.662442125,-2.646100821659854,2.925522699611216,0.4882166384400565,-9.912598609924316,32.01745223999023,-9.557979583740234,-5.504561901092529,-4.081698894500732,7.020483016967773,XArbitraryZVertical,-0.9416320051661792,-0.2112974368671388,0.04251192039701558,-0.2586025852341927,0.1893453001976013,-0.4690516293048859,0.8626348972320557,0,0,0,-1,-1,2971.103598875,unknown,2,2022-06-30T09:16:16.684+02:00,2022-06-30T08:20:05.567+02:00,873,1.488614,0,0,680.226,0,0,2022-06-30T09:16:19.234+02:00
2022-06-30T09:16:21.264+02:00,2975.682345125,-19.55778503417969,-1.949722290039062,17.18843078613281,2975.672393125,-2.502654971651153,-3.127201909385212,0.5077871179457351,3.73885703086853,26.55932235717773,-15.82834243774414,-9.654082298278809,-6.712821483612061,7.548600673675537,XArbitraryZVertical,-0.9183748212134982,-0.3057019814476709,-0.08549467726806043,-0.2362722594432862,-0.01257452182471752,-0.4862447679042816,0.8737320303916931,0,0,0,-1,-1,2971.103598875,unknown,2,2022-06-30T09:16:16.684+02:00,2022-06-30T08:20:05.567+02:00,873,1.488614,0,0,680.226,0,0,2022-06-30T09:16:19.234+02:00
2022-06-30T09:16:21.273+02:00,2975.692297125,-17.9852294921875,1.303314208984375,19.979248046875,2975.682345125,-2.263409262241684,-3.042788766165427,0.4437018886913634,10.036865234375,12.80828762054443,-25.63128852844238,-14.82736682891846,-7.061727046966553,11.02944374084473,XArbitraryZVertical,-0.8772585123040472,-0.424027850879603,-0.1370288204971506,-0.1784409908357494,-0.08909150213003159,-0.4292858242988586,0.8987642526626587,0,0,0,-1,-1,2971.103598875,unknown,2,2022-06-30T09:16:16.684+02:00,2022-06-30T08:20:05.567+02:00,873,1.488614,0,0,680.226,0,0,2022-06-30T09:16:19.234+02:00
2022-06-30T09:16:21.283+02:00,2975.702249125,-18.51139831542969,3.505020141601562,17.17306518554688,2975.692297125,-1.940439874440785,-3.118712939267262,0.3808429361218114,6.434700012207031,-3.040040016174316,-32.02108764648438,-19.53654670715332,-1.578019380569458,16.26032257080078,XArbitraryZVertical,-0.8088210106938583,-0.556653427391547,-0.1162216662038309,-0.149793812009531,-0.02123857289552689,-0.3717031478881836,0.9281089305877686,0,0,0,-1,-1,2971.103598875,unknown,2,2022-06-30T09:16:16.684+02:00,2022-06-30T08:20:05.567+02:00,873,1.488614,0,0,680.226,0,0,2022-06-30T09:16:19.234+02:00
2022-06-30T09:16:21.293+02:00,2975.712200125,-20.61001586914062,4.400909423828125,12.10215759277344,2975.702249125,-1.598745155220215,2.938155057658804,0.2882187399914752,7.748515129089355,-18.8475284576416,-34.007568359375,-18.17893409729004,1.587558746337891,19.04026794433594,XArbitraryZVertical,-0.7159865942532111,-0.6759093385374358,-0.02755809082087969,-0.172483221734103,0.1937035918235779,-0.2842448949813843,0.9389804601669312,0,0,0,-1,-1,2971.103598875,unknown,2,2022-06-30T09:16:16.684+02:00,2022-06-30T08:20:05.567+02:00,873,1.488614,0,0,680.226,0,0,2022-06-30T09:16:19.234+02:00
2022-06-30T09:16:21.303+02:00,2975.722152125,-30.0028076171875,6.666122436523438,2.297470092773438,2975.712200125,-1.319777594337621,2.628368514290396,0.04620599073092764,20.55728530883789,-32.65808486938477,-34.86541748046875,-19.00186347961426,3.551209211349487,16.30282974243164,XArbitraryZVertical,-0.597429581926187,-0.7603921134979138,0.1378948303034574,-0.2141656870994177,0.4904646873474121,-0.04618955031037331,0.8702365159988403,0,0,0,-1,-1,2971.103598875,unknown,2,2022-06-30T09:16:16.684+02:00,2022-06-30T08:20:05.567+02:00,873,1.488614,0,0,680.226,0,0,2022-06-30T09:16:19.234+02:00
2022-06-30T09:16:21.313+02:00,2975.732104125,-32.05767822265625,24.55096435546875,-4.098190307617188,2975.722152125,-1.249349863644991,2.290746595094682,-0.3895823015827014,34.83804702758789,-34.76512908935547,-29.51863288879395,-21.30551719665527,4.021107196807861,11.49221706390381,XArbitraryZVertical,-0.4578313094179913,-0.7715964490927958,0.3798129121963182,-0.2253259394655547,0.6955018639564514,0.3798020482063293,0.6099411845207214,0,0,0,-1,-1,2971.103598875,unknown,2,2022-06-30T09:16:16.684+02:00,2022-06-30T08:20:05.567+02:00,873,1.488614,0,0,680.226,0,0,2022-06-30T09:16:19.234+02:00
2022-06-30T09:16:21.323+02:00,2975.742056125,-29.66712951660156,31.8880615234375,20.72999572753906,2975.732104125,-1.48979822495374,1.804430775955278,-0.7416955061506041,34.93035888671875,-34.82615661621094,-11.82773017883301,-30.72010040283203,5.990583419799805,2.126769065856934,XArbitraryZVertical,-0.3306365196309492,-0.68994944038176,0.6007089105247887,-0.2319443321911104,0.717292308807373,0.6755390167236328,0.1707014739513397,0,0,0,-1,-1,2971.103598875,unknown,2,2022-06-30T09:16:16.684+02:00,2022-06-30T08:20:05.567+02:00,873,1.488614,0,0,680.226,0,0,2022-06-30T09:16:19.234+02:00
2022-06-30T09:16:21.333+02:00,2975.752008125,-32.17779541015625,12.64707946777344,32.00531005859375,2975.742056125,-1.943520296553745,1.150545163374278,-0.704255026348873,34.86547088623047,-33.16011810302734,9.723830223083496,-32.75345993041992,23.90349769592285,-3.7872633934021,XArbitraryZVertical,-0.2585929446513257,-0.5269405653308921,0.7562337183189404,-0.2890917559318084,0.6957817673683167,0.647466242313385,-0.3109266459941864,0,0,0,-1,-1,2971.103598875,unknown,2,2022-06-30T09:16:16.684+02:00,2022-06-30T08:20:05.567+02:00,873,1.488614,0,0,680.226,0,0,2022-06-30T09:16:19.234+02:00
2022-06-30T09:16:21.343+02:00,2975.761959125,-17.72927856445312,-31.90196228027344,20.08891296386719,2975.752008125,-2.244543947147671,0.8601885630725999,-0.4580646829899503,34.59109497070312,11.74541854858398,12.69922733306885,-30.34695625305176,31.44584846496582,21.3150463104248,XArbitraryZVertical,-0.2764187805492735,-0.3620329848968998,0.8386849029498562,-0.2985507465575136,0.6798269748687744,0.4422131180763245,-0.585049569606781,0,0,0,-1,-1,2971.103598875,unknown,2,2022-06-30T09:16:16.684+02:00,2022-06-30T08:20:05.567+02:00,873,1.488614,0,0,680.226,0,0,2022-06-30T09:16:19.234+02:00
2022-06-30T09:16:21.353+02:00,2975.771911125,-3.4468994140625,-17.38948059082031,3.170608520507812,2975.761959125,-2.368221412486319,0.91983207229874,-0.0863908908146532,26.96824073791504,3.661556005477905,23.94429969787598,-32.97032928466797,12.56079578399658,32.60900497436523,XArbitraryZVertical,-0.3961229845342767,-0.2030754380915962,0.8363803498210375,-0.3198667488571216,0.7925330996513367,0.08628346771001816,-0.6036939024925232,0,0,0,-1,-1,2971.103598875,unknown,2,2022-06-30T09:16:16.684+02:00,2022-06-30T08:20:05.567+02:00,873,1.488614,0,0,680.226,0,0,2022-06-30T09:16:19.234+02:00
2022-06-30T09:16:21.363+02:00,2975.781863125,-3.879806518554688,-7.09405517578125,0.6970672607421875,2975.771911125,-2.333429209960043,0.9996281050413994,0.1172768510009088,-8.805782318115234,13.87854290008545,12.28861713409424,-18.56476974487305,-31.78495407104492,20.62581443786621,XArbitraryZVertical,-0.4601302206605812,-0.1408165822648074,0.7945573333084518,-0.3703102750052478,0.8354913592338562,-0.117008201777935,-0.5369017124176025,0,0,0,-1,-1,2971.103598875,unknown,2,2022-06-30T09:16:16.684+02:00,2022-06-30T08:20:05.567+02:00,873,1.488614,0,0,680.226,0,0,2022-06-30T09:16:19.234+02:00
