loggingTime(txt),accelerometerTimestamp_sinceReboot(s),accelerometerAccelerationX(G),accelerometerAccelerationY(G),accelerometerAccelerationZ(G),motionTimestamp_sinceReboot(s),motionYaw(rad),motionRoll(rad),motionPitch(rad),motionRotationRateX(rad/s),motionRotationRateY(rad/s),motionRotationRateZ(rad/s),motionUserAccelerationX(G),motionUserAccelerationY(G),motionUserAccelerationZ(G),motionAttitudeReferenceFrame(txt),motionQuaternionX(R),motionQuaternionY(R),motionQuaternionZ(R),motionQuaternionW(R),motionGravityX(G),motionGravityY(G),motionGravityZ(G),motionMagneticFieldX(µT),motionMagneticFieldY(µT),motionMagneticFieldZ(µT),motionHeading(°),motionMagneticFieldCalibrationAccuracy(Z),activityTimestamp_sinceReboot(s),activity(txt),activityActivityConfidence(Z),activityActivityStartDate(txt),pedometerStartDate(txt),pedometerNumberofSteps(N),pedometerAverageActivePace(s/m),pedometerCurrentPace(s/m),pedometerCurrentCadence(steps/s),pedometerDistance(m),pedometerFloorAscended(N),pedometerFloorDescended(N),pedometerEndDate(txt)
2022-06-30T09:16:28.797+02:00,2983.205880875,-0.0828094482421875,-0.3537139892578125,-0.9331817626953125,2983.195928875,-0.6674661181917845,0.2057981613254563,0.2655136269747539,0.7075434923171997,-0.1865557581186295,-0.1067149564623833,-0.0171951949596405,0.2855826020240784,-0.0466153621673584,XArbitraryZVertical,-0.1577538391097846,-0.05306579791267761,0.310126305549888,-0.9360125005634117,0.1971877366304398,-0.2624049186706543,-0.9445955157279968,0,0,0,-1,-1,2981.294715791667,unknown,2,2022-06-30T09:16:26.875+02:00,2022-06-30T08:20:05.567+02:00,873,1.488614,0,0,680.226,0,0,2022-06-30T09:16:26.875+02:00
2022-06-30T09:16:28.799+02:00,2983.215831875,0.0838165283203125,-0.4139404296875,-0.871826171875,2983.205880875,-0.669746243007588,0.2061650197842665,0.2728329170918501,0.700467586517334,0.1108709573745728,0.01786085590720177,-0.3144454956054688,0.2240348160266876,-0.06281417608261108,XArbitraryZVertical,-0.1612616262516985,-0.05182428205945151,0.3106512915836062,-0.9353099466150576,0.197135791182518,-0.2694606482982635,-0.9426178336143494,0,0,0,-1,-1,2981.294715791667,unknown,2,2022-06-30T09:16:26.875+02:00,2022-06-30T08:20:05.567+02:00,873,1.488614,0,0,680.226,0,0,2022-06-30T09:16:26.875+02:00
2022-06-30T09:16:28.807+02:00,2983.225783875,0.2361602783203125,-0.4617462158203125,-0.9013671875,2983.215831875,-0.6699077300870818,0.2079056104921005,0.2775596625531727,0.244056910276413,0.2126298099756241,0.1199219822883606,-0.2813206911087036,-0.0797048807144165,0.007834851741790771,XArbitraryZVertical,-0.1637241030975868,-0.05182804598357933,0.3102509267771565,-0.9350148244547305,0.1985110938549042,-0.2740095257759094,-0.9410165548324585,0,0,0,-1,-1,2981.294715791667,unknown,2,2022-06-30T09:16:26.875+02:00,2022-06-30T08:20:05.567+02:00,873,1.488614,0,0,680.226,0,0,2022-06-30T09:16:26.875+02:00
2022-06-30T09:16:28.817+02:00,2983.235735875,0.310760498046875,-0.3870849609375,-0.9119720458984375,2983.225783875,-0.6692775341111087,0.2095184714233119,0.2783927652925872,-0.09689728170633316,0.129762589931488,0.02694479934871197,-0.1161646246910095,-0.139130175113678,0.06864547729492188,XArbitraryZVertical,-0.1643432090264704,-0.05249327195561333,0.3097645840272178,-0.9350303111252962,0.1999810189008713,-0.2748106420040131,-0.9404715299606323,0,0,0,-1,-1,2981.294715791667,unknown,2,2022-06-30T09:16:26.875+02:00,2022-06-30T08:20:05.567+02:00,873,1.488614,0,0,680.226,0,0,2022-06-30T09:16:26.875+02:00
2022-06-30T09:16:28.827+02:00,2983.245687875,0.24053955078125,-0.32513427734375,-0.934600830078125,2983.235735875,-0.6689303333518301,0.2097934482762635,0.2760990324600214,-0.350531131029129,-0.04994885623455048,-0.04962747544050217,0.03578978776931763,-0.189142107963562,0.03966343402862549,XArbitraryZVertical,-0.163315083677368,-0.05303685072915289,0.3097437382795112,-0.9351866564419572,0.2003703564405441,-0.2726044952869415,-0.9410305619239807,0,0,0,-1,-1,2981.294715791667,unknown,2,2022-06-30T09:16:26.875+02:00,2022-06-30T08:20:05.567+02:00,873,1.488614,0,0,680.226,0,0,2022-06-30T09:16:26.875+02:00
2022-06-30T09:16:28.837+02:00,2983.255639875,0.129364013671875,-0.2890625,-0.94000244140625,2983.245687875,-0.6687701404664131,0.2087409391765187,0.2719745366661365,-0.4545251131057739,-0.1224780976772308,-0.09188734740018845,0.1111492514610291,-0.1184514760971069,0.03036093711853027,XArbitraryZVertical,-0.1612382113648932,-0.05325229990079509,0.3100477174631602,-0.9354340449876454,0.1996111124753952,-0.2686339020729065,-0.9423328638076782,0,0,0,-1,-1,2981.294715791667,unknown,2,2022-06-30T09:16:26.875+02:00,2022-06-30T08:20:05.567+02:00,873,1.488614,0,0,680.226,0,0,2022-06-30T09:16:26.875+02:00
2022-06-30T09:16:28.847+02:00,2983.265590875,0.0884246826171875,-0.2879638671875,-0.93133544921875,2983.255639875,-0.6688470959358593,0.207720586621862,0.2671282594790114,-0.4936909079551697,-0.06615996360778809,-0.1220995783805847,0.04162377119064331,-0.06117206811904907,0.009198129177093506,XArbitraryZVertical,-0.1588371909887821,-0.053584621776281,0.3105073534196224,-0.935673430882086,0.1989156454801559,-0.2639626264572144,-0.9437988996505737,0,0,0,-1,-1,2981.294715791667,unknown,2,2022-06-30T09:16:26.875+02:00,2022-06-30T08:20:05.567+02:00,873,1.488614,0,0,680.226,0,0,2022-06-30T09:16:26.875+02:00
2022-06-30T09:16:28.857+02:00,2983.275542875,0.1142730712890625,-0.292755126953125,-0.9437255859375,2983.265590875,-0.6690592802397877,0.2075403614510112,0.2619023469616806,-0.5214413404464722,0.02756462804973125,-0.1367248296737671,-0.06966319680213928,-0.03014442324638367,0.005169272422790527,XArbitraryZVertical,-0.1563932257231649,-0.05436299936329474,0.310986894059801,-0.935880866765838,0.1990270763635635,-0.2589184939861298,-0.9451716542243958,0,0,0,-1,-1,2981.294715791667,unknown,2,2022-06-30T09:16:26.875+02:00,2022-06-30T08:20:05.567+02:00,873,1.488614,0,0,680.226,0,0,2022-06-30T09:16:26.875+02:00
2022-06-30T09:16:28.867+02:00,2983.285494875,0.16925048828125,-0.25360107421875,-0.9241485595703125,2983.275542875,-0.6694278477896035,0.2081394474964541,0.256553145549795,-0.5128918290138245,0.07685201615095139,-0.1687799543142319,-0.1114520728588104,-0.0342162549495697,0.01505845785140991,XArbitraryZVertical,-0.1540168003723179,-0.05551493482648863,0.3114856524231918,-0.9360415111241569,0.1998766213655472,-0.2537480294704437,-0.9463938474655151,0,0,0,-1,-1,2981.294715791667,unknown,2,2022-06-30T09:16:26.875+02:00,2022-06-30T08:20:05.567+02:00,873,1.488614,0,0,680.226,0,0,2022-06-30T09:16:26.875+02:00
2022-06-30T09:16:28.877+02:00,2983.295446875,0.1919097900390625,-0.1973114013671875,-0.9286956787109375,2983.285494875,-0.6701894736712334,0.2091133036970416,0.2513511079152116,-0.4840624332427979,0.08125150948762894,-0.1893490850925446,-0.08679655194282532,-0.04404270648956299,0.003751695156097412,XArbitraryZVertical,-0.1517777908904709,-0.05678831211549618,0.3121290625951352,-0.9361165486337164,0.2010694742202759,-0.2487128376960754,-0.9474771618843079,0,0,0,-1,-1,2981.294715791667,unknown,2,2022-06-30T09:16:26.875+02:00,2022-06-30T08:20:05.567+02:00,873,1.488614,0,0,680.226,0,0,2022-06-30T09:16:26.875+02:00
2022-06-30T09:16:28.886+02:00,2983.305397875,0.1808929443359375,-0.194671630859375,-0.948699951171875,2983.295446875,-0.6712021430459459,0.2100261507486832,0.2464689791208456,-0.4272966384887695,0.06574658304452896,-0.2179663479328156,-0.03293469548225403,-0.009620308876037598,0.02432101964950562,XArbitraryZVertical,-0.1496851901809781,-0.05796195237017331,0.312872662293213,-0.9361333422678905,0.2021850347518921,-0.2439811676740646,-0.9484695196151733,0,0,0,-1,-1,2981.294715791667,unknown,2,2022-06-30T09:16:26.875+02:00,2022-06-30T08:20:05.567+02:00,873,1.488614,0,0,680.226,0,0,2022-06-30T09:16:26.875+02:00
2022-06-30T09:16:28.896+02:00,2983.315349875,0.1715087890625,-0.206207275390625,-0.95928955078125,2983.305397875,-0.6728262572330478,0.2110979756137486,0.242351457264973,-0.3195508718490601,0.07913891971111298,-0.2655409872531891,-0.01150062680244446,0.04267421364784241,0.02053093910217285,XArbitraryZVertical,-0.1479908727740981,-0.05903765934880102,0.3138380667311459,-0.9360123075333397,0.2034102976322174,-0.2399860322475433,-0.9492264986038208,0,0,0,-1,-1,2981.294715791667,unknown,2,2022-06-30T09:16:26.875+02:00,2022-06-30T08:20:05.567+02:00,873,1.488614,0,0,680.226,0,0,2022-06-30T09:16:26.875+02:00
2022-06-30T09:16:28.906+02:00,2983.325301875,0.1689453125,-0.2328643798828125,-0.961639404296875,2983.315349875,-0.6749232275353348,0.2124041905724602,0.2390301434261841,-0.2567341029644012,0.09446913748979568,-0.2758293151855469,-0.02392411231994629,0.04208838939666748,0.001034021377563477,XArbitraryZVertical,-0.1467183717099768,-0.06005627102558533,0.3149530668714062,-0.935773300060604,0.2048169076442719,-0.2367604523897171,-0.9497339129447937,0,0,0,-1,-1,2981.294715791667,unknown,2,2022-06-30T09:16:26.875+02:00,2022-06-30T08:20:05.567+02:00,873,1.488614,0,0,680.226,0,0,2022-06-30T09:16:26.875+02:00
2022-06-30T09:16:28.916+02:00,2983.335253875,0.175445556640625,-0.2435150146484375,-0.9484100341796875,2983.325301875,-0.6771903319716666,0.2139301430285296,0.2360459842534739,-0.2435091435909271,0.1098459959030151,-0.2854326367378235,-0.03490634262561798,0.02765241265296936,-0.009182989597320557,XArbitraryZVertical,-0.1456442236222306,-0.06111071491789179,0.3161090996030728,-0.9354830284373329,0.2064149975776672,-0.2338600903749466,-0.9501065015792847,0,0,0,-1,-1,2981.294715791667,unknown,2,2022-06-30T09:16:26.875+02:00,2022-06-30T08:20:05.567+02:00,873,1.488614,0,0,680.226,0,0,2022-06-30T09:16:26.875+02:00
2022-06-30T09:16:28.926+02:00,2983.345204875,0.1798248291015625,-0.245269775390625,-0.92974853515625,2983.335253875,-0.6795155468801477,0.2155905734119312,0.2329161796208884,-0.2812203168869019,0.1240933761000633,-0.2979998290538788,-0.03920269012451172,-0.002048879861831665,-0.01116657257080078,XArbitraryZVertical,-0.144528226844635,-0.06225116881451961,0.3172937114497111,-0.9351797601411251,0.208147868514061,-0.2308159321546555,-0.9504727721214294,0,0,0,-1,-1,2981.294715791667,unknown,2,2022-06-30T09:16:26.875+02:00,2022-06-30T08:20:05.567+02:00,873,1.488614,0,0,680.226,0,0,2022-06-30T09:16:26.875+02:00
2022-06-30T09:16:28.937+02:00,2983.355156875,0.1841278076171875,-0.242523193359375,-0.930938720703125,2983.345204875,-0.6819633815066075,0.2174200277629289,0.2292186483356874,-0.3398047387599945,0.1415140777826309,-0.3326354920864105,-0.03462359309196472,-0.01629875600337982,0.002507269382476807,XArbitraryZVertical,-0.1431827693227488,-0.06356157870132743,0.3185642722193499,-0.9348665888693659,0.210069015622139,-0.2272166758775711,-0.9509172439575195,0,0,0,-1,-1,2981.294715791667,unknown,2,2022-06-30T09:16:26.875+02:00,2022-06-30T08:20:05.567+02:00,873,1.488614,0,0,680.226,0,0,2022-06-30T09:16:26.875+02:00
2022-06-30T09:16:28.946+02:00,2983.365108875,0.1852264404296875,-0.224700927734375,-0.9315338134765625,2983.355156875,-0.6845703227382784,0.2194323423901072,0.2249324682600254,-0.3933364152908325,0.1541811376810074,-0.3525777757167816,-0.03236749768257141,-0.02222965657711029,0.02168595790863037,XArbitraryZVertical,-0.1416023980943857,-0.06505048349736975,0.3199389009012472,-0.9345353469612806,0.212192177772522,-0.2230405360460281,-0.9514343738555908,0,0,0,-1,-1,2981.294715791667,unknown,2,2022-06-30T09:16:26.875+02:00,2022-06-30T08:20:05.567+02:00,873,1.488614,0,0,680.226,0,0,2022-06-30T09:16:26.875+02:00
2022-06-30T09:16:28.956+02:00,2983.375060875,0.188323974609375,-0.2060699462890625,-0.948028564453125,2983.365108875,-0.6871393073141753,0.2215413587014007,0.2200380547503213,-0.4537501335144043,0.1678463518619537,-0.3575282096862793,-0.03030791878700256,-0.02425684034824371,0.02109968662261963,XArbitraryZVertical,-0.1397586199261742,-0.06669604840595796,0.3213335582025562,-0.9342182890015275,0.2144356071949005,-0.2182667553424835,-0.9520383477210999,0,0,0,-1,-1,2981.294715791667,unknown,2,2022-06-30T09:16:26.875+02:00,2022-06-30T08:20:05.567+02:00,873,1.488614,0,0,680.226,0,0,2022-06-30T09:16:26.875+02:00
2022-06-30T09:16:28.967+02:00,2983.385011875,0.201904296875,-0.1826934814453125,-0.9598541259765625,2983.375060875,-0.6896368052608933,0.2237830702746632,0.2147256251194239,-0.4769904911518097,0.1834942847490311,-0.3574877083301544,-0.03159721195697784,-0.01162198185920715,0.02113866806030273,XArbitraryZVertical,-0.1377444763654001,-0.0684853745405665,0.3227172194510342,-0.9339110669642401,0.2168235331773758,-0.2130793631076813,-0.9526724219322205,0,0,0,-1,-1,2981.294715791667,unknown,2,2022-06-30T09:16:26.875+02:00,2022-06-30T08:20:05.567+02:00,873,1.488614,0,0,680.226,0,0,2022-06-30T09:16:26.875+02:00
2022-06-30T09:16:28.976+02:00,2983.394963875,0.2095947265625,-0.16424560546875,-0.9607696533203125,2983.385011875,-0.6919744488543378,0.2261300917843516,0.209327888693219,-0.4793045520782471,0.1914631128311157,-0.3360299468040466,-0.03098972141742706,0.001732125878334045,0.005239427089691162,XArbitraryZVertical,-0.1357066926839303,-0.07035440936059653,0.3240276874800916,-0.9336166673213123,0.2193135470151901,-0.2078025043010712,-0.9532678723335266,0,0,0,-1,-1,2981.294715791667,unknown,2,2022-06-30T09:16:26.875+02:00,2022-06-30T08:20:05.567+02:00,873,1.488614,0,0,680.226,0,0,2022-06-30T09:16:26.875+02:00
2022-06-30T09:16:28.986+02:00,2983.404915875,0.2122344970703125,-0.1757965087890625,-0.9564666748046875,2983.394963875,-0.6941415037288392,0.2284486896948108,0.2039234273993033,-0.485615998506546,0.1943744719028473,-0.3300996124744415,-0.01987013220787048,0.01981911063194275,-0.00601726770401001,XArbitraryZVertical,-0.1336592832364675,-0.07222737159466133,0.3252637110136118,-0.9333392029039885,0.2217743098735809,-0.2025130093097687,-0.9538367986679077,0,0,0,-1,-1,2981.294715791667,unknown,2,2022-06-30T09:16:26.875+02:00,2022-06-30T08:20:05.567+02:00,873,1.488614,0,0,680.226,0,0,2022-06-30T09:16:26.875+02:00
2022-06-30T09:16:28.996+02:00,2983.414867875,0.2223358154296875,-0.1761322021484375,-0.9241790771484375,2983.404915875,-0.6962973279977436,0.2307633690357468,0.198501605651556,-0.4802087843418121,0.1910998970270157,-0.3313941657543182,-0.01463475823402405,0.03295454382896423,-0.006393790245056152,XArbitraryZVertical,-0.1316067484106657,-0.07410651087848864,0.326498750115337,-0.9330522614488134,0.2242293655872345,-0.1972005814313889,-0.9543758034706116,0,0,0,-1,-1,2981.294715791667,unknown,2,2022-06-30T09:16:26.875+02:00,2022-06-30T08:20:05.567+02:00,873,1.488614,0,0,680.226,0,0,2022-06-30T09:16:26.875+02:00
2022-06-30T09:16:29.006+02:00,2983.424819875,0.2154541015625,-0.144805908203125,-0.92449951171875,2983.414867875,-0.6983206050109476,0.2328621459220188,0.19321541978684,-0.4660280048847198,0.1604844629764557,-0.305229663848877,-0.01423491537570953,0.01621852815151215,-0.001562595367431641,XArbitraryZVertical,-0.1295804879807362,-0.07587408995729304,0.3276790736389699,-0.9327799882285362,0.2264692932367325,-0.1920154690742493,-0.9549040198326111,0,0,0,-1,-1,2981.294715791667,unknown,2,2022-06-30T09:16:26.875+02:00,2022-06-30T08:20:05.567+02:00,873,1.488614,0,0,680.226,0,0,2022-06-30T09:16:26.875+02:00
2022-06-30T09:16:29.016+02:00,2983.434770875,0.21051025390625,-0.11029052734375,-0.9354248046875,2983.424819875,-0.7002573795370122,0.2346981218611167,0.1882186594024939,-0.4152311086654663,0.1476166993379593,-0.3014781773090363,-0.006106674671173096,0.01097667217254639,0.03122884035110474,XArbitraryZVertical,-0.1276449740139225,-0.07747791846709874,0.3288176149704152,-0.9325142756899938,0.2284423559904099,-0.1871093064546585,-0.9554078578948975,0,0,0,-1,-1,2981.294715791667,unknown,2,2022-06-30T09:16:26.875+02:00,2022-06-30T08:20:05.567+02:00,873,1.488614,0,0,680.226,0,0,2022-06-30T09:16:26.875+02:00
2022-06-30T09:16:29.026+02:00,2983.444722875,0.2173004150390625,-0.1019287109375,-0.96929931640625,2983.434770875,-0.7023350153088322,0.2366332476014589,0.1839667905796181,-0.3220572471618652,0.1697984337806702,-0.2974168658256531,-0.01502120494842529,0.03812451660633087,0.03122931718826294,XArbitraryZVertical,-0.1260787763007791,-0.07899212397645117,0.3299644955130917,-0.9321951564850307,0.2304751873016357,-0.1829308569431305,-0.9557287693023682,0,0,0,-1,-1,2981.294715791667,unknown,2,2022-06-30T09:16:26.875+02:00,2022-06-30T08:20:05.567+02:00,873,1.488614,0,0,680.226,0,0,2022-06-30T09:16:26.875+02:00
2022-06-30T09:16:29.036+02:00,2983.454674875,0.2280120849609375,-0.12738037109375,-0.9858245849609375,2983.444722875,-0.7044878706733829,0.2387236024297362,0.1806406796047087,-0.2329895347356796,0.1757729649543762,-0.2749837934970856,-0.02210494875907898,0.06936889886856079,0.02040606737136841,XArbitraryZVertical,-0.124972396815997,-0.08041449198370998,0.3310726580795972,-0.931829549484361,0.2326150834560394,-0.1796598583459854,-0.9558308124542236,0,0,0,-1,-1,2981.294715791667,unknown,2,2022-06-30T09:16:26.875+02:00,2022-06-30T08:20:05.567+02:00,873,1.488614,0,0,680.226,0,0,2022-06-30T09:16:26.875+02:00
2022-06-30T09:16:29.046+02:00,2983.464626875,0.239837646484375,-0.146392822265625,-0.9938507080078125,2983.454674875,-0.7065959883600275,0.2407971735478383,0.1781159603870551,-0.1733131557703018,0.1766835004091263,-0.2487878948450089,-0.01740369200706482,0.07524651288986206,-0.0135154128074646,XArbitraryZVertical,-0.1242348959764098,-0.0816930265908518,0.3321053596489104,-0.9314494064842486,0.2347039878368378,-0.1771756559610367,-0.9557839035987854,0,0,0,-1,-1,2981.294715791667,unknown,2,2022-06-30T09:16:26.875+02:00,2022-06-30T08:20:05.567+02:00,873,1.488614,0,0,680.226,0,0,2022-06-30T09:16:26.875+02:00
2022-06-30T09:16:29.056+02:00,2983.474577875,0.249267578125,-0.1635284423828125,-1.000885009765625,2983.464626875,-0.7084176067916133,0.2427558501508675,0.1758758612711448,-0.1873710602521896,0.1657469570636749,-0.211757093667984,-0.008658468723297119,0.04758976399898529,-0.03011929988861084,XArbitraryZVertical,-0.1236007187046143,-0.08288706862091236,0.3329924811153834,-0.9311114782203149,0.2366704195737839,-0.1749705523252487,-0.9557051658630371,0,0,0,-1,-1,2981.294715791667,unknown,2,2022-06-30T09:16:26.875+02:00,2022-06-30T08:20:05.567+02:00,873,1.488614,0,0,680.226,0,0,2022-06-30T09:16:26.875+02:00
2022-06-30T09:16:29.066+02:00,2983.484529875,0.249847412109375,-0.178009033203125,-0.990203857421875,2983.474577875,-0.7097620909672194,0.2445401987813439,0.1733645429856538,-0.243515819311142,0.1534980237483978,-0.1728198081254959,0.001356542110443115,0.02610418200492859,-0.03814595937728882,XArbitraryZVertical,-0.12279446996827,-0.08407837124097851,0.3336886978537609,-0.9308620821210075,0.2384809851646423,-0.172497421503067,-0.9557046890258789,0,0,0,-1,-1,2981.294715791667,unknown,2,2022-06-30T09:16:26.875+02:00,2022-06-30T08:20:05.567+02:00,873,1.488614,0,0,680.226,0,0,2022-06-30T09:16:26.875+02:00
2022-06-30T09:16:29.076+02:00,2983.494481875,0.2429046630859375,-0.184539794921875,-0.961395263671875,2983.484529875,-0.7105890243382331,0.2460631590417565,0.1702890550156008,-0.3172554075717926,0.1311196237802505,-0.1381942629814148,0.009203165769577026,0.005938351154327393,-0.04503452777862549,XArbitraryZVertical,-0.1216636675409621,-0.08528040556830888,0.3342017303079446,-0.9307172510795392,0.2400643080472946,-0.1694672256708145,-0.9558504223823547,0,0,0,-1,-1,2981.294715791667,unknown,2,2022-06-30T09:16:26.875+02:00,2022-06-30T08:20:05.567+02:00,873,1.488614,0,0,680.226,0,0,2022-06-30T09:16:26.875+02:00
2022-06-30T09:16:29.086+02:00,2983.504433875,0.2229461669921875,-0.182342529296875,-0.923431396484375,2983.494481875,-0.7109339182306004,0.2472657360094848,0.1665200764928764,-0.4082819819450378,0.1074379980564117,-0.1200157925486565,0.008479043841362,-0.01225787401199341,-0.0340302586555481,XArbitraryZVertical,-0.120139228906056,-0.08648586955061302,0.3345608441684059,-0.9306749555952188,0.2413682341575623,-0.165751576423645,-0.9561735391616821,0,0,0,-1,-1,2981.294715791667,unknown,2,2022-06-30T09:16:26.875+02:00,2022-06-30T08:20:05.567+02:00,873,1.488614,0,0,680.226,0,0,2022-06-30T09:16:26.875+02:00
2022-06-30T09:16:29.096+02:00,2983.514384875,0.205963134765625,-0.1669464111328125,-0.9181060791015625,2983.504433875,-0.7109260026711615,0.2482068043983892,0.1617922270116214,-0.5142049193382263,0.09265489876270294,-0.1184011474251747,0.0004467964172363281,-0.02345293760299683,-0.004700303077697754,XArbitraryZVertical,-0.1181129484513288,-0.08776036902195111,0.3348409305757324,-0.9307142669133951,0.2424577474594116,-0.1610872894525528,-0.9566949009895325,0,0,0,-1,-1,2981.294715791667,unknown,2,2022-06-30T09:16:26.875+02:00,2022-06-30T08:20:05.567+02:00,873,1.488614,0,0,680.226,0,0,2022-06-30T09:16:26.875+02:00
2022-06-30T09:16:29.106+02:00,2983.524336875,0.208404541015625,-0.1118316650390625,-0.89349365234375,2983.514384875,-0.7107748492003358,0.249058554661555,0.1563408162556491,-0.5386388897895813,0.09446584433317184,-0.1222419589757919,-0.02053931355476379,-0.02663825452327728,0.03389352560043335,XArbitraryZVertical,-0.1157306589302341,-0.08912898285626678,0.3351114239684304,-0.9307861233971502,0.2434853762388229,-0.1557047069072723,-0.9573248624801636,0,0,0,-1,-1,2981.294715791667,unknown,2,2022-06-30T09:16:26.875+02:00,2022-06-30T08:20:05.567+02:00,873,1.488614,0,0,680.226,0,0,2022-06-30T09:16:26.875+02:00
2022-06-30T09:16:29.115+02:00,2983.534288875,0.2218017578125,-0.0457611083984375,-0.90911865234375,2983.524336875,-0.7107132977205489,0.250068608182503,0.1512509378183598,-0.452207624912262,0.1202300265431404,-0.1200068593025208,-0.03868214786052704,-0.0162719190120697,0.03972792625427246,XArbitraryZVertical,-0.1135452886419029,-0.09050140644684977,0.3353884405188702,-0.9308231104811505,0.2446451485157013,-0.1506749093532562,-0.9578339457511902,0,0,0,-1,-1,2981.294715791667,unknown,2,2022-06-30T09:16:26.875+02:00,2022-06-30T08:20:05.567+02:00,873,1.488614,0,0,680.226,0,0,2022-06-30T09:16:26.875+02:00
2022-06-30T09:16:29.125+02:00,2983.544240875,0.2380523681640625,-0.0513916015625,-0.9380035400390625,2983.534288875,-0.7108830764565472,0.2513002246113882,0.1473052345621761,-0.3022298514842987,0.1290632039308548,-0.1087600663304329,-0.03756615519523621,0.03494098782539368,0.06460666656494141,XArbitraryZVertical,-0.1119361051428634,-0.09176147681778976,0.335679397376215,-0.930789762584548,0.2459705770015717,-0.1467730849981308,-0.9581002593040466,0,0,0,-1,-1,2981.294715791667,unknown,2,2022-06-30T09:16:26.875+02:00,2022-06-30T08:20:05.567+02:00,873,1.488614,0,0,680.226,0,0,2022-06-30T09:16:26.875+02:00
2022-06-30T09:16:29.135+02:00,2983.554192875,0.247528076171875,-0.09173583984375,-0.9635772705078125,2983.544240875,-0.7113882828183531,0.2525399228026508,0.1450071373526789,-0.124575711786747,0.1134193390607834,-0.1067063733935356,-0.02544012665748596,0.09873795509338379,0.049000084400177,XArbitraryZVertical,-0.1111054690783096,-0.09271588315715534,0.3360093274217451,-0.930675586705863,0.2472417652606964,-0.1444994956254959,-0.9581186771392822,0,0,0,-1,-1,2981.294715791667,unknown,2,2022-06-30T09:16:26.875+02:00,2022-06-30T08:20:05.567+02:00,873,1.488614,0,0,680.226,0,0,2022-06-30T09:16:26.875+02:00
2022-06-30T09:16:29.151+02:00,2983.564143875,0.2487030029296875,-0.134246826171875,-0.9734649658203125,2983.554192875,-0.7122224714111933,0.2536511763988142,0.1441060105877259,-0.026819858700037,0.09401314705610275,-0.09676665067672729,-0.01028664410114288,0.09221571683883667,0.01996546983718872,XArbitraryZVertical,-0.1109146487428133,-0.09334581928212508,0.3364001963649929,-0.9304941705042915,0.248338907957077,-0.1436077654361725,-0.9579690098762512,0,0,0,-1,-1,2981.294715791667,unknown,2,2022-06-30T09:16:26.875+02:00,2022-06-30T08:20:05.567+02:00,873,1.488614,0,0,680.226,0,0,2022-06-30T09:16:26.875+02:00
2022-06-30T09:16:29.168+02:00,2983.574095875,0.2416839599609375,-0.1738128662109375,-0.9678955078125,2983.564143875,-0.712919637813723,0.2545055993993452,0.1435761530652165,-0.06141358613967896,0.07048744708299637,-0.06575238704681396,-0.001648470759391785,0.05134710669517517,-0.00574725866317749,XArbitraryZVertical,-0.1108462235569378,-0.09379833727407304,0.336715102232639,-0.9303429814682422,0.2491764426231384,-0.1430833786725998,-0.9578299522399902,0,0,0,-1,-1,2981.294715791667,unknown,2,2022-06-30T09:16:26.875+02:00,2022-06-30T08:20:05.567+02:00,873,1.488614,0,0,680.226,0,0,2022-06-30T09:16:26.875+02:00
2022-06-30T09:16:29.170+02:00,2983.584047875,0.2317962646484375,-0.2090606689453125,-0.9556121826171875,2983.574095875,-0.7131719664230984,0.2551530297427217,0.1423636780582918,-0.1725723296403885,0.06387855112552643,-0.05198410525918007,-0.001137226819992065,0.007636010646820068,-0.01562929153442383,XArbitraryZVertical,-0.1104069655519103,-0.0943000291917562,0.3368836581933078,-0.9302834791861692,0.2498401254415512,-0.1418832689523697,-0.9578356146812439,0,0,0,-1,-1,2981.294715791667,unknown,2,2022-06-30T09:16:26.875+02:00,2022-06-30T08:20:05.567+02:00,873,1.488614,0,0,680.226,0,0,2022-06-30T09:16:26.875+02:00
2022-06-30T09:16:29.175+02:00,2983.593999875,0.2217864990234375,-0.222412109375,-0.939056396484375,2983.584047875,-0.7130897299998773,0.255685350720548,0.1398361425822348,-0.331332266330719,0.05919528380036354,-0.06654021143913269,-0.008756011724472046,-0.03443244099617004,-0.009849071502685547,XArbitraryZVertical,-0.1093250105489606,-0.09499923371594755,0.3369974749248423,-0.9302988459741408,0.25043985247612,-0.1393808573484421,-0.9580463767051697,0,0,0,-1,-1,2981.294715791667,unknown,2,2022-06-30T09:16:26.875+02:00,2022-06-30T08:20:05.567+02:00,873,1.488614,0,0,680.226,0,0,2022-06-30T09:16:26.875+02:00
2022-06-30T09:16:29.185+02:00,2983.603950875,0.2081451416015625,-0.2244110107421875,-0.924957275390625,2983.593999875,-0.7127472765413903,0.2561538148361295,0.1353865381221797,-0.5590996742248535,0.05194695666432381,-0.09640995413064957,-0.0192471444606781,-0.07408776879310608,0.002907276153564453,XArbitraryZVertical,-0.1073314127662798,-0.09602218335679107,0.3371311763118558,-0.9303775110650323,0.251043289899826,-0.1349733173847198,-0.9585193991661072,0,0,0,-1,-1,2981.294715791667,unknown,2,2022-06-30T09:16:26.875+02:00,2022-06-30T08:20:05.567+02:00,873,1.488614,0,0,680.226,0,0,2022-06-30T09:16:26.875+02:00
2022-06-30T09:16:29.195+02:00,2983.613902875,0.1967620849609375,-0.1826324462890625,-0.9145965576171875,2983.603950875,-0.7120447558329309,0.25652557212069,0.1287385475306129,-0.7585655450820923,0.0579497218132019,-0.1065185889601707,-0.02983534336090088,-0.09402929246425629,0.02021646499633789,XArbitraryZVertical,-0.1042868276970779,-0.09740568312243621,0.3372578523493167,-0.9305340803338821,0.2516217231750488,-0.1283832341432571,-0.9592728018760681,0,0,0,-1,-1,2981.294715791667,unknown,2,2022-06-30T09:16:26.875+02:00,2022-06-30T08:20:05.567+02:00,873,1.488614,0,0,680.226,0,0,2022-06-30T09:16:26.875+02:00
2022-06-30T09:16:29.205+02:00,2983.623854875,0.201751708984375,-0.081634521484375,-0.9077911376953125,2983.613902875,-0.7110032735913242,0.2570459868730839,0.1207295463740701,-0.833312451839447,0.0837823823094368,-0.1053920686244965,-0.0442291796207428,-0.103974960744381,0.03514814376831055,XArbitraryZVertical,-0.1006189595430431,-0.09911176644129024,0.3373125010033611,-0.9307378638796063,0.2523742020130157,-0.1204364746809006,-0.9601053595542908,0,0,0,-1,-1,2981.294715791667,unknown,2,2022-06-30T09:16:26.875+02:00,2022-06-30T08:20:05.567+02:00,873,1.488614,0,0,680.226,0,0,2022-06-30T09:16:26.875+02:00
2022-06-30T09:16:29.215+02:00,2983.633806875,0.2134246826171875,0.0111236572265625,-0.9228668212890625,2983.623854875,-0.7099817266866085,0.25788047703996,0.1128394540168566,-0.7451249957084656,0.1218577772378922,-0.1062337979674339,-0.05664783716201782,-0.07003272324800491,0.04618686437606812,XArbitraryZVertical,-0.09705704318469718,-0.1009368397617101,0.3373492646966855,-0.9309066017042293,0.2534097731113434,-0.1126001477241516,-0.9607833623886108,0,0,0,-1,-1,2981.294715791667,unknown,2,2022-06-30T09:16:26.875+02:00,2022-06-30T08:20:05.567+02:00,873,1.488614,0,0,680.226,0,0,2022-06-30T09:16:26.875+02:00
2022-06-30T09:16:29.225+02:00,2983.643757875,0.240509033203125,0.0288238525390625,-0.9624176025390625,2983.633806875,-0.7094499128655732,0.2591347116466818,0.1063401253224797,-0.5342753529548645,0.1523040980100632,-0.1243259832262993,-0.05304518342018127,0.02450487017631531,0.05336076021194458,XArbitraryZVertical,-0.09423230196017812,-0.1026856044675764,0.3374952414149833,-0.9309526620513654,0.2547967731952667,-0.1061398163437843,-0.9611518979072571,0,0,0,-1,-1,2981.294715791667,unknown,2,2022-06-30T09:16:26.875+02:00,2022-06-30T08:20:05.567+02:00,873,1.488614,0,0,680.226,0,0,2022-06-30T09:16:26.875+02:00
2022-06-30T09:16:29.235+02:00,2983.653709875,0.2604522705078125,-0.0285491943359375,-0.9970855712890625,2983.643757875,-0.7096526754971788,0.2605907476046977,0.1021221397107937,-0.2823997735977173,0.1438018977642059,-0.1352702081203461,-0.0428844690322876,0.1130679622292519,0.0383371114730835,XArbitraryZVertical,-0.09253520896872498,-0.1040926538737616,0.3378153380206096,-0.9308506467020086,0.2563090622425079,-0.1019447296857834,-0.961203932762146,0,0,0,-1,-1,2981.294715791667,unknown,2,2022-06-30T09:16:26.875+02:00,2022-06-30T08:20:05.567+02:00,873,1.488614,0,0,680.226,0,0,2022-06-30T09:16:26.875+02:00
2022-06-30T09:16:29.246+02:00,2983.663661875,0.2682342529296875,-0.106719970703125,-1.007354736328125,2983.653709875,-0.7105378663285249,0.2618939036320477,0.09999594073684591,-0.1029740795493126,0.1123004332184792,-0.1444133669137955,-0.01710808277130127,0.128652811050415,-0.001341283321380615,XArbitraryZVertical,-0.09181715701279242,-0.105030821539248,0.3383153992543978,-0.9306347085250385,0.2576169669628143,-0.09982937574386597,-0.9610762596130371,0,0,0,-1,-1,2981.294715791667,unknown,2,2022-06-30T09:16:26.875+02:00,2022-06-30T08:20:05.567+02:00,873,1.488614,0,0,680.226,0,0,2022-06-30T09:16:26.875+02:00
2022-06-30T09:16:29.255+02:00,2983.673613875,0.2573394775390625,-0.138763427734375,-0.993133544921875,2983.663661875,-0.7116901903336813,0.2629519096421795,0.09890415327148847,-0.07892639935016632,0.08968830853700638,-0.1366516500711441,0.001790344715118408,0.07019336521625519,-0.03617769479751587,XArbitraryZVertical,-0.09155148826329167,-0.1056617338185334,0.3388792637393038,-0.9303842527140292,0.2586618363857269,-0.09874298423528671,-0.9609078168869019,0,0,0,-1,-1,2981.294715791667,unknown,2,2022-06-30T09:16:26.875+02:00,2022-06-30T08:20:05.567+02:00,873,1.488614,0,0,680.226,0,0,2022-06-30T09:16:26.875+02:00
2022-06-30T09:16:29.265+02:00,2983.683565875,0.2400970458984375,-0.14434814453125,-0.98223876953125,2983.673613875,-0.7125447932232786,0.2638384291476393,0.0972439075472385,-0.2129654288291931,0.08783954381942749,-0.118508867919445,0.008678138256072998,-0.009629674255847931,-0.04651957750320435,XArbitraryZVertical,-0.09097857587619733,-0.1063266218924043,0.339352445688575,-0.9301921590374818,0.259555995464325,-0.09709072113037109,-0.9608350992202759,0,0,0,-1,-1,2981.294715791667,unknown,2,2022-06-30T09:16:26.875+02:00,2022-06-30T08:20:05.567+02:00,873,1.488614,0,0,680.226,0,0,2022-06-30T09:16:26.875+02:00
2022-06-30T09:16:29.275+02:00,2983.693516875,0.2354583740234375,-0.097076416015625,-0.9498138427734375,2983.683565875,-0.7128951111857625,0.264742175266628,0.09418293200045195,-0.3573319315910339,0.09757573902606964,-0.1121626943349838,-0.003161400556564331,-0.04472010582685471,-0.03225106000900269,XArbitraryZVertical,-0.08973387255127463,-0.1072688137642278,0.3396886347192832,-0.9300821549025277,0.2605007588863373,-0.09404375404119492,-0.9608824849128723,0,0,0,-1,-1,2981.294715791667,unknown,2,2022-06-30T09:16:26.875+02:00,2022-06-30T08:20:05.567+02:00,873,1.488614,0,0,680.226,0,0,2022-06-30T09:16:26.875+02:00
2022-06-30T09:16:29.285+02:00,2983.703468875,0.230316162109375,-0.025390625,-0.9224700927734375,2983.693516875,-0.7128837131980262,0.2656890714785547,0.09012820554310209,-0.426365852355957,0.1092145517468452,-0.09692568331956863,-0.02141153812408447,-0.05434233695268631,-0.02124333381652832,XArbitraryZVertical,-0.08801718870569016,-0.1084217034616909,0.3399244848550322,-0.9300264012073938,0.2615084946155548,-0.09000623226165771,-0.9609954357147217,0,0,0,-1,-1,2981.294715791667,unknown,2,2022-06-30T09:16:26.875+02:00,2022-06-30T08:20:05.567+02:00,873,1.488614,0,0,680.226,0,0,2022-06-30T09:16:26.875+02:00
2022-06-30T09:16:29.295+02:00,2983.713420875,0.2454986572265625,0.0005035400390625,-0.9542694091796875,2983.703468875,-0.712656823128109,0.2668367157922068,0.08584998310634401,-0.4000886678695679,0.1401741504669189,-0.09135624021291733,-0.02725207805633545,-0.01133226603269577,0.01124352216720581,XArbitraryZVertical,-0.08621922580569374,-0.1097159388555676,0.3400673537766266,-0.9299908628958302,0.2627103328704834,-0.08574456721544266,-0.9610573053359985,0,0,0,-1,-1,2981.294715791667,unknown,2,2022-06-30T09:16:26.875+02:00,2022-06-30T08:20:05.567+02:00,873,1.488614,0,0,680.226,0,0,2022-06-30T09:16:26.875+02:00
2022-06-30T09:16:29.305+02:00,2983.723372875,0.2769317626953125,-0.014495849609375,-0.98760986328125,2983.713420875,-0.712639238055088,0.2682828168092518,0.08227289423689335,-0.2924178540706635,0.1585808545351028,-0.09626577794551849,-0.03386339545249939,0.05678905546665192,0.03849589824676514,XArbitraryZVertical,-0.084807963567015,-0.1110162671125874,0.3402467249575249,-0.9299006037920088,0.2641794383525848,-0.08218011260032654,-0.9609659910202026,0,0,0,-1,-1,2981.294715791667,unknown,2,2022-06-30T09:16:26.875+02:00,2022-06-30T08:20:05.567+02:00,873,1.488614,0,0,680.226,0,0,2022-06-30T09:16:26.875+02:00
2022-06-30T09:16:29.314+02:00,2983.733323875,0.2963409423828125,-0.050262451171875,-0.99810791015625,2983.723372875,-0.7128699915144282,0.2697301740978494,0.07983615181127497,-0.1750057935714722,0.1356635987758636,-0.07606486976146698,-0.02012404799461365,0.08025447279214859,0.006503403186798096,XArbitraryZVertical,-0.08393886637313941,-0.1121065163078146,0.3404629872325085,-0.9297695712854477,0.265622615814209,-0.07975137233734131,-0.9607728123664856,0,0,0,-1,-1,2981.294715791667,unknown,2,2022-06-30T09:16:26.875+02:00,2022-06-30T08:20:05.567+02:00,873,1.488614,0,0,680.226,0,0,2022-06-30T09:16:26.875+02:00
2022-06-30T09:16:29.324+02:00,2983.743275875,0.2912445068359375,-0.07525634765625,-0.999908447265625,2983.733323875,-0.7130777565697359,0.2708618572806818,0.0784012616939488,-0.1097791269421577,0.1010041460394859,-0.04145736247301102,0.01019158959388733,0.06382469087839127,-0.02702903747558594,XArbitraryZVertical,-0.08347888542135665,-0.1128753732486755,0.3406125245591293,-0.9296632217191798,0.266740083694458,-0.07832096517086029,-0.9605808258056641,0,0,0,-1,-1,2981.294715791667,unknown,2,2022-06-30T09:16:26.875+02:00,2022-06-30T08:20:05.567+02:00,873,1.488614,0,0,680.226,0,0,2022-06-30T09:16:26.875+02:00
2022-06-30T09:16:29.335+02:00,2983.753227875,0.27191162109375,-0.0946044921875,-0.9973602294921875,2983.743275875,-0.7129706923567024,0.2716272549559333,0.07721805789047559,-0.1393290311098099,0.0707366019487381,-0.006754641886800528,0.02884095907211304,0.0268784686923027,-0.03764289617538452,XArbitraryZVertical,-0.08305538455840071,-0.1134429490386179,0.340613773066628,-0.9296315120771014,0.2674998939037323,-0.07714134454727173,-0.9604650139808655,0,0,0,-1,-1,2981.294715791667,unknown,2,2022-06-30T09:16:26.875+02:00,2022-06-30T08:20:05.567+02:00,873,1.488614,0,0,680.226,0,0,2022-06-30T09:16:26.875+02:00
2022-06-30T09:16:29.344+02:00,2983.763179875,0.250885009765625,-0.1027984619140625,-0.993377685546875,2983.753227875,-0.712409943596013,0.2721759960748954,0.07556367787608924,-0.2185767143964767,0.0627838671207428,0.0244032759219408,0.02318355441093445,0.0002350062131881714,-0.03946876525878906,XArbitraryZVertical,-0.08235089995880351,-0.1140109107428741,0.3404463193738411,-0.929686127003839,0.2680608332157135,-0.07549178600311279,-0.9604396820068359,0,0,0,-1,-1,2981.294715791667,unknown,2,2022-06-30T09:16:26.875+02:00,2022-06-30T08:20:05.567+02:00,873,1.488614,0,0,680.226,0,0,2022-06-30T09:16:26.875+02:00
2022-06-30T09:16:29.354+02:00,2983.773130875,0.243743896484375,-0.0697784423828125,-0.993499755859375,2983.763179875,-0.7113452325198866,0.2726551395809472,0.07319128965077316,-0.291107565164566,0.067953921854496,0.05117986351251602,0.003343045711517334,-0.02147896587848663,-0.03687930107116699,XArbitraryZVertical,-0.08127284717181855,-0.1146920620363432,0.3400978548897829,-0.9298247431908991,0.2685684859752655,-0.07312595844268799,-0.9604809284210205,0,0,0,-1,-1,2981.294715791667,unknown,2,2022-06-30T09:16:26.875+02:00,2022-06-30T08:20:05.567+02:00,873,1.488614,0,0,680.226,0,0,2022-06-30T09:16:26.875+02:00
2022-06-30T09:16:29.364+02:00,2983.783082875,0.2468414306640625,0.0203399658203125,-0.9437255859375,2983.773130875,-0.7100129408711567,0.2731729550938979,0.0707048651004078,-0.2618564665317535,0.06816617399454117,0.07123798877000809,-0.01822909712791443,-0.03215292096138,-0.03286385536193848,XArbitraryZVertical,-0.08013235581843597,-0.115420515888769,0.3396313773092465,-0.9300040216591636,0.2691140174865723,-0.07064596563577652,-0.9605138301849365,0,0,0,-1,-1,2981.294715791667,unknown,2,2022-06-30T09:16:26.875+02:00,2022-06-30T08:20:05.567+02:00,873,1.488614,0,0,680.226,0,0,2022-06-30T09:16:26.875+02:00
2022-06-30T09:16:29.374+02:00,2983.793034875,0.254241943359375,0.0619049072265625,-0.9465179443359375,2983.783082875,-0.708603425840741,0.2737205278705407,0.06882676732672036,-0.1709697097539902,0.07312151789665222,0.09766799956560135,-0.02593153715133667,-0.001006431877613068,-0.03300738334655762,XArbitraryZVertical,-0.0792733829689241,-0.1160583795414031,0.3390852693174581,-0.9301975536132264,0.2696753144264221,-0.06877244263887405,-0.9604923725128174,0,0,0,-1,-1,2981.294715791667,unknown,2,2022-06-30T09:16:26.875+02:00,2022-06-30T08:20:05.567+02:00,873,1.488614,0,0,680.226,0,0,2022-06-30T09:16:26.875+02:00
2022-06-30T09:16:29.384+02:00,2983.802986875,0.269134521484375,0.0302276611328125,-0.967742919921875,2983.793034875,-0.7074049149771097,0.2743452133618333,0.06825595311769544,-0.002040076535195112,0.07553514093160629,0.09649567306041718,-0.0234445333480835,0.08854249864816666,0.01663577556610107,XArbitraryZVertical,-0.07904494744876039,-0.1164955876538314,0.3385429727851834,-0.930359852233167,0.2702858448028564,-0.06820296496152878,-0.9603613615036011,0,0,0,-1,-1,2981.294715791667,unknown,2,2022-06-30T09:16:26.875+02:00,2022-06-30T08:20:05.567+02:00,873,1.488614,0,0,680.226,0,0,2022-06-30T09:16:26.875+02:00
2022-06-30T09:16:29.394+02:00,2983.812938875,0.2843017578125,-0.036712646484375,-0.98663330078125,2983.802986875,-0.7067134898685269,0.2749017634866773,0.06935098270529803,0.1630367636680603,0.05294967070221901,0.09683070331811905,-0.01655802130699158,0.1311998963356018,0.01362037658691406,XArbitraryZVertical,-0.07960644031017111,-0.1165918446448217,0.3381225308575316,-0.9304527586009457,0.2707998752593994,-0.06929540634155273,-0.9601383209228516,0,0,0,-1,-1,2981.294715791667,unknown,2,2022-06-30T09:16:26.875+02:00,2022-06-30T08:20:05.567+02:00,873,1.488614,0,0,680.226,0,0,2022-06-30T09:16:26.875+02:00
2022-06-30T09:16:29.404+02:00,2983.822889875,0.27996826171875,-0.1014556884765625,-0.9781341552734375,2983.812938875,-0.7062215957505619,0.275172867695032,0.07110617231934631,0.2150208652019501,0.01036332920193672,0.1187064424157143,-0.001892268657684326,0.1012734994292259,-0.007796585559844971,XArbitraryZVertical,-0.0804372608805636,-0.1164331528732135,0.3377594571169502,-0.9305330825256708,0.2710267007350922,-0.07104627043008804,-0.95994633436203,0,0,0,-1,-1,2981.294715791667,unknown,2,2022-06-30T09:16:26.875+02:00,2022-06-30T08:20:05.567+02:00,873,1.488614,0,0,680.226,0,0,2022-06-30T09:16:26.875+02:00
2022-06-30T09:16:29.414+02:00,2983.832841875,0.262786865234375,-0.1448211669921875,-0.961578369140625,2983.822889875,-0.7054570648187354,0.2751830034932737,0.07296323710541298,0.1160423532128334,-0.01624937169253826,0.1416266709566116,0.0133015513420105,0.03618543595075607,-0.02681833505630493,XArbitraryZVertical,-0.08125544728125564,-0.1161467742939798,0.3372724416791144,-0.9306743944757677,0.2710001170635223,-0.07289851456880569,-0.9598149657249451,0,0,0,-1,-1,2981.294715791667,unknown,2,2022-06-30T09:16:26.875+02:00,2022-06-30T08:20:05.567+02:00,873,1.488614,0,0,680.226,0,0,2022-06-30T09:16:26.875+02:00
2022-06-30T09:16:29.424+02:00,2983.842793416667,0.2442169189453125,-0.17071533203125,-0.9572296142578125,2983.832841875,-0.7040677568614048,0.274814475231989,0.07354700971979049,-0.08961307257413864,-0.02368837967514992,0.1539030373096466,0.009333372116088867,-0.02797538787126541,-0.01826047897338867,XArbitraryZVertical,-0.08138342638501406,-0.1159306497146019,0.3365996505718407,-0.9309337424514562,0.2706347703933716,-0.07348072528839111,-0.9598736166954041,0,0,0,-1,-1,2981.294715791667,unknown,2,2022-06-30T09:16:26.875+02:00,2022-06-30T08:20:05.567+02:00,873,1.488614,0,0,680.226,0,0,2022-06-30T09:16:26.875+02:00
2022-06-30T09:16:29.434+02:00,2983.852745416667,0.2323760986328125,-0.1702423095703125,-0.9777679443359375,2983.842793416667,-0.7020073572707695,0.2743595459158384,0.07214789799362788,-0.3154782950878143,-0.02182484418153763,0.1549863517284393,-0.007438898086547852,-0.07273627817630768,-0.001483678817749023,XArbitraryZVertical,-0.08053850457985257,-0.1160439835406191,0.3357573544767196,-0.9312971774076075,0.2702256739139557,-0.07208532094955444,-0.960094690322876,0,0,0,-1,-1,2983.843994416667,unknown,2,2022-06-30T09:16:29.424+02:00,2022-06-30T08:20:05.567+02:00,873,1.488614,0,0,680.226,0,0,2022-06-30T09:16:29.423+02:00
2022-06-30T09:16:29.444+02:00,2983.862696416667,0.2258453369140625,-0.1370086669921875,-0.9793548583984375,2983.852745416667,-0.6993527007878544,0.2737313915103412,0.06886542545668575,-0.4949082136154175,-0.03031739965081215,0.1682534217834473,-0.02546820044517517,-0.1019047498703003,0.003257274627685547,XArbitraryZVertical,-0.07875549937865245,-0.1164222278859705,0.3347760402527519,-0.931755576744123,0.2696850299835205,-0.06881100684404373,-0.960486888885498,0,0,0,-1,-1,2983.843994416667,unknown,2,2022-06-30T09:16:29.424+02:00,2022-06-30T08:20:05.567+02:00,873,1.488614,0,0,680.226,0,0,2022-06-30T09:16:29.423+02:00
2022-06-30T09:16:29.454+02:00,2983.872648416667,0.2210540771484375,-0.0822906494140625,-0.9454498291015625,2983.862696416667,-0.6960815882420881,0.2730385482268676,0.06398982324087432,-0.623350977897644,-0.02740605548024178,0.1977794319391251,-0.03673076629638672,-0.1062965765595436,-0.01678282022476196,XArbitraryZVertical,-0.07618422666244773,-0.1170615007938732,0.3336179180768953,-0.932304473902335,0.2691067755222321,-0.06394616514444351,-0.9609851241111755,0,0,0,-1,-1,2983.843994416667,unknown,2,2022-06-30T09:16:29.424+02:00,2022-06-30T08:20:05.567+02:00,873,1.488614,0,0,680.226,0,0,2022-06-30T09:16:29.423+02:00
2022-06-30T09:16:29.464+02:00,2983.882600416667,0.21142578125,-0.042205810546875,-0.9243316650390625,2983.872648416667,-0.6922215180155703,0.2725209684821213,0.05819644181126196,-0.6964641213417053,-0.01778645254671574,0.2264685928821564,-0.04285934567451477,-0.07884548604488373,-0.01788985729217529,XArbitraryZVertical,-0.07317795465299795,-0.1179512985863845,0.3322372693201884,-0.9329259920507201,0.2687045633792877,-0.0581635981798172,-0.9614649415016174,0,0,0,-1,-1,2983.843994416667,unknown,2,2022-06-30T09:16:29.424+02:00,2022-06-30T08:20:05.567+02:00,873,1.488614,0,0,680.226,0,0,2022-06-30T09:16:29.423+02:00
2022-06-30T09:16:29.474+02:00,2983.892552416667,0.2056121826171875,-0.0259246826171875,-0.9262847900390625,2983.882600416667,-0.688188960460548,0.2721930148206171,0.05213035184467044,-0.6895937919616699,0.009795846417546272,0.2170905619859695,-0.04742518067359924,-0.03018433228135109,0.01642537117004395,XArbitraryZVertical,-0.07006186656483158,-0.1189695331003499,0.3307827113168371,-0.9335525840811429,0.2684791386127472,-0.05210674554109573,-0.9618751406669617,0,0,0,-1,-1,2983.843994416667,unknown,2,2022-06-30T09:16:29.424+02:00,2022-06-30T08:20:05.567+02:00,873,1.488614,0,0,680.226,0,0,2022-06-30T09:16:29.423+02:00
2022-06-30T09:16:29.484+02:00,2983.902503416667,0.2298736572265625,-0.0536956787109375,-0.9215545654296875,2983.892552416667,-0.684465878870299,0.2721407784074146,0.04619214092686685,-0.6671201586723328,0.02456760220229626,0.1830106228590012,-0.0570816695690155,0.003969475626945496,0.03783857822418213,XArbitraryZVertical,-0.0670647652618484,-0.1200715672334427,0.3294496496683031,-0.9341029295218795,0.268507331609726,-0.04617571458220482,-0.9621702432632446,0,0,0,-1,-1,2983.843994416667,unknown,2,2022-06-30T09:16:29.424+02:00,2022-06-30T08:20:05.567+02:00,873,1.488614,0,0,680.226,0,0,2022-06-30T09:16:29.423+02:00
2022-06-30T09:16:29.494+02:00,2983.912455416667,0.2373046875,-0.092529296875,-0.9038848876953125,2983.902503416667,-0.6808957282229048,0.271983567897761,0.04013696878770242,-0.7145512104034424,-0.01934786327183247,0.1819621175527573,-0.06281417608261108,0.0142010897397995,0.03617936372756958,XArbitraryZVertical,-0.06400071583805737,-0.121127347473733,0.3281953823158241,-0.9346228686502217,0.2684262692928314,-0.04012619331479073,-0.9624641537666321,0,0,0,-1,-1,2983.843994416667,unknown,2,2022-06-30T09:16:29.424+02:00,2022-06-30T08:20:05.567+02:00,873,1.488614,0,0,680.226,0,0,2022-06-30T09:16:29.423+02:00
2022-06-30T09:16:29.504+02:00,2983.922407416667,0.224151611328125,-0.1286163330078125,-0.8935394287109375,2983.912455416667,-0.6771355941452692,0.2713377041650203,0.03307401049751101,-0.8769238591194153,-0.06565704196691513,0.1570389270782471,-0.03800031542778015,-0.02062811702489853,0.04133176803588867,XArbitraryZVertical,-0.06037051605193604,-0.1221156378079254,0.3269299428684229,-0.9351791677975245,0.2678738534450531,-0.0330679826438427,-0.9628863334655762,0,0,0,-1,-1,2983.843994416667,unknown,2,2022-06-30T09:16:29.424+02:00,2022-06-30T08:20:05.567+02:00,873,1.488614,0,0,680.226,0,0,2022-06-30T09:16:29.423+02:00
2022-06-30T09:16:29.513+02:00,2983.932359416667,0.2134552001953125,-0.1473541259765625,-0.88525390625,2983.922407416667,-0.6731308811862606,0.2705333594186557,0.0238144803034101,-1.149364352226257,-0.05648915469646454,0.1215971037745476,-0.0298650860786438,-0.06871749460697174,0.05947035551071167,XArbitraryZVertical,-0.05566842562177649,-0.1233831274999029,0.325691683395809,-0.9357364180636843,0.2671696543693542,-0.02381222881376743,-0.9633552432060242,0,0,0,-1,-1,2983.843994416667,unknown,2,2022-06-30T09:16:29.424+02:00,2022-06-30T08:20:05.567+02:00,873,1.488614,0,0,680.226,0,0,2022-06-30T09:16:29.423+02:00
2022-06-30T09:16:29.523+02:00,2983.942311416667,0.207733154296875,-0.1393585205078125,-0.897125244140625,2983.932359416667,-0.6686364945013894,0.2699148078537678,0.01148774248857847,-1.48217236995697,-0.03896182775497437,0.0810834988951683,-0.0424802303314209,-0.1171292662620544,0.07019054889678955,XArbitraryZVertical,-0.04952438944669307,-0.1252290840721952,0.3244062161458811,-0.9362828849320257,0.2666317224502563,-0.01148748956620693,-0.9637300372123718,0,0,0,-1,-1,2983.843994416667,unknown,2,2022-06-30T09:16:29.424+02:00,2022-06-30T08:20:05.567+02:00,873,1.488614,0,0,680.226,0,0,2022-06-30T09:16:29.423+02:00
2022-06-30T09:16:29.533+02:00,2983.952262416667,0.2010955810546875,-0.127593994140625,-0.8982391357421875,2983.942311416667,-0.6637014711166389,0.2694832836239805,-0.004143156470436965,-1.817908525466919,-0.0299198254942894,0.03845491632819176,-0.052776038646698,-0.1514976918697357,0.07864636182785034,XArbitraryZVertical,-0.04182431881440354,-0.1276736654063869,0.3231027732264153,-0.9367789879883471,0.2662311196327209,0.004143144469708204,-0.9639003276824951,0,0,0,-1,-1,2983.843994416667,unknown,2,2022-06-30T09:16:29.424+02:00,2022-06-30T08:20:05.567+02:00,873,1.488614,0,0,680.226,0,0,2022-06-30T09:16:29.423+02:00
2022-06-30T09:16:29.543+02:00,2983.962214416667,0.1913604736328125,-0.1162872314453125,-0.8944244384765625,2983.952262416667,-0.6584157184198119,0.2692661393091933,-0.02311820372140425,-2.13848876953125,-0.006889341399073601,-0.03492555767297745,-0.05821996927261353,-0.1624750792980194,0.06658351421356201,XArbitraryZVertical,-0.03255258203107463,-0.130713155252185,0.3218146980449545,-0.9371711989000734,0.265953004360199,0.02311614528298378,-0.9637088179588318,0,0,0,-1,-1,2983.843994416667,unknown,2,2022-06-30T09:16:29.424+02:00,2022-06-30T08:20:05.567+02:00,873,1.488614,0,0,680.226,0,0,2022-06-30T09:16:29.423+02:00
2022-06-30T09:16:29.553+02:00,2983.972166416667,0.1935272216796875,-0.103515625,-0.875885009765625,2983.962214416667,-0.6531463407802005,0.2695078749312224,-0.04524213002784411,-2.439553499221802,0.03399829193949699,-0.1251979321241379,-0.06488922238349915,-0.1728211045265198,0.06467658281326294,XArbitraryZVertical,-0.02185778288450502,-0.1344037607522678,0.3206878316792324,-0.9373458368966732,0.2659846544265747,0.04522669687867165,-0.9629157185554504,0,0,0,-1,-1,2983.843994416667,unknown,2,2022-06-30T09:16:29.424+02:00,2022-06-30T08:20:05.567+02:00,873,1.488614,0,0,680.226,0,0,2022-06-30T09:16:29.423+02:00
2022-06-30T09:16:29.564+02:00,2983.982118416667,0.2086334228515625,-0.1089019775390625,-0.8688507080078125,2983.972166416667,-0.6478880951102842,0.2702278456593963,-0.07060148243847114,-2.749456882476807,0.06127411872148514,-0.2198362946510315,-0.07492560148239136,-0.1868304908275604,0.06688475608825684,XArbitraryZVertical,-0.00969760616306258,-0.1387491518669665,0.319717221513477,-0.9372489602779447,0.2662859857082367,0.0705428421497345,-0.9613092541694641,0,0,0,-1,-1,2983.843994416667,unknown,2,2022-06-30T09:16:29.424+02:00,2022-06-30T08:20:05.567+02:00,873,1.488614,0,0,680.226,0,0,2022-06-30T09:16:29.423+02:00
2022-06-30T09:16:29.573+02:00,2983.992069416667,0.219329833984375,-0.08599853515625,-0.8383941650390625,2983.982118416667,-0.6425582321939938,0.2712622491734832,-0.09889069104500559,-3.021978616714478,0.06589874625205994,-0.2611560821533203,-0.07311150431632996,-0.2022456228733063,0.08284133672714233,XArbitraryZVertical,0.00381925855297059,-0.143604359135308,0.3188391182079401,-0.9368590581524381,0.2666386365890503,0.09872958809137344,-0.9587264060974121,0,0,0,-1,-1,2983.843994416667,unknown,2,2022-06-30T09:16:29.424+02:00,2022-06-30T08:20:05.567+02:00,873,1.488614,0,0,680.226,0,0,2022-06-30T09:16:29.423+02:00
2022-06-30T09:16:29.583+02:00,2984.002021416667,0.18756103515625,-0.04864501953125,-0.8069610595703125,2983.992069416667,-0.6365070845220877,0.2724796933920654,-0.1301602152822866,-3.355960845947266,0.05152140557765961,-0.2711349725723267,-0.05821070075035095,-0.2386953830718994,0.08610892295837402,XArbitraryZVertical,0.01878716707413659,-0.1488864819566486,0.3177417945673217,-0.9362265278654684,0.2668440043926239,0.1297930032014847,-0.9549596905708313,0,0,0,-1,-1,2983.843994416667,unknown,2,2022-06-30T09:16:29.424+02:00,2022-06-30T08:20:05.567+02:00,873,1.488614,0,0,680.226,0,0,2022-06-30T09:16:29.423+02:00
2022-06-30T09:16:29.593+02:00,2984.011973416667,0.138824462890625,0.1063079833984375,-0.756439208984375,2984.002021416667,-0.6298449656181994,0.2740133695461213,-0.1642174485608158,-3.602779626846313,0.08583792299032211,-0.2986515760421753,-0.04762706160545349,-0.2494792938232422,0.1113469004631042,XArbitraryZVertical,0.03509053094765683,-0.1545900399725559,0.3164572796211891,-0.9352675620397037,0.2669568061828613,0.16348035633564,-0.9497411251068115,0,0,0,-1,-1,2983.843994416667,unknown,2,2022-06-30T09:16:29.424+02:00,2022-06-30T08:20:05.567+02:00,873,1.488614,0,0,680.226,0,0,2022-06-30T09:16:29.423+02:00
2022-06-30T09:16:29.603+02:00,2984.021925416667,0.0956573486328125,0.220458984375,-0.7412261962890625,2984.011973416667,-0.6225650170556516,0.2766923366183414,-0.2010950614707775,-3.917441368103027,0.2129396796226501,-0.3422800004482269,-0.08010947704315186,-0.2483878582715988,0.1356180310249329,XArbitraryZVertical,0.05261693060493403,-0.1610647819452783,0.3149986724489128,-0.9338444726701679,0.2676703929901123,0.1997424513101578,-0.9425792098045349,0,0,0,-1,-1,2983.843994416667,unknown,2,2022-06-30T09:16:29.424+02:00,2022-06-30T08:20:05.567+02:00,873,1.488614,0,0,680.226,0,0,2022-06-30T09:16:29.423+02:00
2022-06-30T09:16:29.613+02:00,2984.031876416667,0.1296844482421875,0.2696990966796875,-0.744293212890625,2984.021925416667,-0.6152732671649024,0.2808419614526509,-0.2409663704086605,-4.183473110198975,0.314049243927002,-0.48903688788414,-0.1303324699401855,-0.1323335915803909,0.1766228079795837,XArbitraryZVertical,0.0713479965764771,-0.168458853452743,0.3136853422592157,-0.9317363327680278,0.269156813621521,0.2386411875486374,-0.9330621361732483,0,0,0,-1,-1,2983.843994416667,unknown,2,2022-06-30T09:16:29.424+02:00,2022-06-30T08:20:05.567+02:00,873,1.488614,0,0,680.226,0,0,2022-06-30T09:16:29.423+02:00
2022-06-30T09:16:29.623+02:00,2984.041828416667,0.180816650390625,0.2955474853515625,-0.7101898193359375,2984.031876416667,-0.6083946752264963,0.2860585703211932,-0.2831724716632683,-4.317286014556885,0.3807545006275177,-0.5862526297569275,-0.1752780377864838,-0.05894455313682556,0.1799294352531433,XArbitraryZVertical,0.09099196449524621,-0.1764726074618761,0.3126933836637231,-0.9288707048463055,0.2709352970123291,0.2794031798839569,-0.9211557507514954,0,0,0,-1,-1,2983.843994416667,unknown,2,2022-06-30T09:16:29.424+02:00,2022-06-30T08:20:05.567+02:00,873,1.488614,0,0,680.226,0,0,2022-06-30T09:16:29.423+02:00
2022-06-30T09:16:29.633+02:00,2984.051780416667,0.2058258056640625,0.3616790771484375,-0.7041473388671875,2984.041828416667,-0.6014043831552768,0.2921556695845237,-0.3263815093274257,-4.39993953704834,0.4383392333984375,-0.5945574641227722,-0.1431280374526978,-0.05091893672943115,0.1627776026725769,XArbitraryZVertical,0.1109841570112097,-0.1847891733907392,0.3117305104767246,-0.9253970470890608,0.2728124260902405,0.32061767578125,-0.9070709347724915,0,0,0,-1,-1,2983.843994416667,unknown,2,2022-06-30T09:16:29.424+02:00,2022-06-30T08:20:05.567+02:00,873,1.488614,0,0,680.226,0,0,2022-06-30T09:16:29.423+02:00
2022-06-30T09:16:29.643+02:00,2984.061732416667,0.244781494140625,0.4466094970703125,-0.73095703125,2984.051780416667,-0.5935494765845135,0.2995561276254217,-0.3705642138998742,-4.533158302307129,0.5317432284355164,-0.5699687600135803,-0.09424939751625061,-0.06659433245658875,0.1804234981536865,XArbitraryZVertical,0.1313077912778626,-0.193524003704588,0.3105021009100175,-0.9213550263031536,0.2750659286975861,0.3621414005756378,-0.8906134366989136,0,0,0,-1,-1,2983.843994416667,unknown,2,2022-06-30T09:16:29.424+02:00,2022-06-30T08:20:05.567+02:00,873,1.488614,0,0,680.226,0,0,2022-06-30T09:16:29.423+02:00
2022-06-30T09:16:29.658+02:00,2984.071684416667,0.3149261474609375,0.57177734375,-0.7479248046875,2984.061732416667,-0.5844351984381055,0.3089174818231931,-0.4155356753475398,-4.589450359344482,0.6639702320098877,-0.5081486701965332,-0.07232916355133057,-0.04200136661529541,0.1674442887306213,XArbitraryZVertical,0.1518139628186898,-0.2028709475012244,0.3089146025002278,-0.9167156840769838,0.2781548500061035,0.4036800861358643,-0.8715918064117432,0,0,0,-1,-1,2983.843994416667,unknown,2,2022-06-30T09:16:29.424+02:00,2022-06-30T08:20:05.567+02:00,873,1.488614,0,0,680.226,0,0,2022-06-30T09:16:29.423+02:00
2022-06-30T09:16:29.663+02:00,2984.081635416667,0.3600006103515625,0.683837890625,-0.758880615234375,2984.071684416667,-0.5732711464003207,0.3205721852922934,-0.4604545692676999,-4.6383056640625,0.730366587638855,-0.3442939817905426,-0.03750976920127869,0.00225377082824707,0.119254469871521,XArbitraryZVertical,0.1721498807791098,-0.2127405770873191,0.3066730761663855,-0.9116235317440547,0.2822911739349365,0.4443553686141968,-0.8502117395401001,0,0,0,-1,-1,2983.843994416667,unknown,2,2022-06-30T09:16:29.424+02:00,2022-06-30T08:20:05.567+02:00,873,1.488614,0,0,680.226,0,0,2022-06-30T09:16:29.423+02:00
2022-06-30T09:16:29.673+02:00,2984.091587416667,0.37530517578125,0.7379150390625,-0.7213134765625,2984.081635416667,-0.5592836596804924,0.3343507361028481,-0.5053816870863654,-4.719552040100098,0.737387478351593,-0.1952605396509171,0.02779299020767212,0.0876355767250061,0.07861089706420898,XArbitraryZVertical,0.1924792133692498,-0.222898617943855,0.3035055556338769,-0.9061745005730787,0.2871330678462982,0.4841414391994476,-0.8265359401702881,0,0,0,-1,-1,2983.843994416667,unknown,2,2022-06-30T09:16:29.424+02:00,2022-06-30T08:20:05.567+02:00,873,1.488614,0,0,680.226,0,0,2022-06-30T09:16:29.423+02:00
2022-06-30T09:16:29.683+02:00,2984.101539416667,0.3475341796875,0.7359161376953125,-0.5878448486328125,2984.091587416667,-0.5421880948912868,0.3501351324332603,-0.5504320956001073,-4.799210071563721,0.7155399322509766,-0.04510166496038437,0.06764101982116699,0.1607820391654968,0.0417056679725647,XArbitraryZVertical,0.2129416331534555,-0.2331578659487654,0.2993730002145471,-0.9003716343197262,0.2923595011234283,0.5230555534362793,-0.8005865216255188,0,0,0,-1,-1,2983.843994416667,unknown,2,2022-06-30T09:16:29.424+02:00,2022-06-30T08:20:05.567+02:00,873,1.488614,0,0,680.226,0,0,2022-06-30T09:16:29.423+02:00
2022-06-30T09:16:29.693+02:00,2984.111491416667,0.3209991455078125,0.762359619140625,-0.4521026611328125,2984.101539416667,-0.5221537192576275,0.3679485685018699,-0.5953922547679135,-4.866868495941162,0.6927744746208191,0.03459183126688004,0.0774974524974823,0.1770811676979065,0.05119931697845459,XArbitraryZVertical,0.2334532436899527,-0.2433990139719159,0.2944439982071355,-0.8941807624955651,0.2978076040744781,0.5608335733413696,-0.7725130319595337,0,0,0,-1,-1,2983.843994416667,unknown,2,2022-06-30T09:16:29.424+02:00,2022-06-30T08:20:05.567+02:00,873,1.488614,0,0,680.226,0,0,2022-06-30T09:16:29.423+02:00
2022-06-30T09:16:29.703+02:00,2984.121442416667,0.349609375,0.8145294189453125,-0.3957061767578125,2984.111491416667,-0.4992474807122781,0.3882221214770438,-0.6407810489746707,-4.973023891448975,0.737698495388031,0.1025977805256844,0.0440826416015625,0.1380941271781921,0.1541295647621155,XArbitraryZVertical,0.2542169566165373,-0.2537447488903209,0.2889314386299962,-0.8874153607491021,0.3034514188766479,0.5978217124938965,-0.7419747114181519,0,0,0,-1,-1,2983.843994416667,unknown,2,2022-06-30T09:16:29.424+02:00,2022-06-30T08:20:05.567+02:00,873,1.488614,0,0,680.226,0,0,2022-06-30T09:16:29.423+02:00
2022-06-30T09:16:29.713+02:00,2984.131394416667,0.37420654296875,0.9479827880859375,-0.411712646484375,2984.121442416667,-0.4729699091314471,0.4121551863529882,-0.685254661308813,-4.849363327026367,0.8112863302230835,0.2540385127067566,0.0108429491519928,0.1294891238212585,0.257318377494812,XArbitraryZVertical,0.2745476543903838,-0.2644105469287996,0.28283190460894,-0.8801800355337169,0.3101561069488525,0.6328701972961426,-0.7094212770462036,0,0,0,-1,-1,2983.843994416667,unknown,2,2022-06-30T09:16:29.424+02:00,2022-06-30T08:20:05.567+02:00,873,1.488614,0,0,680.226,0,0,2022-06-30T09:16:29.423+02:00
2022-06-30T09:16:29.723+02:00,2984.141346416667,0.3961029052734375,0.9684295654296875,-0.4624786376953125,2984.131394416667,-0.4441289700178796,0.4391784240486429,-0.7271410496741808,-4.632388591766357,0.8772464394569397,0.2736329734325409,0.03195476531982422,0.1497926712036133,0.2804747223854065,XArbitraryZVertical,0.293712370638583,-0.2750317027709733,0.2764649325010706,-0.8727301007895486,0.317654550075531,0.6647365093231201,-0.6761811971664429,0,0,0,-1,-1,2983.843994416667,unknown,2,2022-06-30T09:16:29.424+02:00,2022-06-30T08:20:05.567+02:00,873,1.488614,0,0,680.226,0,0,2022-06-30T09:16:29.423+02:00
2022-06-30T09:16:29.735+02:00,2984.151298416667,0.4306640625,0.857330322265625,-0.5576934814453125,2984.141346416667,-0.4150518305585098,0.4680966659560698,-0.7661104679727651,-4.253548622131348,0.9772964119911194,0.1484175026416779,0.04907417297363281,0.2546449303627014,0.2313826680183411,XArbitraryZVertical,0.31144385864907,-0.2854030602051184,0.2707174348587233,-0.8650202271184123,0.32513228058815,0.693337619304657,-0.6430956125259399,0,0,0,-1,-1,2983.843994416667,unknown,2,2022-06-30T09:16:29.424+02:00,2022-06-30T08:20:05.567+02:00,873,1.488614,0,0,680.226,0,0,2022-06-30T09:16:29.423+02:00
2022-06-30T09:16:29.743+02:00,2984.161249416667,0.492156982421875,0.7780609130859375,-0.5833740234375,2984.151298416667,-0.3886489473437487,0.496567084352698,-0.8007688597664028,-3.680869817733765,1.008733510971069,-0.05465092882514,0.06444758176803589,0.2505378127098083,0.1495966911315918,XArbitraryZVertical,0.3270086759136356,-0.2950042265728665,0.2663583740360993,-0.8573745861017203,0.3316552639007568,0.7178915739059448,-0.6120756864547729,0,0,0,-1,-1,2983.843994416667,unknown,2,2022-06-30T09:16:29.424+02:00,2022-06-30T08:20:05.567+02:00,873,1.488614,0,0,680.226,0,0,2022-06-30T09:16:29.423+02:00
2022-06-30T09:16:29.752+02:00,2984.171201416667,0.534881591796875,0.7179412841796875,-0.614105224609375,2984.161249416667,-0.3644602943828017,0.5244176766762353,-0.8320759562301128,-3.467121601104736,1.015659093856812,-0.06730343401432037,0.09351533651351929,0.1179993152618408,0.0251619815826416,XArbitraryZVertical,0.3408944104507143,-0.3039129754445481,0.2631227505827778,-0.8498202650359082,0.3371486663818359,0.7393307685852051,-0.5828558206558228,0,0,0,-1,-1,2983.843994416667,unknown,2,2022-06-30T09:16:29.424+02:00,2022-06-30T08:20:05.567+02:00,873,1.488614,0,0,680.226,0,0,2022-06-30T09:16:29.423+02:00
2022-06-30T09:16:29.762+02:00,2984.181153416667,0.494964599609375,0.77276611328125,-0.5784759521484375,2984.171201416667,-0.3388042597452074,0.5530628877175537,-0.8606808427792859,-3.244102001190186,0.9181610345840454,0.09129232913255692,0.1497052013874054,0.01977419853210449,-0.02864164113998413,XArbitraryZVertical,0.353753424448536,-0.3122373163861868,0.2596685584944471,-0.8425786517448852,0.3424517214298248,0.7582865953445435,-0.5547327399253845,0,0,0,-1,-1,2983.843994416667,unknown,2,2022-06-30T09:16:29.424+02:00,2022-06-30T08:20:05.567+02:00,873,1.488614,0,0,680.226,0,0,2022-06-30T09:16:29.423+02:00
2022-06-30T09:16:29.772+02:00,2984.191105416667,0.4104156494140625,0.7246856689453125,-0.695770263671875,2984.181153416667,-0.3091545378676839,0.5853264952832408,-0.8874643882961913,-3.39997935295105,1.03145706653595,0.2164545953273773,0.1860617995262146,-0.05753219127655029,-0.08782994747161865,XArbitraryZVertical,0.3660401857681597,-0.3207440791782081,0.255520810173004,-0.8353723942770305,0.3488197326660156,0.7754732966423035,-0.526275634765625,0,0,0,-1,-1,2983.843994416667,unknown,2,2022-06-30T09:16:29.424+02:00,2022-06-30T08:20:05.567+02:00,873,1.488614,0,0,680.226,0,0,2022-06-30T09:16:29.423+02:00
2022-06-30T09:16:29.782+02:00,2984.201057416667,0.372161865234375,0.7023468017578125,-0.753173828125,2984.191105416667,-0.2749461415705239,0.6234581942322411,-0.9149455889973535,-3.549419164657593,1.254791378974915,0.1511072814464569,0.1389153897762299,-0.01976346969604492,-0.08337408304214478,XArbitraryZVertical,0.3787199162128571,-0.3301819361021158,0.2512112384367565,-0.827311363099173,0.3560491502285004,0.7925294041633606,-0.4951022267341614,0,0,0,-1,-1,2983.843994416667,unknown,2,2022-06-30T09:16:29.424+02:00,2022-06-30T08:20:05.567+02:00,873,1.488614,0,0,680.226,0,0,2022-06-30T09:16:29.423+02:00
2022-06-30T09:16:29.792+02:00,2984.211008416667,0.3817596435546875,0.77191162109375,-0.801483154296875,2984.201057416667,-0.237485625383909,0.666983957934243,-0.9432831105327465,-3.747827768325806,1.477144837379456,0.0647578239440918,0.04720345139503479,-0.08480453491210938,-0.2344649434089661,XArbitraryZVertical,0.3917489097327997,-0.3404114676013703,0.247397724531739,-0.8181976044387673,0.3632121086120605,0.8094900846481323,-0.4613056480884552,0,0,0,-1,-1,2983.843994416667,unknown,2,2022-06-30T09:16:29.424+02:00,2022-06-30T08:20:05.567+02:00,873,1.488614,0,0,680.226,0,0,2022-06-30T09:16:29.423+02:00
2022-06-30T09:16:29.802+02:00,2984.220960416667,0.3737640380859375,0.8717041015625,-0.8504638671875,2984.211008416667,-0.1938045951205894,0.718071529590261,-0.971962390685417,-3.879428863525391,1.613840699195862,0.1497153341770172,0.001297920942306519,-0.1236467957496643,-0.3286804854869843,XArbitraryZVertical,0.4051826773791258,-0.3515396993274406,0.2434410725306412,-0.8080738596801724,0.3708638846874237,0.8259934782981873,-0.424493670463562,0,0,0,-1,-1,2983.843994416667,unknown,2,2022-06-30T09:16:29.424+02:00,2022-06-30T08:20:05.567+02:00,873,1.488614,0,0,680.226,0,0,2022-06-30T09:16:29.423+02:00
2022-06-30T09:16:29.812+02:00,2984.230912416667,0.3696136474609375,0.9296875,-0.7294464111328125,2984.220960416667,-0.1446408051415139,0.775911800848792,-0.9983934303506838,-3.704890966415405,1.791165232658386,0.2574167251586914,0.002403199672698975,-0.06869035959243774,-0.4148605465888977,XArbitraryZVertical,0.4179865704382224,-0.3632846565105468,0.2393501463649845,-0.7975105442197651,0.3793563842773438,0.8406018614768982,-0.3866229653358459,0,0,0,-1,-1,2983.843994416667,unknown,2,2022-06-30T09:16:29.424+02:00,2022-06-30T08:20:05.567+02:00,873,1.488614,0,0,680.226,0,0,2022-06-30T09:16:29.423+02:00
2022-06-30T09:16:29.822+02:00,2984.240864416667,0.386688232421875,0.889129638671875,-0.6031951904296875,2984.230912416667,-0.09321732187501208,0.838429882341001,-1.020927906924884,-3.397353172302246,2.024976491928101,0.2796895503997803,-0.01481986045837402,0.01911067962646484,-0.5010541677474976,XArbitraryZVertical,0.4292433117605886,-0.3755597901725845,0.2357901964574637,-0.7868342243349065,0.3885838687419891,0.8525933027267456,-0.3494100570678711,0,0,0,-1,-1,2983.843994416667,unknown,2,2022-06-30T09:16:29.424+02:00,2022-06-30T08:20:05.567+02:00,873,1.488614,0,0,680.226,0,0,2022-06-30T09:16:29.423+02:00
2022-06-30T09:16:29.832+02:00,2984.250815416667,0.4216461181640625,0.8072357177734375,-0.5506439208984375,2984.240864416667,-0.04148757520077468,0.903824106222466,-1.039831157687052,-3.168212652206421,2.198781967163086,0.2765543758869171,-0.02823722362518311,0.06736862659454346,-0.4162037968635559,XArbitraryZVertical,0.4389771500279994,-0.38817207314597,0.233096442094476,-0.7760719267131292,0.3978508710861206,0.862318754196167,-0.3132430016994476,0,0,0,-1,-1,2983.843994416667,unknown,2,2022-06-30T09:16:29.424+02:00,2022-06-30T08:20:05.567+02:00,873,1.488614,0,0,680.226,0,0,2022-06-30T09:16:29.423+02:00
2022-06-30T09:16:29.842+02:00,2984.260767416667,0.4322052001953125,0.813385009765625,-0.510009765625,2984.250815416667,0.01107917463842144,0.9718853571606707,-1.055590714512201,-2.959012269973755,2.333184242248535,0.30678790807724,-0.02026885747909546,0.01893812417984009,-0.3254313468933105,XArbitraryZVertical,0.4475555290120594,-0.4010136580268354,0.2309810053588813,-0.7651993020981283,0.4069570899009705,0.8701914548873901,-0.2777642011642456,0,0,0,-1,-1,2983.843994416667,unknown,2,2022-06-30T09:16:29.424+02:00,2022-06-30T08:20:05.567+02:00,873,1.488614,0,0,680.226,0,0,2022-06-30T09:16:29.423+02:00
2022-06-30T09:16:29.852+02:00,2984.270719416667,0.4426116943359375,0.9348602294921875,-0.523040771484375,2984.260767416667,0.06420948343869599,1.04215261032098,-1.068361167324991,-2.851934432983398,2.469904661178589,0.3173504769802094,0.005821913480758667,-0.06917685270309448,-0.3077628016471863,XArbitraryZVertical,0.4550911331021968,-0.4140667939801024,0.2293635534986126,-0.7542102789242735,0.4158242344856262,0.8764125108718872,-0.2428815066814423,0,0,0,-1,-1,2983.843994416667,unknown,2,2022-06-30T09:16:29.424+02:00,2022-06-30T08:20:05.567+02:00,873,1.488614,0,0,680.226,0,0,2022-06-30T09:16:29.423+02:00
2022-06-30T09:16:29.862+02:00,2984.280671416667,0.43084716796875,1.024032592773438,-0.5423583984375,2984.270719416667,0.1209519511389371,1.117238564089037,-1.07913189371227,-2.993079900741577,2.590113162994385,0.3559260964393616,0.007842779159545898,-0.06816327571868896,-0.3031544387340546,XArbitraryZVertical,0.4623514987462585,-0.4275549268200859,0.2278345711040179,-0.7426435586405704,0.4243625104427338,0.881548285484314,-0.2068557590246201,0,0,0,-1,-1,2983.843994416667,unknown,2,2022-06-30T09:16:29.424+02:00,2022-06-30T08:20:05.567+02:00,873,1.488614,0,0,680.226,0,0,2022-06-30T09:16:29.423+02:00
2022-06-30T09:16:29.872+02:00,2984.290622416667,0.4142608642578125,1.054046630859375,-0.4522247314453125,2984.280671416667,0.1838806679354016,1.199176725601998,-1.088175531629901,-3.154882907867432,2.714692354202271,0.3715776801109314,0.01018887758255005,0.04907852411270142,-0.3545140624046326,XArbitraryZVertical,0.4698681439253264,-0.4415431686050855,0.2260195311973504,-0.7301909038440362,0.4324228465557098,0.8857816457748413,-0.1685271114110947,0,0,0,-1,-1,2983.843994416667,unknown,2,2022-06-30T09:16:29.424+02:00,2022-06-30T08:20:05.567+02:00,873,1.488614,0,0,680.226,0,0,2022-06-30T09:16:29.423+02:00
2022-06-30T09:16:29.882+02:00,2984.300574416667,0.442138671875,1.054214477539062,-0.2753448486328125,2984.290622416667,0.2517186706085461,1.287072176315923,-1.094833159087837,-3.244795560836792,2.8648521900177,0.414829820394516,-0.009028792381286621,0.135180652141571,-0.4140950441360474,XArbitraryZVertical,0.4773956170234535,-0.4560280077380945,0.2240889653549364,-0.7168793578235446,0.4398759603500366,0.8888518214225769,-0.1282637566328049,0,0,0,-1,-1,2983.843994416667,unknown,2,2022-06-30T09:16:29.424+02:00,2022-06-30T08:20:05.567+02:00,873,1.488614,0,0,680.226,0,0,2022-06-30T09:16:29.423+02:00
2022-06-30T09:16:29.892+02:00,2984.310526416667,0.5011444091796875,1.000930786132812,-0.039703369140625,2984.300574416667,0.3246554762213762,1.381172447318379,-1.098156137682621,-3.443230628967285,3.008289813995361,0.5184496641159058,-0.03281775116920471,0.1636770963668823,-0.366417407989502,XArbitraryZVertical,0.4848451186290479,-0.471191408236917,0.2218029433028551,-0.7026431412559633,0.447078675031662,0.8903694748878479,-0.08580773323774338,0,0,0,-1,-1,2983.843994416667,unknown,2,2022-06-30T09:16:29.424+02:00,2022-06-30T08:20:05.567+02:00,873,1.488614,0,0,680.226,0,0,2022-06-30T09:16:29.423+02:00
2022-06-30T09:16:29.902+02:00,2984.320478416667,0.570953369140625,0.92279052734375,0.212554931640625,2984.310526416667,0.403351061272032,1.481499396363161,-1.097641782174938,-3.673666477203369,3.058029174804688,0.5918110013008118,-0.01174229383468628,0.1640792489051819,-0.2347069978713989,XArbitraryZVertical,0.4925049947685765,-0.4869493863974157,0.2188039575605157,-0.6873456167435322,0.4538809657096863,0.8901352286338806,-0.04063824936747551,0,0,0,-1,-1,2983.843994416667,unknown,2,2022-06-30T09:16:29.424+02:00,2022-06-30T08:20:05.567+02:00,873,1.488614,0,0,680.226,0,0,2022-06-30T09:16:29.423+02:00
2022-06-30T09:16:29.912+02:00,2984.330430416667,0.633270263671875,0.8932647705078125,0.4281463623046875,2984.320478416667,0.4848537765234586,1.584104104976738,-1.093114590538137,-3.789807081222534,2.982612371444702,0.6070449948310852,0.04146319627761841,0.1128677725791931,-0.0458214282989502,XArbitraryZVertical,0.5003696752673469,-0.5026818446526923,0.2150867674153255,-0.671326292769388,0.4596812725067139,0.8880630731582642,0.006117697805166245,0,0,0,-1,-1,2983.843994416667,unknown,2,2022-06-30T09:16:29.424+02:00,2022-06-30T08:20:05.567+02:00,873,1.488614,0,0,680.226,0,0,2022-06-30T09:16:29.423+02:00
2022-06-30T09:16:29.922+02:00,2984.340381416667,0.647491455078125,0.879302978515625,0.615447998046875,2984.330430416667,0.5654062396151964,1.684335810813075,-1.084783232227984,-3.77677059173584,2.817224740982056,0.596587061882019,0.1068565547466278,0.03858828544616699,0.1596336364746094,XArbitraryZVertical,0.5083101788022887,-0.5177656033424505,0.2107511855909847,-0.6550751689445545,0.4640968441963196,0.8842021822929382,0.05292091518640518,0,0,0,-1,-1,2983.843994416667,unknown,2,2022-06-30T09:16:29.424+02:00,2022-06-30T08:20:05.567+02:00,873,1.488614,0,0,680.226,0,0,2022-06-30T09:16:29.423+02:00
2022-06-30T09:16:29.931+02:00,2984.350333416667,0.6200408935546875,0.8924102783203125,0.7210540771484375,2984.340381416667,0.6390080143316619,1.776244468187727,-1.07339235731238,-3.46405291557312,2.602540016174316,0.5603092312812805,0.1661591529846191,0.01444053649902344,0.3308054208755493,XArbitraryZVertical,0.5156782319870692,-0.5317388696564598,0.2063406431739158,-0.6393381424814095,0.4671111404895782,0.8788242340087891,0.09734053164720535,0,0,0,-1,-1,2983.843994416667,unknown,2,2022-06-30T09:16:29.424+02:00,2022-06-30T08:20:05.567+02:00,873,1.488614,0,0,680.226,0,0,2022-06-30T09:16:29.423+02:00
2022-06-30T09:16:29.941+02:00,2984.360285416667,0.5947723388671875,0.907867431640625,0.77606201171875,2984.350333416667,0.7000355522766643,1.854030289721632,-1.060708686144331,-2.871914863586426,2.286796092987061,0.4834333658218384,0.1786915063858032,0.006601214408874512,0.478999137878418,XArbitraryZVertical,0.5218038189517815,-0.5440082713021432,0.2025039628988941,-0.6251143004818982,0.4688000082969666,0.8727017045021057,0.1364484429359436,0,0,0,-1,-1,2983.843994416667,unknown,2,2022-06-30T09:16:29.424+02:00,2022-06-30T08:20:05.567+02:00,873,1.488614,0,0,680.226,0,0,2022-06-30T09:16:29.423+02:00
2022-06-30T09:16:29.951+02:00,2984.370237416667,0.5772552490234375,0.90478515625,0.866424560546875,2984.360285416667,0.7449957582541333,1.914036511581231,-1.048692165038149,-2.115704774856567,1.909969449043274,0.4724771082401276,0.1504259407520294,0.02563846111297607,0.5532195568084717,XArbitraryZVertical,0.5261225234789031,-0.5541770227501936,0.199745777409493,-0.6133387888451562,0.4696150124073029,0.8667717576026917,0.1678341627120972,0,0,0,-1,-1,2983.843994416667,unknown,2,2022-06-30T09:16:29.424+02:00,2022-06-30T08:20:05.567+02:00,873,1.488614,0,0,680.226,0,0,2022-06-30T09:16:29.423+02:00
2022-06-30T09:16:29.961+02:00,2984.380188416667,0.53289794921875,0.84130859375,0.911651611328125,2984.370237416667,0.7726588027962971,1.954554871801516,-1.037930707028175,-1.270399689674377,1.406336903572083,0.5683155059814453,0.1237189471721649,0.04651248455047607,0.5858609676361084,XArbitraryZVertical,0.528174077266099,-0.5622566407447169,0.1978693485685381,-0.6047704541056652,0.4710534811019897,0.8613548874855042,0.1902007758617401,0,0,0,-1,-1,2983.843994416667,unknown,2,2022-06-30T09:16:29.424+02:00,2022-06-30T08:20:05.567+02:00,873,1.488614,0,0,680.226,0,0,2022-06-30T09:16:29.423+02:00
2022-06-30T09:16:29.971+02:00,2984.390140416667,0.480621337890625,0.761749267578125,1.078887939453125,2984.380188416667,0.7826045037937864,1.97368159777507,-1.029551351777225,-0.3177325129508972,0.707236647605896,0.5911723971366882,0.1033022999763489,0.0477173924446106,0.6644260883331299,XArbitraryZVertical,0.5278781829680296,-0.5677531733046102,0.1966837594609145,-0.6002637480201063,0.4739531576633453,0.8570679426193237,0.2019980847835541,0,0,0,-1,-1,2983.843994416667,unknown,2,2022-06-30T09:16:29.424+02:00,2022-06-30T08:20:05.567+02:00,873,1.488614,0,0,680.226,0,0,2022-06-30T09:16:29.423+02:00
2022-06-30T09:16:29.981+02:00,2984.400092416667,0.5004425048828125,0.7405548095703125,1.374191284179688,2984.390140416667,0.7751995509167067,1.970452911901843,-1.025510365322874,0.6934260725975037,-0.08968424052000046,0.45191490650177,0.05510896444320679,-0.01367044448852539,0.7098386287689209,XArbitraryZVertical,0.5255053471617738,-0.5698687798259539,0.1964908177625148,-0.6004040172913578,0.477789044380188,0.8549789786338806,0.2018125951290131,0,0,0,-1,-1,2983.843994416667,unknown,2,2022-06-30T09:16:29.424+02:00,2022-06-30T08:20:05.567+02:00,873,1.488614,0,0,680.226,0,0,2022-06-30T09:16:29.423+02:00
2022-06-30T09:16:29.991+02:00,2984.410044416667,0.563751220703125,0.7525787353515625,1.62835693359375,2984.400092416667,0.7526606263367563,1.945876609830217,-1.026639958479088,1.514204502105713,-0.991571307182312,0.2397241145372391,-0.001084089279174805,-0.09381484985351562,0.8892307281494141,XArbitraryZVertical,0.5216815940012857,-0.5680463987786969,0.1972865593887372,-0.6051857190636163,0.4817056059837341,0.8555643558502197,0.1896567940711975,0,0,0,-1,-1,2983.843994416667,unknown,2,2022-06-30T09:16:29.424+02:00,2022-06-30T08:20:05.567+02:00,873,1.488614,0,0,680.226,0,0,2022-06-30T09:16:29.423+02:00
2022-06-30T09:16:30.001+02:00,2984.419995416667,0.5632476806640625,0.781829833984375,1.774337768554688,2984.410044416667,0.7190731100475286,1.901769159620248,-1.031476997538352,2.056310892105103,-2.115229606628418,0.06327930092811584,0.01476261019706726,-0.1175035834312439,1.207305312156677,XArbitraryZVertical,0.5173224820688508,-0.5619788604076381,0.1979264413547241,-0.6143145814143377,0.4856800138950348,0.8580584526062012,0.1668855845928192,0,0,0,-1,-1,2983.843994416667,unknown,2,2022-06-30T09:16:29.424+02:00,2022-06-30T08:20:05.567+02:00,873,1.488614,0,0,680.226,0,0,2022-06-30T09:16:29.423+02:00
2022-06-30T09:16:30.011+02:00,2984.429947416667,0.5012969970703125,0.8774871826171875,1.885101318359375,2984.419995416667,0.6774727404853428,1.838749785453912,-1.038547489227454,2.3889319896698,-3.35608696937561,-0.142244964838028,0.07438784837722778,-0.1090890765190125,1.493998885154724,XArbitraryZVertical,0.5132027419695365,-0.5511821933608585,0.1972864216352634,-0.6276140494822693,0.4893635213375092,0.8616680502891541,0.1343577355146408,0,0,0,-1,-1,2983.843994416667,unknown,2,2022-06-30T09:16:29.424+02:00,2022-06-30T08:20:05.567+02:00,873,1.488614,0,0,680.226,0,0,2022-06-30T09:16:29.423+02:00
2022-06-30T09:16:30.022+02:00,2984.439899416667,0.42376708984375,0.9945068359375,1.7830810546875,2984.429947416667,0.6308793318933413,1.758817805829193,-1.046414154193303,2.543767929077148,-4.621691226959229,-0.3099665939807892,0.07139337062835693,-0.08380365371704102,1.680752754211426,XArbitraryZVertical,0.5098886295363817,-0.5355426098548945,0.1945826823338055,-0.6444728970683506,0.4918543994426727,0.8656334280967712,0.09358460456132889,0,0,0,-1,-1,2983.843994416667,unknown,2,2022-06-30T09:16:29.424+02:00,2022-06-30T08:20:05.567+02:00,873,1.488614,0,0,680.226,0,0,2022-06-30T09:16:29.423+02:00
2022-06-30T09:16:30.031+02:00,2984.449851416667,0.366119384765625,1.055801391601562,1.586639404296875,2984.439899416667,0.5815669855480574,1.663677783597332,-1.053836977007543,2.494771242141724,-5.887474060058594,-0.4519569575786591,0.009188294410705566,0.008161187171936035,1.839261293411255,XArbitraryZVertical,0.5076523074012427,-0.5149844394539063,0.1891964967622008,-0.6642927559063481,0.4921087920665741,0.8693259954452515,0.04583967477083206,0,0,0,-1,-1,2983.843994416667,unknown,2,2022-06-30T09:16:29.424+02:00,2022-06-30T08:20:05.567+02:00,873,1.488614,0,0,680.226,0,0,2022-06-30T09:16:29.423+02:00
2022-06-30T09:16:30.041+02:00,2984.459803416667,0.2861175537109375,0.9926605224609375,1.331451416015625,2984.449851416667,0.5343156637496449,1.558608512875376,-1.059502271175864,2.180856227874756,-6.915647029876709,-0.4529604315757751,-0.06550276279449463,0.1223947405815125,1.789044141769409,XArbitraryZVertical,0.5068313227833321,-0.4900411183043156,0.1804696930011337,-0.6858661619391616,0.4892698526382446,0.8721120357513428,-0.005963425152003765,0,0,0,-1,-1,2983.843994416667,unknown,2,2022-06-30T09:16:29.424+02:00,2022-06-30T08:20:05.567+02:00,873,1.488614,0,0,680.226,0,0,2022-06-30T09:16:29.423+02:00
2022-06-30T09:16:30.051+02:00,2984.469754416667,0.1727447509765625,0.9286346435546875,1.024215698242188,2984.459803416667,0.4943120702843803,1.450600853756685,-1.062261769268517,1.669636845588684,-7.750832557678223,-0.3355648219585419,-0.117265522480011,0.1823424100875854,1.645021080970764,XArbitraryZVertical,0.5074345004903578,-0.4618648947199259,0.1679384664242287,-0.7078048506951956,0.4833848774433136,0.8734589815139771,-0.05838209390640259,0,0,0,-1,-1,2983.843994416667,unknown,2,2022-06-30T09:16:29.424+02:00,2022-06-30T08:20:05.567+02:00,873,1.488614,0,0,680.226,0,0,2022-06-30T09:16:29.423+02:00
2022-06-30T09:16:30.061+02:00,2984.479706416667,-0.02178955078125,0.9575042724609375,0.7429962158203125,2984.469754416667,0.4641355204415,1.343771878069368,-1.062450252668402,1.296303987503052,-8.376833915710449,-0.1888190507888794,-0.1881263852119446,0.1191098093986511,1.441004633903503,XArbitraryZVertical,0.5092848089011071,-0.4311057695026712,0.1516851908155996,-0.7292245790317983,0.4742439091205597,0.8735507130622864,-0.1095535978674889,0,0,0,-1,-1,2983.843994416667,unknown,2,2022-06-30T09:16:29.424+02:00,2022-06-30T08:20:05.567+02:00,873,1.488614,0,0,680.226,0,0,2022-06-30T09:16:29.423+02:00
2022-06-30T09:16:30.071+02:00,2984.489658416667,-0.26678466796875,1.1307373046875,0.4562225341796875,2984.479706416667,0.4370517091677628,1.235073590596654,-1.060083341014538,1.429205417633057,-8.672030448913574,-0.09413549304008484,-0.2887665033340454,0.05623847246170044,1.185251235961914,XArbitraryZVertical,0.510695318831404,-0.398336999302237,0.1332787539985136,-0.750169892184369,0.4615111649036407,0.8723962306976318,-0.1610358506441116,0,0,0,-1,-1,2983.843994416667,unknown,2,2022-06-30T09:16:29.424+02:00,2022-06-30T08:20:05.567+02:00,873,1.488614,0,0,680.226,0,0,2022-06-30T09:16:29.423+02:00
2022-06-30T09:16:30.081+02:00,2984.499610416667,-3.003173828125,-0.0191802978515625,-1.46868896484375,2984.489658416667,0.4026606347239706,1.118060550511599,-1.053641921002887,2.499671459197998,-8.948258399963379,-0.01117136143147945,-0.466388612985611,0.08827471733093262,0.9592637419700623,XArbitraryZVertical,0.5093167920344044,-0.363953913677028,0.1147302722246928,-0.7713436240209181,0.4445989429950714,0.8692295551300049,-0.2162679135799408,0,0,0,-1,-1,2983.843994416667,unknown,2,2022-06-30T09:16:29.424+02:00,2022-06-30T08:20:05.567+02:00,873,1.488614,0,0,680.226,0,0,2022-06-30T09:16:29.423+02:00
2022-06-30T09:16:30.091+02:00,2984.509561416667,-5.575088500976562,-2.4609375,-10.98342895507812,2984.499610416667,0.4039602816779183,1.088282167180637,-1.052217528323331,-5.435731887817383,6.556217193603516,-0.6307001113891602,-0.7058435678482056,0.2622126936912537,0.6862057447433472,XArbitraryZVertical,0.5107185490708236,-0.3523843737156083,0.1062561939984631,-0.7769821817982329,0.4390587508678436,0.8685244917869568,-0.2299836277961731,0,0,0,-1,-1,2983.843994416667,unknown,2,2022-06-30T09:16:29.424+02:00,2022-06-30T08:20:05.567+02:00,873,1.488614,0,0,680.226,0,0,2022-06-30T09:16:29.423+02:00
2022-06-30T09:16:30.101+02:00,2984.519513416667,-0.057464599609375,1.763534545898438,-6.916885375976562,2984.509561416667,0.5225337452536387,1.239770939810581,-1.081530711089326,-5.442777156829834,2.891181707382202,-0.8451370596885681,-3.447636604309082,-0.901858389377594,-1.315940380096436,XArbitraryZVertical,0.5334414095590232,-0.3729152545498028,0.1086682955655936,-0.751375967763628,0.444462776184082,0.8826782703399658,-0.1527489572763443,0,0,0,-1,-1,2983.843994416667,unknown,2,2022-06-30T09:16:29.424+02:00,2022-06-30T08:20:05.567+02:00,873,1.488614,0,0,680.226,0,0,2022-06-30T09:16:29.423+02:00
2022-06-30T09:16:30.111+02:00,2984.529465416667,-1.59954833984375,2.504196166992188,-3.579269409179688,2984.519513416667,0.5996822674973818,1.303414137947084,-1.102676262669996,-2.402566194534302,-2.413728952407837,-1.40719211101532,-6.010264873504639,-3.353355407714844,-10.86421680450439,XArbitraryZVertical,0.5504952493255595,-0.3706055960449489,0.1035128389315067,-0.7408721834165152,0.4351761043071747,0.8924180865287781,-0.1192129477858543,0,0,0,-1,-1,2983.843994416667,unknown,2,2022-06-30T09:16:29.424+02:00,2022-06-30T08:20:05.567+02:00,873,1.488614,0,0,680.226,0,0,2022-06-30T09:16:29.423+02:00
2022-06-30T09:16:30.121+02:00,2984.539417416667,0.338470458984375,1.974044799804688,-0.253448486328125,2984.529465416667,0.5985323497070828,1.294997878304887,-1.120645285245929,1.33797824382782,1.14417028427124,-1.874852776527405,-0.4761227965354919,0.8631530404090881,-6.79840087890625,XArbitraryZVertical,0.5556882677547605,-0.3632742418931605,0.1071360038711194,-0.7401109045955524,0.4186580181121826,0.9003813862800598,-0.1184847503900528,0,0,0,-1,-1,2983.843994416667,unknown,2,2022-06-30T09:16:29.424+02:00,2022-06-30T08:20:05.567+02:00,873,1.488614,0,0,680.226,0,0,2022-06-30T09:16:29.423+02:00
2022-06-30T09:16:30.131+02:00,2984.549368416667,1.09783935546875,1.892059326171875,0.368743896484375,2984.539417416667,0.532431981726139,1.259504448676787,-1.123155182195994,3.953232526779175,3.454140663146973,-0.2722001373767853,-2.01158595085144,1.602725505828857,-3.446695804595947,XArbitraryZVertical,0.546354325985945,-0.3677089611398959,0.1226160126045889,-0.7424637870089799,0.4120376110076904,0.9014706015586853,-0.1325741410255432,0,0,0,-1,-1,2983.843994416667,unknown,2,2022-06-30T09:16:29.424+02:00,2022-06-30T08:20:05.567+02:00,873,1.488614,0,0,680.226,0,0,2022-06-30T09:16:29.423+02:00
2022-06-30T09:16:30.140+02:00,2984.559320416667,0.6176910400390625,1.53460693359375,1.059173583984375,2984.549368416667,0.4331408445957403,1.201194704306612,-1.103846029327658,5.479077339172363,2.709212303161621,0.6870118975639343,-0.08129590749740601,1.081099510192871,-0.09082937240600586,XArbitraryZVertical,0.5258688151745566,-0.3770307921431743,0.1384386926735473,-0.7497630452048267,0.4197663366794586,0.8929452896118164,-0.1626195460557938,0,0,0,-1,-1,2983.843994416667,unknown,2,2022-06-30T09:16:29.424+02:00,2022-06-30T08:20:05.567+02:00,873,1.488614,0,0,680.226,0,0,2022-06-30T09:16:29.423+02:00
2022-06-30T09:16:30.158+02:00,2984.569272416667,0.1181488037109375,1.03851318359375,1.103347778320312,2984.559320416667,0.32088889899309,1.124226767459687,-1.07622722798094,6.119463920593262,1.879727840423584,0.06686964631080627,0.6697339415550232,1.01188600063324,0.5737336874008179,XArbitraryZVertical,0.5012000425697669,-0.3824963164921927,0.153578775481008,-0.7608605578933594,0.428105354309082,0.8801733255386353,-0.2049901634454727,0,0,0,-1,-1,2983.843994416667,unknown,2,2022-06-30T09:16:29.424+02:00,2022-06-30T08:20:05.567+02:00,873,1.488614,0,0,680.226,0,0,2022-06-30T09:16:29.423+02:00
2022-06-30T09:16:30.160+02:00,2984.579224416667,-0.1641693115234375,0.3842620849609375,0.2387237548828125,2984.569272416667,0.2109455333584361,1.042820555609356,-1.053939055326148,5.248125553131104,1.15001368522644,-1.089340209960938,0.1908297538757324,0.665230393409729,1.308119058609009,XArbitraryZVertical,0.4789890792935907,-0.3822257376138998,0.1702090675669405,-0.7716876125596549,0.4268611669540405,0.8693764805793762,-0.2489458918571472,0,0,0,-1,-1,2983.843994416667,unknown,2,2022-06-30T09:16:29.424+02:00,2022-06-30T08:20:05.567+02:00,873,1.488614,0,0,680.226,0,0,2022-06-30T09:16:29.423+02:00
2022-06-30T09:16:30.171+02:00,2984.589176416667,-0.432769775390625,-0.1951141357421875,-0.4974517822265625,2984.579224416667,0.1220967435820231,0.9764484590001266,-1.043161016436576,3.345305681228638,1.101149082183838,-1.752596855163574,-0.2990012168884277,0.1745131611824036,1.385287046432495,XArbitraryZVertical,0.4640315165975611,-0.3790843174900802,0.1865555135381153,-0.7785673188798921,0.4171500504016876,0.8640000820159912,-0.2819396555423737,0,0,0,-1,-1,2983.843994416667,unknown,2,2022-06-30T09:16:29.424+02:00,2022-06-30T08:20:05.567+02:00,873,1.488614,0,0,680.226,0,0,2022-06-30T09:16:29.423+02:00
2022-06-30T09:16:30.180+02:00,2984.599127416667,-0.486053466796875,-0.0630645751953125,-0.62164306640625,2984.589176416667,0.06414230932967593,0.9404478029149494,-1.045144440423448,1.205673694610596,1.751924753189087,-1.889053821563721,-0.5695160627365112,-0.4807350039482117,0.5344840288162231,XArbitraryZVertical,0.4573013198136712,-0.3781470133566243,0.2012532621932997,-0.7793443326317082,0.405346691608429,0.8649970293045044,-0.2957606911659241,0,0,0,-1,-1,2983.843994416667,unknown,2,2022-06-30T09:16:29.424+02:00,2022-06-30T08:20:05.567+02:00,873,1.488614,0,0,680.226,0,0,2022-06-30T09:16:29.423+02:00
2022-06-30T09:16:30.190+02:00,2984.609079416667,-0.35955810546875,0.4042510986328125,-0.529266357421875,2984.599127416667,0.04075012614518229,0.9402830337826504,-1.059205006004409,-0.9744775891304016,2.241562604904175,-1.740802526473999,-0.8282040357589722,-1.067080736160278,-0.2088241875171661,XArbitraryZVertical,0.4582509692282608,-0.3816963298533165,0.21313503138658,-0.7738781644616946,0.3954342305660248,0.871966540813446,-0.2886279225349426,0,0,0,-1,-1,2983.843994416667,unknown,2,2022-06-30T09:16:29.424+02:00,2022-06-30T08:20:05.567+02:00,873,1.488614,0,0,680.226,0,0,2022-06-30T09:16:29.423+02:00
2022-06-30T09:16:30.200+02:00,2984.619031416667,-0.1602630615234375,0.8024444580078125,-0.462371826171875,2984.609079416667,0.04976397232001037,0.9717395429365275,-1.082607997903831,-2.291443586349487,2.47102165222168,-1.602956533432007,-0.8734076023101807,-0.9462486505508423,-0.3571762442588806,XArbitraryZVertical,0.4654393226206479,-0.3887578238311868,0.2216826584972225,-0.7636036096973958,0.3873541057109833,0.883184015750885,-0.264467179775238,0,0,0,-1,-1,2983.843994416667,unknown,2,2022-06-30T09:16:29.424+02:00,2022-06-30T08:20:05.567+02:00,873,1.488614,0,0,680.226,0,0,2022-06-30T09:16:29.423+02:00
2022-06-30T09:16:30.210+02:00,2984.628983416667,0.037841796875,1.04766845703125,-0.4280242919921875,2984.619031416667,0.07408994390574081,1.019200061999395,-1.108938967557643,-2.333811521530151,2.728508949279785,-1.613216638565063,-0.7390806674957275,-0.4909753799438477,-0.2957451343536377,XArbitraryZVertical,0.4746413161830578,-0.3974352838122921,0.2291747071503276,-0.7511589566893682,0.3795225918292999,0.8952263593673706,-0.2335216253995895,0,0,0,-1,-1,2983.843994416667,unknown,2,2022-06-30T09:16:29.424+02:00,2022-06-30T08:20:05.567+02:00,873,1.488614,0,0,680.226,0,0,2022-06-30T09:16:29.423+02:00
2022-06-30T09:16:30.220+02:00,2984.638934416667,0.1330108642578125,1.165206909179688,-0.33026123046875,2984.628983416667,0.09210784764402441,1.064028955766128,-1.132631332717998,-1.318117380142212,2.996512413024902,-1.668493747711182,-0.5312174558639526,-0.1030873656272888,-0.2564471960067749,XArbitraryZVertical,0.4815889794713951,-0.4063367195982822,0.2383946937210012,-0.7390064304532185,0.3709543943405151,0.9055317640304565,-0.2059250473976135,0,0,0,-1,-1,2983.843994416667,unknown,2,2022-06-30T09:16:29.424+02:00,2022-06-30T08:20:05.567+02:00,873,1.488614,0,0,680.226,0,0,2022-06-30T09:16:29.423+02:00
2022-06-30T09:16:30.230+02:00,2984.648886416667,0.057342529296875,1.248580932617188,-0.0560150146484375,2984.638934416667,0.08316653160948694,1.086421905943699,-1.14971326525912,0.3659047186374664,3.110530614852905,-1.683387041091919,-0.3238875865936279,0.1350216865539551,-0.2376885414123535,XArbitraryZVertical,0.4830801911773761,-0.4140838977588694,0.2509288177759182,-0.7295223673238828,0.3617294430732727,0.9126467704772949,-0.1903361082077026,0,0,0,-1,-1,2983.843994416667,unknown,2,2022-06-30T09:16:29.424+02:00,2022-06-30T08:20:05.567+02:00,873,1.488614,0,0,680.226,0,0,2022-06-30T09:16:29.423+02:00
2022-06-30T09:16:30.240+02:00,2984.658838416667,-0.0716400146484375,1.34832763671875,0.1667633056640625,2984.648886416667,0.03819558097156995,1.076082536057633,-1.159940881445113,1.768547177314758,3.065551280975342,-1.837517499923706,-0.2184976637363434,0.2484273910522461,-0.1406373977661133,XArbitraryZVertical,0.4786747012497797,-0.4195931613234541,0.2670565440521879,-0.7235282101219558,0.3515085577964783,0.9167795181274414,-0.1896242201328278,0,0,0,-1,-1,2983.843994416667,unknown,2,2022-06-30T09:16:29.424+02:00,2022-06-30T08:20:05.567+02:00,873,1.488614,0,0,680.226,0,0,2022-06-30T09:16:29.423+02:00
2022-06-30T09:16:30.251+02:00,2984.668790416667,-0.1630859375,1.18841552734375,0.1911468505859375,2984.658838416667,-0.0287568740187254,1.044735812369611,-1.16690023416523,2.053901433944702,2.994761228561401,-1.93716287612915,-0.2825242877006531,0.3290441036224365,0.1413239240646362,XArbitraryZVertical,0.4714014936028432,-0.4232150228472594,0.28523642164245,-0.7192426509826572,0.3398668467998505,0.9195367693901062,-0.1973393559455872,0,0,0,-1,-1,2983.843994416667,unknown,2,2022-06-30T09:16:29.424+02:00,2022-06-30T08:20:05.567+02:00,873,1.488614,0,0,680.226,0,0,2022-06-30T09:16:29.423+02:00
2022-06-30T09:16:30.260+02:00,2984.678741416667,-0.19708251953125,0.9736480712890625,0.188690185546875,2984.668790416667,-0.09672491996483661,1.011651294717247,-1.173236977107208,1.829452514648438,2.926782608032227,-1.87964653968811,-0.3998468220233917,0.426318883895874,0.3721413612365723,XArbitraryZVertical,0.4641557717269414,-0.4264624209556958,0.3031165523570748,-0.7147094646857053,0.328206866979599,0.9220086932182312,-0.2053784430027008,0,0,0,-1,-1,2983.843994416667,unknown,2,2022-06-30T09:16:29.424+02:00,2022-06-30T08:20:05.567+02:00,873,1.488614,0,0,680.226,0,0,2022-06-30T09:16:29.423+02:00
2022-06-30T09:16:30.270+02:00,2984.688693416667,-0.1937408447265625,1.04193115234375,0.2087860107421875,2984.678741416667,-0.1598386615616099,0.9818766335130201,-1.179696855720004,1.535112857818604,2.793168306350708,-1.843282699584961,-0.4800736308097839,0.2639248967170715,0.4028918147087097,XArbitraryZVertical,0.4576946567789069,-0.4297009872274015,0.319910419690309,-0.7095984613246481,0.3169877529144287,0.9244905114173889,-0.2117453217506409,0,0,0,-1,-1,2983.843994416667,unknown,2,2022-06-30T09:16:29.424+02:00,2022-06-30T08:20:05.567+02:00,873,1.488614,0,0,680.226,0,0,2022-06-30T09:16:29.423+02:00
2022-06-30T09:16:30.280+02:00,2984.698645416667,-0.2066650390625,1.214767456054688,0.252655029296875,2984.688693416667,-0.2165269748559136,0.9562316491838629,-1.187060052910784,1.147881984710693,2.607637405395508,-1.792717814445496,-0.5029664635658264,0.04637569189071655,0.4045629501342773,XArbitraryZVertical,0.4524537190696516,-0.4328384081367288,0.335354778737373,-0.7038989982402503,0.3058840036392212,0.9272723197937012,-0.2158730924129486,0,0,0,-1,-1,2983.843994416667,unknown,2,2022-06-30T09:16:29.424+02:00,2022-06-30T08:20:05.567+02:00,873,1.488614,0,0,680.226,0,0,2022-06-30T09:16:29.423+02:00
2022-06-30T09:16:30.295+02:00,2984.708597416667,-0.2079315185546875,1.250930786132812,0.17169189453125,2984.698645416667,-0.2671382356457825,0.9343660491932215,-1.195733150607121,0.9097429513931274,2.454276561737061,-1.830702900886536,-0.4883525967597961,0.1114464998245239,0.4265067577362061,XArbitraryZVertical,0.4485125916427016,-0.4358622641470695,0.3495248826692181,-0.6976337772250977,0.2946118414402008,0.9304844737052917,-0.217721089720726,0,0,0,-1,-1,2983.843994416667,unknown,2,2022-06-30T09:16:29.424+02:00,2022-06-30T08:20:05.567+02:00,873,1.488614,0,0,680.226,0,0,2022-06-30T09:16:29.423+02:00
2022-06-30T09:16:30.302+02:00,2984.718548416667,-0.1938018798828125,1.2196044921875,0.11346435546875,2984.708597416667,-0.3195088002879198,0.9093023407423957,-1.20498493921384,1.02703583240509,2.327363729476929,-1.931617021560669,-0.4889228940010071,0.2809335589408875,0.4723929166793823,XArbitraryZVertical,0.4450886028594268,-0.4382088548784567,0.3634478501929062,-0.6912125957019348,0.2822579741477966,0.9338338375091553,-0.2197382748126984,0,0,0,-1,-1,2983.843994416667,unknown,2,2022-06-30T09:16:29.424+02:00,2022-06-30T08:20:05.567+02:00,873,1.488614,0,0,680.226,0,0,2022-06-30T09:16:29.423+02:00
2022-06-30T09:16:30.310+02:00,2984.728500416667,-0.2101593017578125,1.247222900390625,0.158294677734375,2984.718548416667,-0.380690984330348,0.8746829239055138,-1.212599092878763,1.396556377410889,2.229686737060547,-1.968690872192383,-0.4769506752490997,0.314400315284729,0.3965017795562744,XArbitraryZVertical,0.4410262731198084,-0.4394208663797318,0.3778254749016962,-0.6853124318861367,0.2690192461013794,0.9365303516387939,-0.2248102575540543,0,0,0,-1,-1,2983.843994416667,unknown,2,2022-06-30T09:16:29.424+02:00,2022-06-30T08:20:05.567+02:00,873,1.488614,0,0,680.226,0,0,2022-06-30T09:16:29.423+02:00
2022-06-30T09:16:30.320+02:00,2984.738452416667,-0.218963623046875,1.281356811523438,0.13861083984375,2984.728500416667,-0.4513119273470548,0.8300965260792409,-1.217466010498536,1.641343474388123,2.122811555862427,-2.008712291717529,-0.4491665959358215,0.2813788056373596,0.3469628095626831,XArbitraryZVertical,0.4359964358562827,-0.4394970733542158,0.3927055165558995,-0.6800969552824395,0.2553648352622986,0.9382255673408508,-0.2334988564252853,0,0,0,-1,-1,2983.843994416667,unknown,2,2022-06-30T09:16:29.424+02:00,2022-06-30T08:20:05.567+02:00,873,1.488614,0,0,680.226,0,0,2022-06-30T09:16:29.423+02:00
2022-06-30T09:16:30.330+02:00,2984.748404416667,-0.2315826416015625,1.31134033203125,0.0608367919921875,2984.738452416667,-0.5292421750990646,0.7774044090686298,-1.219631134552436,1.961729288101196,2.000788688659668,-2.030201196670532,-0.4514463543891907,0.3082503080368042,0.4034702777862549,XArbitraryZVertical,0.4302889741827043,-0.4384785130214539,0.4079044087021268,-0.6754273652154672,0.2412872314453125,0.938972532749176,-0.2451759874820709,0,0,0,-1,-1,2983.843994416667,unknown,2,2022-06-30T09:16:29.424+02:00,2022-06-30T08:20:05.567+02:00,873,1.488614,0,0,680.226,0,0,2022-06-30T09:16:29.423+02:00
2022-06-30T09:16:30.339+02:00,2984.758356416667,-0.2577667236328125,1.382492065429688,0.0223388671875,2984.748404416667,-0.6159790166305832,0.7154736225487707,-1.217240209317038,2.469902276992798,1.926615476608276,-2.05248761177063,-0.4460858702659607,0.3432093858718872,0.3999437093734741,XArbitraryZVertical,0.423253180198539,-0.4361079257163709,0.4237407727611371,-0.671647607857159,0.22712242603302,0.9381473660469055,-0.2613332569599152,0,0,0,-1,-1,2983.843994416667,unknown,2,2022-06-30T09:16:29.424+02:00,2022-06-30T08:20:05.567+02:00,873,1.488614,0,0,680.226,0,0,2022-06-30T09:16:29.423+02:00
2022-06-30T09:16:30.350+02:00,2984.768307416667,-0.2751007080078125,1.371536254882812,-0.057281494140625,2984.758356416667,-0.711148226931933,0.6454048963172627,-1.209127492468062,2.968061685562134,1.917036414146423,-2.111113786697388,-0.4444224834442139,0.3760325908660889,0.3435003757476807,XArbitraryZVertical,0.4145096529623295,-0.4322612359829049,0.4406205422651952,-0.6687193760364023,0.2128399908542633,0.9353076219558716,-0.2826639413833618,0,0,0,-1,-1,2983.843994416667,unknown,2,2022-06-30T09:16:29.424+02:00,2022-06-30T08:20:05.567+02:00,873,1.488614,0,0,680.226,0,0,2022-06-30T09:16:29.423+02:00
2022-06-30T09:16:30.359+02:00,2984.778259416667,-0.2728118896484375,1.317901611328125,-0.1428985595703125,2984.768307416667,-0.8094544627577455,0.5729384407416009,-1.195400631412686,3.351142644882202,1.954360604286194,-2.13138222694397,-0.4565238952636719,0.4521293640136719,0.3304311037063599,XArbitraryZVertical,0.4042225403403544,-0.4272678654980708,0.4584021780659088,-0.6662686053372469,0.1987573504447937,0.9303626418113708,-0.3080926239490509,0,0,0,-1,-1,2983.843994416667,unknown,2,2022-06-30T09:16:29.424+02:00,2022-06-30T08:20:05.567+02:00,873,1.488614,0,0,680.226,0,0,2022-06-30T09:16:29.423+02:00
2022-06-30T09:16:30.369+02:00,2984.788211416667,-0.289459228515625,1.098297119140625,-0.1337432861328125,2984.778259416667,-0.9036447227232596,0.5048818501070766,-1.177576644632632,3.256404161453247,1.929236769676208,-2.117719888687134,-0.4604386985301971,0.4478559494018555,0.2780758142471313,XArbitraryZVertical,0.3931026047565837,-0.4216533306550976,0.4763703240245216,-0.663890175662517,0.1853381842374802,0.9236801862716675,-0.3353576362133026,0,0,0,-1,-1,2983.843994416667,unknown,2,2022-06-30T09:16:29.424+02:00,2022-06-30T08:20:05.567+02:00,873,1.488614,0,0,680.226,0,0,2022-06-30T09:16:29.423+02:00
2022-06-30T09:16:30.379+02:00,2984.798163416667,-0.298492431640625,0.8781280517578125,-0.2632293701171875,2984.788211416667,-0.9887838855516621,0.4456828189705656,-1.160094600323345,2.900592565536499,1.940640687942505,-2.240727424621582,-0.4449192881584167,0.4010605216026306,0.2173535525798798,XArbitraryZVertical,0.3827954077057382,-0.4163429807289581,0.4936920255531354,-0.6606015291397395,0.17210753262043,0.9168409109115601,-0.3602524101734161,0,0,0,-1,-1,2983.843994416667,unknown,2,2022-06-30T09:16:29.424+02:00,2022-06-30T08:20:05.567+02:00,873,1.488614,0,0,680.226,0,0,2022-06-30T09:16:29.423+02:00
2022-06-30T09:16:30.389+02:00,2984.808114416667,-0.26702880859375,0.8328094482421875,-0.3211669921875,2984.798163416667,-1.06763571207462,0.3934657610338274,-1.145187171624961,2.411131858825684,2.064623594284058,-2.396530866622925,-0.4477521181106567,0.1875095367431641,0.2475825250148773,XArbitraryZVertical,0.3738401456310456,-0.411801518247073,0.5105877804472944,-0.6557157597445155,0.1582930684089661,0.9107874035835266,-0.3813261091709137,0,0,0,-1,-1,2983.843994416667,unknown,2,2022-06-30T09:16:29.424+02:00,2022-06-30T08:20:05.567+02:00,873,1.488614,0,0,680.226,0,0,2022-06-30T09:16:29.423+02:00
2022-06-30T09:16:30.399+02:00,2984.818066416667,-0.2559356689453125,0.845458984375,-0.396759033203125,2984.808114416667,-1.139710873658345,0.3491479173648755,-1.134289889503682,1.823283433914185,2.193670272827148,-2.429633855819702,-0.4431227743625641,-0.02810627222061157,0.1340380907058716,XArbitraryZVertical,0.3664220835819739,-0.4087798612175284,0.5266923398846631,-0.649021665585102,0.144630566239357,0.9062342047691345,-0.397267758846283,0,0,0,-1,-1,2983.843994416667,unknown,2,2022-06-30T09:16:29.424+02:00,2022-06-30T08:20:05.567+02:00,873,1.488614,0,0,680.226,0,0,2022-06-30T09:16:29.423+02:00
2022-06-30T09:16:30.409+02:00,2984.828018416667,-0.25860595703125,0.95684814453125,-0.450164794921875,2984.818066416667,-1.206529117699152,0.3112714489417445,-1.126035645699607,1.640683054924011,2.344007730484009,-2.44619345664978,-0.3987984359264374,-0.06990432739257812,0.08839929103851318,XArbitraryZVertical,0.3598489916709969,-0.4070938806334942,0.5420965923424614,-0.6410261749013886,0.1317698359489441,0.9027136564254761,-0.4095665514469147,0,0,0,-1,-1,2983.843994416667,unknown,2,2022-06-30T09:16:29.424+02:00,2022-06-30T08:20:05.567+02:00,873,1.488614,0,0,680.226,0,0,2022-06-30T09:16:29.423+02:00
2022-06-30T09:16:30.419+02:00,2984.837971541667,-0.2764129638671875,1.04266357421875,-0.4580230712890625,2984.828018416667,-1.272529573347467,0.2757647590171405,-1.116575905338052,1.871811866760254,2.476017951965332,-2.519837617874146,-0.3754027783870697,-0.05314451456069946,0.02542495727539062,XArbitraryZVertical,0.3527637629846658,-0.405543568342582,0.5577540470637443,-0.6324575599766894,0.1194673553109169,0.8986033797264099,-0.4221842885017395,0,0,0,-1,-1,2983.843994416667,unknown,2,2022-06-30T09:16:29.424+02:00,2022-06-30T08:20:05.567+02:00,873,1.488614,0,0,680.226,0,0,2022-06-30T09:16:29.423+02:00
2022-06-30T09:16:30.429+02:00,2984.847922541667,-0.2895355224609375,1.1868896484375,-0.42669677734375,2984.837971541667,-1.341034609736162,0.2397493832730775,-1.102074077783326,2.538597822189331,2.630454778671265,-2.657349109649658,-0.365877091884613,0.06470173597335815,-0.01133939623832703,XArbitraryZVertical,0.3439627223583393,-0.4028359484547413,0.5746720744340608,-0.6238308222410561,0.1072714179754257,0.8921462297439575,-0.4388256967067719,0,0,0,-1,-1,2983.843994416667,unknown,2,2022-06-30T09:16:29.424+02:00,2022-06-30T08:20:05.567+02:00,873,1.488614,0,0,680.226,0,0,2022-06-30T09:16:29.423+02:00
2022-06-30T09:16:30.439+02:00,2984.857874541667,-0.3324432373046875,1.259765625,-0.457672119140625,2984.847922541667,-1.411418733852754,0.2041508553739874,-1.080176770480478,3.094146251678467,2.765493392944336,-2.716330528259277,-0.3719362020492554,0.1606223583221436,0.00336456298828125,XArbitraryZVertical,0.3326741774891039,-0.3982887679981599,0.5932448685943716,-0.6154303551142565,0.09552349895238876,0.8820410966873169,-0.4613879024982452,0,0,0,-1,-1,2983.843994416667,unknown,2,2022-06-30T09:16:29.424+02:00,2022-06-30T08:20:05.567+02:00,873,1.488614,0,0,680.226,0,0,2022-06-30T09:16:29.423+02:00
2022-06-30T09:16:30.449+02:00,2984.867826541667,-0.4072113037109375,1.198577880859375,-0.5048980712890625,2984.857874541667,-1.478921812576913,0.1730904049928197,-1.053967937568053,3.261771678924561,2.87983512878418,-2.726827383041382,-0.3746371567249298,0.3174987435340881,0.06004467606544495,XArbitraryZVertical,0.3198427966896253,-0.3928482564861445,0.612399987680363,-0.6069078182226558,0.0851019099354744,0.8693907260894775,-0.4867416620254517,0,0,0,-1,-1,2983.843994416667,unknown,2,2022-06-30T09:16:29.424+02:00,2022-06-30T08:20:05.567+02:00,873,1.488614,0,0,680.226,0,0,2022-06-30T09:16:29.423+02:00
2022-06-30T09:16:30.459+02:00,2984.877778541667,-0.455322265625,1.20599365234375,-0.5339813232421875,2984.867826541667,-1.542723249957515,0.1470075970409459,-1.02633181232335,3.180546760559082,2.932755470275879,-2.795241832733154,-0.4083130359649658,0.4043607115745544,0.05470097064971924,XArbitraryZVertical,0.3064332435744531,-0.3871847058149478,0.6315292978631254,-0.5977938269097505,0.07587011158466339,0.855404794216156,-0.5123733282089233,0,0,0,-1,-1,2983.843994416667,unknown,2,2022-06-30T09:16:29.424+02:00,2022-06-30T08:20:05.567+02:00,873,1.488614,0,0,680.226,0,0,2022-06-30T09:16:29.423+02:00
2022-06-30T09:16:30.469+02:00,2984.887730541667,-0.4702301025390625,1.238525390625,-0.5772552490234375,2984.877778541667,-1.603397331097287,0.1247802170737572,-0.9999145292493075,2.92420482635498,2.95451831817627,-2.866946220397949,-0.4744641780853271,0.3571529388427734,0.03127461671829224,XArbitraryZVertical,0.293442380740032,-0.3818443440558373,0.6501525848065134,-0.5876973637167907,0.06725318729877472,0.841424822807312,-0.5361729264259338,0,0,0,-1,-1,2983.843994416667,unknown,2,2022-06-30T09:16:29.424+02:00,2022-06-30T08:20:05.567+02:00,873,1.488614,0,0,680.226,0,0,2022-06-30T09:16:29.423+02:00
2022-06-30T09:16:30.479+02:00,2984.897681541667,-0.476837158203125,1.145767211914062,-0.6444549560546875,2984.887730541667,-1.661231849243422,0.1059774449411557,-0.9759717987635438,2.569522142410278,2.984066009521484,-2.936532020568848,-0.5145967602729797,0.3777466416358948,0.02323812246322632,XArbitraryZVertical,0.281215784466596,-0.3772371369832871,0.6679981617609542,-0.5765313141536679,0.05927478894591331,0.8282468318939209,-0.5572196245193481,0,0,0,-1,-1,2983.843994416667,unknown,2,2022-06-30T09:16:29.424+02:00,2022-06-30T08:20:05.567+02:00,873,1.488614,0,0,680.226,0,0,2022-06-30T09:16:29.423+02:00
2022-06-30T09:16:30.489+02:00,2984.907633541667,-0.4608917236328125,1.070068359375,-0.6206207275390625,2984.897681541667,-1.717454950551064,0.08989454338171636,-0.9542715309185399,2.399882793426514,3.077708005905151,-3.038425445556641,-0.5221371650695801,0.4226324558258057,-0.001386821269989014,XArbitraryZVertical,0.2695475789543343,-0.3733762067087276,0.6852674846410738,-0.5642187678960011,0.05190734192728996,0.81589275598526,-0.5758686065673828,0,0,0,-1,-1,2983.843994416667,unknown,2,2022-06-30T09:16:29.424+02:00,2022-06-30T08:20:05.567+02:00,873,1.488614,0,0,680.226,0,0,2022-06-30T09:16:29.423+02:00
2022-06-30T09:16:30.499+02:00,2984.917585541667,-0.45751953125,1.006759643554688,-0.672271728515625,2984.907633541667,-1.773074389148729,0.07594503553685912,-0.9340992204667627,2.140693187713623,3.174003124237061,-3.163417816162109,-0.5219460129737854,0.3417031764984131,-0.05162584781646729,XArbitraryZVertical,0.2581331142013147,-0.3700711453136414,0.7022033817284933,-0.5507496272088708,0.04510919749736786,0.8040638566017151,-0.5928292870521545,0,0,0,-1,-1,2983.843994416667,unknown,2,2022-06-30T09:16:29.424+02:00,2022-06-30T08:20:05.567+02:00,873,1.488614,0,0,680.226,0,0,2022-06-30T09:16:29.423+02:00
2022-06-30T09:16:30.509+02:00,2984.927537541667,-0.4534759521484375,0.9897918701171875,-0.7028045654296875,2984.917585541667,-1.828523462238087,0.06387139695379172,-0.9159895794607433,1.955907106399536,3.301780462265015,-3.268576145172119,-0.499763011932373,0.2769025564193726,-0.01285666227340698,XArbitraryZVertical,0.2470544592580362,-0.3675350178924381,0.7187328257062489,-0.5360086837200729,0.03887162357568741,0.7931656241416931,-0.6077641844749451,0,0,0,-1,-1,2983.843994416667,unknown,2,2022-06-30T09:16:29.424+02:00,2022-06-30T08:20:05.567+02:00,873,1.488614,0,0,680.226,0,0,2022-06-30T09:16:29.423+02:00
2022-06-30T09:16:30.519+02:00,2984.937488541667,-0.4479522705078125,1.055557250976562,-0.7226104736328125,2984.927537541667,-1.884005704162782,0.05364268016760396,-0.8986295133028905,1.937068104743958,3.42863655090332,-3.385168075561523,-0.4909055233001709,0.2242852449417114,-0.05048453807830811,XArbitraryZVertical,0.235842477648007,-0.3653555216080511,0.7350556894482837,-0.5201797378798575,0.03338636830449104,0.7824742794036865,-0.6217873096466064,0,0,0,-1,-1,2983.843994416667,unknown,2,2022-06-30T09:16:29.424+02:00,2022-06-30T08:20:05.567+02:00,873,1.488614,0,0,680.226,0,0,2022-06-30T09:16:29.423+02:00
2022-06-30T09:16:30.529+02:00,2984.947440541667,-0.43743896484375,1.094268798828125,-0.7242889404296875,2984.937488541667,-1.939967014523964,0.0448129432109708,-0.8801362809506236,2.107815742492676,3.527676105499268,-3.500025272369385,-0.4820139408111572,0.2189660668373108,-0.06639808416366577,XArbitraryZVertical,0.2240433866964084,-0.362768866583188,0.7514926052728385,-0.5034503926013827,0.02853835932910442,0.7708256840705872,-0.6364066004753113,0,0,0,-1,-1,2983.843994416667,unknown,2,2022-06-30T09:16:29.424+02:00,2022-06-30T08:20:05.567+02:00,873,1.488614,0,0,680.226,0,0,2022-06-30T09:16:29.423+02:00
2022-06-30T09:16:30.539+02:00,2984.957392541667,-0.429443359375,1.02105712890625,-0.7881927490234375,2984.947440541667,-1.995449465620682,0.03785002577746627,-0.8600240008772999,2.179017782211304,3.593896150588989,-3.498383760452271,-0.4726400673389435,0.2976990342140198,-0.07065856456756592,XArbitraryZVertical,0.2115462406971413,-0.3595443417721003,0.7678855334378101,-0.4861358531316329,0.02468819543719292,0.7578582167625427,-0.6519520878791809,0,0,0,-1,-1,2983.843994416667,unknown,2,2022-06-30T09:16:29.424+02:00,2022-06-30T08:20:05.567+02:00,873,1.488614,0,0,680.226,0,0,2022-06-30T09:16:29.423+02:00
2022-06-30T09:16:30.549+02:00,2984.967344541667,-0.41534423828125,1.04962158203125,-0.7682647705078125,2984.957392541667,-2.048701623486554,0.03366181209726796,-0.8399143564198185,2.048125028610229,3.592456817626953,-3.413399457931519,-0.4599044919013977,0.3496827483177185,-0.0571405291557312,XArbitraryZVertical,0.1987140905207724,-0.3562842587834881,0.7835925058573705,-0.4685691954973071,0.0224659126251936,0.7445859313011169,-0.6671484708786011,0,0,0,-1,-1,2983.843994416667,unknown,2,2022-06-30T09:16:29.424+02:00,2022-06-30T08:20:05.567+02:00,873,1.488614,0,0,680.226,0,0,2022-06-30T09:16:29.423+02:00
2022-06-30T09:16:30.558+02:00,2984.977295541667,-0.464691162109375,1.117965698242188,-0.769805908203125,2984.967344541667,-2.099245100277248,0.03187347683097653,-0.8223094744197943,1.685502767562866,3.539885997772217,-3.310521364212036,-0.4511301815509796,0.2883375883102417,-0.1080076098442078,XArbitraryZVertical,0.1863003281405138,-0.3538354966907118,0.7980301791183261,-0.4508221831371851,0.02168721333146095,0.7327194213867188,-0.6801852583885193,0,0,0,-1,-1,2983.843994416667,unknown,2,2022-06-30T09:16:29.424+02:00,2022-06-30T08:20:05.567+02:00,873,1.488614,0,0,680.226,0,0,2022-06-30T09:16:29.423+02:00
2022-06-30T09:16:30.568+02:00,2984.987247541667,-0.5573577880859375,1.132110595703125,-0.79449462890625,2984.977295541667,-2.147452959082363,0.03185657295975969,-0.8078895761586243,1.411403298377991,3.517469882965088,-3.264014720916748,-0.437353789806366,0.3267910480499268,-0.07758998870849609,XArbitraryZVertical,0.1745289400182259,-0.3524233836234392,0.8111236322748534,-0.4329154766822501,0.02200997807085514,0.7228304147720337,-0.6906748414039612,0,0,0,-1,-1,2983.843994416667,unknown,2,2022-06-30T09:16:29.424+02:00,2022-06-30T08:20:05.567+02:00,873,1.488614,0,0,680.226,0,0,2022-06-30T09:16:29.423+02:00
2022-06-30T09:16:30.578+02:00,2984.997199541667,-0.5641937255859375,1.144241333007812,-0.8180084228515625,2984.987247541667,-2.195100389829272,0.03292185042066285,-0.795542238630576,1.284651279449463,3.577396154403687,-3.314385652542114,-0.487728476524353,0.40372234582901,-0.07028764486312866,XArbitraryZVertical,0.1630210435350017,-0.3516603321123111,0.8233957974252649,-0.4144616527037677,0.02303776144981384,0.7142432332038879,-0.6995183229446411,0,0,0,-1,-1,2983.843994416667,unknown,2,2022-06-30T09:16:29.424+02:00,2022-06-30T08:20:05.567+02:00,873,1.488614,0,0,680.226,0,0,2022-06-30T09:16:29.423+02:00
2022-06-30T09:16:30.588+02:00,2985.007151541667,-0.5773773193359375,1.212387084960938,-0.8222808837890625,2984.997199541667,-2.242698485213372,0.03487649364195399,-0.7828648433549763,1.535473465919495,3.600620031356812,-3.335518836975098,-0.5820761919021606,0.4267973899841309,-0.08602988719940186,XArbitraryZVertical,0.1512121017324029,-0.3505745209357571,0.8353264417099581,-0.3955531690062217,0.02471879124641418,0.7053132057189941,-0.7084648013114929,0,0,0,-1,-1,2983.843994416667,unknown,2,2022-06-30T09:16:29.424+02:00,2022-06-30T08:20:05.567+02:00,873,1.488614,0,0,680.226,0,0,2022-06-30T09:16:29.423+02:00
2022-06-30T09:16:30.598+02:00,2985.017103541667,-0.5820770263671875,1.222564697265625,-0.8796234130859375,2985.007151541667,-2.290441955222478,0.03738706644024674,-0.7662690362645213,2.008496761322021,3.615101337432861,-3.395869016647339,-0.5911245346069336,0.4507893919944763,-0.09800899028778076,XArbitraryZVertical,0.1385159133606516,-0.3475825531871896,0.8475031771746893,-0.3764811644996683,0.02693121507763863,0.6934518814086914,-0.7199994325637817,0,0,0,-1,-1,2983.843994416667,unknown,2,2022-06-30T09:16:29.424+02:00,2022-06-30T08:20:05.567+02:00,873,1.488614,0,0,680.226,0,0,2022-06-30T09:16:29.423+02:00
2022-06-30T09:16:30.608+02:00,2985.027054541667,-0.5569915771484375,1.109878540039062,-0.936248779296875,2985.017103541667,-2.338065167930744,0.04091369424005231,-0.7450894035676076,2.50323748588562,3.653488159179688,-3.394516706466675,-0.6074411869049072,0.5343495011329651,-0.08786875009536743,XArbitraryZVertical,0.1247692292454887,-0.3423836473609546,0.8599710693587767,-0.357289473784252,0.03006429225206375,0.6780375242233276,-0.7344121336936951,0,0,0,-1,-1,2983.843994416667,unknown,2,2022-06-30T09:16:29.424+02:00,2022-06-30T08:20:05.567+02:00,873,1.488614,0,0,680.226,0,0,2022-06-30T09:16:29.423+02:00
2022-06-30T09:16:30.618+02:00,2985.037006541667,-0.541290283203125,1.052383422851562,-0.9601287841796875,2985.027054541667,-2.384918747402353,0.04586628770831855,-0.719411223541817,2.921454191207886,3.622075319290161,-3.384505271911621,-0.6165648102760315,0.563622772693634,-0.1282206177711487,XArbitraryZVertical,0.1100398750891927,-0.3349475012795954,0.8725595464955324,-0.3381439341839577,0.034488245844841,0.658941924571991,-0.7514027953147888,0,0,0,-1,-1,2983.843994416667,unknown,2,2022-06-30T09:16:29.424+02:00,2022-06-30T08:20:05.567+02:00,873,1.488614,0,0,680.226,0,0,2022-06-30T09:16:29.423+02:00
2022-06-30T09:16:30.628+02:00,2985.046958541667,-0.517852783203125,1.104095458984375,-0.91961669921875,2985.037006541667,-2.431144800358902,0.05161141394738675,-0.6899672628128266,3.29682731628418,3.534629106521606,-3.400054454803467,-0.5967796444892883,0.4733665585517883,-0.1660089492797852,XArbitraryZVertical,0.09481382391683912,-0.3254080657481733,0.8850691688367506,-0.3190180418193328,0.03978850319981575,0.6365119218826294,-0.7702398300170898,0,0,0,-1,-1,2983.843994416667,unknown,2,2022-06-30T09:16:29.424+02:00,2022-06-30T08:20:05.567+02:00,873,1.488614,0,0,680.226,0,0,2022-06-30T09:16:29.423+02:00
2022-06-30T09:16:30.638+02:00,2985.056910541667,-0.5130615234375,1.179306030273438,-0.88275146484375,2985.046958541667,-2.476292535307811,0.05792282054599762,-0.6573967260467104,3.60453724861145,3.38123345375061,-3.307141542434692,-0.5871150493621826,0.4413251876831055,-0.1698706150054932,XArbitraryZVertical,0.0794648764679667,-0.3139367119381108,0.8972558745447403,-0.3001017217742202,0.04582523927092552,0.611058235168457,-0.7902581691741943,0,0,0,-1,-1,2983.843994416667,unknown,2,2022-06-30T09:16:29.424+02:00,2022-06-30T08:20:05.567+02:00,873,1.488614,0,0,680.226,0,0,2022-06-30T09:16:29.423+02:00
2022-06-30T09:16:30.648+02:00,2985.066861541667,-0.5656585693359375,1.2691650390625,-0.866790771484375,2985.056910541667,-2.519139145509735,0.0650766387119662,-0.6220431798144284,3.899570465087891,3.192671298980713,-3.156476974487305,-0.5707021355628967,0.521398663520813,-0.1086472868919373,XArbitraryZVertical,0.06418159424084395,-0.3006593139428505,0.9088541760925669,-0.2819024748190336,0.05284978821873665,0.5826968550682068,-0.8109694123268127,0,0,0,-1,-1,2983.843994416667,unknown,2,2022-06-30T09:16:29.424+02:00,2022-06-30T08:20:05.567+02:00,873,1.488614,0,0,680.226,0,0,2022-06-30T09:16:29.423+02:00
2022-06-30T09:16:30.658+02:00,2985.076813541667,-0.58013916015625,1.3544921875,-0.866058349609375,2985.066861541667,-2.560153138724779,0.0728124556466221,-0.5836395943228101,4.239738464355469,3.026138067245483,-3.104987621307373,-0.5737667083740234,0.6282413601875305,-0.05049985647201538,XArbitraryZVertical,0.04901438739771496,-0.2854327065101847,0.9199274816486012,-0.264309161678527,0.06070559471845627,0.551064670085907,-0.8322515487670898,0,0,0,-1,-1,2983.843994416667,unknown,2,2022-06-30T09:16:29.424+02:00,2022-06-30T08:20:05.567+02:00,873,1.488614,0,0,680.226,0,0,2022-06-30T09:16:29.423+02:00
2022-06-30T09:16:30.668+02:00,2985.086765541667,-0.525054931640625,1.334274291992188,-0.9148101806640625,2985.076813541667,-2.600304721846828,0.08049264747007788,-0.5423010084342763,4.561742782592773,2.815394878387451,-3.057190895080566,-0.6345275640487671,0.7530568838119507,-0.01304054260253906,XArbitraryZVertical,0.03419531664513619,-0.2682454094008005,0.9305217130919708,-0.246990957059643,0.06886941194534302,0.5161082148551941,-0.8537501692771912,0,0,0,-1,-1,2983.843994416667,unknown,2,2022-06-30T09:16:29.424+02:00,2022-06-30T08:20:05.567+02:00,873,1.488614,0,0,680.226,0,0,2022-06-30T09:16:29.423+02:00
2022-06-30T09:16:30.678+02:00,2985.096717541667,-0.4674530029296875,1.28228759765625,-0.8986663818359375,2985.086765541667,-2.639447410271001,0.08802104945867503,-0.4979053135129001,4.860013008117676,2.59421706199646,-3.001990079879761,-0.6573728919029236,0.8769060373306274,0.009125351905822754,XArbitraryZVertical,0.01985134145448914,-0.2490263717448681,0.9405682758408165,-0.2300503878721274,0.07723414152860641,0.4775862395763397,-0.8751835823059082,0,0,0,-1,-1,2983.843994416667,unknown,2,2022-06-30T09:16:29.424+02:00,2022-06-30T08:20:05.567+02:00,873,1.488614,0,0,680.226,0,0,2022-06-30T09:16:29.423+02:00
2022-06-30T09:16:30.688+02:00,2985.106668541667,-0.4075775146484375,1.1282958984375,-0.87457275390625,2985.096717541667,-2.677757919351547,0.09488669597741084,-0.4519785677158233,4.910894393920898,2.287050485610962,-2.985641002655029,-0.6102851033210754,0.8975281119346619,-0.01927202939987183,XArbitraryZVertical,0.006461089098428896,-0.2284495915180797,0.9498563996079857,-0.2134055191543154,0.08523059636354446,0.4367462694644928,-0.8955380916595459,0,0,0,-1,-1,2983.843994416667,unknown,2,2022-06-30T09:16:29.424+02:00,2022-06-30T08:20:05.567+02:00,873,1.488614,0,0,680.226,0,0,2022-06-30T09:16:29.423+02:00
2022-06-30T09:16:30.698+02:00,2985.116620541667,-0.3340301513671875,1.024993896484375,-0.8761444091796875,2985.106668541667,-2.715152804511557,0.1006223375512272,-0.4069936886516539,4.710712909698486,2.001480102539062,-2.927946090698242,-0.5596997141838074,0.8864372968673706,0.0150037407875061,XArbitraryZVertical,-0.005426058077588448,-0.2076909598365005,0.9581272799516435,-0.197046244485787,0.09224715828895569,0.3958503901958466,-0.9136700630187988,0,0,0,-1,-1,2983.843994416667,unknown,2,2022-06-30T09:16:29.424+02:00,2022-06-30T08:20:05.567+02:00,873,1.488614,0,0,680.226,0,0,2022-06-30T09:16:29.423+02:00
2022-06-30T09:16:30.708+02:00,2985.126572541667,-0.281982421875,1.023651123046875,-0.8861236572265625,2985.116620541667,-2.750791225909236,0.1062015789735572,-0.3650374023064081,4.329593658447266,1.811716794967651,-2.804579496383667,-0.506594717502594,0.7713117599487305,0.05427491664886475,XArbitraryZVertical,-0.01600930653628934,-0.1879359631745691,0.9651864511790174,-0.1812151596705913,0.09901762008666992,0.3569842278957367,-0.9288475513458252,0,0,0,-1,-1,2983.843994416667,unknown,2,2022-06-30T09:16:29.424+02:00,2022-06-30T08:20:05.567+02:00,873,1.488614,0,0,680.226,0,0,2022-06-30T09:16:29.423+02:00
