loggingTime(txt),locationTimestamp_since1970(s),locationLatitude(WGS84),locationLongitude(WGS84),locationAltitude(m),locationSpeed(m/s),locationSpeedAccuracy(m/s),locationCourse(°),locationCourseAccuracy(°),locationVerticalAccuracy(m),locationHorizontalAccuracy(m),locationFloor(Z),accelerometerTimestamp_sinceReboot(s),accelerometerAccelerationX(G),accelerometerAccelerationY(G),accelerometerAccelerationZ(G),motionTimestamp_sinceReboot(s),motionYaw(rad),motionRoll(rad),motionPitch(rad),motionRotationRateX(rad/s),motionRotationRateY(rad/s),motionRotationRateZ(rad/s),motionUserAccelerationX(G),motionUserAccelerationY(G),motionUserAccelerationZ(G),motionAttitudeReferenceFrame(txt),motionQuaternionX(R),motionQuaternionY(R),motionQuaternionZ(R),motionQuaternionW(R),motionGravityX(G),motionGravityY(G),motionGravityZ(G),motionMagneticFieldX(µT),motionMagneticFieldY(µT),motionMagneticFieldZ(µT),motionHeading(°),motionMagneticFieldCalibrationAccuracy(Z),activityTimestamp_sinceReboot(s),activity(txt),activityActivityConfidence(Z),activityActivityStartDate(txt),pedometerStartDate(txt),pedometerNumberofSteps(N),pedometerAverageActivePace(s/m),pedometerCurrentPace(s/m),pedometerCurrentCadence(steps/s),pedometerDistance(m),pedometerFloorAscended(N),pedometerFloorDescended(N),pedometerEndDate(txt),altimeterTimestamp_sinceReboot(s),altimeterReset(bool),altimeterRelativeAltitude(m),altimeterPressure(kPa),batteryState(N),batteryLevel(R)
2022-06-02T10:51:22.629+02:00,1654159882.238837,53.22895223888472,10.39876643403945,34.92013,-1,-1,-1,-1,22.9221019744873,40,-9999,34413.34588366667,0.107757568359375,-0.398773193359375,-0.86285400390625,34413.33714666667,-2.102847985555999,0.06315353127675589,0.4783132636145081,-0.1390777379274368,0.006447437684983015,0.07752517610788345,0.008073434233665466,0.01644998788833618,0.03088498115539551,XArbitraryZVertical,0.1441430853315278,-0.1903191773757292,-0.8392897967763797,0.4884608408835073,0.05602871254086494,-0.4602823853492737,-0.886002779006958,0,0,0,-1,-1,34409.33442916667,unknown,2,2022-06-02T10:51:18.591+02:00,2022-06-02T10:32:51.428+02:00,137,2.25677,0.5971239,2.005515,117.0835,0,0,2022-06-02T10:51:21.147+02:00,675852668.3826994,0,15.39844,101.0076,1,0.88
2022-06-02T10:51:22.632+02:00,1654159882.238837,53.22895223888472,10.39876643403945,34.92013,-1,-1,-1,-1,22.9221019744873,40,-9999,34413.35585566667,0.0626220703125,-0.443115234375,-0.866790771484375,34413.34711966667,-2.102486868791418,0.06273420529217312,0.4786015850052672,0.1608211845159531,-0.04440011829137802,-0.007791099138557911,0.06159967184066772,0.06594604253768921,0.03237807750701904,XArbitraryZVertical,0.1440700678937465,-0.1905176065961863,-0.8392000169045863,0.4885594285192743,0.05564885959029198,-0.4605383276939392,-0.885893702507019,0,0,0,-1,-1,34409.33442916667,unknown,2,2022-06-02T10:51:18.591+02:00,2022-06-02T10:32:51.428+02:00,137,2.25677,0.5971239,2.005515,117.0835,0,0,2022-06-02T10:51:21.147+02:00,675852668.3826994,0,15.39844,101.0076,1,0.88
2022-06-02T10:51:22.634+02:00,1654159882.238837,53.22895223888472,10.39876643403945,34.92013,-1,-1,-1,-1,22.9221019744873,40,-9999,34413.36582866667,0.02685546875,-0.4825592041015625,-0.87188720703125,34413.35709166667,-2.102957600302809,0.06248972193097017,0.4810244079712002,0.2858006656169891,-0.04955147206783295,-0.02951556816697121,0.03380991518497467,0.04452043771743774,0.01963299512863159,XArbitraryZVertical,0.1444985199063033,-0.1916367595472805,-0.8390645495191673,0.4882276828975256,0.05536242946982384,-0.4626875817775726,-0.8847910761833191,0,0,0,-1,-1,34409.33442916667,unknown,2,2022-06-02T10:51:18.591+02:00,2022-06-02T10:32:51.428+02:00,137,2.25677,0.5971239,2.005515,117.0835,0,0,2022-06-02T10:51:21.147+02:00,675852668.3826994,0,15.39844,101.0076,1,0.88
2022-06-02T10:51:22.647+02:00,1654159882.238837,53.22895223888472,10.39876643403945,34.92013,-1,-1,-1,-1,22.9221019744873,40,-9999,34413.37580066667,0.0224609375,-0.5011444091796875,-0.877838134765625,34413.36706466667,-2.103264044315623,0.06219448678925381,0.4836144016391116,0.2104615718126297,-0.03853690624237061,0.009864794090390205,-0.01323272660374641,0.002564519643783569,0.01506286859512329,XArbitraryZVertical,0.1449605562330207,-0.1928270174228233,-0.8388728601061901,0.4879513731273188,0.05502653867006302,-0.4649821221828461,-0.883608341217041,0,0,0,-1,-1,34409.33442916667,unknown,2,2022-06-02T10:51:18.591+02:00,2022-06-02T10:32:51.428+02:00,137,2.25677,0.5971239,2.005515,117.0835,0,0,2022-06-02T10:51:21.147+02:00,675852668.3826994,0,15.39844,101.0076,1,0.88
2022-06-02T10:51:22.649+02:00,1654159882.238837,53.22895223888472,10.39876643403945,34.92013,-1,-1,-1,-1,22.9221019744873,40,-9999,34413.38577266667,0.0377197265625,-0.4836578369140625,-0.8905792236328125,34413.37703666667,-2.103171084877077,0.06189450617612254,0.4852033926069801,0.08785922080278397,-0.008282328024506569,0.02448581345379353,-0.03283461928367615,-0.0292171835899353,0.008572936058044434,XArbitraryZVertical,0.1452211130995565,-0.1935657330425632,-0.8386947081323801,0.4878876465235756,0.05471569672226906,-0.4663882851600647,-0.8828862905502319,0,0,0,-1,-1,34409.33442916667,unknown,2,2022-06-02T10:51:18.591+02:00,2022-06-02T10:32:51.428+02:00,137,2.25677,0.5971239,2.005515,117.0835,0,0,2022-06-02T10:51:21.147+02:00,675852668.3826994,0,15.39844,101.0076,1,0.88
2022-06-02T10:51:22.657+02:00,1654159882.238837,53.22895223888472,10.39876643403945,34.92013,-1,-1,-1,-1,22.9221019744873,40,-9999,34413.39574566667,0.0470428466796875,-0.454559326171875,-0.8986663818359375,34413.38700866667,-2.103024402470034,0.06178447538080127,0.4857016118721022,0.00495532900094986,-0.005832931026816368,0.009346121922135353,-0.02399507164955139,-0.02917325496673584,-0.0003048181533813477,XArbitraryZVertical,0.1453075065684893,-0.1937926648661214,-0.838611263812813,0.4879153295099101,0.05460419878363609,-0.4668289422988892,-0.8826602697372437,0,0,0,-1,-1,34409.33442916667,unknown,2,2022-06-02T10:51:18.591+02:00,2022-06-02T10:32:51.428+02:00,137,2.25677,0.5971239,2.005515,117.0835,0,0,2022-06-02T10:51:21.147+02:00,675852668.3826994,0,15.39844,101.0076,1,0.88
2022-06-02T10:51:22.668+02:00,1654159882.238837,53.22895223888472,10.39876643403945,34.92013,-1,-1,-1,-1,22.9221019744873,40,-9999,34413.40571766667,0.0438690185546875,-0.445281982421875,-0.9072265625,34413.39698166667,-2.103072198865275,0.06182803608492767,0.4857856629364373,0.00534921046346426,0.001875855145044625,-0.01561941578984261,-0.01118320226669312,-0.001831471920013428,-0.01198881864547729,XArbitraryZVertical,0.1453411007852774,-0.1938210878793677,-0.8386103304544296,0.4878955021352079,0.05464022234082222,-0.4669032692909241,-0.8826187252998352,0,0,0,-1,-1,34409.33442916667,unknown,2,2022-06-02T10:51:18.591+02:00,2022-06-02T10:32:51.428+02:00,137,2.25677,0.5971239,2.005515,117.0835,0,0,2022-06-02T10:51:21.147+02:00,675852668.3826994,0,15.39844,101.0076,1,0.88
2022-06-02T10:51:22.677+02:00,1654159882.238837,53.22895223888472,10.39876643403945,34.92013,-1,-1,-1,-1,22.9221019744873,40,-9999,34413.41569066667,0.0426025390625,-0.45098876953125,-0.9098052978515625,34413.40695366667,-2.103377935347042,0.06205123386034156,0.4860817988721639,0.04030985757708549,0.008965455926954746,-0.03262170404195786,-0.007495909929275513,0.01999104022979736,-0.02051615715026855,XArbitraryZVertical,0.145475371115502,-0.1939141458436305,-0.8386355507390626,0.4877751221579047,0.05482864379882812,-0.4671651124954224,-0.8824684619903564,0,0,0,-1,-1,34409.33442916667,unknown,2,2022-06-02T10:51:18.591+02:00,2022-06-02T10:32:51.428+02:00,137,2.25677,0.5971239,2.005515,117.0835,0,0,2022-06-02T10:51:21.147+02:00,675852668.3826994,0,15.39844,101.0076,1,0.88
2022-06-02T10:51:22.687+02:00,1654159882.238837,53.22895223888472,10.39876643403945,34.92013,-1,-1,-1,-1,22.9221019744873,40,-9999,34413.42566266667,0.0415496826171875,-0.459442138671875,-0.9069976806640625,34413.41692666667,-2.103919577327789,0.06251198488095731,0.4866550704106838,0.06500375270843506,0.02972532995045185,-0.05224147439002991,-0.01269225776195526,0.02116921544075012,-0.02827048301696777,XArbitraryZVertical,0.1457520912650623,-0.1940837192881393,-0.8386699232628206,0.4875661214247113,0.05521849915385246,-0.4676719307899475,-0.8821756839752197,0,0,0,-1,-1,34409.33442916667,unknown,2,2022-06-02T10:51:18.591+02:00,2022-06-02T10:32:51.428+02:00,137,2.25677,0.5971239,2.005515,117.0835,0,0,2022-06-02T10:51:21.147+02:00,675852668.3826994,0,15.39844,101.0076,1,0.88
2022-06-02T10:51:22.697+02:00,1654159882.238837,53.22895223888472,10.39876643403945,34.92013,-1,-1,-1,-1,22.9221019744873,40,-9999,34413.43563566667,0.043853759765625,-0.45611572265625,-0.902313232421875,34413.42689866667,-2.104595676067841,0.06320941710914092,0.4873270018840876,0.0552874282002449,0.04557770863175392,-0.05398156493902206,-0.01380644738674164,0.01204317808151245,-0.02538818120956421,XArbitraryZVertical,0.1461382593618062,-0.1942473924108565,-0.8387083891527631,0.4873189987003913,0.05581387877464294,-0.4682657420635223,-0.8818231225013733,0,0,0,-1,-1,34409.33442916667,unknown,2,2022-06-02T10:51:18.591+02:00,2022-06-02T10:32:51.428+02:00,137,2.25677,0.5971239,2.005515,117.0835,0,0,2022-06-02T10:51:21.147+02:00,675852668.3826994,0,15.39844,101.0076,1,0.88
2022-06-02T10:51:22.707+02:00,1654159882.238837,53.22895223888472,10.39876643403945,34.92013,-1,-1,-1,-1,22.9221019744873,40,-9999,34413.44560766667,0.0424041748046875,-0.446990966796875,-0.8898468017578125,34413.43687166667,-2.105226320507239,0.06409002682811685,0.4877555878996092,0.01821862533688545,0.06057104095816612,-0.0455678403377533,-0.01348674297332764,0.008454561233520508,-0.02563804388046265,XArbitraryZVertical,0.146547851109398,-0.1942603871054772,-0.8387493869735169,0.4871201578564086,0.05657754093408585,-0.468644380569458,-0.8815732598304749,0,0,0,-1,-1,34409.33442916667,unknown,2,2022-06-02T10:51:18.591+02:00,2022-06-02T10:32:51.428+02:00,137,2.25677,0.5971239,2.005515,117.0835,0,0,2022-06-02T10:51:21.147+02:00,675852668.3826994,0,15.39844,101.0076,1,0.88
2022-06-02T10:51:22.717+02:00,1654159882.238837,53.22895223888472,10.39876643403945,34.92013,-1,-1,-1,-1,22.9221019744873,40,-9999,34413.45558066667,0.037322998046875,-0.4477996826171875,-0.8823089599609375,34413.44684366667,-2.105782249507611,0.06498752010254487,0.48781206055268,-0.01074817776679993,0.06898076832294464,-0.05208253115415573,-0.01258246600627899,0.01874306797981262,-0.01486659049987793,XArbitraryZVertical,0.1468836448462824,-0.1941065179675076,-0.8388125616597384,0.4869715120104825,0.05736700445413589,-0.468694269657135,-0.8814957141876221,0,0,0,-1,-1,34409.33442916667,unknown,2,2022-06-02T10:51:18.591+02:00,2022-06-02T10:32:51.428+02:00,137,2.25677,0.5971239,2.005515,117.0835,0,0,2022-06-02T10:51:21.147+02:00,675852668.3826994,0,15.39844,101.0076,1,0.88
2022-06-02T10:51:22.726+02:00,1654159882.238837,53.22895223888472,10.39876643403945,34.92013,-1,-1,-1,-1,22.9221019744873,40,-9999,34413.46555266667,0.0381317138671875,-0.4539642333984375,-0.8717498779296875,34413.45681666667,-2.106333772384218,0.06584029189924044,0.4877347022902842,-0.007268225774168968,0.06851578503847122,-0.06350669264793396,-0.01733435690402985,0.02354228496551514,-0.00277942419052124,XArbitraryZVertical,0.1471695204424407,-0.1939066721242413,-0.8388929061296412,0.4868265926543193,0.05812108516693115,-0.4686259329319,-0.8814826607704163,0,0,0,-1,-1,34409.33442916667,unknown,2,2022-06-02T10:51:18.591+02:00,2022-06-02T10:32:51.428+02:00,137,2.25677,0.5971239,2.005515,117.0835,0,0,2022-06-02T10:51:21.147+02:00,675852668.3826994,0,15.39844,101.0076,1,0.88
2022-06-02T10:51:22.736+02:00,1654159882.238837,53.22895223888472,10.39876643403945,34.92013,-1,-1,-1,-1,22.9221019744873,40,-9999,34413.47552566667,0.0476837158203125,-0.4510040283203125,-0.8607940673828125,34413.46678866667,-2.107014444010627,0.0668184991101831,0.4877857513818221,0.007379293441772461,0.08145954459905624,-0.06686859577894211,-0.02300150692462921,0.01716345548629761,0.002052783966064453,XArbitraryZVertical,0.1475259493379243,-0.193740396265088,-0.8389806993410686,0.4866334569823503,0.05898173153400421,-0.4686710238456726,-0.8814014792442322,0,0,0,-1,-1,34409.33442916667,unknown,2,2022-06-02T10:51:18.591+02:00,2022-06-02T10:32:51.428+02:00,137,2.25677,0.5971239,2.005515,117.0835,0,0,2022-06-02T10:51:21.147+02:00,675852668.3826994,0,15.39844,101.0076,1,0.88
2022-06-02T10:51:22.746+02:00,1654159882.238837,53.22895223888472,10.39876643403945,34.92013,-1,-1,-1,-1,22.9221019744873,40,-9999,34413.48549766667,0.058380126953125,-0.4518890380859375,-0.8629608154296875,34413.47676166667,-2.107681947402922,0.06779403861715305,0.4877930454191173,0.003845811123028398,0.07491935044527054,-0.0620056688785553,-0.01734559237957001,0.01588815450668335,0.0169144868850708,XArbitraryZVertical,0.147872294995788,-0.1935554297188487,-0.8390702582570323,0.4864476685208592,0.05984131619334221,-0.4686774611473083,-0.8813401460647583,0,0,0,-1,-1,34409.33442916667,unknown,2,2022-06-02T10:51:18.591+02:00,2022-06-02T10:32:51.428+02:00,137,2.25677,0.5971239,2.005515,117.0835,0,0,2022-06-02T10:51:21.147+02:00,675852668.3826994,0,15.39844,101.0076,1,0.88
2022-06-02T10:51:22.757+02:00,1654159882.238837,53.22895223888472,10.39876643403945,34.92013,-1,-1,-1,-1,22.9221019744873,40,-9999,34413.49547066667,0.0728912353515625,-0.4512176513671875,-0.873687744140625,34413.48673366667,-2.108260934114195,0.0685798248528712,0.4871558047265411,-0.01358972676098347,0.07695569097995758,-0.06454361230134964,-0.007774163037538528,0.0179344117641449,0.01878243684768677,XArbitraryZVertical,0.1479956030381919,-0.1931372380665796,-0.8392249084267864,0.4863093775856224,0.06055429205298424,-0.4681144654750824,-0.8815906047821045,0,0,0,-1,-1,34409.33442916667,unknown,2,2022-06-02T10:51:18.591+02:00,2022-06-02T10:32:51.428+02:00,137,2.25677,0.5971239,2.005515,117.0835,0,0,2022-06-02T10:51:21.147+02:00,675852668.3826994,0,15.39844,101.0076,1,0.88
2022-06-02T10:51:22.766+02:00,1654159882.238837,53.22895223888472,10.39876643403945,34.92013,-1,-1,-1,-1,22.9221019744873,40,-9999,34413.50544266667,0.0729217529296875,-0.4465179443359375,-0.880126953125,34413.49670666667,-2.108827302137148,0.0692457446675066,0.4863078694401211,-0.01890246570110321,0.06539198011159897,-0.07155012339353561,0.005863070487976074,0.01572006940841675,0.01555174589157104,XArbitraryZVertical,0.1480204074364728,-0.1926579138938269,-0.8394091333127536,0.4861740930086429,0.06116878986358643,-0.4673649966716766,-0.881945788860321,0,0,0,-1,-1,34409.33442916667,unknown,2,2022-06-02T10:51:18.591+02:00,2022-06-02T10:32:51.428+02:00,137,2.25677,0.5971239,2.005515,117.0835,0,0,2022-06-02T10:51:21.147+02:00,675852668.3826994,0,15.39844,101.0076,1,0.88
2022-06-02T10:51:22.776+02:00,1654159882.238837,53.22895223888472,10.39876643403945,34.92013,-1,-1,-1,-1,22.9221019744873,40,-9999,34413.51541566667,0.0619049072265625,-0.4481048583984375,-0.8860321044921875,34413.50667866667,-2.109386741588193,0.06962454136920654,0.4856040565901741,-0.006508692167699337,0.05710706487298012,-0.07470181584358215,0.01273879408836365,0.01636424660682678,0.003527343273162842,XArbitraryZVertical,0.1479596204707552,-0.192308903635191,-0.8395965329172218,0.4860072300579693,0.06152573227882385,-0.4667426645755768,-0.8822504878044128,0,0,0,-1,-1,34409.33442916667,unknown,2,2022-06-02T10:51:18.591+02:00,2022-06-02T10:32:51.428+02:00,137,2.25677,0.5971239,2.005515,117.0835,0,0,2022-06-02T10:51:21.147+02:00,675852668.3826994,0,15.39844,101.0076,1,0.88
2022-06-02T10:51:22.786+02:00,1654159882.238837,53.22895223888472,10.39876643403945,34.92013,-1,-1,-1,-1,22.9221019744873,40,-9999,34413.52538766667,0.0514068603515625,-0.4507598876953125,-0.900909423828125,34413.51665166667,-2.110013190339494,0.07000896342408471,0.4851188503028278,-0.0008124569430947304,0.0542372427880764,-0.07979272305965424,0.006066635251045227,0.01916992664337158,0.001257479190826416,XArbitraryZVertical,0.1479464767841998,-0.1920561667840673,-0.8397749774744139,0.4858026257062891,0.06188071891665459,-0.466313511133194,-0.8824525475502014,0,0,0,-1,-1,34409.33442916667,unknown,2,2022-06-02T10:51:18.591+02:00,2022-06-02T10:32:51.428+02:00,137,2.25677,0.5971239,2.005515,117.0835,0,0,2022-06-02T10:51:21.147+02:00,675852668.3826994,0,15.39844,101.0076,1,0.88
2022-06-02T10:51:22.796+02:00,1654159882.238837,53.22895223888472,10.39876643403945,34.92013,-1,-1,-1,-1,22.9221019744873,40,-9999,34413.53535966667,0.052093505859375,-0.445343017578125,-0.89276123046875,34413.52662366667,-2.110742829070806,0.07061943586354254,0.4845589632067313,-0.002513329032808542,0.08150499314069748,-0.08704295009374619,-0.007750347256660461,0.01516503095626831,-0.0120089054107666,XArbitraryZVertical,0.1480009754719214,-0.1917244438505899,-0.8399701518766689,0.4855796356043362,0.06243783235549927,-0.4658181369304657,-0.8826748728752136,0,0,0,-1,-1,34409.33442916667,unknown,2,2022-06-02T10:51:18.591+02:00,2022-06-02T10:32:51.428+02:00,137,2.25677,0.5971239,2.005515,117.0835,0,0,2022-06-02T10:51:21.147+02:00,675852668.3826994,0,15.39844,101.0076,1,0.88
2022-06-02T10:51:22.806+02:00,1654159882.238837,53.22895223888472,10.39876643403945,34.92013,-1,-1,-1,-1,22.9221019744873,40,-9999,34413.54533266667,0.06170654296875,-0.4400634765625,-0.8839874267578125,34413.53659566667,-2.111382356004876,0.07132053268779157,0.4839483391783407,-0.01957673393189907,0.0890132412314415,-0.07853015512228012,-0.0137147456407547,0.01512819528579712,-0.01694208383560181,XArbitraryZVertical,0.148090503818103,-0.1913425514774617,-0.8401423449201705,0.4854050744513995,0.06307691335678101,-0.4652777314186096,-0.8829144835472107,0,0,0,-1,-1,34409.33442916667,unknown,2,2022-06-02T10:51:18.591+02:00,2022-06-02T10:32:51.428+02:00,137,2.25677,0.5971239,2.005515,117.0835,0,0,2022-06-02T10:51:21.147+02:00,675852668.3826994,0,15.39844,101.0076,1,0.88
2022-06-02T10:51:22.816+02:00,1654159882.238837,53.22895223888472,10.39876643403945,34.92013,-1,-1,-1,-1,22.9221019744873,40,-9999,34413.55530466667,0.0700225830078125,-0.4365386962890625,-0.8844451904296875,34413.54656866667,-2.111861818055459,0.07187691584298533,0.4833991955545659,-0.02981823123991489,0.09331841766834259,-0.07131510227918625,-0.007846146821975708,0.02262234687805176,-0.002989709377288818,XArbitraryZVertical,0.1481492467755327,-0.1910100410446937,-0.8402793596619251,0.4852808376988642,0.06358648091554642,-0.4647915661334991,-0.8831339478492737,0,0,0,-1,-1,34409.33442916667,unknown,2,2022-06-02T10:51:18.591+02:00,2022-06-02T10:32:51.428+02:00,137,2.25677,0.5971239,2.005515,117.0835,0,0,2022-06-02T10:51:21.147+02:00,675852668.3826994,0,15.39844,101.0076,1,0.88
2022-06-02T10:51:22.826+02:00,1654159882.238837,53.22895223888472,10.39876643403945,34.92013,-1,-1,-1,-1,22.9221019744873,40,-9999,34413.56527766667,0.069793701171875,-0.430908203125,-0.8809356689453125,34413.55654066667,-2.112386581659041,0.07258849502392195,0.4830561791715052,-0.01971552893519402,0.08358403295278549,-0.07424138486385345,0.002820655703544617,0.02651479840278625,-0.0004958510398864746,XArbitraryZVertical,0.1483175101311673,-0.1907307229912896,-0.8403925797276268,0.4851431951161282,0.06422644853591919,-0.4644878208637238,-0.883247435092926,0,0,0,-1,-1,34409.33442916667,unknown,2,2022-06-02T10:51:18.591+02:00,2022-06-02T10:32:51.428+02:00,137,2.25677,0.5971239,2.005515,117.0835,0,0,2022-06-02T10:51:21.147+02:00,675852668.3826994,0,15.39844,101.0076,1,0.88
2022-06-02T10:51:22.836+02:00,1654159882.238837,53.22895223888472,10.39876643403945,34.92013,-1,-1,-1,-1,22.9221019744873,40,-9999,34413.57524966667,0.061737060546875,-0.433349609375,-0.894439697265625,34413.56651366667,-2.113071224392095,0.07344058471782738,0.4829065943157427,0.00757752126082778,0.06700620800256729,-0.06882806122303009,0.006838992238044739,0.03137195110321045,0.0009679794311523438,XArbitraryZVertical,0.1485751865008278,-0.1905113783712864,-0.8405122534294633,0.4849432237214082,0.06498412787914276,-0.4643553495407104,-0.8832616806030273,0,0,0,-1,-1,34409.33442916667,unknown,2,2022-06-02T10:51:18.591+02:00,2022-06-02T10:32:51.428+02:00,137,2.25677,0.5971239,2.005515,117.0835,0,0,2022-06-02T10:51:21.147+02:00,675852668.3826994,0,15.39844,101.0076,1,0.88
2022-06-02T10:51:22.846+02:00,1654159882.238837,53.22895223888472,10.39876643403945,34.92013,-1,-1,-1,-1,22.9221019744873,40,-9999,34413.58522266667,0.05230712890625,-0.4406585693359375,-0.901458740234375,34413.57648566667,-2.113917644045296,0.07456073795224356,0.482953659048132,0.03224345296621323,0.07364440709352493,-0.0749320313334465,0.001319408416748047,0.03327518701553345,-0.00187373161315918,XArbitraryZVertical,0.1489764304299193,-0.1903227927396717,-0.8406287939609264,0.48469210244816,0.06597184389829636,-0.4643970429897308,-0.883166491985321,0,0,0,-1,-1,34409.33442916667,unknown,2,2022-06-02T10:51:18.591+02:00,2022-06-02T10:32:51.428+02:00,137,2.25677,0.5971239,2.005515,117.0835,0,0,2022-06-02T10:51:21.147+02:00,675852668.3826994,0,15.39844,101.0076,1,0.88
2022-06-02T10:51:22.856+02:00,1654159882.238837,53.22895223888472,10.39876643403945,34.92013,-1,-1,-1,-1,22.9221019744873,40,-9999,34413.59519466667,0.05157470703125,-0.4496002197265625,-0.8996124267578125,34413.58645866667,-2.114859411215198,0.07597060632072325,0.4830414932747747,0.04821522906422615,0.0897112637758255,-0.06894191354513168,-0.01080210506916046,0.02778351306915283,-0.01682460308074951,XArbitraryZVertical,0.1495000858760289,-0.1900887870197341,-0.8407418402974089,0.4844265824452016,0.06721383333206177,-0.4644748270511627,-0.883031964302063,0,0,0,-1,-1,34409.33442916667,unknown,2,2022-06-02T10:51:18.591+02:00,2022-06-02T10:32:51.428+02:00,137,2.25677,0.5971239,2.005515,117.0835,0,0,2022-06-02T10:51:21.147+02:00,675852668.3826994,0,15.39844,101.0076,1,0.88
2022-06-02T10:51:22.866+02:00,1654159882.238837,53.22895223888472,10.39876643403945,34.92013,-1,-1,-1,-1,22.9221019744873,40,-9999,34413.60516766667,0.060699462890625,-0.4508056640625,-0.891082763671875,34413.59643066667,-2.115662521679468,0.07733919460559086,0.4831501025770495,0.0503620021045208,0.1035945862531662,-0.06179532408714294,-0.01814068853855133,0.01918220520019531,-0.01783746480941772,XArbitraryZVertical,0.1500245748284716,-0.1898636721394721,-0.8408215146645492,0.4842142834038016,0.06841837614774704,-0.4645709991455078,-0.8828888535499573,0,0,0,-1,-1,34409.33442916667,unknown,2,2022-06-02T10:51:18.591+02:00,2022-06-02T10:32:51.428+02:00,137,2.25677,0.5971239,2.005515,117.0835,0,0,2022-06-02T10:51:21.147+02:00,675852668.3826994,0,15.39844,101.0076,1,0.88
2022-06-02T10:51:22.876+02:00,1654159882.238837,53.22895223888472,10.39876643403945,34.92013,-1,-1,-1,-1,22.9221019744873,40,-9999,34413.61513966667,0.0678558349609375,-0.450775146484375,-0.879180908203125,34413.60640366667,-2.116248245386466,0.07838258644734437,0.4830991935639606,0.02874649874866009,0.10835000872612,-0.06543228775262833,-0.01463865488767624,0.013079434633255,-0.01266723871231079,XArbitraryZVertical,0.1503957658039334,-0.189633442145978,-0.8408907250684647,0.4840692033411303,0.06934139132499695,-0.4645259082317352,-0.8828405141830444,0,0,0,-1,-1,34409.33442916667,unknown,2,2022-06-02T10:51:18.591+02:00,2022-06-02T10:32:51.428+02:00,137,2.25677,0.5971239,2.005515,117.0835,0,0,2022-06-02T10:51:21.147+02:00,675852668.3826994,0,15.39844,101.0076,1,0.88
2022-06-02T10:51:22.886+02:00,1654159882.238837,53.22895223888472,10.39876643403945,34.92013,-1,-1,-1,-1,22.9221019744873,40,-9999,34413.62511266667,0.0688323974609375,-0.4496002197265625,-0.8662109375,34413.61637566667,-2.116776199443642,0.07924443820290249,0.4828254489677685,0.02004328928887844,0.09714049845933914,-0.06886004656553268,-0.005155675113201141,0.01294377446174622,-0.002346694469451904,XArbitraryZVertical,0.1506441266760628,-0.1893482546154379,-0.8409846787757557,0.4839402933136996,0.07011230289936066,-0.4642834961414337,-0.8829071521759033,0,0,0,-1,-1,34409.33442916667,unknown,2,2022-06-02T10:51:18.591+02:00,2022-06-02T10:32:51.428+02:00,137,2.25677,0.5971239,2.005515,117.0835,0,0,2022-06-02T10:51:21.147+02:00,675852668.3826994,0,15.39844,101.0076,1,0.88
2022-06-02T10:51:22.896+02:00,1654159882.238837,53.22895223888472,10.39876643403945,34.92013,-1,-1,-1,-1,22.9221019744873,40,-9999,34413.63508466667,0.06982421875,-0.4508056640625,-0.862060546875,34413.62634866667,-2.117388891941958,0.08009675677487396,0.482394778706409,0.008088981732726097,0.08278623968362808,-0.06554605066776276,-0.001727983355522156,0.01396608352661133,0.01060986518859863,XArbitraryZVertical,0.1508439767680007,-0.1890050723101738,-0.84111762783277,0.4837813643912396,0.07088079303503036,-0.4639019966125488,-0.8830463290214539,0,0,0,-1,-1,34409.33442916667,unknown,2,2022-06-02T10:51:18.591+02:00,2022-06-02T10:32:51.428+02:00,137,2.25677,0.5971239,2.005515,117.0835,0,0,2022-06-02T10:51:21.147+02:00,675852668.3826994,0,15.39844,101.0076,1,0.88
2022-06-02T10:51:22.906+02:00,1654159882.238837,53.22895223888472,10.39876643403945,34.92013,-1,-1,-1,-1,22.9221019744873,40,-9999,34413.64505766667,0.0726165771484375,-0.44610595703125,-0.860626220703125,34413.63632066667,-2.118106677034776,0.0811357314870528,0.4819194258680117,0.01385286170989275,0.06927815824747086,-0.07197146117687225,-0.003838188946247101,0.01276674866676331,0.01840007305145264,XArbitraryZVertical,0.1511022290227571,-0.1886058460493927,-0.8412667316387155,0.4835970933414734,0.07181607931852341,-0.4634808301925659,-0.8831918835639954,0,0,0,-1,-1,34409.33442916667,unknown,2,2022-06-02T10:51:18.591+02:00,2022-06-02T10:32:51.428+02:00,137,2.25677,0.5971239,2.005515,117.0835,0,0,2022-06-02T10:51:21.147+02:00,675852668.3826994,0,15.39844,101.0076,1,0.88
2022-06-02T10:51:22.916+02:00,1654159882.238837,53.22895223888472,10.39876643403945,34.92013,-1,-1,-1,-1,22.9221019744873,40,-9999,34413.65502966667,0.07843017578125,-0.444793701171875,-0.8683929443359375,34413.64629366667,-2.118935569864622,0.08218424703854899,0.4813438243113202,0.006998416967689991,0.06000662595033646,-0.0764201432466507,-0.002054736018180847,0.01462173461914062,0.02446466684341431,XArbitraryZVertical,0.1513309821862667,-0.1881701214542761,-0.8414532756892535,0.4833709240707014,0.07276397198438644,-0.4629707336425781,-0.8833819031715393,0,0,0,-1,-1,34409.33442916667,unknown,2,2022-06-02T10:51:18.591+02:00,2022-06-02T10:32:51.428+02:00,137,2.25677,0.5971239,2.005515,117.0835,0,0,2022-06-02T10:51:21.147+02:00,675852668.3826994,0,15.39844,101.0076,1,0.88
2022-06-02T10:51:22.926+02:00,1654159882.238837,53.22895223888472,10.39876643403945,34.92013,-1,-1,-1,-1,22.9221019744873,40,-9999,34413.66500166667,0.081298828125,-0.439605712890625,-0.8745269775390625,34413.65626566667,-2.119718904446962,0.08297332485489187,0.4806796052657579,0.001955721760168672,0.04798511788249016,-0.07818208634853363,0.001647785305976868,0.01671838760375977,0.01825875043869019,XArbitraryZVertical,0.1514345916853813,-0.1877560589427182,-0.8416582857282643,0.4831425509775204,0.07348647713661194,-0.4623818695545197,-0.8836304545402527,0,0,0,-1,-1,34409.33442916667,unknown,2,2022-06-02T10:51:18.591+02:00,2022-06-02T10:32:51.428+02:00,137,2.25677,0.5971239,2.005515,117.0835,0,0,2022-06-02T10:51:21.147+02:00,675852668.3826994,0,15.39844,101.0076,1,0.88
2022-06-02T10:51:22.936+02:00,1654159882.238837,53.22895223888472,10.39876643403945,34.92013,-1,-1,-1,-1,22.9221019744873,40,-9999,34413.67497466667,0.0853271484375,-0.44036865234375,-0.8782196044921875,34413.66623766667,-2.120381634310688,0.08333859295892745,0.4799694412575162,0.0005366562400013208,0.03189429640769958,-0.08189086616039276,0.005585446953773499,0.01947605609893799,0.01253163814544678,XArbitraryZVertical,0.1513607746024179,-0.1874157116567587,-0.8418712758104274,0.4829265101928182,0.0738365426659584,-0.4617520570755005,-0.883930504322052,0,0,0,-1,-1,34409.33442916667,unknown,2,2022-06-02T10:51:18.591+02:00,2022-06-02T10:32:51.428+02:00,137,2.25677,0.5971239,2.005515,117.0835,0,0,2022-06-02T10:51:21.147+02:00,675852668.3826994,0,15.39844,101.0076,1,0.88
2022-06-02T10:51:22.946+02:00,1654159882.238837,53.22895223888472,10.39876643403945,34.92013,-1,-1,-1,-1,22.9221019744873,40,-9999,34413.68494666667,0.0847015380859375,-0.4412689208984375,-0.872650146484375,34413.67621066667,-2.120990060798217,0.08341245068530682,0.4794611653196529,0.007229979149997234,0.02077879570424557,-0.07639037072658539,0.01012402772903442,0.02158862352371216,0.006015539169311523,XArbitraryZVertical,0.151216572031681,-0.1872274617120454,-0.8420702380643432,0.4826978168739358,0.07392137497663498,-0.461301177740097,-0.8841588497161865,0,0,0,-1,-1,34409.33442916667,unknown,2,2022-06-02T10:51:18.591+02:00,2022-06-02T10:32:51.428+02:00,137,2.25677,0.5971239,2.005515,117.0835,0,0,2022-06-02T10:51:21.147+02:00,675852668.3826994,0,15.39844,101.0076,1,0.88
2022-06-02T10:51:22.956+02:00,1654159882.238837,53.22895223888472,10.39876643403945,34.92013,-1,-1,-1,-1,22.9221019744873,40,-9999,34413.69491966667,0.08172607421875,-0.4446563720703125,-0.876190185546875,34413.68618266667,-2.121626375983678,0.08351688940208152,0.4792535342250906,0.01264325249940157,0.007261121645569801,-0.07268185913562775,0.01023730635643005,0.01975643634796143,0.007430791854858398,XArbitraryZVertical,0.1511526882052701,-0.1871619002048664,-0.8422394626504912,0.4824481152591347,0.07402170449495316,-0.4611169397830963,-0.8842465877532959,0,0,0,-1,-1,34409.33442916667,unknown,2,2022-06-02T10:51:18.591+02:00,2022-06-02T10:32:51.428+02:00,137,2.25677,0.5971239,2.005515,117.0835,0,0,2022-06-02T10:51:21.147+02:00,675852668.3826994,0,15.39844,101.0076,1,0.88
2022-06-02T10:51:22.966+02:00,1654159882.238837,53.22895223888472,10.39876643403945,34.92013,-1,-1,-1,-1,22.9221019744873,40,-9999,34413.70489166667,0.082855224609375,-0.443206787109375,-0.87744140625,34413.69615566667,-2.122360742299662,0.08378011196054129,0.4791258327000995,0.006099067628383636,-0.002537712920457125,-0.06993081420660019,0.009160399436950684,0.01837664842605591,0.01096415519714355,XArbitraryZVertical,0.1511651460091118,-0.1870995484332026,-0.8424111092543722,0.4821684919453399,0.07425938546657562,-0.4610036313533783,-0.8842856884002686,0,0,0,-1,-1,34409.33442916667,unknown,2,2022-06-02T10:51:18.591+02:00,2022-06-02T10:32:51.428+02:00,137,2.25677,0.5971239,2.005515,117.0835,0,0,2022-06-02T10:51:21.147+02:00,675852668.3826994,0,15.39844,101.0076,1,0.88
2022-06-02T10:51:22.976+02:00,1654159882.238837,53.22895223888472,10.39876643403945,34.92013,-1,-1,-1,-1,22.9221019744873,40,-9999,34413.71486466667,0.0889129638671875,-0.4410552978515625,-0.881500244140625,34413.70612766667,-2.123015714584207,0.08404288307267602,0.4790947545197273,0.009148209355771542,-0.0008469608146697283,-0.05327757820487022,0.007965534925460815,0.0162891149520874,0.00859379768371582,XArbitraryZVertical,0.1512073479065443,-0.1870724642586854,-0.8425526614049352,0.4819184882336174,0.07449294626712799,-0.4609760344028473,-0.8842804431915283,0,0,0,-1,-1,34409.33442916667,unknown,2,2022-06-02T10:51:18.591+02:00,2022-06-02T10:32:51.428+02:00,137,2.25677,0.5971239,2.005515,117.0835,0,0,2022-06-02T10:51:21.147+02:00,675852668.3826994,0,15.39844,101.0076,1,0.88
2022-06-02T10:51:22.986+02:00,1654159882.238837,53.22895223888472,10.39876643403945,34.92013,-1,-1,-1,-1,22.9221019744873,40,-9999,34413.72483666667,0.092620849609375,-0.4443359375,-0.88543701171875,34413.71610066667,-2.123464652248725,0.08413216677008822,0.4791308085253656,0.002394166542217135,-0.00168585660867393,-0.03479204326868057,0.01037514954805374,0.01868626475334167,0.003230035305023193,XArbitraryZVertical,0.1512113389995089,-0.1871003005868322,-0.8426499193459908,0.481736116298309,0.07457049936056137,-0.4610080420970917,-0.8842571973800659,0,0,0,-1,-1,34409.33442916667,unknown,2,2022-06-02T10:51:18.591+02:00,2022-06-02T10:32:51.428+02:00,137,2.25677,0.5971239,2.005515,117.0835,0,0,2022-06-02T10:51:21.147+02:00,675852668.3826994,0,15.39844,101.0076,1,0.88
2022-06-02T10:51:22.996+02:00,1654159882.238837,53.22895223888472,10.39876643403945,34.92013,-1,-1,-1,-1,22.9221019744873,40,-9999,34413.73480966667,0.0931396484375,-0.4472198486328125,-0.8828277587890625,34413.72607266667,-2.123814175536799,0.0841800650567502,0.4792199399464768,0.0161142386496067,-0.01450018864125013,-0.02927757054567337,0.01566158980131149,0.01904001832008362,-0.001010656356811523,XArbitraryZVertical,0.151219506496853,-0.1871531880655417,-0.8427203485142089,0.4815897414286954,0.07460939884185791,-0.4610871374607086,-0.8842126727104187,0,0,0,-1,-1,34409.33442916667,unknown,2,2022-06-02T10:51:18.591+02:00,2022-06-02T10:32:51.428+02:00,137,2.25677,0.5971239,2.005515,117.0835,0,0,2022-06-02T10:51:21.147+02:00,675852668.3826994,0,15.39844,101.0076,1,0.88
2022-06-02T10:51:23.006+02:00,1654159882.238837,53.22895223888472,10.39876643403945,34.92013,-1,-1,-1,-1,22.9221019744873,40,-9999,34413.74478166667,0.089996337890625,-0.4510345458984375,-0.8841400146484375,34413.73604566667,-2.124122343287428,0.08421881303834643,0.4793233577698434,0.02825558930635452,-0.01893648132681847,-0.02458694577217102,0.01866783201694489,0.01595792174339294,0.0004495382308959961,XArbitraryZVertical,0.1512309891451506,-0.1872112386712307,-0.8427798789790347,0.4814593964321159,0.07463964819908142,-0.4611788988113403,-0.8841623067855835,0,0,0,-1,-1,34409.33442916667,unknown,2,2022-06-02T10:51:18.591+02:00,2022-06-02T10:32:51.428+02:00,137,2.25677,0.5971239,2.005515,117.0835,0,0,2022-06-02T10:51:21.147+02:00,675852668.3826994,0,15.39844,101.0076,1,0.88
2022-06-02T10:51:23.016+02:00,1654159882.238837,53.22895223888472,10.39876643403945,34.92013,-1,-1,-1,-1,22.9221019744873,40,-9999,34413.75475466667,0.081573486328125,-0.4503173828125,-0.8745880126953125,34413.74601766667,-2.124454716097919,0.08423089012218372,0.4793956481587391,0.03456688299775124,-0.02584552019834518,-0.02098442055284977,0.01623381674289703,0.01254308223724365,-0.0008358359336853027,XArbitraryZVertical,0.1512217311003032,-0.1872642760383832,-0.8428507629527241,0.4813175900854196,0.07464752346277237,-0.4612430334091187,-0.8841281533241272,0,0,0,-1,-1,34409.33442916667,unknown,2,2022-06-02T10:51:18.591+02:00,2022-06-02T10:32:51.428+02:00,137,2.25677,0.5971239,2.005515,117.0835,0,0,2022-06-02T10:51:21.147+02:00,675852668.3826994,0,15.39844,101.0076,1,0.88
2022-06-02T10:51:23.026+02:00,1654159882.238837,53.22895223888472,10.39876643403945,34.92013,-1,-1,-1,-1,22.9221019744873,40,-9999,34413.76472666667,0.07763671875,-0.448974609375,-0.872467041015625,34413.75599066667,-2.124752018720345,0.08425200012951913,0.4793513339262293,0.01946542784571648,-0.02560450509190559,-0.01394009310752153,0.009926795959472656,0.009772419929504395,0.004508316516876221,XArbitraryZVertical,0.1511925150405379,-0.1872627618497682,-0.8429257671083343,0.481196111169428,0.07466790825128555,-0.4612037241458893,-0.8841469883918762,0,0,0,-1,-1,34409.33442916667,unknown,2,2022-06-02T10:51:18.591+02:00,2022-06-02T10:32:51.428+02:00,137,2.25677,0.5971239,2.005515,117.0835,0,0,2022-06-02T10:51:21.147+02:00,675852668.3826994,0,15.39844,101.0076,1,0.88
2022-06-02T10:51:23.036+02:00,1654159882.238837,53.22895223888472,10.39876643403945,34.92013,-1,-1,-1,-1,22.9221019744873,40,-9999,34413.77469966667,0.0859375,-0.451812744140625,-0.867584228515625,34413.76596266667,-2.124986645036345,0.08436188041195045,0.479277622408591,0.009416523389518261,-0.004049145616590977,-0.008981021121144295,0.003479123115539551,0.0139031708240509,0.01104944944381714,XArbitraryZVertical,0.151199771678472,-0.1872226440081129,-0.8429822668917114,0.4811104227289348,0.07476792484521866,-0.4611383080482483,-0.8841726183891296,0,0,0,-1,-1,34409.33442916667,unknown,2,2022-06-02T10:51:18.591+02:00,2022-06-02T10:32:51.428+02:00,137,2.25677,0.5971239,2.005515,117.0835,0,0,2022-06-02T10:51:21.147+02:00,675852668.3826994,0,15.39844,101.0076,1,0.88
2022-06-02T10:51:23.046+02:00,1654159882.238837,53.22895223888472,10.39876643403945,34.92013,-1,-1,-1,-1,22.9221019744873,40,-9999,34413.78467166667,0.1030120849609375,-0.45098876953125,-0.85931396484375,34413.77593566667,-2.12519314336524,0.08456537077820653,0.479223496319803,0.01860123313963413,-0.008367195725440979,-0.009852141141891479,0.004685670137405396,0.01019304990768433,0.01308852434158325,XArbitraryZVertical,0.151253669937877,-0.1871662284733563,-0.8430227034445285,0.4810445980902558,0.0749499499797821,-0.4610902667045593,-0.8841822743415833,0,0,0,-1,-1,34409.33442916667,unknown,2,2022-06-02T10:51:18.591+02:00,2022-06-02T10:32:51.428+02:00,137,2.25677,0.5971239,2.005515,117.0835,0,0,2022-06-02T10:51:21.147+02:00,675852668.3826994,0,15.39844,101.0076,1,0.88
2022-06-02T10:51:23.056+02:00,1654159882.238837,53.22895223888472,10.39876643403945,34.92013,-1,-1,-1,-1,22.9221019744873,40,-9999,34413.79464366667,0.1175994873046875,-0.4586334228515625,-0.861358642578125,34413.78590766667,-2.125447379373707,0.084679644452856,0.4792317039904628,0.01909822411835194,-0.01456135232001543,-0.01715708151459694,0.01874509453773499,0.009605228900909424,0.02363526821136475,XArbitraryZVertical,0.151279948810225,-0.1871614856821513,-0.8430742553228837,0.4809477576866377,0.07505066692829132,-0.4610975682735443,-0.8841699361801147,0,0,0,-1,-1,34409.33442916667,unknown,2,2022-06-02T10:51:18.591+02:00,2022-06-02T10:32:51.428+02:00,137,2.25677,0.5971239,2.005515,117.0835,0,0,2022-06-02T10:51:21.147+02:00,675852668.3826994,0,15.39844,101.0076,1,0.88
2022-06-02T10:51:23.071+02:00,1654159882.238837,53.22895223888472,10.39876643403945,34.92013,-1,-1,-1,-1,22.9221019744873,40,-9999,34413.80461666667,0.1233673095703125,-0.4636383056640625,-0.868988037109375,34413.79587966667,-2.125792375631788,0.08475677616682697,0.4791830820275254,0.02150998264551163,-0.02758767269551754,-0.03136983886361122,0.03426948934793472,0.007929414510726929,0.0237433910369873,XArbitraryZVertical,0.1512689164905044,-0.1871483075669164,-0.843156884061349,0.4808114419231586,0.07512076199054718,-0.4610544145107269,-0.8841864466667175,0,0,0,-1,-1,34409.33442916667,unknown,2,2022-06-02T10:51:18.591+02:00,2022-06-02T10:32:51.428+02:00,137,2.25677,0.5971239,2.005515,117.0835,0,0,2022-06-02T10:51:21.147+02:00,675852668.3826994,0,15.39844,101.0076,1,0.88
2022-06-02T10:51:23.087+02:00,1654159882.238837,53.22895223888472,10.39876643403945,34.92013,-1,-1,-1,-1,22.9221019744873,40,-9999,34413.81458866667,0.114013671875,-0.459228515625,-0.8734893798828125,34413.80585266667,-2.126338053195732,0.08482651402768134,0.4790125601477888,0.003628453239798546,-0.05087355151772499,-0.0439269095659256,0.04617931693792343,-0.0017891526222229,0.01960504055023193,XArbitraryZVertical,0.1512077775913274,-0.1871000776672385,-0.8433021384170329,0.4805946742555643,0.07518908381462097,-0.4609031081199646,-0.8842595219612122,0,0,0,-1,-1,34409.33442916667,unknown,2,2022-06-02T10:51:18.591+02:00,2022-06-02T10:32:51.428+02:00,137,2.25677,0.5971239,2.005515,117.0835,0,0,2022-06-02T10:51:21.147+02:00,675852668.3826994,0,15.39844,101.0076,1,0.88
2022-06-02T10:51:23.090+02:00,1654159882.238837,53.22895223888472,10.39876643403945,34.92013,-1,-1,-1,-1,22.9221019744873,40,-9999,34413.82456166667,0.0961761474609375,-0.452880859375,-0.8865203857421875,34413.81582466667,-2.127030049083508,0.08483608687119362,0.4786689548056353,-0.02011682279407978,-0.06070354580879211,-0.05353772267699242,0.04528768360614777,-0.002200961112976074,0.01349067687988281,XArbitraryZVertical,0.1510675717770473,-0.1870034642189329,-0.8435067082836083,0.4803174556558387,0.07521096616983414,-0.4605981409549713,-0.8844165802001953,0,0,0,-1,-1,34409.33442916667,unknown,2,2022-06-02T10:51:18.591+02:00,2022-06-02T10:32:51.428+02:00,137,2.25677,0.5971239,2.005515,117.0835,0,0,2022-06-02T10:51:21.147+02:00,675852668.3826994,0,15.39844,101.0076,1,0.88
2022-06-02T10:51:23.096+02:00,1654159882.238837,53.22895223888472,10.39876643403945,34.92013,-1,-1,-1,-1,22.9221019744873,40,-9999,34413.83453366667,0.085113525390625,-0.443817138671875,-0.884307861328125,34413.82579766667,-2.127758420601512,0.08481574250692235,0.4781106954287146,-0.03316591307520866,-0.05932775884866714,-0.055678840726614,0.03045234084129333,0.004291951656341553,0.003479123115539551,XArbitraryZVertical,0.1508617897248166,-0.1868251414239005,-0.8437464311503202,0.4800302861167117,0.07521474361419678,-0.4601025581359863,-0.8846741914749146,0,0,0,-1,-1,34409.33442916667,unknown,2,2022-06-02T10:51:18.591+02:00,2022-06-02T10:32:51.428+02:00,137,2.25677,0.5971239,2.005515,117.0835,0,0,2022-06-02T10:51:21.147+02:00,675852668.3826994,0,15.39844,101.0076,1,0.88
2022-06-02T10:51:23.105+02:00,1654159882.238837,53.22895223888472,10.39876643403945,34.92013,-1,-1,-1,-1,22.9221019744873,40,-9999,34413.84450666667,0.0817108154296875,-0.44036865234375,-0.8826751708984375,34413.83576966667,-2.128498235436243,0.08474434673998542,0.4775945132515006,-0.03019728884100914,-0.05608322843909264,-0.06394901871681213,0.01308515667915344,0.01135623455047607,-0.002809762954711914,XArbitraryZVertical,0.1506432583369232,-0.186677714583224,-0.8439878597584061,0.4797318481410791,0.07517167180776596,-0.4596441984176636,-0.8849160671234131,0,0,0,-1,-1,34409.33442916667,unknown,2,2022-06-02T10:51:18.591+02:00,2022-06-02T10:32:51.428+02:00,137,2.25677,0.5971239,2.005515,117.0835,0,0,2022-06-02T10:51:21.147+02:00,675852668.3826994,0,15.39844,101.0076,1,0.88
2022-06-02T10:51:23.116+02:00,1654159882.238837,53.22895223888472,10.39876643403945,34.92013,-1,-1,-1,-1,22.9221019744873,40,-9999,34413.85447866667,0.0829620361328125,-0.45001220703125,-0.878936767578125,34413.84574266667,-2.129224182858185,0.08462386926155677,0.4772391203605095,0.002731056418269873,-0.0507066622376442,-0.06108130514621735,0.007989972829818726,0.02005851268768311,0.001863360404968262,XArbitraryZVertical,0.1504425554103763,-0.186609517358919,-0.8442112745546055,0.479428227952407,0.07507885992527008,-0.4593285322189331,-0.8850878477096558,0,0,0,-1,-1,34409.33442916667,unknown,2,2022-06-02T10:51:18.591+02:00,2022-06-02T10:32:51.428+02:00,137,2.25677,0.5971239,2.005515,117.0835,0,0,2022-06-02T10:51:21.147+02:00,675852668.3826994,0,15.39844,101.0076,1,0.88
2022-06-02T10:51:23.126+02:00,1654159882.238837,53.22895223888472,10.39876643403945,34.92013,-1,-1,-1,-1,22.9221019744873,40,-9999,34413.86445166667,0.0859375,-0.4615631103515625,-0.8748321533203125,34413.85571466667,-2.12995527221465,0.08460000864811583,0.4773932122535522,0.04301482811570168,-0.04314461722970009,-0.0547962449491024,0.005835063755512238,0.01450386643409729,0.003793537616729736,XArbitraryZVertical,0.1503998228755514,-0.1867360486916363,-0.8443707652072476,0.4791112060005537,0.07505176216363907,-0.4594654142856598,-0.885019063949585,0,0,0,-1,-1,34409.33442916667,unknown,2,2022-06-02T10:51:18.591+02:00,2022-06-02T10:32:51.428+02:00,137,2.25677,0.5971239,2.005515,117.0835,0,0,2022-06-02T10:51:21.147+02:00,675852668.3826994,0,15.39844,101.0076,1,0.88
2022-06-02T10:51:23.135+02:00,1654159882.238837,53.22895223888472,10.39876643403945,34.92013,-1,-1,-1,-1,22.9221019744873,40,-9999,34413.87442366667,0.0883331298828125,-0.475250244140625,-0.8692626953125,34413.86568766667,-2.130909653382938,0.08495633014058006,0.4779510944315486,0.0606110468506813,-0.04972147196531296,-0.06589639186859131,0.008043907582759857,0.004989534616470337,0.007280111312866211,XArbitraryZVertical,0.1505898021692268,-0.1869608180135532,-0.8445092118472257,0.4787195762541681,0.07534534484148026,-0.4599608480930328,-0.8847367167472839,0,0,0,-1,-1,34409.33442916667,unknown,2,2022-06-02T10:51:18.591+02:00,2022-06-02T10:32:51.428+02:00,137,2.25677,0.5971239,2.005515,117.0835,0,0,2022-06-02T10:51:21.147+02:00,675852668.3826994,0,15.39844,101.0076,1,0.88
2022-06-02T10:51:23.145+02:00,1654159882.238837,53.22895223888472,10.39876643403945,34.92013,-1,-1,-1,-1,22.9221019744873,40,-9999,34413.88439666667,0.0863494873046875,-0.4858245849609375,-0.869232177734375,34413.87565966667,-2.132143130921389,0.08567002299998029,0.4785170340760724,0.04609442129731178,-0.05986758321523666,-0.07313645631074905,0.01179882884025574,-0.008057862520217896,0.01345157623291016,XArbitraryZVertical,0.150906231389003,-0.1871247856979055,-0.8446862754153573,0.4782433672295945,0.07595446705818176,-0.460463285446167,-0.8844232559204102,0,0,0,-1,-1,34409.33442916667,unknown,2,2022-06-02T10:51:18.591+02:00,2022-06-02T10:32:51.428+02:00,137,2.25677,0.5971239,2.005515,117.0835,0,0,2022-06-02T10:51:21.147+02:00,675852668.3826994,0,15.39844,101.0076,1,0.88
2022-06-02T10:51:23.155+02:00,1654159882.238837,53.22895223888472,10.39876643403945,34.92013,-1,-1,-1,-1,22.9221019744873,40,-9999,34413.89436866667,0.08233642578125,-0.4790802001953125,-0.8815155029296875,34413.88563266667,-2.133490260974116,0.08659411706750846,0.4789359332587378,0.009328017011284828,-0.05148714780807495,-0.06941568851470947,0.01093719899654388,-0.02111375331878662,0.01625579595565796,XArbitraryZVertical,0.1512668750955026,-0.1871846963151113,-0.8448907704175065,0.4777445420529393,0.07675503939390182,-0.4608350992202759,-0.8841604590415955,0,0,0,-1,-1,34409.33442916667,unknown,2,2022-06-02T10:51:18.591+02:00,2022-06-02T10:32:51.428+02:00,137,2.25677,0.5971239,2.005515,117.0835,0,0,2022-06-02T10:51:21.147+02:00,675852668.3826994,0,15.39844,101.0076,1,0.88
2022-06-02T10:51:23.165+02:00,1654159882.238837,53.22895223888472,10.39876643403945,34.92013,-1,-1,-1,-1,22.9221019744873,40,-9999,34413.90434166667,0.0843353271484375,-0.4669952392578125,-0.888519287109375,34413.89560466667,-2.134708171812062,0.08750782179457095,0.4788871624674214,-0.03211449831724167,-0.04798348993062973,-0.0642707347869873,0.006541594862937927,-0.02268293499946594,0.009097099304199219,XArbitraryZVertical,0.1515277713507808,-0.1870378617239229,-0.8451179852128624,0.4773174104054129,0.07756483554840088,-0.4607917964458466,-0.8841123580932617,0,0,0,-1,-1,34409.33442916667,unknown,2,2022-06-02T10:51:18.591+02:00,2022-06-02T10:32:51.428+02:00,137,2.25677,0.5971239,2.005515,117.0835,0,0,2022-06-02T10:51:21.147+02:00,675852668.3826994,0,15.39844,101.0076,1,0.88
2022-06-02T10:51:23.175+02:00,1654159882.238837,53.22895223888472,10.39876643403945,34.92013,-1,-1,-1,-1,22.9221019744873,40,-9999,34413.91431366667,0.0893402099609375,-0.461883544921875,-0.888885498046875,34413.90557766667,-2.135684291595585,0.08804152126012545,0.4783087627443786,-0.04997725039720535,-0.04045366868376732,-0.05924461036920547,0.005283400416374207,-0.01178276538848877,-0.002397835254669189,XArbitraryZVertical,0.1515293911361121,-0.1867371508164483,-0.8453763530390632,0.4769769509272119,0.0780600979924202,-0.4602783918380737,-0.8843361735343933,0,0,0,-1,-1,34409.33442916667,unknown,2,2022-06-02T10:51:18.591+02:00,2022-06-02T10:32:51.428+02:00,137,2.25677,0.5971239,2.005515,117.0835,0,0,2022-06-02T10:51:21.147+02:00,675852668.3826994,0,15.39844,101.0076,1,0.88
2022-06-02T10:51:23.185+02:00,1654159882.238837,53.22895223888472,10.39876643403945,34.92013,-1,-1,-1,-1,22.9221019744873,40,-9999,34413.92428666667,0.10009765625,-0.4506072998046875,-0.889495849609375,34413.91554966667,-2.136408053511967,0.08818618635169984,0.4775320207671052,-0.03909637406468391,-0.03588714450597763,-0.05971119925379753,0.007473856210708618,-0.006307929754257202,-0.003411352634429932,XArbitraryZVertical,0.1513449298922509,-0.1864252165326617,-0.8456264021800871,0.4767140736839101,0.07821948826313019,-0.4595886766910553,-0.8846806883811951,0,0,0,-1,-1,34409.33442916667,unknown,2,2022-06-02T10:51:18.591+02:00,2022-06-02T10:32:51.428+02:00,137,2.25677,0.5971239,2.005515,117.0835,0,0,2022-06-02T10:51:21.147+02:00,675852668.3826994,0,15.39844,101.0076,1,0.88
2022-06-02T10:51:23.195+02:00,1654159882.238837,53.22895223888472,10.39876643403945,34.92013,-1,-1,-1,-1,22.9221019744873,40,-9999,34413.93425866667,0.106781005859375,-0.4504547119140625,-0.8764495849609375,34413.92552266667,-2.137057351285888,0.088200712383356,0.4767636482334346,-0.02998720854520798,-0.03576233610510826,-0.05237556248903275,0.01554760336875916,0.003385484218597412,-0.00525820255279541,XArbitraryZVertical,0.1511145115274741,-0.186142041499533,-0.8458674921109037,0.4764702262654794,0.07826342433691025,-0.4589061439037323,-0.8850311040878296,0,0,0,-1,-1,34409.33442916667,unknown,2,2022-06-02T10:51:18.591+02:00,2022-06-02T10:32:51.428+02:00,137,2.25677,0.5971239,2.005515,117.0835,0,0,2022-06-02T10:51:21.147+02:00,675852668.3826994,0,15.39844,101.0076,1,0.88
2022-06-02T10:51:23.205+02:00,1654159882.238837,53.22895223888472,10.39876643403945,34.92013,-1,-1,-1,-1,22.9221019744873,40,-9999,34413.94423066667,0.106048583984375,-0.45489501953125,-0.8638916015625,34413.93549466667,-2.137653275520329,0.08812190975439362,0.47626202681073,-0.01634756289422512,-0.04634014517068863,-0.04841624200344086,0.02635455131530762,0.008692324161529541,0.001187443733215332,XArbitraryZVertical,0.15091083755002,-0.1859911228073055,-0.8460723738001081,0.4762298543599552,0.07821393013000488,-0.4584603905677795,-0.8852664232254028,0,0,0,-1,-1,34409.33442916667,unknown,2,2022-06-02T10:51:18.591+02:00,2022-06-02T10:32:51.428+02:00,137,2.25677,0.5971239,2.005515,117.0835,0,0,2022-06-02T10:51:21.147+02:00,675852668.3826994,0,15.39844,101.0076,1,0.88
2022-06-02T10:51:23.215+02:00,1654159882.238837,53.22895223888472,10.39876643403945,34.92013,-1,-1,-1,-1,22.9221019744873,40,-9999,34413.95420366667,0.1036529541015625,-0.460906982421875,-0.8619842529296875,34413.94546666667,-2.138277723074826,0.08795249399178331,0.4761556519747022,-0.0005035744979977608,-0.06035387516021729,-0.05404152721166611,0.02854491770267487,0.006980359554290771,0.01685899496078491,XArbitraryZVertical,0.1507567294422511,-0.186033019416226,-0.8462458643505253,0.4759539038449474,0.07806823402643204,-0.4583658576011658,-0.8853282332420349,0,0,0,-1,-1,34409.33442916667,unknown,2,2022-06-02T10:51:18.591+02:00,2022-06-02T10:32:51.428+02:00,137,2.25677,0.5971239,2.005515,117.0835,0,0,2022-06-02T10:51:21.147+02:00,675852668.3826994,0,15.39844,101.0076,1,0.88
2022-06-02T10:51:23.225+02:00,1654159882.238837,53.22895223888472,10.39876643403945,34.92013,-1,-1,-1,-1,22.9221019744873,40,-9999,34413.96417566667,0.099761962890625,-0.4737091064453125,-0.863861083984375,34413.95543966667,-2.139020813909009,0.08785447635303584,0.47650565838647,0.01536407135426998,-0.07091782987117767,-0.05308492109179497,0.02621962875127792,0.001508325338363647,0.02186429500579834,XArbitraryZVertical,0.1507261722182088,-0.1862622189850645,-0.8463902343187042,0.4756169776943682,0.07796737551689148,-0.4586769044399261,-0.8851760029792786,0,0,0,-1,-1,34409.33442916667,unknown,2,2022-06-02T10:51:18.591+02:00,2022-06-02T10:32:51.428+02:00,137,2.25677,0.5971239,2.005515,117.0835,0,0,2022-06-02T10:51:21.147+02:00,675852668.3826994,0,15.39844,101.0076,1,0.88
2022-06-02T10:51:23.235+02:00,1654159882.238837,53.22895223888472,10.39876643403945,34.92013,-1,-1,-1,-1,22.9221019744873,40,-9999,34413.97414866667,0.09454345703125,-0.480865478515625,-0.8726348876953125,34413.96541166667,-2.139736871747396,0.08764277211479618,0.4772105028030566,0.02261146530508995,-0.07691420614719391,-0.05587078630924225,0.02544352412223816,-0.008302479982376099,0.02253508567810059,XArbitraryZVertical,0.1507309681602785,-0.1866682825275194,-0.8464963273990583,0.4752675671981431,0.07775165885686874,-0.4593031108379364,-0.8848702311515808,0,0,0,-1,-1,34409.33442916667,unknown,2,2022-06-02T10:51:18.591+02:00,2022-06-02T10:32:51.428+02:00,137,2.25677,0.5971239,2.005515,117.0835,0,0,2022-06-02T10:51:21.147+02:00,675852668.3826994,0,15.39844,101.0076,1,0.88
2022-06-02T10:51:23.245+02:00,1654159882.238837,53.22895223888472,10.39876643403945,34.92013,-1,-1,-1,-1,22.9221019744873,40,-9999,34413.98412066667,0.0878143310546875,-0.476837158203125,-0.883819580078125,34413.97538466667,-2.140446250354564,0.08731557916584848,0.4779013400555107,0.01980769075453281,-0.08183705806732178,-0.05558928847312927,0.02052696794271469,-0.01943817734718323,0.0183684229850769,XArbitraryZVertical,0.1506840265866738,-0.1870953340774844,-0.8466108050147817,0.4749103130413526,0.07743444293737411,-0.4599166512489319,-0.8845793008804321,0,0,0,-1,-1,34409.33442916667,unknown,2,2022-06-02T10:51:18.591+02:00,2022-06-02T10:32:51.428+02:00,137,2.25677,0.5971239,2.005515,117.0835,0,0,2022-06-02T10:51:21.147+02:00,675852668.3826994,0,15.39844,101.0076,1,0.88
2022-06-02T10:51:23.255+02:00,1654159882.238837,53.22895223888472,10.39876643403945,34.92013,-1,-1,-1,-1,22.9221019744873,40,-9999,34413.99409366667,0.0814666748046875,-0.4784698486328125,-0.89111328125,34413.98535666667,-2.141131213815877,0.08693237910032582,0.4781938980126043,0.01171341072767973,-0.07666254043579102,-0.05496857687830925,0.01485040783882141,-0.01786619424819946,0.006133198738098145,XArbitraryZVertical,0.1505244763187227,-0.187363178033209,-0.8467689185700986,0.4745732792597969,0.0770837813615799,-0.460176408290863,-0.8844748139381409,0,0,0,-1,-1,34409.33442916667,unknown,2,2022-06-02T10:51:18.591+02:00,2022-06-02T10:32:51.428+02:00,137,2.25677,0.5971239,2.005515,117.0835,0,0,2022-06-02T10:51:21.147+02:00,675852668.3826994,0,15.39844,101.0076,1,0.88
2022-06-02T10:51:23.265+02:00,1654159882.238837,53.22895223888472,10.39876643403945,34.92013,-1,-1,-1,-1,22.9221019744873,40,-9999,34414.00406566667,0.0794219970703125,-0.469818115234375,-0.8916015625,34413.99532966667,-2.141873944794463,0.08672065421271524,0.4782910110679425,0.001386204967275262,-0.06466046720743179,-0.06548966467380524,0.006450839340686798,-0.01810041069984436,-0.002378880977630615,XArbitraryZVertical,0.1503873778118737,-0.1875108594045256,-0.8469499793411582,0.4742352799323103,0.07689264416694641,-0.4602626264095306,-0.8844466209411621,0,0,0,-1,-1,34409.33442916667,unknown,2,2022-06-02T10:51:18.591+02:00,2022-06-02T10:32:51.428+02:00,137,2.25677,0.5971239,2.005515,117.0835,0,0,2022-06-02T10:51:21.147+02:00,675852668.3826994,0,15.39844,101.0076,1,0.88
2022-06-02T10:51:23.275+02:00,1654159882.238837,53.22895223888472,10.39876643403945,34.92013,-1,-1,-1,-1,22.9221019744873,40,-9999,34414.01403866667,0.0840301513671875,-0.4596099853515625,-0.8824615478515625,34414.00530166667,-2.142750435109191,0.08680961903173828,0.4780089163088255,-0.02258805930614471,-0.05324634164571762,-0.05753708630800247,0.002561479806900024,-0.01656556129455566,-0.008314192295074463,XArbitraryZVertical,0.1502785771054719,-0.187434763965483,-0.8471832232906458,0.4738832639993014,0.07698258012533188,-0.4600121676921844,-0.8845691084861755,0,0,0,-1,-1,34409.33442916667,unknown,2,2022-06-02T10:51:18.591+02:00,2022-06-02T10:32:51.428+02:00,137,2.25677,0.5971239,2.005515,117.0835,0,0,2022-06-02T10:51:21.147+02:00,675852668.3826994,0,15.39844,101.0076,1,0.88
2022-06-02T10:51:23.285+02:00,1654159882.238837,53.22895223888472,10.39876643403945,34.92013,-1,-1,-1,-1,22.9221019744873,40,-9999,34414.02401066667,0.0908203125,-0.4613494873046875,-0.868743896484375,34414.01527466667,-2.143634287194155,0.08724457003960076,0.4774546060955547,-0.03720029443502426,-0.04384325072169304,-0.06126550585031509,0.002597048878669739,-0.002272069454193115,-0.003775656223297119,XArbitraryZVertical,0.150253785135685,-0.1871606163224648,-0.8474229690623225,0.473570499706337,0.07738952338695526,-0.4595199227333069,-0.8847894072532654,0,0,0,-1,-1,34409.33442916667,unknown,2,2022-06-02T10:51:18.591+02:00,2022-06-02T10:32:51.428+02:00,137,2.25677,0.5971239,2.005515,117.0835,0,0,2022-06-02T10:51:21.147+02:00,675852668.3826994,0,15.39844,101.0076,1,0.88
2022-06-02T10:51:23.295+02:00,1654159882.238837,53.22895223888472,10.39876643403945,34.92013,-1,-1,-1,-1,22.9221019744873,40,-9999,34414.03398366667,0.099151611328125,-0.4502716064453125,-0.8711090087890625,34414.02524666667,-2.144605043983979,0.08779126229723337,0.4770566364428555,-0.02717925980687141,-0.04518983513116837,-0.05990747362375259,0.01032179594039917,-0.003022313117980957,0.01058518886566162,XArbitraryZVertical,0.150304083745631,-0.1869335107537903,-0.8476570246620513,0.4732254103805548,0.07788924872875214,-0.4591664373874664,-0.8849290609359741,0,0,0,-1,-1,34409.33442916667,unknown,2,2022-06-02T10:51:18.591+02:00,2022-06-02T10:32:51.428+02:00,137,2.25677,0.5971239,2.005515,117.0835,0,0,2022-06-02T10:51:21.147+02:00,675852668.3826994,0,15.39844,101.0076,1,0.88
2022-06-02T10:51:23.305+02:00,1654159882.238837,53.22895223888472,10.39876643403945,34.92013,-1,-1,-1,-1,22.9221019744873,40,-9999,34414.04395566667,0.1063079833984375,-0.443878173828125,-0.8798370361328125,34414.03521966667,-2.145576568907583,0.08826153733917644,0.4769475803382402,-0.01451193541288376,-0.05537376180291176,-0.05732660740613937,0.01753063499927521,0.002602875232696533,0.01737326383590698,XArbitraryZVertical,0.1503878405731885,-0.1868485627500993,-0.8478638507380888,0.4728615803221735,0.0783098116517067,-0.459069550037384,-0.8849422335624695,0,0,0,-1,-1,34409.33442916667,unknown,2,2022-06-02T10:51:18.591+02:00,2022-06-02T10:32:51.428+02:00,137,2.25677,0.5971239,2.005515,117.0835,0,0,2022-06-02T10:51:21.147+02:00,675852668.3826994,0,15.39844,101.0076,1,0.88
2022-06-02T10:51:23.315+02:00,1654159882.238837,53.22895223888472,10.39876643403945,34.92013,-1,-1,-1,-1,22.9221019744873,40,-9999,34414.05392866667,0.1090087890625,-0.4522857666015625,-0.886016845703125,34414.04519166667,-2.146507174340009,0.08861163548263042,0.4770897868267189,-0.01165276486426592,-0.05495431274175644,-0.05850984528660774,0.02438297867774963,0.01376128196716309,0.007789790630340576,XArbitraryZVertical,0.1504816252995554,-0.1868968311090679,-0.8480412348557888,0.4724943667483381,0.07861384749412537,-0.4591958820819855,-0.8848497271537781,0,0,0,-1,-1,34409.33442916667,unknown,2,2022-06-02T10:51:18.591+02:00,2022-06-02T10:32:51.428+02:00,137,2.25677,0.5971239,2.005515,117.0835,0,0,2022-06-02T10:51:21.147+02:00,675852668.3826994,0,15.39844,101.0076,1,0.88
2022-06-02T10:51:23.325+02:00,1654159882.238837,53.22895223888472,10.39876643403945,34.92013,-1,-1,-1,-1,22.9221019744873,40,-9999,34414.06390066667,0.1083984375,-0.4541168212890625,-0.8882293701171875,34414.05516466667,-2.147415835723462,0.08886954058133419,0.4775118939184872,0.008192844688892365,-0.05468480288982391,-0.06277010589838028,0.02876487374305725,0.01213732361793518,0.004005789756774902,XArbitraryZVertical,0.1506018278875562,-0.1870854398344102,-0.8481882474931262,0.472117338485728,0.07882484048604965,-0.4595708250999451,-0.8846362829208374,0,0,0,-1,-1,34409.33442916667,unknown,2,2022-06-02T10:51:18.591+02:00,2022-06-02T10:32:51.428+02:00,137,2.25677,0.5971239,2.005515,117.0835,0,0,2022-06-02T10:51:21.147+02:00,675852668.3826994,0,15.39844,101.0076,1,0.88
2022-06-02T10:51:23.335+02:00,1654159882.238837,53.22895223888472,10.39876643403945,34.92013,-1,-1,-1,-1,22.9221019744873,40,-9999,34414.07387366667,0.10089111328125,-0.4609375,-0.8735198974609375,34414.06513666667,-2.148335653776815,0.08891611755671333,0.4780006941475314,0.02184531651437283,-0.06471018493175507,-0.07259639352560043,0.03081879764795303,0.006315320730209351,-0.004705607891082764,XArbitraryZVertical,0.1506462978899517,-0.1873534732920918,-0.84834598703895,0.4717133683535058,0.07884608954191208,-0.4600048661231995,-0.884408712387085,0,0,0,-1,-1,34409.33442916667,unknown,2,2022-06-02T10:51:18.591+02:00,2022-06-02T10:32:51.428+02:00,137,2.25677,0.5971239,2.005515,117.0835,0,0,2022-06-02T10:51:21.147+02:00,675852668.3826994,0,15.39844,101.0076,1,0.88
2022-06-02T10:51:23.345+02:00,1654159882.238837,53.22895223888472,10.39876643403945,34.92013,-1,-1,-1,-1,22.9221019744873,40,-9999,34414.08384566667,0.0879669189453125,-0.4744873046875,-0.8616180419921875,34414.07510966667,-2.149266691289956,0.08878769241722503,0.4783994318173302,0.00918038934469223,-0.06012981384992599,-0.08676547557115555,0.02707292139530182,0.004777222871780396,0.00357508659362793,XArbitraryZVertical,0.1505948530826537,-0.1876250101303678,-0.8485295872405634,0.4712914853643904,0.07871624082326889,-0.4603588879108429,-0.8842360973358154,0,0,0,-1,-1,34409.33442916667,unknown,2,2022-06-02T10:51:18.591+02:00,2022-06-02T10:32:51.428+02:00,137,2.25677,0.5971239,2.005515,117.0835,0,0,2022-06-02T10:51:21.147+02:00,675852668.3826994,0,15.39844,101.0076,1,0.88
2022-06-02T10:51:23.355+02:00,1654159882.238837,53.22895223888472,10.39876643403945,34.92013,-1,-1,-1,-1,22.9221019744873,40,-9999,34414.09381766667,0.0770721435546875,-0.4788970947265625,-0.855133056640625,34414.08508166667,-2.150297695703189,0.0886910782312348,0.4785373630631056,-0.007043543271720409,-0.04849730432033539,-0.09824598580598831,0.01657439768314362,-0.007948219776153564,0.01798474788665771,XArbitraryZVertical,0.1504883074700154,-0.1877845866535003,-0.8487639231255782,0.4708397880371434,0.07862517982721329,-0.4604813158512115,-0.8841804265975952,0,0,0,-1,-1,34409.33442916667,unknown,2,2022-06-02T10:51:18.591+02:00,2022-06-02T10:32:51.428+02:00,137,2.25677,0.5971239,2.005515,117.0835,0,0,2022-06-02T10:51:21.147+02:00,675852668.3826994,0,15.39844,101.0076,1,0.88
2022-06-02T10:51:23.365+02:00,1654159882.238837,53.22895223888472,10.39876643403945,34.92013,-1,-1,-1,-1,22.9221019744873,40,-9999,34414.10379066667,0.0683441162109375,-0.4667205810546875,-0.8447723388671875,34414.09505366667,-2.151412898670099,0.08877888876319943,0.4782547038516534,-0.02973607368767262,-0.04252596572041512,-0.1025342047214508,0.003911964595317841,-0.01886501908302307,0.02509599924087524,XArbitraryZVertical,0.1503569872750153,-0.1877264429922471,-0.8490520113734321,0.4703851106108019,0.07871435582637787,-0.4602304100990295,-0.884303092956543,0,0,0,-1,-1,34409.33442916667,unknown,2,2022-06-02T10:51:18.591+02:00,2022-06-02T10:32:51.428+02:00,137,2.25677,0.5971239,2.005515,117.0835,0,0,2022-06-02T10:51:21.147+02:00,675852668.3826994,0,15.39844,101.0076,1,0.88
2022-06-02T10:51:23.375+02:00,1654159882.238837,53.22895223888472,10.39876643403945,34.92013,-1,-1,-1,-1,22.9221019744873,40,-9999,34414.11376266667,0.062713623046875,-0.460693359375,-0.842498779296875,34414.10502666667,-2.152670080836006,0.08919125316780992,0.4778015872716478,-0.06155827268958092,-0.02626408264040947,-0.1147619336843491,-0.007839038968086243,-0.01386579871177673,0.03589117527008057,XArbitraryZVertical,0.150311822026222,-0.1875293304776031,-0.84936837306947,0.4699068700164843,0.07909757643938065,-0.4598280787467957,-0.8844782114028931,0,0,0,-1,-1,34409.33442916667,unknown,2,2022-06-02T10:51:18.591+02:00,2022-06-02T10:32:51.428+02:00,137,2.25677,0.5971239,2.005515,117.0835,0,0,2022-06-02T10:51:21.147+02:00,675852668.3826994,0,15.39844,101.0076,1,0.88
2022-06-02T10:51:23.385+02:00,1654159882.238837,53.22895223888472,10.39876643403945,34.92013,-1,-1,-1,-1,22.9221019744873,40,-9999,34414.12373566667,0.0637664794921875,-0.4586029052734375,-0.8341827392578125,34414.11499866667,-2.154140198435555,0.08999816538985614,0.4769714703679415,-0.09532476216554642,-0.01592515781521797,-0.1317435801029205,-0.01301205158233643,-0.004639089107513428,0.04105925559997559,XArbitraryZVertical,0.1503297032925675,-0.1870935603491455,-0.8497478156309971,0.4693885505772112,0.07984552532434464,-0.4590907692909241,-0.8847939372062683,0,0,0,-1,-1,34409.33442916667,unknown,2,2022-06-02T10:51:18.591+02:00,2022-06-02T10:32:51.428+02:00,137,2.25677,0.5971239,2.005515,117.0835,0,0,2022-06-02T10:51:21.147+02:00,675852668.3826994,0,15.39844,101.0076,1,0.88
2022-06-02T10:51:23.395+02:00,1654159882.238837,53.22895223888472,10.39876643403945,34.92013,-1,-1,-1,-1,22.9221019744873,40,-9999,34414.13370766667,0.0579833984375,-0.455047607421875,-0.8257293701171875,34414.12497166667,-2.155876366043588,0.09114164922260932,0.4756268404154249,-0.1110823228955269,0.0003687723074108362,-0.1557552218437195,-0.01769617199897766,-0.002141445875167847,0.04625046253204346,XArbitraryZVertical,0.1503508394706911,-0.1863776204200515,-0.8502226119743254,0.4688063861593884,0.08091332763433456,-0.457895815372467,-0.885316014289856,0,0,0,-1,-1,34409.33442916667,unknown,2,2022-06-02T10:51:18.591+02:00,2022-06-02T10:32:51.428+02:00,137,2.25677,0.5971239,2.005515,117.0835,0,0,2022-06-02T10:51:21.147+02:00,675852668.3826994,0,15.39844,101.0076,1,0.88
2022-06-02T10:51:23.405+02:00,1654159882.238837,53.22895223888472,10.39876643403945,34.92013,-1,-1,-1,-1,22.9221019744873,40,-9999,34414.14368066667,0.0471343994140625,-0.453277587890625,-0.81573486328125,34414.13494366667,-2.157872374373556,0.09248510808209691,0.4740932148131234,-0.1404545903205872,0.001249745953828096,-0.1817277073860168,-0.01951481401920319,9.569525718688965e-05,0.05604022741317749,XArbitraryZVertical,0.150391904169872,-0.1855529750180494,-0.8507641319623132,0.4681376671371342,0.08216740190982819,-0.4565318524837494,-0.8859047293663025,0,0,0,-1,-1,34409.33442916667,unknown,2,2022-06-02T10:51:18.591+02:00,2022-06-02T10:32:51.428+02:00,137,2.25677,0.5971239,2.005515,117.0835,0,0,2022-06-02T10:51:21.147+02:00,675852668.3826994,0,15.39844,101.0076,1,0.88
2022-06-02T10:51:23.415+02:00,1654159882.238837,53.22895223888472,10.39876643403945,34.92013,-1,-1,-1,-1,22.9221019744873,40,-9999,34414.15365266667,0.034088134765625,-0.4596710205078125,-0.8049163818359375,34414.14491666667,-2.160051242268383,0.09385630580655387,0.4723566456163429,-0.1605875641107559,0.01607902534306049,-0.2113875895738602,-0.03139327466487885,0.002486735582351685,0.06690758466720581,XArbitraryZVertical,0.150384297343555,-0.1846482220973179,-0.8513684043033314,0.4673985728301792,0.08345624804496765,-0.4549861252307892,-0.8865792155265808,0,0,0,-1,-1,34409.33442916667,unknown,2,2022-06-02T10:51:18.591+02:00,2022-06-02T10:32:51.428+02:00,137,2.25677,0.5971239,2.005515,117.0835,0,0,2022-06-02T10:51:21.147+02:00,675852668.3826994,0,15.39844,101.0076,1,0.88
2022-06-02T10:51:23.425+02:00,1654159882.238837,53.22895223888472,10.39876643403945,34.92013,-1,-1,-1,-1,22.9221019744873,40,-9999,34414.16362566667,0.0292510986328125,-0.45758056640625,-0.7864990234375,34414.15488866667,-2.162564933064504,0.0954789329414036,0.4704552464299234,-0.1843237727880478,0.04904789477586746,-0.2510585784912109,-0.04484645277261734,-0.002335309982299805,0.0755499005317688,XArbitraryZVertical,0.1504184473519318,-0.1836387723995501,-0.8520495557278372,0.4665433506032359,0.08497704565525055,-0.4532921314239502,-0.8873021602630615,0,0,0,-1,-1,34409.33442916667,unknown,2,2022-06-02T10:51:18.591+02:00,2022-06-02T10:32:51.428+02:00,137,2.25677,0.5971239,2.005515,117.0835,0,0,2022-06-02T10:51:21.147+02:00,675852668.3826994,0,15.39844,101.0076,1,0.88
2022-06-02T10:51:23.435+02:00,1654159882.238837,53.22895223888472,10.39876643403945,34.92013,-1,-1,-1,-1,22.9221019744873,40,-9999,34414.17359766667,0.0282745361328125,-0.4524688720703125,-0.77099609375,34414.16486166667,-2.165380430797634,0.09744284609514185,0.4683141935583622,-0.2273484915494919,0.07660708576440811,-0.291630744934082,-0.05559420585632324,-0.008090049028396606,0.09151238203048706,XArbitraryZVertical,0.1505200508919352,-0.1824691367562802,-0.8528009891381952,0.465595478916892,0.08681368827819824,-0.4513826370239258,-0.8880974650382996,0,0,0,-1,-1,34409.33442916667,unknown,2,2022-06-02T10:51:18.591+02:00,2022-06-02T10:32:51.428+02:00,137,2.25677,0.5971239,2.005515,117.0835,0,0,2022-06-02T10:51:21.147+02:00,675852668.3826994,0,15.39844,101.0076,1,0.88
2022-06-02T10:51:23.445+02:00,1654159882.238837,53.22895223888472,10.39876643403945,34.92013,-1,-1,-1,-1,22.9221019744873,40,-9999,34414.18357066667,0.034332275390625,-0.439453125,-0.7657012939453125,34414.17483366667,-2.168560150094703,0.09973234285722708,0.4656306587461275,-0.2858717143535614,0.09095459431409836,-0.3361918330192566,-0.06038734316825867,-0.006625771522521973,0.1118767857551575,XArbitraryZVertical,0.1506108682574138,-0.1810169334362816,-0.853672155080212,0.4645354578134316,0.08896704018115997,-0.4489864110946655,-0.8890984654426575,0,0,0,-1,-1,34409.33442916667,unknown,2,2022-06-02T10:51:18.591+02:00,2022-06-02T10:32:51.428+02:00,137,2.25677,0.5971239,2.005515,117.0835,0,0,2022-06-02T10:51:21.147+02:00,675852668.3826994,0,15.39844,101.0076,1,0.88
2022-06-02T10:51:23.455+02:00,1654159882.238837,53.22895223888472,10.39876643403945,34.92013,-1,-1,-1,-1,22.9221019744873,40,-9999,34414.19354266667,0.0487823486328125,-0.4195404052734375,-0.77392578125,34414.18480666667,-2.172170478935596,0.1023701879205463,0.4623145893472556,-0.3356393575668335,0.120183140039444,-0.3825800716876984,-0.06080879271030426,-0.001122653484344482,0.1225451231002808,XArbitraryZVertical,0.1506771296527506,-0.1792427625804951,-0.8546856539583325,0.4633366533714923,0.09146367758512497,-0.4460209012031555,-0.8903368711471558,0,0,0,-1,-1,34409.33442916667,unknown,2,2022-06-02T10:51:18.591+02:00,2022-06-02T10:32:51.428+02:00,137,2.25677,0.5971239,2.005515,117.0835,0,0,2022-06-02T10:51:21.147+02:00,675852668.3826994,0,15.39844,101.0076,1,0.88
2022-06-02T10:51:23.465+02:00,1654159882.238837,53.22895223888472,10.39876643403945,34.92013,-1,-1,-1,-1,22.9221019744873,40,-9999,34414.20351566667,0.0638580322265625,-0.411865234375,-0.77581787109375,34414.19477866667,-2.176269024490693,0.1054724816810003,0.4584374485694808,-0.38144651055336,0.1460903733968735,-0.4356707334518433,-0.05369623005390167,0.01368391513824463,0.121803343296051,XArbitraryZVertical,0.1507823642393172,-0.1771546194248934,-0.8558366340082546,0.4619791306053771,0.09440666437149048,-0.4425474405288696,-0.891761839389801,0,0,0,-1,-1,34409.33442916667,unknown,2,2022-06-02T10:51:18.591+02:00,2022-06-02T10:32:51.428+02:00,137,2.25677,0.5971239,2.005515,117.0835,0,0,2022-06-02T10:51:21.147+02:00,675852668.3826994,0,15.39844,101.0076,1,0.88
2022-06-02T10:51:23.475+02:00,1654159882.238837,53.22895223888472,10.39876643403945,34.92013,-1,-1,-1,-1,22.9221019744873,40,-9999,34414.21348766667,0.0678558349609375,-0.408905029296875,-0.771942138671875,34414.20475166667,-2.18102474765212,0.1090536876107371,0.4541688819604994,-0.3958350419998169,0.1634810864925385,-0.5167042016983032,-0.04113323986530304,0.02581274509429932,0.117195188999176,XArbitraryZVertical,0.1509590816741513,-0.174835608760933,-0.857141965007169,0.4603821284933416,0.09780434519052505,-0.4387156069278717,-0.893287718296051,0,0,0,-1,-1,34409.33442916667,unknown,2,2022-06-02T10:51:18.591+02:00,2022-06-02T10:32:51.428+02:00,137,2.25677,0.5971239,2.005515,117.0835,0,0,2022-06-02T10:51:21.147+02:00,675852668.3826994,0,15.39844,101.0076,1,0.88
2022-06-02T10:51:23.485+02:00,1654159882.238837,53.22895223888472,10.39876643403945,34.92013,-1,-1,-1,-1,22.9221019744873,40,-9999,34414.22346066667,0.0652923583984375,-0.40380859375,-0.751556396484375,34414.21472366667,-2.186591145358182,0.1132133659374848,0.4495890445246246,-0.4142460227012634,0.1845123320817947,-0.5861170887947083,-0.03398092091083527,0.02268442511558533,0.1204003095626831,XArbitraryZVertical,0.1512587542585324,-0.1723099305230299,-0.8586180056278019,0.4584813507621482,0.1017452031373978,-0.4345954656600952,-0.8948601484298706,0,0,0,-1,-1,34409.33442916667,unknown,2,2022-06-02T10:51:18.591+02:00,2022-06-02T10:32:51.428+02:00,137,2.25677,0.5971239,2.005515,117.0835,0,0,2022-06-02T10:51:21.147+02:00,675852668.3826994,0,15.39844,101.0076,1,0.88
2022-06-02T10:51:23.495+02:00,1654159882.238837,53.22895223888472,10.39876643403945,34.92013,-1,-1,-1,-1,22.9221019744873,40,-9999,34414.23343266667,0.0553436279296875,-0.4137725830078125,-0.737548828125,34414.22469666667,-2.19285398013211,0.1179666097400424,0.4446348443517457,-0.4534744322299957,0.2218407094478607,-0.6556670069694519,-0.03909571468830109,0.02587714791297913,0.1312958002090454,XArbitraryZVertical,0.1516894134584306,-0.1695391864018509,-0.8602416326985937,0.45632362218789,0.1062496230006218,-0.4301282465457916,-0.8964935541152954,0,0,0,-1,-1,34409.33442916667,unknown,2,2022-06-02T10:51:18.591+02:00,2022-06-02T10:32:51.428+02:00,137,2.25677,0.5971239,2.005515,117.0835,0,0,2022-06-02T10:51:21.147+02:00,675852668.3826994,0,15.39844,101.0076,1,0.88
2022-06-02T10:51:23.505+02:00,1654159882.238837,53.22895223888472,10.39876643403945,34.92013,-1,-1,-1,-1,22.9221019744873,40,-9999,34414.24340466667,0.0459442138671875,-0.4191436767578125,-0.731719970703125,34414.23466866667,-2.199822238130756,0.1233611555024565,0.4391107079037148,-0.5000613927841187,0.2609186172485352,-0.7387256622314453,-0.05099590122699738,0.01854899525642395,0.1543094515800476,XArbitraryZVertical,0.1522347791319274,-0.1664293379534858,-0.8620293234371087,0.4539066888643072,0.1113749071955681,-0.4251347184181213,-0.8982517123222351,0,0,0,-1,-1,34409.33442916667,unknown,2,2022-06-02T10:51:18.591+02:00,2022-06-02T10:32:51.428+02:00,137,2.25677,0.5971239,2.005515,117.0835,0,0,2022-06-02T10:51:21.147+02:00,675852668.3826994,0,15.39844,101.0076,1,0.88
2022-06-02T10:51:23.515+02:00,1654159882.238837,53.22895223888472,10.39876643403945,34.92013,-1,-1,-1,-1,22.9221019744873,40,-9999,34414.25337766667,0.043487548828125,-0.4257354736328125,-0.7444305419921875,34414.24464066667,-2.207609798920133,0.1293809553766536,0.4329316276982922,-0.5695439577102661,0.2797442078590393,-0.825822651386261,-0.06665605306625366,0.0006952285766601562,0.1672731637954712,XArbitraryZVertical,0.1528682394841764,-0.1629567457761014,-0.8640132414992415,0.4511734568847779,0.1171168461441994,-0.419533759355545,-0.9001528024673462,0,0,0,-1,-1,34409.33442916667,unknown,2,2022-06-02T10:51:18.591+02:00,2022-06-02T10:32:51.428+02:00,137,2.25677,0.5971239,2.005515,117.0835,0,0,2022-06-02T10:51:21.147+02:00,675852668.3826994,0,15.39844,101.0076,1,0.88
2022-06-02T10:51:23.525+02:00,1654159882.238837,53.22895223888472,10.39876643403945,34.92013,-1,-1,-1,-1,22.9221019744873,40,-9999,34414.26334966667,0.0555877685546875,-0.4384002685546875,-0.7673797607421875,34414.25461366667,-2.216128628157919,0.1359166391298963,0.4258133671474686,-0.6449230909347534,0.3168926537036896,-0.9051867127418518,-0.08081167936325073,-0.007119655609130859,0.1645417213439941,XArbitraryZVertical,0.1534990059345791,-0.1590156815514771,-0.8662075645812851,0.4481477939121481,0.123398944735527,-0.413061648607254,-0.9023041129112244,0,0,0,-1,-1,34409.33442916667,unknown,2,2022-06-02T10:51:18.591+02:00,2022-06-02T10:32:51.428+02:00,137,2.25677,0.5971239,2.005515,117.0835,0,0,2022-06-02T10:51:21.147+02:00,675852668.3826994,0,15.39844,101.0076,1,0.88
2022-06-02T10:51:23.535+02:00,1654159882.238837,53.22895223888472,10.39876643403945,34.92013,-1,-1,-1,-1,22.9221019744873,40,-9999,34414.27332266667,0.06951904296875,-0.4541015625,-0.8037261962890625,34414.26458566667,-2.225275013823595,0.1429166660943688,0.4177724664993216,-0.7309584021568298,0.340946763753891,-0.9758791327476501,-0.08242088556289673,-0.02483177185058594,0.1525251269340515,XArbitraryZVertical,0.1541276239908783,-0.1546168471750169,-0.8685850654233964,0.44485775721143,0.1301808953285217,-0.405725508928299,-0.904676616191864,0,0,0,-1,-1,34409.33442916667,unknown,2,2022-06-02T10:51:18.591+02:00,2022-06-02T10:32:51.428+02:00,137,2.25677,0.5971239,2.005515,117.0835,0,0,2022-06-02T10:51:21.147+02:00,675852668.3826994,0,15.39844,101.0076,1,0.88
2022-06-02T10:51:23.545+02:00,1654159882.238837,53.22895223888472,10.39876643403945,34.92013,-1,-1,-1,-1,22.9221019744873,40,-9999,34414.28329466667,0.072021484375,-0.477569580078125,-0.8485870361328125,34414.27455866667,-2.234940974367631,0.1502064599087833,0.4086278135787567,-0.8314352035522461,0.3426123261451721,-1.051173329353333,-0.07456237077713013,-0.0488927960395813,0.1208962202072144,XArbitraryZVertical,0.1546601385060409,-0.1497102256913789,-0.8711478993741674,0.4413257237343737,0.1373217552900314,-0.3973504900932312,-0.9073342084884644,0,0,0,-1,-1,34409.33442916667,unknown,2,2022-06-02T10:51:18.591+02:00,2022-06-02T10:32:51.428+02:00,137,2.25677,0.5971239,2.005515,117.0835,0,0,2022-06-02T10:51:21.147+02:00,675852668.3826994,0,15.39844,101.0076,1,0.88
2022-06-02T10:51:23.555+02:00,1654159882.238837,53.22895223888472,10.39876643403945,34.92013,-1,-1,-1,-1,22.9221019744873,40,-9999,34414.29326775,0.057830810546875,-0.5006561279296875,-0.89141845703125,34414.28453066667,-2.245096222481365,0.1576446160154069,0.3982273892792487,-0.939422607421875,0.3531540036201477,-1.119818210601807,-0.0714656263589859,-0.07655516266822815,0.086162269115448,XArbitraryZVertical,0.1550178412828994,-0.1442549655207772,-0.8739090182839353,0.4375419533709144,0.1447077840566635,-0.3877850472927094,-0.9103199243545532,0,0,0,-1,-1,34409.33442916667,unknown,2,2022-06-02T10:51:18.591+02:00,2022-06-02T10:32:51.428+02:00,137,2.25677,0.5971239,2.005515,117.0835,0,0,2022-06-02T10:51:21.147+02:00,675852668.3826994,0,15.39844,101.0076,1,0.88
2022-06-02T10:51:23.573+02:00,1654159882.238837,53.22895223888472,10.39876643403945,34.92013,-1,-1,-1,-1,22.9221019744873,40,-9999,34414.30323975,0.03973388671875,-0.4989776611328125,-0.9249267578125,34414.29450375,-2.255648629667049,0.1653281534648909,0.386633966518532,-1.04619836807251,0.3784526884555817,-1.183182716369629,-0.08605186641216278,-0.1148703694343567,0.04301005601882935,XArbitraryZVertical,0.1552752813584309,-0.1382473975116926,-0.876825147334265,0.43353778456603,0.1524275988340378,-0.3770729899406433,-0.9135544896125793,0,0,0,-1,-1,34409.33442916667,unknown,2,2022-06-02T10:51:18.591+02:00,2022-06-02T10:32:51.428+02:00,137,2.25677,0.5971239,2.005515,117.0835,0,0,2022-06-02T10:51:21.147+02:00,675852668.3826994,0,15.39844,101.0076,1,0.88
2022-06-02T10:51:23.589+02:00,1654159882.238837,53.22895223888472,10.39876643403945,34.92013,-1,-1,-1,-1,22.9221019744873,40,-9999,34414.31321275,0.0281982421875,-0.4926300048828125,-0.9550018310546875,34414.30447575,-2.26655325671429,0.1733644286290159,0.3737074044927993,-1.175206899642944,0.4206041395664215,-1.261582851409912,-0.1117940098047256,-0.136959969997406,0.008302986621856689,XArbitraryZVertical,0.1554673374476207,-0.1315958290383972,-0.8798827217719017,0.4293238155364348,0.1605916023254395,-0.3650694489479065,-0.9170249104499817,0,0,0,-1,-1,34409.33442916667,unknown,2,2022-06-02T10:51:18.591+02:00,2022-06-02T10:32:51.428+02:00,137,2.25677,0.5971239,2.005515,117.0835,0,0,2022-06-02T10:51:21.147+02:00,675852668.3826994,0,15.39844,101.0076,1,0.88
2022-06-02T10:51:23.593+02:00,1654159882.238837,53.22895223888472,10.39876643403945,34.92013,-1,-1,-1,-1,22.9221019744873,40,-9999,34414.32318475,0.0256500244140625,-0.4611358642578125,-0.9687652587890625,34414.31444875,-2.277922625376541,0.1817694888104564,0.359393723755134,-1.281879067420959,0.4501151442527771,-1.347626328468323,-0.1367196142673492,-0.1452109813690186,-0.02035188674926758,XArbitraryZVertical,0.1555977368368687,-0.1242789971201653,-0.8830980598341029,0.4248316099348215,0.169220820069313,-0.3517067432403564,-0.9206881523132324,0,0,0,-1,-1,34409.33442916667,unknown,2,2022-06-02T10:51:18.591+02:00,2022-06-02T10:32:51.428+02:00,137,2.25677,0.5971239,2.005515,117.0835,0,0,2022-06-02T10:51:21.147+02:00,675852668.3826994,0,15.39844,101.0076,1,0.88
2022-06-02T10:51:23.595+02:00,1654159882.238837,53.22895223888472,10.39876643403945,34.92013,-1,-1,-1,-1,22.9221019744873,40,-9999,34414.33315775,0.0272674560546875,-0.430023193359375,-0.99493408203125,34414.32442075,-2.289755031420448,0.1904511442629473,0.3438500686807991,-1.374669909477234,0.4658118486404419,-1.412293314933777,-0.1510297358036041,-0.1434155106544495,-0.03797650337219238,XArbitraryZVertical,0.1556730468356164,-0.1163845814301199,-0.886448302984216,0.4200356291521962,0.1782208681106567,-0.3371142745018005,-0.9244410395622253,0,0,0,-1,-1,34409.33442916667,unknown,2,2022-06-02T10:51:18.591+02:00,2022-06-02T10:32:51.428+02:00,137,2.25677,0.5971239,2.005515,117.0835,0,0,2022-06-02T10:51:21.147+02:00,675852668.3826994,0,15.39844,101.0076,1,0.88
2022-06-02T10:51:23.605+02:00,1654159882.238837,53.22895223888472,10.39876643403945,34.92013,-1,-1,-1,-1,22.9221019744873,40,-9999,34414.34312975,0.032196044921875,-0.404266357421875,-1.021728515625,34414.33439375,-2.301853923830396,0.1992306066658458,0.3273693818212526,-1.421721220016479,0.497817188501358,-1.47243869304657,-0.1619831174612045,-0.1205091178417206,-0.05149883031845093,XArbitraryZVertical,0.1556964786681126,-0.1080648777723587,-0.8898641186317056,0.4149969239611783,0.1874042302370071,-0.3215532302856445,-0.9281612038612366,0,0,0,-1,-1,34409.33442916667,unknown,2,2022-06-02T10:51:18.591+02:00,2022-06-02T10:32:51.428+02:00,137,2.25677,0.5971239,2.005515,117.0835,0,0,2022-06-02T10:51:21.147+02:00,675852668.3826994,0,15.39844,101.0076,1,0.88
2022-06-02T10:51:23.614+02:00,1654159882.238837,53.22895223888472,10.39876643403945,34.92013,-1,-1,-1,-1,22.9221019744873,40,-9999,34414.35310275,0.0422515869140625,-0.39776611328125,-1.041061401367188,34414.34436575,-2.314280416480021,0.2082371259189933,0.3106677680867466,-1.379856586456299,0.5266343355178833,-1.52290952205658,-0.1678625047206879,-0.1120148599147797,-0.0779760479927063,XArbitraryZVertical,0.1558693844758728,-0.0996212403524917,-0.8932706476944474,0.4096925351600388,0.1968389302492142,-0.3056945204734802,-0.9315606951713562,0,0,0,-1,-1,34409.33442916667,unknown,2,2022-06-02T10:51:18.591+02:00,2022-06-02T10:32:51.428+02:00,137,2.25677,0.5971239,2.005515,117.0835,0,0,2022-06-02T10:51:21.147+02:00,675852668.3826994,0,15.39844,101.0076,1,0.88
2022-06-02T10:51:23.624+02:00,1654159882.238837,53.22895223888472,10.39876643403945,34.92013,-1,-1,-1,-1,22.9221019744873,40,-9999,34414.36307475,0.023162841796875,-0.4481353759765625,-1.064376831054688,34414.35433875,-2.327191387513144,0.2173977700208949,0.2943638684948503,-1.294129729270935,0.5375961661338806,-1.589019060134888,-0.168707475066185,-0.1061548590660095,-0.09547632932662964,XArbitraryZVertical,0.1562744586358477,-0.091365246456994,-0.8966439023320327,0.404055013892955,0.2064119130373001,-0.290131151676178,-0.9344613552093506,0,0,0,-1,-1,34409.33442916667,unknown,2,2022-06-02T10:51:18.591+02:00,2022-06-02T10:32:51.428+02:00,137,2.25677,0.5971239,2.005515,117.0835,0,0,2022-06-02T10:51:21.147+02:00,675852668.3826994,0,15.39844,101.0076,1,0.88
2022-06-02T10:51:23.634+02:00,1654159882.238837,53.22895223888472,10.39876643403945,34.92013,-1,-1,-1,-1,22.9221019744873,40,-9999,34414.37304775,0.02203369140625,-0.55706787109375,-1.108932495117188,34414.36431075,-2.341290158774364,0.2266626330085589,0.278402309321184,-1.255191802978516,0.5231358408927917,-1.803644418716431,-0.1759584993124008,-0.1355195343494415,-0.1154351830482483,XArbitraryZVertical,0.1568527790250334,-0.08334263184938098,-0.9001294881999657,0.397766322212893,0.2160738408565521,-0.2748198211193085,-0.9369024038314819,0,0,0,-1,-1,34409.33442916667,unknown,2,2022-06-02T10:51:18.591+02:00,2022-06-02T10:32:51.428+02:00,137,2.25677,0.5971239,2.005515,117.0835,0,0,2022-06-02T10:51:21.147+02:00,675852668.3826994,0,15.39844,101.0076,1,0.88
2022-06-02T10:51:23.644+02:00,1654159882.238837,53.22895223888472,10.39876643403945,34.92013,-1,-1,-1,-1,22.9221019744873,40,-9999,34414.38301975,0.0306854248046875,-0.5306854248046875,-1.11431884765625,34414.37428375,-2.357156495833401,0.2366240600221622,0.2623362934549354,-1.204349160194397,0.6112657189369202,-1.875909805297852,-0.2120127528905869,-0.2620399296283722,-0.1544782519340515,XArbitraryZVertical,0.1577804327255657,-0.0752850655607489,-0.9038201228023477,0.3905722093752949,0.2264017462730408,-0.2593376040458679,-0.9388749599456787,0,0,0,-1,-1,34409.33442916667,unknown,2,2022-06-02T10:51:18.591+02:00,2022-06-02T10:32:51.428+02:00,137,2.25677,0.5971239,2.005515,117.0835,0,0,2022-06-02T10:51:21.147+02:00,675852668.3826994,0,15.39844,101.0076,1,0.88
2022-06-02T10:51:23.654+02:00,1654159882.238837,53.22895223888472,10.39876643403945,34.92013,-1,-1,-1,-1,22.9221019744873,40,-9999,34414.39299175,0.0119781494140625,-0.5572662353515625,-1.118667602539062,34414.38425575,-2.372635318873419,0.2467859606711536,0.2454751861627541,-1.386639833450317,0.6491268277168274,-1.876359343528748,-0.2054101079702377,-0.2968997061252594,-0.168177604675293,XArbitraryZVertical,0.1588074839040771,-0.06681158126763365,-0.9073734324779974,0.3833924654474883,0.2369652688503265,-0.2430172860622406,-0.9406328201293945,0,0,0,-1,-1,34409.33442916667,unknown,2,2022-06-02T10:51:18.591+02:00,2022-06-02T10:32:51.428+02:00,137,2.25677,0.5971239,2.005515,117.0835,0,0,2022-06-02T10:51:21.147+02:00,675852668.3826994,0,15.39844,101.0076,1,0.88
2022-06-02T10:51:23.664+02:00,1654159882.238837,53.22895223888472,10.39876643403945,34.92013,-1,-1,-1,-1,22.9221019744873,40,-9999,34414.40296475,-0.0207977294921875,-0.561676025390625,-1.133193969726562,34414.39422775,-2.388213276042921,0.2571500758264809,0.2262742831805963,-1.592247128486633,0.7063224911689758,-2.040707349777222,-0.2237792760133743,-0.3190171420574188,-0.1762169599533081,XArbitraryZVertical,0.1596542212849394,-0.05725009748069337,-0.910991155390837,0.3759364410302797,0.2478423714637756,-0.2243483513593674,-0.9424659013748169,0,0,0,-1,-1,34409.33442916667,unknown,2,2022-06-02T10:51:18.591+02:00,2022-06-02T10:32:51.428+02:00,137,2.25677,0.5971239,2.005515,117.0835,0,0,2022-06-02T10:51:21.147+02:00,675852668.3826994,0,15.39844,101.0076,1,0.88
2022-06-02T10:51:23.674+02:00,1654159882.238837,53.22895223888472,10.39876643403945,34.92013,-1,-1,-1,-1,22.9221019744873,40,-9999,34414.41293675,-0.0421142578125,-0.53082275390625,-1.118545532226562,34414.40420075,-2.404668337878691,0.2681874776840402,0.2045987565344056,-1.775982022285461,0.8047667741775513,-2.190245389938354,-0.262890487909317,-0.3605006337165833,-0.1794094443321228,XArbitraryZVertical,0.160518972373054,-0.04650999380726718,-0.9147570122579349,0.3678182522907852,0.2594572603702545,-0.2031743079423904,-0.9441409707069397,0,0,0,-1,-1,34409.33442916667,unknown,2,2022-06-02T10:51:18.591+02:00,2022-06-02T10:32:51.428+02:00,137,2.25677,0.5971239,2.005515,117.0835,0,0,2022-06-02T10:51:21.147+02:00,675852668.3826994,0,15.39844,101.0076,1,0.88
2022-06-02T10:51:23.684+02:00,1654159882.238837,53.22895223888472,10.39876643403945,34.92013,-1,-1,-1,-1,22.9221019744873,40,-9999,34414.42290975,-0.0473480224609375,-0.4801483154296875,-1.09033203125,34414.41417275,-2.421473174187525,0.2798441375396893,0.1808483387708509,-1.924272179603577,0.8777722716331482,-2.275202035903931,-0.3052401542663574,-0.3724430203437805,-0.1891123652458191,XArbitraryZVertical,0.1614943690656731,-0.03474727099375791,-0.9185060182938387,0.3592477783283899,0.2717013359069824,-0.1798641383647919,-0.9454243779182434,0,0,0,-1,-1,34409.33442916667,unknown,2,2022-06-02T10:51:18.591+02:00,2022-06-02T10:32:51.428+02:00,137,2.25677,0.5971239,2.005515,117.0835,0,0,2022-06-02T10:51:21.147+02:00,675852668.3826994,0,15.39844,101.0076,1,0.88
2022-06-02T10:51:23.695+02:00,1654159882.238837,53.22895223888472,10.39876643403945,34.92013,-1,-1,-1,-1,22.9221019744873,40,-9999,34414.43288175,-0.0465240478515625,-0.4459228515625,-1.073745727539062,34414.42414575,-2.438305783192327,0.2917806097843134,0.1552791565562166,-2.06216287612915,0.9464213252067566,-2.372658491134644,-0.3298971056938171,-0.3506389260292053,-0.1541621685028076,XArbitraryZVertical,0.1624981056497365,-0.02212019512905343,-0.9221531027732357,0.3503409764963965,0.2841970324516296,-0.1546559035778046,-0.9462101459503174,0,0,0,-1,-1,34409.33442916667,unknown,2,2022-06-02T10:51:18.591+02:00,2022-06-02T10:32:51.428+02:00,137,2.25677,0.5971239,2.005515,117.0835,0,0,2022-06-02T10:51:21.147+02:00,675852668.3826994,0,15.39844,101.0076,1,0.88
2022-06-02T10:51:23.704+02:00,1654159882.238837,53.22895223888472,10.39876643403945,34.92013,-1,-1,-1,-1,22.9221019744873,40,-9999,34414.44285475,-0.0446319580078125,-0.42645263671875,-1.069717407226562,34414.43411775,-2.455533815971083,0.3040517195946695,0.1279610144574524,-2.187411069869995,1.026504755020142,-2.518174171447754,-0.344365119934082,-0.3317995071411133,-0.1304975152015686,XArbitraryZVertical,0.1635827820905979,-0.008685773748289737,-0.9257170635742932,0.3409006584211183,0.2969407737255096,-0.1276120990514755,-0.9463304877281189,0,0,0,-1,-1,34409.33442916667,unknown,2,2022-06-02T10:51:18.591+02:00,2022-06-02T10:32:51.428+02:00,137,2.25677,0.5971239,2.005515,117.0835,0,0,2022-06-02T10:51:21.147+02:00,675852668.3826994,0,15.39844,101.0076,1,0.88
2022-06-02T10:51:23.714+02:00,1654159882.238837,53.22895223888472,10.39876643403945,34.92013,-1,-1,-1,-1,22.9221019744873,40,-9999,34414.45282675,-0.03131103515625,-0.3950958251953125,-1.028274536132812,34414.44409075,-2.473398530250455,0.3167292620820752,0.09886098684702115,-2.296625375747681,1.106007814407349,-2.655941247940063,-0.3577909767627716,-0.3362365067005157,-0.1318953633308411,XArbitraryZVertical,0.1648013186899734,0.005556187213684907,-0.9291905572478715,0.3307787327008385,0.3099393844604492,-0.09870003163814545,-0.9456192851066589,0,0,0,-1,-1,34409.33442916667,unknown,2,2022-06-02T10:51:18.591+02:00,2022-06-02T10:32:51.428+02:00,137,2.275337,0.6019731,2.005515,117.0835,0,0,2022-06-02T10:51:23.701+02:00,675852683.700839,0,16.00781,101.0004,1,0.88
2022-06-02T10:51:23.724+02:00,1654159882.238837,53.22895223888472,10.39876643403945,34.92013,-1,-1,-1,-1,22.9221019744873,40,-9999,34414.46279975,-0.0199432373046875,-0.3355560302734375,-0.9717559814453125,34414.45406275,-2.491559172816313,0.3296948097660929,0.06804562902133661,-2.424992561340332,1.181802749633789,-2.747231721878052,-0.3602670431137085,-0.3466186821460724,-0.1074246764183044,XArbitraryZVertical,0.1661352849740427,0.02057308877163104,-0.9324750864070733,0.3201033295093574,0.3230050504207611,-0.06799312680959702,-0.9439516067504883,0,0,0,-1,-1,34409.33442916667,unknown,2,2022-06-02T10:51:18.591+02:00,2022-06-02T10:32:51.428+02:00,137,2.275337,0.6019731,2.005515,117.0835,0,0,2022-06-02T10:51:23.701+02:00,675852683.700839,0,16.00781,101.0004,1,0.88
2022-06-02T10:51:23.734+02:00,1654159882.238837,53.22895223888472,10.39876643403945,34.92013,-1,-1,-1,-1,22.9221019744873,40,-9999,34414.47277175,-0.0037384033203125,-0.23492431640625,-0.92523193359375,34414.46403575,-2.509467806378189,0.3427509976179361,0.0355942155253993,-2.545421838760376,1.243541598320007,-2.786876678466797,-0.360784113407135,-0.3337980806827545,-0.06054812669754028,XArbitraryZVertical,0.1675153609364674,0.03633240232270149,-0.9354518272493134,0.3091093369001991,0.3358664810657501,-0.03558669984340668,-0.9412370920181274,0,0,0,-1,-1,34409.33442916667,unknown,2,2022-06-02T10:51:18.591+02:00,2022-06-02T10:32:51.428+02:00,137,2.275337,0.6019731,2.005515,117.0835,0,0,2022-06-02T10:51:23.701+02:00,675852683.700839,0,16.00781,101.0004,1,0.88
2022-06-02T10:51:23.744+02:00,1654159882.238837,53.22895223888472,10.39876643403945,34.92013,-1,-1,-1,-1,22.9221019744873,40,-9999,34414.48274475,0.0112762451171875,-0.0839385986328125,-0.9394683837890625,34414.47400775,-2.526780778323853,0.3557354762451372,0.001962170184592059,-2.616771459579468,1.299325466156006,-2.782099485397339,-0.3611271381378174,-0.2893891632556915,-0.006825089454650879,XArbitraryZVertical,0.168929199371831,0.05261680105998734,-0.9380315799085678,0.2979787134371321,0.34827920794487,-0.001962168840691447,-0.9373887777328491,0,0,0,-1,-1,34409.33442916667,unknown,2,2022-06-02T10:51:18.591+02:00,2022-06-02T10:32:51.428+02:00,137,2.275337,0.6019731,2.005515,117.0835,0,0,2022-06-02T10:51:23.701+02:00,675852683.700839,0,16.00781,101.0004,1,0.88
2022-06-02T10:51:23.754+02:00,1654159882.238837,53.22895223888472,10.39876643403945,34.92013,-1,-1,-1,-1,22.9221019744873,40,-9999,34414.49271675,0.02764892578125,0.050872802734375,-1.00091552734375,34414.48398075,-2.54326162414656,0.3688428996278932,-0.0322770611735362,-2.640392541885376,1.3840252161026,-2.748477935791016,-0.3552826941013336,-0.1952658444643021,0.007469892501831055,XArbitraryZVertical,0.1705343341891124,0.06919813466677899,-0.940128328388964,0.286859525279727,0.3603486120700836,0.03227145597338676,-0.9322593212127686,0,0,0,-1,-1,34409.33442916667,unknown,2,2022-06-02T10:51:18.591+02:00,2022-06-02T10:32:51.428+02:00,137,2.275337,0.6019731,2.005515,117.0835,0,0,2022-06-02T10:51:23.701+02:00,675852683.700839,0,16.00781,101.0004,1,0.88
2022-06-02T10:51:23.764+02:00,1654159882.238837,53.22895223888472,10.39876643403945,34.92013,-1,-1,-1,-1,22.9221019744873,40,-9999,34414.50268975,0.072021484375,0.132904052734375,-1.042251586914062,34414.49395275,-2.559061395301088,0.3823545768485678,-0.06665436638507483,-2.619396686553955,1.486438751220703,-2.737919092178345,-0.3543789982795715,-0.07696574926376343,-0.04184657335281372,XArbitraryZVertical,0.1725162874890419,0.08587135112497002,-0.9417257928560925,0.2757116787857388,0.372277557849884,0.06660502403974533,-0.9257284998893738,0,0,0,-1,-1,34409.33442916667,unknown,2,2022-06-02T10:51:18.591+02:00,2022-06-02T10:32:51.428+02:00,137,2.275337,0.6019731,2.005515,117.0835,0,0,2022-06-02T10:51:23.701+02:00,675852683.700839,0,16.00781,101.0004,1,0.88
2022-06-02T10:51:23.774+02:00,1654159882.238837,53.22895223888472,10.39876643403945,34.92013,-1,-1,-1,-1,22.9221019744873,40,-9999,34414.51266175,0.12396240234375,0.1745758056640625,-1.061492919921875,34414.50392575,-2.574609466280948,0.3966880870316715,-0.1006894661868319,-2.528290987014771,1.644305944442749,-2.733055114746094,-0.3382205069065094,-0.001245744526386261,-0.108769416809082,XArbitraryZVertical,0.1751412484711827,0.1024133915634459,-0.9428425292254646,0.264358020949315,0.3844088315963745,0.1005194112658501,-0.9176740646362305,0,0,0,-1,-1,34409.33442916667,unknown,2,2022-06-02T10:51:18.591+02:00,2022-06-02T10:32:51.428+02:00,137,2.275337,0.6019731,2.005515,117.0835,0,0,2022-06-02T10:51:23.701+02:00,675852683.700839,0,16.00781,101.0004,1,0.88
2022-06-02T10:51:23.784+02:00,1654159882.238837,53.22895223888472,10.39876643403945,34.92013,-1,-1,-1,-1,22.9221019744873,40,-9999,34414.52263375,0.1752471923828125,0.1815948486328125,-1.137313842773438,34414.51389775,-2.590055244493273,0.4121126464895994,-0.1344604663614063,-2.552561044692993,1.807167291641235,-2.802225351333618,-0.2955054044723511,0.02541393041610718,-0.1465287208557129,XArbitraryZVertical,0.1785207345969705,0.1188581760730748,-0.9434757110288495,0.2526987627649414,0.3969305753707886,0.1340556740760803,-0.9080061912536621,0,0,0,-1,-1,34409.33442916667,unknown,2,2022-06-02T10:51:18.591+02:00,2022-06-02T10:32:51.428+02:00,137,2.275337,0.6019731,2.005515,117.0835,0,0,2022-06-02T10:51:23.701+02:00,675852683.700839,0,16.00781,101.0004,1,0.88
2022-06-02T10:51:23.794+02:00,1654159882.238837,53.22895223888472,10.39876643403945,34.92013,-1,-1,-1,-1,22.9221019744873,40,-9999,34414.53260675,0.2174835205078125,0.244873046875,-1.102767944335938,34414.52386975,-2.605476663755997,0.4285667609731263,-0.1692642334675088,-2.592712163925171,1.959725379943848,-2.8245849609375,-0.2592228353023529,0.003539919853210449,-0.196087658405304,XArbitraryZVertical,0.1824422761587817,0.1357680187811307,-0.943621440275294,0.2405420652677939,0.4096287190914154,0.1684571504592896,-0.896563708782196,0,0,0,-1,-1,34409.33442916667,unknown,2,2022-06-02T10:51:18.591+02:00,2022-06-02T10:32:51.428+02:00,137,2.275337,0.6019731,2.005515,117.0835,0,0,2022-06-02T10:51:23.701+02:00,675852683.700839,0,16.00781,101.0004,1,0.88
2022-06-02T10:51:23.804+02:00,1654159882.238837,53.22895223888472,10.39876643403945,34.92013,-1,-1,-1,-1,22.9221019744873,40,-9999,34414.54257875,0.28302001953125,0.3102569580078125,-1.210952758789062,34414.53384275,-2.619667194761825,0.4461874767287163,-0.2055227760996245,-2.933059453964233,2.106764316558838,-2.798335075378418,-0.2208942770957947,0.01096315681934357,-0.2753488421440125,XArbitraryZVertical,0.1868181097957652,0.1534345067251918,-0.9430841283671623,0.2283620533863294,0.4224476218223572,0.2040789574384689,-0.88311368227005,0,0,0,-1,-1,34409.33442916667,unknown,2,2022-06-02T10:51:18.591+02:00,2022-06-02T10:32:51.428+02:00,137,2.275337,0.6019731,2.005515,117.0835,0,0,2022-06-02T10:51:23.701+02:00,675852683.700839,0,16.00781,101.0004,1,0.88
2022-06-02T10:51:23.814+02:00,1654159882.238837,53.22895223888472,10.39876643403945,34.92013,-1,-1,-1,-1,22.9221019744873,40,-9999,34414.55255175,0.3267059326171875,0.45166015625,-1.074600219726562,34414.54381475,-2.632660168810071,0.4653166851258578,-0.2415575979343172,-2.568994522094727,2.322043180465698,-2.662278413772583,-0.182123064994812,0.02508220076560974,-0.2598000764846802,XArbitraryZVertical,0.192002310231605,0.1710808271394217,-0.9418549917002945,0.2162770084868093,0.4356783628463745,0.2392152845859528,-0.8677329421043396,0,0,0,-1,-1,34409.33442916667,unknown,2,2022-06-02T10:51:18.591+02:00,2022-06-02T10:32:51.428+02:00,137,2.275337,0.6019731,2.005515,117.0835,0,0,2022-06-02T10:51:23.701+02:00,675852683.700839,0,16.00781,101.0004,1,0.88
2022-06-02T10:51:23.824+02:00,1654159882.238837,53.22895223888472,10.39876643403945,34.92013,-1,-1,-1,-1,22.9221019744873,40,-9999,34414.56252375,0.365325927734375,0.474273681640625,-0.998626708984375,34414.55378775,-2.64457213067706,0.4862383431185527,-0.2755229254077582,-2.4693443775177,2.505321741104126,-2.519367933273315,-0.1429308354854584,0.1184527575969696,-0.296831488609314,XArbitraryZVertical,0.1983418367082994,0.1878423622824585,-0.9399932843380907,0.2044221810953391,0.4496782720088959,0.2720501720905304,-0.850751519203186,0,0,0,-1,-1,34409.33442916667,unknown,2,2022-06-02T10:51:18.591+02:00,2022-06-02T10:32:51.428+02:00,137,2.275337,0.6019731,2.005515,117.0835,0,0,2022-06-02T10:51:23.701+02:00,675852683.700839,0,16.00781,101.0004,1,0.88
2022-06-02T10:51:23.833+02:00,1654159882.238837,53.22895223888472,10.39876643403945,34.92013,-1,-1,-1,-1,22.9221019744873,40,-9999,34414.57249675,0.3916015625,0.4951171875,-0.923187255859375,34414.56375975,-2.655323775789375,0.5089201231196399,-0.3082495591887647,-2.270722150802612,2.641805410385132,-2.447455644607544,-0.11887127161026,0.1712792217731476,-0.1945923566818237,XArbitraryZVertical,0.205655030967209,0.2040851815406508,-0.9375031856034038,0.1927252858658051,0.4642692506313324,0.30339115858078,-0.8321104645729065,0,0,0,-1,-1,34409.33442916667,unknown,2,2022-06-02T10:51:18.591+02:00,2022-06-02T10:32:51.428+02:00,137,2.275337,0.6019731,2.005515,117.0835,0,0,2022-06-02T10:51:23.701+02:00,675852683.700839,0,16.00781,101.0004,1,0.88
2022-06-02T10:51:23.844+02:00,1654159882.238837,53.22895223888472,10.39876643403945,34.92013,-1,-1,-1,-1,22.9221019744873,40,-9999,34414.58246875,0.39849853515625,0.5346832275390625,-0.8691558837890625,34414.57373275,-2.66616989622177,0.5319963520879847,-0.338818993475596,-2.064549922943115,2.656347036361694,-2.396032571792603,-0.09743484854698181,0.1450587809085846,-0.1662636995315552,XArbitraryZVertical,0.2135174476678391,0.2191111509743728,-0.9347119949018303,0.1808708901540014,0.4784162938594818,0.3323734700679779,-0.81280118227005,0,0,0,-1,-1,34409.33442916667,unknown,2,2022-06-02T10:51:18.591+02:00,2022-06-02T10:32:51.428+02:00,137,2.275337,0.6019731,2.005515,117.0835,0,0,2022-06-02T10:51:23.701+02:00,675852683.700839,0,16.00781,101.0004,1,0.88
2022-06-02T10:51:23.854+02:00,1654159882.238837,53.22895223888472,10.39876643403945,34.92013,-1,-1,-1,-1,22.9221019744873,40,-9999,34414.59244175,0.400238037109375,0.5427703857421875,-0.87823486328125,34414.58370475,-2.676531556648665,0.5549878346137791,-0.367886758443265,-1.961876153945923,2.678057909011841,-2.29956841468811,-0.09610676765441895,0.1564841270446777,-0.08568400144577026,XArbitraryZVertical,0.2215393324226968,0.2332397034688234,-0.9316197529549188,0.1691280639403738,0.4916755855083466,0.3596443831920624,-0.7930391430854797,0,0,0,-1,-1,34409.33442916667,unknown,2,2022-06-02T10:51:18.591+02:00,2022-06-02T10:32:51.428+02:00,137,2.275337,0.6019731,2.005515,117.0835,0,0,2022-06-02T10:51:23.701+02:00,675852683.700839,0,16.00781,101.0004,1,0.88
2022-06-02T10:51:23.864+02:00,1654159882.238837,53.22895223888472,10.39876643403945,34.92013,-1,-1,-1,-1,22.9221019744873,40,-9999,34414.60241375,0.40289306640625,0.56329345703125,-0.851531982421875,34414.59367775,-2.685916647163883,0.5784583971767956,-0.3956542687449327,-1.825603485107422,2.738697528839111,-2.177085638046265,-0.1060581207275391,0.1549017429351807,-0.1020594835281372,XArbitraryZVertical,0.2298748703013842,0.2466729004292931,-0.9281450148249303,0.157660668497011,0.5044956803321838,0.3854120075702667,-0.7726200222969055,0,0,0,-1,-1,34409.33442916667,unknown,2,2022-06-02T10:51:18.591+02:00,2022-06-02T10:32:51.428+02:00,137,2.275337,0.6019731,2.005515,117.0835,0,0,2022-06-02T10:51:23.701+02:00,675852683.700839,0,16.00781,101.0004,1,0.88
2022-06-02T10:51:23.874+02:00,1654159882.238837,53.22895223888472,10.39876643403945,34.92013,-1,-1,-1,-1,22.9221019744873,40,-9999,34414.61238675,0.4187774658203125,0.5988006591796875,-0.77264404296875,34414.60364975,-2.694554583544013,0.6028021496252475,-0.4213768030981911,-1.611370801925659,2.834976196289062,-2.038707494735718,-0.1171980500221252,0.1396278142929077,-0.1216427683830261,XArbitraryZVertical,0.2388052508919923,0.2590850271668221,-0.9243371143905218,0.1464511409471271,0.517359733581543,0.4090172052383423,-0.7516940236091614,0,0,0,-1,-1,34409.33442916667,unknown,2,2022-06-02T10:51:18.591+02:00,2022-06-02T10:32:51.428+02:00,137,2.275337,0.6019731,2.005515,117.0835,0,0,2022-06-02T10:51:23.701+02:00,675852683.700839,0,16.00781,101.0004,1,0.88
2022-06-02T10:51:23.884+02:00,1654159882.238837,53.22895223888472,10.39876643403945,34.92013,-1,-1,-1,-1,22.9221019744873,40,-9999,34414.62235875,0.456756591796875,0.65142822265625,-0.6966400146484375,34414.61362275,-2.703039121413612,0.6277813859849525,-0.4446394307820388,-1.354300141334534,2.875906705856323,-1.956550717353821,-0.1228456497192383,0.1516699492931366,-0.08674502372741699,XArbitraryZVertical,0.2483322194881107,0.2702077200827317,-0.92032503071663,0.1353538779710641,0.5302400588989258,0.4301323890686035,-0.730637788772583,0,0,0,-1,-1,34409.33442916667,unknown,2,2022-06-02T10:51:18.591+02:00,2022-06-02T10:32:51.428+02:00,137,2.275337,0.6019731,2.005515,117.0835,0,0,2022-06-02T10:51:23.701+02:00,675852683.700839,0,16.00781,101.0004,1,0.88
2022-06-02T10:51:23.893+02:00,1654159882.238837,53.22895223888472,10.39876643403945,34.92013,-1,-1,-1,-1,22.9221019744873,40,-9999,34414.63233175,0.501556396484375,0.67877197265625,-0.6489410400390625,34414.62359475,-2.711776926692276,0.6524914160242719,-0.4661047637116576,-1.226840615272522,2.862624168395996,-1.917723059654236,-0.1079809665679932,0.1721872985363007,-0.01613920927047729,XArbitraryZVertical,0.257998163092346,0.2802329277571212,-0.9162272756278086,0.1242336648589994,0.5423986315727234,0.4494099915027618,-0.7098128795623779,0,0,0,-1,-1,34409.33442916667,unknown,2,2022-06-02T10:51:18.591+02:00,2022-06-02T10:32:51.428+02:00,137,2.275337,0.6019731,2.005515,117.0835,0,0,2022-06-02T10:51:23.701+02:00,675852683.700839,0,16.00781,101.0004,1,0.88
2022-06-02T10:51:23.903+02:00,1654159882.238837,53.22895223888472,10.39876643403945,34.92013,-1,-1,-1,-1,22.9221019744873,40,-9999,34414.64230375,0.5427093505859375,0.65008544921875,-0.611968994140625,34414.63356775,-2.720110423251756,0.6770864249877262,-0.4866724840165017,-1.161143898963928,2.837745904922485,-1.818890452384949,-0.07430464029312134,0.2034552693367004,0.01657551527023315,XArbitraryZVertical,0.267657398703936,0.2896642389469457,-0.9119369470636903,0.1132487507156723,0.5537815690040588,0.4676873087882996,-0.6889082789421082,0,0,0,-1,-1,34409.33442916667,unknown,2,2022-06-02T10:51:18.591+02:00,2022-06-02T10:32:51.428+02:00,137,2.275337,0.6019731,2.005515,117.0835,0,0,2022-06-02T10:51:23.701+02:00,675852683.700839,0,16.00781,101.0004,1,0.88
2022-06-02T10:51:23.913+02:00,1654159882.238837,53.22895223888472,10.39876643403945,34.92013,-1,-1,-1,-1,22.9221019744873,40,-9999,34414.65227675,0.5790557861328125,0.627685546875,-0.5367279052734375,34414.64353975,-2.727546468437837,0.7018369243556768,-0.5058112442133665,-1.001627564430237,2.828256845474243,-1.681058526039124,-0.04294264316558838,0.1873577535152435,0.0305977463722229,XArbitraryZVertical,0.2774211127542963,0.2983633658831653,-0.9074520184596154,0.1027023779323335,0.5647779703140259,0.4845172464847565,-0.6680336594581604,0,0,0,-1,-1,34409.33442916667,unknown,2,2022-06-02T10:51:18.591+02:00,2022-06-02T10:32:51.428+02:00,137,2.275337,0.6019731,2.005515,117.0835,0,0,2022-06-02T10:51:23.701+02:00,675852683.700839,0,16.00781,101.0004,1,0.88
2022-06-02T10:51:23.924+02:00,1654159882.238837,53.22895223888472,10.39876643403945,34.92013,-1,-1,-1,-1,22.9221019744873,40,-9999,34414.66224875,0.6056976318359375,0.6268157958984375,-0.5260162353515625,34414.65351275,-2.734743005711863,0.7261681402968369,-0.5228273551688186,-0.8490105867385864,2.760133266448975,-1.563075661659241,-0.01283538341522217,0.1305968165397644,0.07604384422302246,XArbitraryZVertical,0.2872095525755923,0.3059288330491264,-0.9029698022182511,0.0925408184734728,0.5753049254417419,0.4993317723274231,-0.647836446762085,0,0,0,-1,-1,34409.33442916667,unknown,2,2022-06-02T10:51:18.591+02:00,2022-06-02T10:32:51.428+02:00,137,2.275337,0.6019731,2.005515,117.0835,0,0,2022-06-02T10:51:23.701+02:00,675852683.700839,0,16.00781,101.0004,1,0.88
2022-06-02T10:51:23.934+02:00,1654159882.238837,53.22895223888472,10.39876643403945,34.92013,-1,-1,-1,-1,22.9221019744873,40,-9999,34414.67222175,0.60711669921875,0.597900390625,-0.4954681396484375,34414.66348475,-2.741094422940086,0.750060914188118,-0.5390853159100555,-0.897722065448761,2.671002149581909,-1.503493547439575,0.008057355880737305,0.1170808672904968,0.1022340655326843,XArbitraryZVertical,0.2967320239829845,0.3130624031463005,-0.8983786350366531,0.08281193242533837,0.5850059986114502,0.5133512616157532,-0.6278840899467468,0,0,0,-1,-1,34409.33442916667,unknown,2,2022-06-02T10:51:18.591+02:00,2022-06-02T10:32:51.428+02:00,137,2.275337,0.6019731,2.005515,117.0835,0,0,2022-06-02T10:51:23.701+02:00,675852683.700839,0,16.00781,101.0004,1,0.88
2022-06-02T10:51:23.944+02:00,1654159882.238837,53.22895223888472,10.39876643403945,34.92013,-1,-1,-1,-1,22.9221019744873,40,-9999,34414.68219375,0.5906524658203125,0.623077392578125,-0.446258544921875,34414.67345775,-2.746118861960627,0.7735567403220001,-0.5553219931170945,-0.9016110897064209,2.562275886535645,-1.417072892189026,0.01624608039855957,0.08508777618408203,0.09007024765014648,XArbitraryZVertical,0.3058198413455923,0.3201760621565237,-0.8936140676660698,0.07359027356435971,0.5936934947967529,0.527216911315918,-0.6079230308532715,0,0,0,-1,-1,34409.33442916667,unknown,2,2022-06-02T10:51:18.591+02:00,2022-06-02T10:32:51.428+02:00,137,2.275337,0.6019731,2.005515,117.0835,0,0,2022-06-02T10:51:23.701+02:00,675852683.700839,0,16.00781,101.0004,1,0.88
2022-06-02T10:51:23.954+02:00,1654159882.238837,53.22895223888472,10.39876643403945,34.92013,-1,-1,-1,-1,22.9221019744873,40,-9999,34414.69216575,0.5701751708984375,0.69549560546875,-0.41314697265625,34414.68342975,-2.749929823119834,0.7965513528482115,-0.5709154310149417,-0.9218817353248596,2.461271286010742,-1.296713948249817,-0.001312732696533203,0.05850499868392944,0.1209303140640259,XArbitraryZVertical,0.3145172306717618,0.327006162755152,-0.8887771666704363,0.06497052127537994,0.6015629768371582,0.5404025316238403,-0.5882917642593384,0,0,0,-1,-1,34409.33442916667,unknown,2,2022-06-02T10:51:18.591+02:00,2022-06-02T10:32:51.428+02:00,137,2.275337,0.6019731,2.005515,117.0835,0,0,2022-06-02T10:51:23.701+02:00,675852683.700839,0,16.00781,101.0004,1,0.88
2022-06-02T10:51:23.964+02:00,1654159882.238837,53.22895223888472,10.39876643403945,34.92013,-1,-1,-1,-1,22.9221019744873,40,-9999,34414.70213875,0.5627899169921875,0.7485198974609375,-0.3782501220703125,34414.69340175,-2.751937634627632,0.8195811395250044,-0.5862006614262536,-0.9897691607475281,2.388892889022827,-1.196424126625061,-0.02862632274627686,0.1057050228118896,0.1368767619132996,XArbitraryZVertical,0.3229063354667323,0.3338297349568164,-0.883760804044051,0.05706187197488667,0.6088418364524841,0.5532000064849854,-0.5685784220695496,0,0,0,-1,-1,34409.33442916667,unknown,2,2022-06-02T10:51:18.591+02:00,2022-06-02T10:32:51.428+02:00,137,2.275337,0.6019731,2.005515,117.0835,0,0,2022-06-02T10:51:23.701+02:00,675852683.700839,0,16.00781,101.0004,1,0.88
2022-06-02T10:51:23.974+02:00,1654159882.238837,53.22895223888472,10.39876643403945,34.92013,-1,-1,-1,-1,22.9221019744873,40,-9999,34414.71211075,0.5751953125,0.7684173583984375,-0.3048553466796875,34414.70337475,-2.752418820153619,0.8429959481623465,-0.6011960131697996,-0.9891426563262939,2.362008333206177,-1.117416262626648,-0.05294883251190186,0.1621387004852295,0.1522404551506042,XArbitraryZVertical,0.3311656514916346,0.3406399643040845,-0.8785364061444405,0.04967308404509453,0.6157234311103821,0.5656291842460632,-0.548587441444397,0,0,0,-1,-1,34409.33442916667,unknown,2,2022-06-02T10:51:18.591+02:00,2022-06-02T10:32:51.428+02:00,137,2.275337,0.6019731,2.005515,117.0835,0,0,2022-06-02T10:51:23.701+02:00,675852683.700839,0,16.00781,101.0004,1,0.88
2022-06-02T10:51:23.984+02:00,1654159882.238837,53.22895223888472,10.39876643403945,34.92013,-1,-1,-1,-1,22.9221019744873,40,-9999,34414.72208375,0.601226806640625,0.780517578125,-0.255279541015625,34414.71334675,-2.752616139668895,0.8661842254282687,-0.6151643248510907,-0.840970516204834,2.30774974822998,-1.048325538635254,-0.05560773611068726,0.1826270222663879,0.1821770668029785,XArbitraryZVertical,0.3393326568050773,0.3469241114298023,-0.8733204666627028,0.04252335065895425,0.6221970319747925,0.577092707157135,-0.5289940237998962,0,0,0,-1,-1,34409.33442916667,unknown,2,2022-06-02T10:51:18.591+02:00,2022-06-02T10:32:51.428+02:00,137,2.275337,0.6019731,2.005515,117.0835,0,0,2022-06-02T10:51:23.701+02:00,675852683.700839,0,16.00781,101.0004,1,0.88
2022-06-02T10:51:23.993+02:00,1654159882.238837,53.22895223888472,10.39876643403945,34.92013,-1,-1,-1,-1,22.9221019744873,40,-9999,34414.73205575,0.6209259033203125,0.771759033203125,-0.2436065673828125,34414.72331975,-2.753256875101926,0.8882924993263948,-0.6279630808992358,-0.7530576586723328,2.190145015716553,-1.020028710365295,-0.04070621728897095,0.1894950866699219,0.2396270632743835,XArbitraryZVertical,0.3471901475033422,0.3524971773108233,-0.8682998797136967,0.03549764195681487,0.6279559731483459,0.5874976515769958,-0.5104094743728638,0,0,0,-1,-1,34409.33442916667,unknown,2,2022-06-02T10:51:18.591+02:00,2022-06-02T10:32:51.428+02:00,137,2.275337,0.6019731,2.005515,117.0835,0,0,2022-06-02T10:51:23.701+02:00,675852683.700839,0,16.00781,101.0004,1,0.88
2022-06-02T10:51:24.003+02:00,1654159882.238837,53.22895223888472,10.39876643403945,34.92013,-1,-1,-1,-1,22.9221019744873,40,-9999,34414.74202875,0.6264801025390625,0.7504119873046875,-0.2319488525390625,34414.73329175,-2.753734841994677,0.9092261637289574,-0.6403346093980276,-0.7596827745437622,2.066819190979004,-0.9839561581611633,-0.01835417747497559,0.1793153882026672,0.2406511306762695,XArbitraryZVertical,0.3544949625048129,0.3577825032401885,-0.8634231384221024,0.02873325306559624,0.6327188014984131,0.5974637866020203,-0.4926500022411346,0,0,0,-1,-1,34409.33442916667,unknown,2,2022-06-02T10:51:18.591+02:00,2022-06-02T10:32:51.428+02:00,137,2.275337,0.6019731,2.005515,117.0835,0,0,2022-06-02T10:51:23.701+02:00,675852683.700839,0,16.00781,101.0004,1,0.88
2022-06-02T10:51:24.013+02:00,1654159882.238837,53.22895223888472,10.39876643403945,34.92013,-1,-1,-1,-1,22.9221019744873,40,-9999,34414.75200075,0.6223297119140625,0.7366943359375,-0.1735687255859375,34414.74326475,-2.75303582640239,0.9298318678436166,-0.6524357031190812,-0.806597113609314,1.984456539154053,-0.8959433436393738,-0.01218318939208984,0.1558158397674561,0.2392342686653137,XArbitraryZVertical,0.3614111486445001,0.3630520380911462,-0.8585274646277194,0.02249053357959738,0.6368932723999023,0.6071236133575439,-0.4751504063606262,0,0,0,-1,-1,34409.33442916667,unknown,2,2022-06-02T10:51:18.591+02:00,2022-06-02T10:32:51.428+02:00,137,2.275337,0.6019731,2.005515,117.0835,0,0,2022-06-02T10:51:23.701+02:00,675852683.700839,0,16.00781,101.0004,1,0.88
2022-06-02T10:51:24.023+02:00,1654159882.238837,53.22895223888472,10.39876643403945,34.92013,-1,-1,-1,-1,22.9221019744873,40,-9999,34414.76197375,0.6208648681640625,0.7838134765625,-0.08087158203125,34414.75323675,-2.751468271446088,0.9503508964310305,-0.6635737488028962,-0.7192177176475525,1.940416574478149,-0.7844290733337402,-0.01442515850067139,0.1216126680374146,0.2450253367424011,XArbitraryZVertical,0.3681992842142753,0.3679917174147427,-0.8536571441261253,0.01675906653871095,0.6409662961959839,0.6159361600875854,-0.4580227732658386,0,0,0,-1,-1,34409.33442916667,unknown,2,2022-06-02T10:51:18.591+02:00,2022-06-02T10:32:51.428+02:00,137,2.275337,0.6019731,2.005515,117.0835,0,0,2022-06-02T10:51:23.701+02:00,675852683.700839,0,16.00781,101.0004,1,0.88
2022-06-02T10:51:24.033+02:00,1654159882.238837,53.22895223888472,10.39876643403945,34.92013,-1,-1,-1,-1,22.9221019744873,40,-9999,34414.77194575,0.6427764892578125,0.84454345703125,-0.01348876953125,34414.76320975,-2.750011624064321,0.9704346130497418,-0.6734382470055209,-0.6062960028648376,1.903550624847412,-0.7285997271537781,-0.02555972337722778,0.1290540099143982,0.3124385476112366,XArbitraryZVertical,0.374942586354542,0.372311660235133,-0.8489258338885832,0.01127197849867072,0.6449902653694153,0.6236773133277893,-0.4416041672229767,0,0,0,-1,-1,34409.33442916667,unknown,2,2022-06-02T10:51:18.591+02:00,2022-06-02T10:32:51.428+02:00,137,2.275337,0.6019731,2.005515,117.0835,0,0,2022-06-02T10:51:23.701+02:00,675852683.700839,0,16.00781,101.0004,1,0.88
2022-06-02T10:51:24.043+02:00,1654159882.238837,53.22895223888472,10.39876643403945,34.92013,-1,-1,-1,-1,22.9221019744873,40,-9999,34414.78191875,0.6786651611328125,0.847320556640625,0.0331878662109375,34414.77318175,-2.749265709031964,0.9895918665012867,-0.6822959276739057,-0.4778576195240021,1.832729697227478,-0.7001768350601196,-0.01988905668258667,0.1891255378723145,0.3865823149681091,XArbitraryZVertical,0.3815155935607883,0.3760145297135402,-0.8444081543350745,0.005822637725944019,0.6486885547637939,0.6305766105651855,-0.4261178374290466,0,0,0,-1,-1,34409.33442916667,unknown,2,2022-06-02T10:51:18.591+02:00,2022-06-02T10:32:51.428+02:00,137,2.275337,0.6019731,2.005515,117.0835,0,0,2022-06-02T10:51:23.701+02:00,675852683.700839,0,16.00781,101.0004,1,0.88
2022-06-02T10:51:24.054+02:00,1654159882.238837,53.22895223888472,10.39876643403945,34.92013,-1,-1,-1,-1,22.9221019744873,40,-9999,34414.79189075,0.7096405029296875,0.8330230712890625,0.0723114013671875,34414.78315475,-2.749724285290651,1.007023460753453,-0.6899599215864737,-0.2963809370994568,1.71800422668457,-0.6381511092185974,0.008044540882110596,0.2138049602508545,0.4212607741355896,XArbitraryZVertical,0.3877215579265381,0.3789411077246955,-0.8402829028698525,0.0004245271258341843,0.6519133448600769,0.6365062594413757,-0.4121512472629547,0,0,0,-1,-1,34409.33442916667,unknown,2,2022-06-02T10:51:18.591+02:00,2022-06-02T10:32:51.428+02:00,137,2.275337,0.6019731,2.005515,117.0835,0,0,2022-06-02T10:51:23.701+02:00,675852683.700839,0,16.00781,101.0004,1,0.88
2022-06-02T10:51:24.063+02:00,1654159882.238837,53.22895223888472,10.39876643403945,34.92013,-1,-1,-1,-1,22.9221019744873,40,-9999,34414.80186375,0.722564697265625,0.8055419921875,0.093994140625,34414.79312675,-2.75120669006705,1.022414178272385,-0.6961256681749446,-0.1856110244989395,1.55832302570343,-0.5511408448219299,0.04081529378890991,0.1995401382446289,0.4574958384037018,XArbitraryZVertical,0.3934640310688454,0.3810224314314333,-0.8366516590984218,-0.004680870574465645,0.6548176407814026,0.6412495970726013,-0.4000159204006195,0,0,0,-1,-1,34409.33442916667,unknown,2,2022-06-02T10:51:18.591+02:00,2022-06-02T10:32:51.428+02:00,137,2.275337,0.6019731,2.005515,117.0835,0,0,2022-06-02T10:51:23.701+02:00,675852683.700839,0,16.00781,101.0004,1,0.88
2022-06-02T10:51:24.087+02:00,1654159882.238837,53.22895223888472,10.39876643403945,34.92013,-1,-1,-1,-1,22.9221019744873,40,-9999,34414.81183575,0.721466064453125,0.7756805419921875,0.109710693359375,34414.80309975,-2.752705541539255,1.036169866002392,-0.7012625904629636,-0.1708860546350479,1.392473459243774,-0.463895857334137,0.06078571081161499,0.1749464869499207,0.4721426069736481,XArbitraryZVertical,0.3986621806983143,0.382654924736212,-0.8334015146095111,-0.009246510715963843,0.6574149131774902,0.6451828479766846,-0.3892873525619507,0,0,0,-1,-1,34409.33442916667,unknown,2,2022-06-02T10:51:18.591+02:00,2022-06-02T10:32:51.428+02:00,137,2.275337,0.6019731,2.005515,117.0835,0,0,2022-06-02T10:51:23.701+02:00,675852683.700839,0,16.00781,101.0004,1,0.88
2022-06-02T10:51:24.091+02:00,1654159882.238837,53.22895223888472,10.39876643403945,34.92013,-1,-1,-1,-1,22.9221019744873,40,-9999,34414.82180875,0.7095947265625,0.7408447265625,0.1198272705078125,34414.81307175,-2.753160670879138,1.048850346058758,-0.7058905200308088,-0.2498378604650497,1.218159198760986,-0.3857190310955048,0.06275492906570435,0.1413272023200989,0.4839499890804291,XArbitraryZVertical,0.4032704974395555,0.3842645984866533,-0.830387268952169,-0.01306188019819016,0.6597029566764832,0.6487118005752563,-0.3794272541999817,0,0,0,-1,-1,34409.33442916667,unknown,2,2022-06-02T10:51:18.591+02:00,2022-06-02T10:32:51.428+02:00,137,2.275337,0.6019731,2.005515,117.0835,0,0,2022-06-02T10:51:23.701+02:00,675852683.700839,0,16.00781,101.0004,1,0.88
2022-06-02T10:51:24.095+02:00,1654159882.238837,53.22895223888472,10.39876643403945,34.92013,-1,-1,-1,-1,22.9221019744873,40,-9999,34414.83178075,0.718048095703125,0.714111328125,0.149749755859375,34414.82304475,-2.751957160783483,1.061352814182627,-0.7104224190323729,-0.3519989550113678,1.132964968681335,-0.327103853225708,0.05489891767501831,0.1069248914718628,0.4822306931018829,XArbitraryZVertical,0.4074773081875787,0.3861425735578968,-0.8274027061519427,-0.01615211256786357,0.6618216037750244,0.6521540880203247,-0.3697123229503632,0,0,0,-1,-1,34409.33442916667,unknown,2,2022-06-02T10:51:18.591+02:00,2022-06-02T10:32:51.428+02:00,137,2.275337,0.6019731,2.005515,117.0835,0,0,2022-06-02T10:51:23.701+02:00,675852683.700839,0,16.00781,101.0004,1,0.88
2022-06-02T10:51:24.103+02:00,1654159882.238837,53.22895223888472,10.39876643403945,34.92013,-1,-1,-1,-1,22.9221019744873,40,-9999,34414.84175375,0.747039794921875,0.7441864013671875,0.2017059326171875,34414.83301675,-2.749471786363995,1.073962854213147,-0.7149897828609684,-0.4169774353504181,1.055139183998108,-0.3076595664024353,0.04470580816268921,0.06782472133636475,0.4925129413604736,XArbitraryZVertical,0.4114479352633896,0.3882699662930827,-0.8243814699047449,-0.01876856022535596,0.6638055443763733,0.6556097269058228,-0.3599140644073486,0,0,0,-1,-1,34409.33442916667,unknown,2,2022-06-02T10:51:18.591+02:00,2022-06-02T10:32:51.428+02:00,137,2.275337,0.6019731,2.005515,117.0835,0,0,2022-06-02T10:51:23.701+02:00,675852683.700839,0,16.00781,101.0004,1,0.88
2022-06-02T10:51:24.114+02:00,1654159882.238837,53.22895223888472,10.39876643403945,34.92013,-1,-1,-1,-1,22.9221019744873,40,-9999,34414.85172575,0.779510498046875,0.7878875732421875,0.2446136474609375,34414.84298975,-2.746181287684305,1.086179724611823,-0.7196417069653235,-0.4760074615478516,0.95823073387146,-0.2879801392555237,0.06723421812057495,0.0625186562538147,0.5209463834762573,XArbitraryZVertical,0.4150568056478421,0.3905781450789356,-0.8214221395512455,-0.02102867785112759,0.6654469966888428,0.6591152548789978,-0.3503531217575073,0,0,0,-1,-1,34409.33442916667,unknown,2,2022-06-02T10:51:18.591+02:00,2022-06-02T10:32:51.428+02:00,137,2.275337,0.6019731,2.005515,117.0835,0,0,2022-06-02T10:51:23.701+02:00,675852683.700839,0,16.00781,101.0004,1,0.88
2022-06-02T10:51:24.123+02:00,1654159882.238837,53.22895223888472,10.39876643403945,34.92013,-1,-1,-1,-1,22.9221019744873,40,-9999,34414.86169775,0.788604736328125,0.79901123046875,0.2794647216796875,34414.85296175,-2.741447707952179,1.098194135318819,-0.7244436396094793,-0.5937227010726929,0.8191705942153931,-0.2466590702533722,0.09763717651367188,0.1079414486885071,0.569602370262146,XArbitraryZVertical,0.4182438743643664,0.3932274969992292,-0.8184910245370425,-0.0227290248548289,0.6667823791503906,0.6627188920974731,-0.3408883810043335,0,0,0,-1,-1,34409.33442916667,unknown,2,2022-06-02T10:51:18.591+02:00,2022-06-02T10:32:51.428+02:00,137,2.275337,0.6019731,2.005515,117.0835,0,0,2022-06-02T10:51:23.701+02:00,675852683.700839,0,16.00781,101.0004,1,0.88
