loggingTime(txt),locationTimestamp_since1970(s),locationLatitude(WGS84),locationLongitude(WGS84),locationAltitude(m),locationSpeed(m/s),locationSpeedAccuracy(m/s),locationCourse(°),locationCourseAccuracy(°),locationVerticalAccuracy(m),locationHorizontalAccuracy(m),locationFloor(Z),accelerometerTimestamp_sinceReboot(s),accelerometerAccelerationX(G),accelerometerAccelerationY(G),accelerometerAccelerationZ(G),motionTimestamp_sinceReboot(s),motionYaw(rad),motionRoll(rad),motionPitch(rad),motionRotationRateX(rad/s),motionRotationRateY(rad/s),motionRotationRateZ(rad/s),motionUserAccelerationX(G),motionUserAccelerationY(G),motionUserAccelerationZ(G),motionAttitudeReferenceFrame(txt),motionQuaternionX(R),motionQuaternionY(R),motionQuaternionZ(R),motionQuaternionW(R),motionGravityX(G),motionGravityY(G),motionGravityZ(G),motionMagneticFieldX(µT),motionMagneticFieldY(µT),motionMagneticFieldZ(µT),motionHeading(°),motionMagneticFieldCalibrationAccuracy(Z),activityTimestamp_sinceReboot(s),activity(txt),activityActivityConfidence(Z),activityActivityStartDate(txt),pedometerStartDate(txt),pedometerNumberofSteps(N),pedometerAverageActivePace(s/m),pedometerCurrentPace(s/m),pedometerCurrentCadence(steps/s),pedometerDistance(m),pedometerFloorAscended(N),pedometerFloorDescended(N),pedometerEndDate(txt),altimeterTimestamp_sinceReboot(s),altimeterReset(bool),altimeterRelativeAltitude(m),altimeterPressure(kPa),batteryState(N),batteryLevel(R)
2022-06-02T10:38:38.263+02:00,1654159115.433108,53.22877648649256,10.39870019039867,40.2193,-1,-1,-1,-1,19.11995315551758,40,-9999,33697.74121416667,-0.296112060546875,-0.292572021484375,-0.9315032958984375,33697.73247716667,-2.479022708883109,-0.281273597022512,0.3133400373094401,-0.1766644865274429,0.112018957734108,-0.2111543118953705,-0.03059858083724976,0.02175399661064148,-0.01641809940338135,XArbitraryZVertical,-0.08067931338803269,-0.1911233071073029,-0.9319354333802315,0.2974207604751,-0.2640638947486877,-0.308237761259079,-0.9139254689216614,0,0,0,-1,-1,33697.32904116667,unknown,2,2022-06-02T10:38:37.800+02:00,2022-06-02T10:32:51.428+02:00,41,0.9590018,0,0,41.84445,0,0,2022-06-02T10:38:37.800+02:00,675851917.800199,0,4.808594,101.1334,1,0.92
2022-06-02T10:38:38.268+02:00,1654159115.433108,53.22877648649256,10.39870019039867,40.2193,-1,-1,-1,-1,19.11995315551758,40,-9999,33697.75118616667,-0.2967529296875,-0.2779998779296875,-0.9289703369140625,33697.74245016667,-2.481443149379761,-0.2795120741146489,0.312561210060105,-0.1044006794691086,0.1355698257684708,-0.2003932744264603,-0.0225449800491333,0.01306313276290894,-0.01680731773376465,XArbitraryZVertical,-0.08022084283521583,-0.1904068821860531,-0.9324051035841989,0.2965310273396579,-0.2625197470188141,-0.3074967563152313,-0.9146196842193604,0,0,0,-1,-1,33697.32904116667,unknown,2,2022-06-02T10:38:37.800+02:00,2022-06-02T10:32:51.428+02:00,41,0.9590018,0,0,41.84445,0,0,2022-06-02T10:38:37.800+02:00,675851917.800199,0,4.808594,101.1334,1,0.92
2022-06-02T10:38:38.281+02:00,1654159115.433108,53.22877648649256,10.39870019039867,40.2193,-1,-1,-1,-1,19.11995315551758,40,-9999,33697.76115916667,-0.2850799560546875,-0.288177490234375,-0.9141845703125,33697.75242216667,-2.48350411788587,-0.2773997818122014,0.3125432053609421,-0.02878900803625584,0.1922309845685959,-0.1837924718856812,-0.03941434621810913,0.02067539095878601,-0.01534926891326904,XArbitraryZVertical,-0.07943491197322447,-0.1900035672384977,-0.9327955305016765,0.2957725281086324,-0.2605887353420258,-0.3074796199798584,-0.9151774644851685,0,0,0,-1,-1,33697.32904116667,unknown,2,2022-06-02T10:38:37.800+02:00,2022-06-02T10:32:51.428+02:00,41,0.9590018,0,0,41.84445,0,0,2022-06-02T10:38:37.800+02:00,675851917.800199,0,4.808594,101.1334,1,0.92
2022-06-02T10:38:38.284+02:00,1654159115.433108,53.22877648649256,10.39870019039867,40.2193,-1,-1,-1,-1,19.11995315551758,40,-9999,33697.77113216667,-0.2760467529296875,-0.30047607421875,-0.9045562744140625,33697.76239516667,-2.485241426980617,-0.274982068935347,0.3131467356045358,0.01313314214348793,0.2304334938526154,-0.1672196239233017,-0.03320953249931335,0.02872645854949951,-0.009239673614501953,XArbitraryZVertical,-0.07837068205165229,-0.1898552255522985,-0.9331167106868394,0.2951378169945773,-0.2583248913288116,-0.3080538511276245,-0.915626049041748,0,0,0,-1,-1,33697.32904116667,unknown,2,2022-06-02T10:38:37.800+02:00,2022-06-02T10:32:51.428+02:00,41,0.9590018,0,0,41.84445,0,0,2022-06-02T10:38:37.800+02:00,675851917.800199,0,4.808594,101.1334,1,0.92
2022-06-02T10:38:38.287+02:00,1654159115.433108,53.22877648649256,10.39870019039867,40.2193,-1,-1,-1,-1,19.11995315551758,40,-9999,33697.78110516667,-0.2645111083984375,-0.3173675537109375,-0.893035888671875,33697.77236816667,-2.486560881042357,-0.2725997980057679,0.3139028742961564,0.0325995646417141,0.2409831583499908,-0.1373656094074249,-0.02529197931289673,0.01614007353782654,0.006346285343170166,XArbitraryZVertical,-0.07725756624379618,-0.1898002648594224,-0.9333649523880245,0.2946810955320641,-0.2560801208019257,-0.3087731301784515,-0.9160142540931702,0,0,0,-1,-1,33697.32904116667,unknown,2,2022-06-02T10:38:37.800+02:00,2022-06-02T10:32:51.428+02:00,41,0.9590018,0,0,41.84445,0,0,2022-06-02T10:38:37.800+02:00,675851917.800199,0,4.808594,101.1334,1,0.92
2022-06-02T10:38:38.291+02:00,1654159115.433108,53.22877648649256,10.39870019039867,40.2193,-1,-1,-1,-1,19.11995315551758,40,-9999,33697.79107716667,-0.2425689697265625,-0.328704833984375,-0.8897857666015625,33697.78234116667,-2.487366471339298,-0.2710423586870586,0.313882663061433,0.01912583038210869,0.2237634211778641,-0.1152288690209389,-0.01920992136001587,0.003532350063323975,0.01450151205062866,XArbitraryZVertical,-0.07661043176249893,-0.1895305853711342,-0.9335446132795043,0.2944546510989519,-0.2546548247337341,-0.3087539076805115,-0.9164180159568787,0,0,0,-1,-1,33697.32904116667,unknown,2,2022-06-02T10:38:37.800+02:00,2022-06-02T10:32:51.428+02:00,41,0.9590018,0,0,41.84445,0,0,2022-06-02T10:38:37.800+02:00,675851917.800199,0,4.808594,101.1334,1,0.92
2022-06-02T10:38:38.293+02:00,1654159115.433108,53.22877648649256,10.39870019039867,40.2193,-1,-1,-1,-1,19.11995315551758,40,-9999,33697.80105016667,-0.2419281005859375,-0.31561279296875,-0.8957977294921875,33697.79231316667,-2.488550794310684,-0.2686672344073567,0.3145329128743313,-0.0213882178068161,0.1631748229265213,-0.1136408746242523,-0.003664106130599976,-0.01429712772369385,0.02649140357971191,XArbitraryZVertical,-0.07550521855024225,-0.1894352510818411,-0.933775338193983,0.2940697308254751,-0.2524241805076599,-0.3093723356723785,-0.9168264865875244,0,0,0,-1,-1,33697.32904116667,unknown,2,2022-06-02T10:38:37.800+02:00,2022-06-02T10:32:51.428+02:00,41,0.9590018,0,0,41.84445,0,0,2022-06-02T10:38:37.800+02:00,675851917.800199,0,4.808594,101.1334,1,0.92
2022-06-02T10:38:38.295+02:00,1654159115.433108,53.22877648649256,10.39870019039867,40.2193,-1,-1,-1,-1,19.11995315551758,40,-9999,33697.81102316667,-0.246185302734375,-0.3148345947265625,-0.898345947265625,33697.80228616667,-2.489795308269274,-0.2669862047880031,0.3143845883972504,-0.07257204502820969,0.1166898757219315,-0.1091499850153923,0.01194202899932861,-0.01538419723510742,0.02465462684631348,XArbitraryZVertical,-0.07486277516854205,-0.189073216928713,-0.9340290794941947,0.2936605272673347,-0.250894695520401,-0.3092312812805176,-0.9172937870025635,0,0,0,-1,-1,33697.32904116667,unknown,2,2022-06-02T10:38:37.800+02:00,2022-06-02T10:32:51.428+02:00,41,0.9590018,0,0,41.84445,0,0,2022-06-02T10:38:37.800+02:00,675851917.800199,0,4.808594,101.1334,1,0.92
2022-06-02T10:38:38.297+02:00,1654159115.433108,53.22877648649256,10.39870019039867,40.2193,-1,-1,-1,-1,19.11995315551758,40,-9999,33697.82099516667,-0.2439422607421875,-0.311737060546875,-0.899932861328125,33697.81225916667,-2.491003397341261,-0.265884517820013,0.3135852610224696,-0.1113365665078163,0.08088642358779907,-0.1010952144861221,0.005518302321434021,-0.003952652215957642,0.02072840929031372,XArbitraryZVertical,-0.07459523604609972,-0.1884983742646617,-0.9342894715444769,0.2932698007531716,-0.2499488443136215,-0.3084710240364075,-0.9178078174591064,0,0,0,-1,-1,33697.32904116667,unknown,2,2022-06-02T10:38:37.800+02:00,2022-06-02T10:32:51.428+02:00,41,0.9590018,0,0,41.84445,0,0,2022-06-02T10:38:37.800+02:00,675851917.800199,0,4.808594,101.1334,1,0.92
2022-06-02T10:38:38.307+02:00,1654159115.433108,53.22877648649256,10.39870019039867,40.2193,-1,-1,-1,-1,19.11995315551758,40,-9999,33697.83096816667,-0.2393951416015625,-0.3040313720703125,-0.90240478515625,33697.82223116667,-2.492209403792066,-0.2651120246510614,0.3124924095796667,-0.1319443881511688,0.03191941976547241,-0.08555859327316284,0.004363328218460083,-0.006228387355804443,0.01987266540527344,XArbitraryZVertical,-0.07452929552850467,-0.1878368237383977,-0.9345521878795562,0.2928736753630832,-0.2493279576301575,-0.3074312806129456,-0.9183254241943359,0,0,0,-1,-1,33697.32904116667,unknown,2,2022-06-02T10:38:37.800+02:00,2022-06-02T10:32:51.428+02:00,41,0.9590018,0,0,41.84445,0,0,2022-06-02T10:38:37.800+02:00,675851917.800199,0,4.808594,101.1334,1,0.92
2022-06-02T10:38:38.327+02:00,1654159115.433108,53.22877648649256,10.39870019039867,40.2193,-1,-1,-1,-1,19.11995315551758,40,-9999,33697.84094116667,-0.248077392578125,-0.2903900146484375,-0.9027557373046875,33697.83220416667,-2.493277320326492,-0.2648604855303379,0.311373591327898,-0.1150113791227341,0.009948784485459328,-0.07207691669464111,0.007884323596954346,-0.005675792694091797,0.01724553108215332,XArbitraryZVertical,-0.07469737172951671,-0.1872446299292246,-0.9347762308916385,0.2924948525517,-0.2491868287324905,-0.3063664734363556,-0.9187195301055908,0,0,0,-1,-1,33697.32904116667,unknown,2,2022-06-02T10:38:37.800+02:00,2022-06-02T10:32:51.428+02:00,41,0.9590018,0,0,41.84445,0,0,2022-06-02T10:38:37.800+02:00,675851917.800199,0,4.808594,101.1334,1,0.92
2022-06-02T10:38:38.329+02:00,1654159115.433108,53.22877648649256,10.39870019039867,40.2193,-1,-1,-1,-1,19.11995315551758,40,-9999,33697.85091316667,-0.2421722412109375,-0.286285400390625,-0.89678955078125,33697.84217716667,-2.494238401896534,-0.2647213352636694,0.3103868810307382,-0.08637973666191101,-0.008349263109266758,-0.07734651863574982,0.004936292767524719,0.01048988103866577,0.01548105478286743,XArbitraryZVertical,-0.0748855233618391,-0.1867335487631592,-0.9349731756806953,0.2921436802795617,-0.2491379678249359,-0.3054270446300507,-0.9190455079078674,0,0,0,-1,-1,33697.32904116667,unknown,2,2022-06-02T10:38:37.800+02:00,2022-06-02T10:32:51.428+02:00,41,0.9590018,0,0,41.84445,0,0,2022-06-02T10:38:37.800+02:00,675851917.800199,0,4.808594,101.1334,1,0.92
2022-06-02T10:38:38.338+02:00,1654159115.433108,53.22877648649256,10.39870019039867,40.2193,-1,-1,-1,-1,19.11995315551758,40,-9999,33697.86088616667,-0.2524261474609375,-0.277435302734375,-0.89715576171875,33697.85214916667,-2.495125847014383,-0.2646995510891983,0.3097630890032517,-0.06465699523687363,-0.008885623887181282,-0.06725893169641495,0.002555176615715027,0.01357322931289673,0.01846253871917725,XArbitraryZVertical,-0.07506123586504128,-0.1864094990605354,-0.9351358987748521,0.2917845595944835,-0.2491677403450012,-0.3048329949378967,-0.9192346334457397,0,0,0,-1,-1,33697.32904116667,unknown,2,2022-06-02T10:38:37.800+02:00,2022-06-02T10:32:51.428+02:00,41,0.9590018,0,0,41.84445,0,0,2022-06-02T10:38:37.800+02:00,675851917.800199,0,4.808594,101.1334,1,0.92
2022-06-02T10:38:38.347+02:00,1654159115.433108,53.22877648649256,10.39870019039867,40.2193,-1,-1,-1,-1,19.11995315551758,40,-9999,33697.87085816667,-0.2610015869140625,-0.2803955078125,-0.904327392578125,33697.86212216667,-2.495667482747541,-0.2653261296753679,0.3094633593057889,-0.0490303635597229,-0.005842695478349924,-0.06108545511960983,0.005611732602119446,0.0226108729839325,0.02217859029769897,XArbitraryZVertical,-0.07545417181090425,-0.1863422653641074,-0.9352068690878979,0.2914988031148567,-0.2497676163911819,-0.304547518491745,-0.9191664457321167,0,0,0,-1,-1,33697.32904116667,unknown,2,2022-06-02T10:38:37.800+02:00,2022-06-02T10:32:51.428+02:00,41,0.9590018,0,0,41.84445,0,0,2022-06-02T10:38:37.800+02:00,675851917.800199,0,4.808594,101.1334,1,0.92
2022-06-02T10:38:38.357+02:00,1654159115.433108,53.22877648649256,10.39870019039867,40.2193,-1,-1,-1,-1,19.11995315551758,40,-9999,33697.88083116667,-0.2636260986328125,-0.2869720458984375,-0.9129486083984375,33697.87209416667,-2.496203671615365,-0.2655150563971779,0.309992890988785,-0.02541789039969444,0.009834446012973785,-0.04778327792882919,-0.006265655159950256,0.02706724405288696,0.01895433664321899,XArbitraryZVertical,-0.07550513959438544,-0.1865937521898333,-0.9352503615467433,0.2911846951500338,-0.2498989105224609,-0.305051863193512,-0.9189634919166565,0,0,0,-1,-1,33697.32904116667,unknown,2,2022-06-02T10:38:37.800+02:00,2022-06-02T10:32:51.428+02:00,41,0.9590018,0,0,41.84445,0,0,2022-06-02T10:38:37.800+02:00,675851917.800199,0,4.808594,101.1334,1,0.92
2022-06-02T10:38:38.367+02:00,1654159115.433108,53.22877648649256,10.39870019039867,40.2193,-1,-1,-1,-1,19.11995315551758,40,-9999,33697.89080416667,-0.2657623291015625,-0.28021240234375,-0.91900634765625,33697.88206716667,-2.496791393658719,-0.2650682895366414,0.3106894019750441,-0.01639723032712936,0.02232387289404869,-0.04964376240968704,-0.01338480412960052,0.02260351181030273,0.01237565279006958,XArbitraryZVertical,-0.07523622140104569,-0.1868277952615197,-0.9353165497067861,0.2908914904916846,-0.2494325935840607,-0.3057151138782501,-0.9188697934150696,0,0,0,-1,-1,33697.32904116667,unknown,2,2022-06-02T10:38:37.800+02:00,2022-06-02T10:32:51.428+02:00,41,0.9590018,0,0,41.84445,0,0,2022-06-02T10:38:37.800+02:00,675851917.800199,0,4.808594,101.1334,1,0.92
2022-06-02T10:38:38.377+02:00,1654159115.433108,53.22877648649256,10.39870019039867,40.2193,-1,-1,-1,-1,19.11995315551758,40,-9999,33697.90077716667,-0.2695465087890625,-0.2730712890625,-0.922210693359375,33697.89204016667,-2.497261112437872,-0.2647437310823192,0.3110489913187516,-0.003022037213668227,0.02236035838723183,-0.04253192245960236,-0.01435267925262451,0.02090120315551758,0.003561317920684814,XArbitraryZVertical,-0.07506906050525256,-0.1869287922833537,-0.9353783372821876,0.2906711997701866,-0.2491055727005005,-0.3060574531555176,-0.9188445210456848,0,0,0,-1,-1,33697.32904116667,unknown,2,2022-06-02T10:38:37.800+02:00,2022-06-02T10:32:51.428+02:00,41,0.9590018,0,0,41.84445,0,0,2022-06-02T10:38:37.800+02:00,675851917.800199,0,4.808594,101.1334,1,0.92
2022-06-02T10:38:38.387+02:00,1654159115.433108,53.22877648649256,10.39870019039867,40.2193,-1,-1,-1,-1,19.11995315551758,40,-9999,33697.91074916667,-0.2728424072265625,-0.2736968994140625,-0.9243927001953125,33697.90201316667,-2.497643569774069,-0.2644039358707846,0.3115525940901606,0.02036025002598763,0.0346367284655571,-0.03444337099790573,-0.01858097314834595,0.03004759550094604,-0.000729680061340332,XArbitraryZVertical,-0.07486296346384336,-0.1870973625283973,-0.93542032909381,0.2904807344165339,-0.2487530410289764,-0.306536853313446,-0.9187802076339722,0,0,0,-1,-1,33697.32904116667,unknown,2,2022-06-02T10:38:37.800+02:00,2022-06-02T10:32:51.428+02:00,41,0.9590018,0,0,41.84445,0,0,2022-06-02T10:38:37.800+02:00,675851917.800199,0,4.808594,101.1334,1,0.92
2022-06-02T10:38:38.396+02:00,1654159115.433108,53.22877648649256,10.39870019039867,40.2193,-1,-1,-1,-1,19.11995315551758,40,-9999,33697.92072216667,-0.27203369140625,-0.276947021484375,-0.9269866943359375,33697.91198516667,-2.49785696409876,-0.2639687348765556,0.3121595860655228,0.03896868973970413,0.03825756534934044,-0.01941095851361752,-0.02264577150344849,0.03660675883293152,-0.004051387310028076,XArbitraryZVertical,-0.07457948199460855,-0.1873061747028887,-0.9354356871941878,0.2903693452622431,-0.2483045607805252,-0.3071145713329315,-0.9187086224555969,0,0,0,-1,-1,33697.32904116667,unknown,2,2022-06-02T10:38:37.800+02:00,2022-06-02T10:32:51.428+02:00,41,0.9590018,0,0,41.84445,0,0,2022-06-02T10:38:37.800+02:00,675851917.800199,0,4.808594,101.1334,1,0.92
2022-06-02T10:38:38.407+02:00,1654159115.433108,53.22877648649256,10.39870019039867,40.2193,-1,-1,-1,-1,19.11995315551758,40,-9999,33697.93069516667,-0.266387939453125,-0.2930755615234375,-0.9307403564453125,33697.92195816667,-2.497878278354915,-0.2635993991869767,0.3124942254824095,0.05488267540931702,0.03118207864463329,-0.007202761247754097,-0.02650617063045502,0.03149306774139404,-0.006271541118621826,XArbitraryZVertical,-0.07435366006605987,-0.187406113786754,-0.9354349222155054,0.2903651762258998,-0.2479384392499924,-0.307433009147644,-0.9187009930610657,0,0,0,-1,-1,33697.32904116667,unknown,2,2022-06-02T10:38:37.800+02:00,2022-06-02T10:32:51.428+02:00,41,0.9590018,0,0,41.84445,0,0,2022-06-02T10:38:37.800+02:00,675851917.800199,0,4.808594,101.1334,1,0.92
2022-06-02T10:38:38.417+02:00,1654159115.433108,53.22877648649256,10.39870019039867,40.2193,-1,-1,-1,-1,19.11995315551758,40,-9999,33697.94066716667,-0.2665557861328125,-0.289520263671875,-0.93707275390625,33697.93193116667,-2.497761443603402,-0.2634492201769463,0.3127669231759166,0.04328638315200806,0.01558669656515121,-0.001456947065889835,-0.02153903245925903,0.02633565664291382,-0.01070982217788696,XArbitraryZVertical,-0.07422757553589818,-0.1875144218311617,-0.9354092065171729,0.2904104949945779,-0.2477786242961884,-0.3076924979686737,-0.9186572432518005,0,0,0,-1,-1,33697.32904116667,unknown,2,2022-06-02T10:38:37.800+02:00,2022-06-02T10:32:51.428+02:00,41,0.9590018,0,0,41.84445,0,0,2022-06-02T10:38:37.800+02:00,675851917.800199,0,4.808594,101.1334,1,0.92
2022-06-02T10:38:38.427+02:00,1654159115.433108,53.22877648649256,10.39870019039867,40.2193,-1,-1,-1,-1,19.11995315551758,40,-9999,33697.95064016667,-0.277099609375,-0.2817840576171875,-0.940155029296875,33697.94190316667,-2.497698019752839,-0.2635345922849084,0.3126607011043182,0.01404194533824921,-0.01382951624691486,-0.009774265810847282,-0.01742376387119293,0.01266953349113464,-0.01439207792282104,XArbitraryZVertical,-0.07427903756749607,-0.1874801756760738,-0.9354024529321441,0.2904413222765466,-0.2478655725717545,-0.307591438293457,-0.9186676144599915,0,0,0,-1,-1,33697.32904116667,unknown,2,2022-06-02T10:38:37.800+02:00,2022-06-02T10:32:51.428+02:00,41,0.9590018,0,0,41.84445,0,0,2022-06-02T10:38:37.800+02:00,675851917.800199,0,4.808594,101.1334,1,0.92
2022-06-02T10:38:38.436+02:00,1654159115.433108,53.22877648649256,10.39870019039867,40.2193,-1,-1,-1,-1,19.11995315551758,40,-9999,33697.96061316667,-0.271331787109375,-0.2799072265625,-0.9397430419921875,33697.95187616667,-2.497779890618848,-0.2640103267651366,0.3120793930375176,-0.01459933072328568,-0.01990747079253197,-0.02979535609483719,-0.02182294428348541,0.02037137746810913,-0.01859486103057861,XArbitraryZVertical,-0.07460490347889757,-0.1872780893792038,-0.9354272142867177,0.2904084689866315,-0.248349204659462,-0.3070382475852966,-0.9187220335006714,0,0,0,-1,-1,33697.32904116667,unknown,2,2022-06-02T10:38:37.800+02:00,2022-06-02T10:32:51.428+02:00,41,0.9590018,0,0,41.84445,0,0,2022-06-02T10:38:37.800+02:00,675851917.800199,0,4.808594,101.1334,1,0.92
2022-06-02T10:38:38.446+02:00,1654159115.433108,53.22877648649256,10.39870019039867,40.2193,-1,-1,-1,-1,19.11995315551758,40,-9999,33697.97058516667,-0.2714691162109375,-0.27423095703125,-0.9356231689453125,33697.96184916667,-2.49809355261391,-0.2645366459012246,0.3114783307315928,-0.01970860548317432,-0.02009309269487858,-0.04860126599669456,-0.02786776423454285,0.02639108896255493,-0.02282017469406128,XArbitraryZVertical,-0.07497934956747507,-0.1870655187549961,-0.9354845780478313,0.2902642490494262,-0.2488809078931808,-0.3064661622047424,-0.9187691807746887,0,0,0,-1,-1,33697.32904116667,unknown,2,2022-06-02T10:38:37.800+02:00,2022-06-02T10:32:51.428+02:00,41,0.9590018,0,0,41.84445,0,0,2022-06-02T10:38:37.800+02:00,675851917.800199,0,4.808594,101.1334,1,0.92
2022-06-02T10:38:38.456+02:00,1654159115.433108,53.22877648649256,10.39870019039867,40.2193,-1,-1,-1,-1,19.11995315551758,40,-9999,33697.98055816667,-0.26556396484375,-0.268951416015625,-0.9333648681640625,33697.97182116667,-2.498501981944452,-0.2648761447601261,0.310995033249242,0.001011986052617431,0.004006383940577507,-0.04866578429937363,-0.02118471264839172,0.02791464328765869,-0.01986271142959595,XArbitraryZVertical,-0.0752558371639109,-0.186876495319792,-0.9355563346702509,0.2900830739823968,-0.2492315620183945,-0.3060060739517212,-0.9188274741172791,0,0,0,-1,-1,33697.32904116667,unknown,2,2022-06-02T10:38:37.800+02:00,2022-06-02T10:32:51.428+02:00,41,0.9590018,0,0,41.84445,0,0,2022-06-02T10:38:37.800+02:00,675851917.800199,0,4.808594,101.1334,1,0.92
2022-06-02T10:38:38.466+02:00,1654159115.433108,53.22877648649256,10.39870019039867,40.2193,-1,-1,-1,-1,19.11995315551758,40,-9999,33697.99053116667,-0.2608489990234375,-0.267120361328125,-0.935516357421875,33697.98179416667,-2.498821175327371,-0.2651122174198099,0.3105364239859605,0.03165005519986153,0.01110983360558748,-0.05027540028095245,-0.02282315492630005,0.03764033317565918,-0.01632249355316162,XArbitraryZVertical,-0.07547147413182968,-0.1866871250536592,-0.9356176604001536,0.2899512414755065,-0.2494852095842361,-0.3055694401264191,-0.9189039468765259,0,0,0,-1,-1,33697.32904116667,unknown,2,2022-06-02T10:38:37.800+02:00,2022-06-02T10:32:51.428+02:00,41,0.9590018,0,0,41.84445,0,0,2022-06-02T10:38:37.800+02:00,675851917.800199,0,4.808594,101.1334,1,0.92
2022-06-02T10:38:38.476+02:00,1654159115.433108,53.22877648649256,10.39870019039867,40.2193,-1,-1,-1,-1,19.11995315551758,40,-9999,33698.00050316667,-0.2592010498046875,-0.2778472900390625,-0.936492919921875,33697.99176716667,-2.498917553294647,-0.2653672991450349,0.3102151460556044,0.0641988143324852,0.02872238308191299,-0.02467409707605839,-0.01276688277721405,0.03585430979728699,-0.01435357332229614,XArbitraryZVertical,-0.07565259993966605,-0.186572235415768,-0.935638729331813,0.289910051922868,-0.2497453391551971,-0.3052635192871094,-0.9189349412918091,0,0,0,-1,-1,33697.32904116667,unknown,2,2022-06-02T10:38:37.800+02:00,2022-06-02T10:32:51.428+02:00,41,0.9590018,0,0,41.84445,0,0,2022-06-02T10:38:37.800+02:00,675851917.800199,0,4.808594,101.1334,1,0.92
2022-06-02T10:38:38.486+02:00,1654159115.433108,53.22877648649256,10.39870019039867,40.2193,-1,-1,-1,-1,19.11995315551758,40,-9999,33698.01047616667,-0.252960205078125,-0.29095458984375,-0.9335174560546875,33698.00173916667,-2.498805614381547,-0.2656187016313289,0.3102854426881202,0.08382604271173477,0.03164999559521675,-0.02684910036623478,-0.0112292468547821,0.03668421506881714,-0.01794666051864624,XArbitraryZVertical,-0.07574822378512172,-0.1866453570718821,-0.9356092760367023,0.2899328324163469,-0.2499707192182541,-0.3053304553031921,-0.9188514351844788,0,0,0,-1,-1,33697.32904116667,unknown,2,2022-06-02T10:38:37.800+02:00,2022-06-02T10:32:51.428+02:00,41,0.9590018,0,0,41.84445,0,0,2022-06-02T10:38:37.800+02:00,675851917.800199,0,4.808594,101.1334,1,0.92
2022-06-02T10:38:38.496+02:00,1654159115.433108,53.22877648649256,10.39870019039867,40.2193,-1,-1,-1,-1,19.11995315551758,40,-9999,33698.02044916667,-0.251312255859375,-0.3051300048828125,-0.933135986328125,33698.01171216667,-2.498686153398251,-0.2657027509171425,0.3104962072142117,0.0885520875453949,0.02584989741444588,-0.02088588289916515,-0.007628858089447021,0.02573075890541077,-0.01700741052627563,XArbitraryZVertical,-0.07574173578262813,-0.1867592944780148,-0.9355778325691141,0.2899627119060418,-0.250031054019928,-0.3055311441421509,-0.9187682867050171,0,0,0,-1,-1,33697.32904116667,unknown,2,2022-06-02T10:38:37.800+02:00,2022-06-02T10:32:51.428+02:00,41,0.9590018,0,0,41.84445,0,0,2022-06-02T10:38:37.800+02:00,675851917.800199,0,4.808594,101.1334,1,0.92
2022-06-02T10:38:38.506+02:00,1654159115.433108,53.22877648649256,10.39870019039867,40.2193,-1,-1,-1,-1,19.11995315551758,40,-9999,33698.03042116667,-0.2530670166015625,-0.32000732421875,-0.932647705078125,33698.02168516667,-2.498549801752095,-0.2657437869214517,0.3109092993341244,0.06498870253562927,0.02461259253323078,-0.006245954427868128,0.0006001293659210205,0.006272345781326294,-0.01559841632843018,XArbitraryZVertical,-0.07568026713586683,-0.1869609669256512,-0.935534991723074,0.2899869970191158,-0.2500355839729309,-0.3059244751930237,-0.9186362028121948,0,0,0,-1,-1,33697.32904116667,unknown,2,2022-06-02T10:38:37.800+02:00,2022-06-02T10:32:51.428+02:00,41,0.9590018,0,0,41.84445,0,0,2022-06-02T10:38:37.800+02:00,675851917.800199,0,4.808594,101.1334,1,0.92
2022-06-02T10:38:38.516+02:00,1654159115.433108,53.22877648649256,10.39870019039867,40.2193,-1,-1,-1,-1,19.11995315551758,40,-9999,33698.04039416667,-0.2510528564453125,-0.329010009765625,-0.928680419921875,33698.03165716667,-2.49842353246631,-0.2658898687734382,0.3108104674059642,0.03524119406938553,0.02054967544972897,-0.007936662063002586,-0.002126365900039673,-0.006089776754379272,-0.01348477602005005,XArbitraryZVertical,-0.07575304818874748,-0.186941339288589,-0.93551631035766,0.2900409523636331,-0.2501777112483978,-0.3058303594589233,-0.9186288118362427,0,0,0,-1,-1,33697.32904116667,unknown,2,2022-06-02T10:38:37.800+02:00,2022-06-02T10:32:51.428+02:00,41,0.9590018,0,0,41.84445,0,0,2022-06-02T10:38:37.800+02:00,675851917.800199,0,4.808594,101.1334,1,0.92
2022-06-02T10:38:38.526+02:00,1654159115.433108,53.22877648649256,10.39870019039867,40.2193,-1,-1,-1,-1,19.11995315551758,40,-9999,33698.05036716667,-0.2431640625,-0.329254150390625,-0.9319305419921875,33698.04163016667,-2.498249328656451,-0.2661846824714827,0.3101467906078284,-0.01480918750166893,0.02089056000113487,0.004918416030704975,-0.0008409321308135986,-0.01911187171936035,-0.01250851154327393,XArbitraryZVertical,-0.07598386204505647,-0.1866845774366976,-0.9355143298528639,0.2901521898365103,-0.2505018711090088,-0.3051984310150146,-0.9187506437301636,0,0,0,-1,-1,33697.32904116667,unknown,2,2022-06-02T10:38:37.800+02:00,2022-06-02T10:32:51.428+02:00,41,0.9590018,0,0,41.84445,0,0,2022-06-02T10:38:37.800+02:00,675851917.800199,0,4.808594,101.1334,1,0.92
2022-06-02T10:38:38.536+02:00,1654159115.433108,53.22877648649256,10.39870019039867,40.2193,-1,-1,-1,-1,19.11995315551758,40,-9999,33698.06033916667,-0.24346923828125,-0.3246002197265625,-0.9301910400390625,33698.05160316667,-2.498144522487569,-0.266357308951275,0.3090803678865717,-0.04957675561308861,0.006682061590254307,0.01920228078961372,0.001066386699676514,-0.02603274583816528,-0.0114142894744873,XArbitraryZVertical,-0.07623028171771797,-0.1862216722834676,-0.9355477958530791,0.2902772891347506,-0.2507459819316864,-0.3041827082633972,-0.9190208911895752,0,0,0,-1,-1,33697.32904116667,unknown,2,2022-06-02T10:38:37.800+02:00,2022-06-02T10:32:51.428+02:00,41,0.9590018,0,0,41.84445,0,0,2022-06-02T10:38:37.800+02:00,675851917.800199,0,4.808594,101.1334,1,0.92
2022-06-02T10:38:38.546+02:00,1654159115.433108,53.22877648649256,10.39870019039867,40.2193,-1,-1,-1,-1,19.11995315551758,40,-9999,33698.07031216667,-0.2545166015625,-0.3170166015625,-0.9300537109375,33698.06157516667,-2.498021285327655,-0.2666271288756427,0.3076677567638412,-0.06950225681066513,0.008371571078896523,0.02387799322605133,0.01010957360267639,-0.02499836683273315,-0.01230436563491821,XArbitraryZVertical,-0.07657747472352505,-0.1856138750064887,-0.9355922281926926,0.2904317666090402,-0.2511069178581238,-0.3028367459774017,-0.9193667769432068,0,0,0,-1,-1,33697.32904116667,unknown,2,2022-06-02T10:38:37.800+02:00,2022-06-02T10:32:51.428+02:00,41,0.9590018,0,0,41.84445,0,0,2022-06-02T10:38:37.800+02:00,675851917.800199,0,4.808594,101.1334,1,0.92
2022-06-02T10:38:38.556+02:00,1654159115.433108,53.22877648649256,10.39870019039867,40.2193,-1,-1,-1,-1,19.11995315551758,40,-9999,33698.08028516667,-0.2513275146484375,-0.301910400390625,-0.9280548095703125,33698.07154816667,-2.497894944811678,-0.2665841036884276,0.3062962537932176,-0.05493561550974846,0.02944028191268444,0.0284234993159771,0.002565056085586548,-0.01977497339248657,-0.01061201095581055,XArbitraryZVertical,-0.07677130082522256,-0.1849796772563863,-0.935645639806767,0.2906131990072893,-0.2511765360832214,-0.3015293478965759,-0.9197773933410645,0,0,0,-1,-1,33697.32904116667,unknown,2,2022-06-02T10:38:37.800+02:00,2022-06-02T10:32:51.428+02:00,41,0.9590018,0,0,41.84445,0,0,2022-06-02T10:38:37.800+02:00,675851917.800199,0,4.808594,101.1334,1,0.92
2022-06-02T10:38:38.566+02:00,1654159115.433108,53.22877648649256,10.39870019039867,40.2193,-1,-1,-1,-1,19.11995315551758,40,-9999,33698.09025716667,-0.253326416015625,-0.296295166015625,-0.915191650390625,33698.08152116667,-2.497630069719901,-0.2662746119824327,0.305239476956349,-0.01233728602528572,0.06215668469667435,0.0441979318857193,-0.001008093357086182,-0.01271083950996399,-0.008747339248657227,XArbitraryZVertical,-0.0767759419070148,-0.1844572232263247,-0.9356727472758403,0.2908567550683633,-0.2509755790233612,-0.300521582365036,-0.9201619625091553,0,0,0,-1,-1,33697.32904116667,unknown,2,2022-06-02T10:38:37.800+02:00,2022-06-02T10:32:51.428+02:00,41,0.9590018,0,0,41.84445,0,0,2022-06-02T10:38:37.800+02:00,675851917.800199,0,4.808594,101.1334,1,0.92
2022-06-02T10:38:38.576+02:00,1654159115.433108,53.22877648649256,10.39870019039867,40.2193,-1,-1,-1,-1,19.11995315551758,40,-9999,33698.10023016667,-0.2486572265625,-0.296295166015625,-0.9130859375,33698.09149316667,-2.497197462856279,-0.2656995235182356,0.3047375347418805,0.0217434074729681,0.09560989588499069,0.03350909426808357,-0.001818180084228516,0.002496421337127686,-0.001484453678131104,XArbitraryZVertical,-0.07654967307401421,-0.184158517005341,-0.9356572022088199,0.2911552107019608,-0.2504859268665314,-0.3000428080558777,-0.9204515814781189,0,0,0,-1,-1,33697.32904116667,unknown,2,2022-06-02T10:38:37.800+02:00,2022-06-02T10:32:51.428+02:00,41,0.9590018,0,0,41.84445,0,0,2022-06-02T10:38:37.800+02:00,675851917.800199,0,4.808594,101.1334,1,0.92
2022-06-02T10:38:38.586+02:00,1654159115.433108,53.22877648649256,10.39870019039867,40.2193,-1,-1,-1,-1,19.11995315551758,40,-9999,33698.11020316667,-0.25299072265625,-0.28997802734375,-0.9125823974609375,33698.10146616667,-2.496836459716951,-0.2645906649053167,0.3049916660341486,0.06220907717943192,0.1254207789897919,0.0239853635430336,-0.005056202411651611,0.004691958427429199,0.006211161613464355,XArbitraryZVertical,-0.07595583784988091,-0.1841280610120065,-0.9356340120726707,0.291404375896939,-0.2494451701641083,-0.3002852201461792,-0.9206551313400269,0,0,0,-1,-1,33697.32904116667,unknown,2,2022-06-02T10:38:37.800+02:00,2022-06-02T10:32:51.428+02:00,41,0.9590018,0,0,41.84445,0,0,2022-06-02T10:38:37.800+02:00,675851917.800199,0,4.808594,101.1334,1,0.92
2022-06-02T10:38:38.596+02:00,1654159115.433108,53.22877648649256,10.39870019039867,40.2193,-1,-1,-1,-1,19.11995315551758,40,-9999,33698.12017516667,-0.2483978271484375,-0.293304443359375,-0.918304443359375,33698.11143916667,-2.496447837547293,-0.2633593793359612,0.3058618516875434,0.09954588115215302,0.1510336548089981,-0.001511919312179089,0.0006999373435974121,0.005170881748199463,0.008752167224884033,XArbitraryZVertical,-0.07520067556758911,-0.1843648307800161,-0.9355796142542847,0.291625148373394,-0.2482432872056961,-0.3011151254177094,-0.920708954334259,0,0,0,-1,-1,33697.32904116667,unknown,2,2022-06-02T10:38:37.800+02:00,2022-06-02T10:32:51.428+02:00,41,0.9590018,0,0,41.84445,0,0,2022-06-02T10:38:37.800+02:00,675851917.800199,0,4.808594,101.1334,1,0.92
2022-06-02T10:38:38.606+02:00,1654159115.433108,53.22877648649256,10.39870019039867,40.2193,-1,-1,-1,-1,19.11995315551758,40,-9999,33698.13014816667,-0.240386962890625,-0.2977142333984375,-0.9257659912109375,33698.12141116667,-2.496302719587774,-0.2618000743993784,0.3074115979061344,0.1250672340393066,0.1701911091804504,-0.02723618969321251,-0.006579160690307617,0.01287394762039185,0.006366968154907227,XArbitraryZVertical,-0.07420247283980962,-0.1848579637209603,-0.9355372448643307,0.291704733105952,-0.2466862350702286,-0.3025926053524017,-0.9206430315971375,0,0,0,-1,-1,33697.32904116667,unknown,2,2022-06-02T10:38:37.800+02:00,2022-06-02T10:32:51.428+02:00,41,0.9590018,0,0,41.84445,0,0,2022-06-02T10:38:37.800+02:00,675851917.800199,0,4.808594,101.1334,1,0.92
2022-06-02T10:38:38.617+02:00,1654159115.433108,53.22877648649256,10.39870019039867,40.2193,-1,-1,-1,-1,19.11995315551758,40,-9999,33698.14012116667,-0.22698974609375,-0.3024749755859375,-0.934539794921875,33698.13138416667,-2.496328875606297,-0.2601647019500029,0.3092539135197577,0.1287664920091629,0.1614953428506851,-0.04633112251758575,-0.0006300359964370728,0.01015853881835938,-0.0005155205726623535,XArbitraryZVertical,-0.0731363248150295,-0.1854685783387052,-0.9355058280986163,0.2916870900639914,-0.2450364977121353,-0.3043480217456818,-0.9205049872398376,0,0,0,-1,-1,33697.32904116667,unknown,2,2022-06-02T10:38:37.800+02:00,2022-06-02T10:32:51.428+02:00,41,0.9590018,0,0,41.84445,0,0,2022-06-02T10:38:37.800+02:00,675851917.800199,0,4.808594,101.1334,1,0.92
2022-06-02T10:38:38.626+02:00,1654159115.433108,53.22877648649256,10.39870019039867,40.2193,-1,-1,-1,-1,19.11995315551758,40,-9999,33698.15009316667,-0.211212158203125,-0.31060791015625,-0.939910888671875,33698.14135716667,-2.496598565975162,-0.2584352580422142,0.3110429116663424,0.1304251104593277,0.1368195563554764,-0.06848356127738953,0.006579771637916565,0.006872624158859253,-0.00898277759552002,XArbitraryZVertical,-0.07205768003085943,-0.1860321050896189,-0.9355141873723524,0.2915697332000917,-0.2433046251535416,-0.3060516715049744,-0.9203994870185852,0,0,0,-1,-1,33697.32904116667,unknown,2,2022-06-02T10:38:37.800+02:00,2022-06-02T10:32:51.428+02:00,41,0.9590018,0,0,41.84445,0,0,2022-06-02T10:38:37.800+02:00,675851917.800199,0,4.808594,101.1334,1,0.92
2022-06-02T10:38:38.636+02:00,1654159115.433108,53.22877648649256,10.39870019039867,40.2193,-1,-1,-1,-1,19.11995315551758,40,-9999,33698.16006616667,-0.2153167724609375,-0.3141632080078125,-0.9413299560546875,33698.15132916667,-2.497012302690181,-0.2572284000113615,0.3126472596825147,0.1093183532357216,0.09036870300769806,-0.07537242770195007,0.02243340015411377,0.001411020755767822,-0.01649010181427002,XArbitraryZVertical,-0.07126751143336903,-0.1865817045692118,-0.9355328541789096,0.2913528868262679,-0.2420684397220612,-0.3075786530971527,-0.92021644115448,0,0,0,-1,-1,33697.32904116667,unknown,2,2022-06-02T10:38:37.800+02:00,2022-06-02T10:32:51.428+02:00,41,0.9590018,0,0,41.84445,0,0,2022-06-02T10:38:37.800+02:00,675851917.800199,0,4.808594,101.1334,1,0.92
2022-06-02T10:38:38.646+02:00,1654159115.433108,53.22877648649256,10.39870019039867,40.2193,-1,-1,-1,-1,19.11995315551758,40,-9999,33698.17003916667,-0.209869384765625,-0.322845458984375,-0.9407196044921875,33698.16130216667,-2.497527243195393,-0.2565284110222323,0.3138075213617623,0.06775147467851639,0.05096963047981262,-0.09207843244075775,0.0293126255273819,-0.001864433288574219,-0.019336998462677,XArbitraryZVertical,-0.07079723274772867,-0.1869968931871662,-0.9355708210857715,0.2910793639437325,-0.2413335293531418,-0.3086824417114258,-0.9200398325920105,0,0,0,-1,-1,33697.32904116667,unknown,2,2022-06-02T10:38:37.800+02:00,2022-06-02T10:32:51.428+02:00,41,0.9590018,0,0,41.84445,0,0,2022-06-02T10:38:37.800+02:00,675851917.800199,0,4.808594,101.1334,1,0.92
2022-06-02T10:38:38.656+02:00,1654159115.433108,53.22877648649256,10.39870019039867,40.2193,-1,-1,-1,-1,19.11995315551758,40,-9999,33698.18001116667,-0.218414306640625,-0.3267059326171875,-0.940582275390625,33698.17127516667,-2.498575936965572,-0.2560774480348434,0.3141435696880196,-0.01504021696746349,0.01843858696520329,-0.1506615281105042,0.02601802349090576,-0.008350223302841187,-0.02086979150772095,XArbitraryZVertical,-0.07062908852558347,-0.1870493233235156,-0.9357212580987578,0.2906025710072212,-0.240892305970192,-0.3090020716190338,-0.9200481772422791,0,0,0,-1,-1,33697.32904116667,unknown,2,2022-06-02T10:38:37.800+02:00,2022-06-02T10:32:51.428+02:00,41,0.9590018,0,0,41.84445,0,0,2022-06-02T10:38:37.800+02:00,675851917.800199,0,4.808594,101.1334,1,0.92
2022-06-02T10:38:38.666+02:00,1654159115.433108,53.22877648649256,10.39870019039867,40.2193,-1,-1,-1,-1,19.11995315551758,40,-9999,33698.18998416667,-0.2153167724609375,-0.303955078125,-0.9308624267578125,33698.18124716667,-2.500537199113313,-0.2555525280495809,0.3139238546383887,-0.0774383470416069,0.01416927296668291,-0.2255466878414154,0.0296110212802887,-0.01730251312255859,-0.02270722389221191,XArbitraryZVertical,-0.07060281187740532,-0.1868024937591246,-0.936036099202719,0.2897523282479088,-0.2404264807701111,-0.3087930977344513,-0.9202401638031006,0,0,0,-1,-1,33697.32904116667,unknown,2,2022-06-02T10:38:37.800+02:00,2022-06-02T10:32:51.428+02:00,41,0.9590018,0,0,41.84445,0,0,2022-06-02T10:38:37.800+02:00,675851917.800199,0,4.808594,101.1334,1,0.92
2022-06-02T10:38:38.676+02:00,1654159115.433108,53.22877648649256,10.39870019039867,40.2193,-1,-1,-1,-1,19.11995315551758,40,-9999,33698.19995716667,-0.2400665283203125,-0.2898101806640625,-0.93096923828125,33698.19122016667,-2.50325083462801,-0.2547988619800893,0.313364600814553,-0.1168968975543976,0.01039379835128784,-0.2684158086776733,0.02093477547168732,-0.01209715008735657,-0.01405853033065796,XArbitraryZVertical,-0.07059455380429114,-0.1863394250505489,-0.9364851253758588,0.2885992720090623,-0.2397763431072235,-0.3082611262798309,-0.9205880761146545,0,0,0,-1,-1,33697.32904116667,unknown,2,2022-06-02T10:38:37.800+02:00,2022-06-02T10:32:51.428+02:00,41,0.9590018,0,0,41.84445,0,0,2022-06-02T10:38:37.800+02:00,675851917.800199,0,4.808594,101.1334,1,0.92
2022-06-02T10:38:38.686+02:00,1654159115.433108,53.22877648649256,10.39870019039867,40.2193,-1,-1,-1,-1,19.11995315551758,40,-9999,33698.20992916667,-0.2385406494140625,-0.273834228515625,-0.931396484375,33698.20119316667,-2.506439442231842,-0.2538743323179708,0.3126185109316281,-0.109909288585186,0.04106036201119423,-0.3204209506511688,0.01499904692173004,0.01029479503631592,-0.01033425331115723,XArbitraryZVertical,-0.07057954257821891,-0.1857489465009466,-0.937016992442078,0.2872543041000897,-0.2389828264713287,-0.3075512945652008,-0.9210317134857178,0,0,0,-1,-1,33697.32904116667,unknown,2,2022-06-02T10:38:37.800+02:00,2022-06-02T10:32:51.428+02:00,41,0.9590018,0,0,41.84445,0,0,2022-06-02T10:38:37.800+02:00,675851917.800199,0,4.808594,101.1334,1,0.92
2022-06-02T10:38:38.696+02:00,1654159115.433108,53.22877648649256,10.39870019039867,40.2193,-1,-1,-1,-1,19.11995315551758,40,-9999,33698.21990216667,-0.2212371826171875,-0.26904296875,-0.9289703369140625,33698.21116516667,-2.510041823462517,-0.252270324913404,0.3123023747056675,-0.07110393047332764,0.08353281021118164,-0.3480474650859833,-0.006199195981025696,0.02160593867301941,-0.00807267427444458,XArbitraryZVertical,-0.07021310787502127,-0.1852461442122544,-0.9376065728430154,0.2857411624886355,-0.2375294417142868,-0.307250440120697,-0.9215079545974731,0,0,0,-1,-1,33697.32904116667,unknown,2,2022-06-02T10:38:37.800+02:00,2022-06-02T10:32:51.428+02:00,41,0.9590018,0,0,41.84445,0,0,2022-06-02T10:38:37.800+02:00,675851917.800199,0,4.808594,101.1334,1,0.92
2022-06-02T10:38:38.706+02:00,1654159115.433108,53.22877648649256,10.39870019039867,40.2193,-1,-1,-1,-1,19.11995315551758,40,-9999,33698.22987516667,-0.217071533203125,-0.2689208984375,-0.933319091796875,33698.22113816667,-2.513966613977655,-0.2500817029782679,0.3123718701326826,-0.06834516674280167,0.09684088826179504,-0.3824296891689301,0.003817275166511536,0.03738859295845032,-0.008506536483764648,XArbitraryZVertical,-0.06953867327105848,-0.1848294130720136,-0.9382383281674318,0.2840972468482056,-0.2355067580938339,-0.3073166012763977,-0.9220049381256104,0,0,0,-1,-1,33697.32904116667,unknown,2,2022-06-02T10:38:37.800+02:00,2022-06-02T10:32:51.428+02:00,41,0.9590018,0,0,41.84445,0,0,2022-06-02T10:38:37.800+02:00,675851917.800199,0,4.808594,101.1334,1,0.92
2022-06-02T10:38:38.716+02:00,1654159115.433108,53.22877648649256,10.39870019039867,40.2193,-1,-1,-1,-1,19.11995315551758,40,-9999,33698.23984716667,-0.2921905517578125,-0.313873291015625,-0.9473876953125,33698.23111116667,-2.518276423810163,-0.2473830316110099,0.3126038742310621,-0.05700457841157913,0.108640655875206,-0.3955235481262207,0.016783207654953,0.04043227434158325,-0.006234467029571533,XArbitraryZVertical,-0.06863291926314508,-0.1844058991072877,-0.9389291884051263,0.2823048070618331,-0.233000248670578,-0.3075373470783234,-0.9225679636001587,0,0,0,-1,-1,33697.32904116667,unknown,2,2022-06-02T10:38:37.800+02:00,2022-06-02T10:32:51.428+02:00,41,0.9590018,0,0,41.84445,0,0,2022-06-02T10:38:37.800+02:00,675851917.800199,0,4.808594,101.1334,1,0.92
2022-06-02T10:38:38.726+02:00,1654159115.433108,53.22877648649256,10.39870019039867,40.2193,-1,-1,-1,-1,19.11995315551758,40,-9999,33698.24982016667,-0.260833740234375,-0.3541717529296875,-0.9340972900390625,33698.24108316667,-2.521021980172644,-0.2444839797976182,0.3132004988351925,0.04009187594056129,0.2043258994817734,-0.1319611370563507,-0.001729667186737061,0.0319361686706543,-0.01536941528320312,XArbitraryZVertical,-0.0674296744475839,-0.184180750201448,-0.9393817362059964,0.2812341508051019,-0.2302802503108978,-0.3081050217151642,-0.9230613708496094,0,0,0,-1,-1,33697.32904116667,unknown,2,2022-06-02T10:38:37.800+02:00,2022-06-02T10:32:51.428+02:00,41,0.9590018,0,0,41.84445,0,0,2022-06-02T10:38:37.800+02:00,675851917.800199,0,4.808594,101.1334,1,0.92
2022-06-02T10:38:38.736+02:00,1654159115.433108,53.22877648649256,10.39870019039867,40.2193,-1,-1,-1,-1,19.11995315551758,40,-9999,33698.25979316667,-0.192901611328125,-0.3318328857421875,-0.9329833984375,33698.25105616667,-2.522761949759979,-0.2412740911307801,0.313632512888978,-0.04500233381986618,0.2653595209121704,-0.1900230646133423,-0.07853236794471741,-0.03392177820205688,-0.01870107650756836,XArbitraryZVertical,-0.06601338079952557,-0.183872236578053,-0.9397092953527849,0.2806773349034012,-0.22728431224823,-0.3085159659385681,-0.9236664772033691,0,0,0,-1,-1,33697.32904116667,unknown,2,2022-06-02T10:38:37.800+02:00,2022-06-02T10:32:51.428+02:00,41,0.9590018,0,0,41.84445,0,0,2022-06-02T10:38:37.800+02:00,675851917.800199,0,4.808594,101.1334,1,0.92
2022-06-02T10:38:38.746+02:00,1654159115.433108,53.22877648649256,10.39870019039867,40.2193,-1,-1,-1,-1,19.11995315551758,40,-9999,33698.26976516667,-0.2058258056640625,-0.3518524169921875,-0.94195556640625,33698.26102916667,-2.524837374075237,-0.2378896553947993,0.3135678068576146,-0.09305401146411896,0.2228727787733078,-0.1579436957836151,-0.0003409385681152344,-0.03584492206573486,-0.01048672199249268,XArbitraryZVertical,-0.06462356607969619,-0.1832999962464282,-0.9401144065465181,0.2800178532587716,-0.2241616398096085,-0.3084544241428375,-0.9244498014450073,0,0,0,-1,-1,33697.32904116667,unknown,2,2022-06-02T10:38:37.800+02:00,2022-06-02T10:32:51.428+02:00,41,0.9590018,0,0,41.84445,0,0,2022-06-02T10:38:37.800+02:00,675851917.800199,0,4.808594,101.1334,1,0.92
2022-06-02T10:38:38.756+02:00,1654159115.433108,53.22877648649256,10.39870019039867,40.2193,-1,-1,-1,-1,19.11995315551758,40,-9999,33698.27973816667,-0.20458984375,-0.3231353759765625,-0.9413604736328125,33698.27100116667,-2.526892140935943,-0.2350036615591153,0.3131050768030538,-0.08288562297821045,0.2187537550926208,-0.2013700753450394,0.02757146954536438,-0.02795380353927612,-0.009964346885681152,XArbitraryZVertical,-0.06352749963886897,-0.1826156186572727,-0.9405201299341449,0.2793522570468304,-0.2215259522199631,-0.3080142438411713,-0.9252315759658813,0,0,0,-1,-1,33697.32904116667,unknown,2,2022-06-02T10:38:37.800+02:00,2022-06-02T10:32:51.428+02:00,41,0.9590018,0,0,41.84445,0,0,2022-06-02T10:38:37.800+02:00,675851917.800199,0,4.808594,101.1334,1,0.92
2022-06-02T10:38:38.766+02:00,1654159115.433108,53.22877648649256,10.39870019039867,40.2193,-1,-1,-1,-1,19.11995315551758,40,-9999,33698.28971116667,-0.1972503662109375,-0.3297119140625,-0.9337310791015625,33698.28097416667,-2.529255123378488,-0.2319984829186864,0.3128950070971652,-0.06726059317588806,0.2266798466444016,-0.215273380279541,0.01212480664253235,-0.05178952217102051,-0.01593846082687378,XArbitraryZVertical,-0.06236229575786158,-0.1820244523646846,-0.9409561490910784,0.2785311891919994,-0.2187593430280685,-0.307814359664917,-0.9259560704231262,0,0,0,-1,-1,33697.32904116667,unknown,2,2022-06-02T10:38:37.800+02:00,2022-06-02T10:32:51.428+02:00,41,0.9590018,0,0,41.84445,0,0,2022-06-02T10:38:37.800+02:00,675851917.800199,0,4.808594,101.1334,1,0.92
2022-06-02T10:38:38.776+02:00,1654159115.433108,53.22877648649256,10.39870019039867,40.2193,-1,-1,-1,-1,19.11995315551758,40,-9999,33698.29968316667,-0.186737060546875,-0.3310089111328125,-0.92181396484375,33698.29094716667,-2.531695350046164,-0.2289892592930131,0.312933220254124,-0.04231000691652298,0.2131402492523193,-0.2492421120405197,0.0123865008354187,0.00621497631072998,-0.01357156038284302,XArbitraryZVertical,-0.06116202706843067,-0.1815484469553116,-0.9413862358643637,0.2776534364108402,-0.2159692794084549,-0.30785071849823,-0.9265987277030945,0,0,0,-1,-1,33697.32904116667,unknown,2,2022-06-02T10:38:37.800+02:00,2022-06-02T10:32:51.428+02:00,41,0.9590018,0,0,41.84445,0,0,2022-06-02T10:38:37.800+02:00,675851917.800199,0,4.808594,101.1334,1,0.92
2022-06-02T10:38:38.786+02:00,1654159115.433108,53.22877648649256,10.39870019039867,40.2193,-1,-1,-1,-1,19.11995315551758,40,-9999,33698.30965616667,-0.1951446533203125,-0.299285888671875,-0.9198150634765625,33698.30091916667,-2.534544037476764,-0.2260941903849021,0.3130424471341401,-0.06195321679115295,0.1827570497989655,-0.2739424109458923,0.02034611999988556,-0.04133433103561401,-0.0009285211563110352,XArbitraryZVertical,-0.06004029080550921,-0.181111849516543,-0.9418624276489895,0.2765663477644837,-0.2132782787084579,-0.3079546391963959,-0.9271873235702515,0,0,0,-1,-1,33697.32904116667,unknown,2,2022-06-02T10:38:37.800+02:00,2022-06-02T10:32:51.428+02:00,41,0.9590018,0,0,41.84445,0,0,2022-06-02T10:38:37.800+02:00,675851917.800199,0,4.808594,101.1334,1,0.92
2022-06-02T10:38:38.796+02:00,1654159115.433108,53.22877648649256,10.39870019039867,40.2193,-1,-1,-1,-1,19.11995315551758,40,-9999,33698.319630375,-0.197235107421875,-0.3052978515625,-0.9107818603515625,33698.31089216667,-2.537622582019186,-0.22322233104989,0.3132407096490515,-0.03056906349956989,0.1932136714458466,-0.2984721958637238,0.02247549593448639,-0.00621834397315979,0.007570445537567139,XArbitraryZVertical,-0.05893530285524303,-0.1807163831292859,-0.9423612057588335,0.27536086268454,-0.2106011211872101,-0.3081432580947876,-0.9277364611625671,0,0,0,-1,-1,33697.32904116667,unknown,2,2022-06-02T10:38:37.800+02:00,2022-06-02T10:32:51.428+02:00,41,0.9590018,0,0,41.84445,0,0,2022-06-02T10:38:37.800+02:00,675851917.800199,0,4.808594,101.1334,1,0.92
2022-06-02T10:38:38.806+02:00,1654159115.433108,53.22877648649256,10.39870019039867,40.2193,-1,-1,-1,-1,19.11995315551758,40,-9999,33698.329602375,-0.1915740966796875,-0.3155670166015625,-0.905426025390625,33698.320866375,-2.54089453793486,-0.2201516779442688,0.3137507472825455,-0.01215543691068888,0.202720895409584,-0.3250798285007477,0.009169653058052063,0.008854269981384277,0.01111102104187012,XArbitraryZVertical,-0.05770503347440926,-0.180436978498299,-0.9428706329569254,0.2740576473576107,-0.2077170312404633,-0.3086284399032593,-0.9282252788543701,0,0,0,-1,-1,33697.32904116667,unknown,2,2022-06-02T10:38:37.800+02:00,2022-06-02T10:32:51.428+02:00,41,0.9590018,0,0,41.84445,0,0,2022-06-02T10:38:37.800+02:00,675851917.800199,0,4.808594,101.1334,1,0.92
2022-06-02T10:38:38.817+02:00,1654159115.433108,53.22877648649256,10.39870019039867,40.2193,-1,-1,-1,-1,19.11995315551758,40,-9999,33698.339575375,-0.1822967529296875,-0.329833984375,-0.902923583984375,33698.330838375,-2.544421931861419,-0.2169341904413663,0.3144524626148922,-0.005966427735984325,0.2131950259208679,-0.3599491715431213,0.009049788117408752,0.0007478594779968262,0.01931428909301758,XArbitraryZVertical,-0.0563984735976745,-0.180223990895009,-0.943403537772757,0.2726321387139364,-0.2046827375888824,-0.3092958331108093,-0.9286770224571228,0,0,0,-1,-1,33697.32904116667,unknown,2,2022-06-02T10:38:37.800+02:00,2022-06-02T10:32:51.428+02:00,41,0.9590018,0,0,41.84445,0,0,2022-06-02T10:38:37.800+02:00,675851917.800199,0,4.808594,101.1334,1,0.92
2022-06-02T10:38:38.832+02:00,1654159115.433108,53.22877648649256,10.39870019039867,40.2193,-1,-1,-1,-1,19.11995315551758,40,-9999,33698.349548375,-0.181732177734375,-0.344970703125,-0.9014434814453125,33698.340811375,-2.548254484160317,-0.2137027453422045,0.3151969548398484,-0.01674290932714939,0.1914867907762527,-0.385002076625824,0.0143759548664093,-0.01062920689582825,0.0245826244354248,XArbitraryZVertical,-0.05510571947899144,-0.1800255310748835,-0.9439706789003263,0.271060034175185,-0.2016318142414093,-0.3100037276744843,-0.9291083216667175,0,0,0,-1,-1,33697.32904116667,unknown,2,2022-06-02T10:38:37.800+02:00,2022-06-02T10:32:51.428+02:00,41,0.9590018,0,0,41.84445,0,0,2022-06-02T10:38:37.800+02:00,675851917.800199,0,4.808594,101.1334,1,0.92
2022-06-02T10:38:38.836+02:00,1654159115.433108,53.22877648649256,10.39870019039867,40.2193,-1,-1,-1,-1,19.11995315551758,40,-9999,33698.359520375,-0.1800689697265625,-0.34027099609375,-0.8952789306640625,33698.350784375,-2.552368428306624,-0.210565076847074,0.3157759673732784,-0.03852526098489761,0.1681954115629196,-0.4029963314533234,0.01685431599617004,-0.02664980292320251,0.02799522876739502,XArbitraryZVertical,-0.05390690626925485,-0.1797600699372405,-0.9445775483617767,0.2693577638847455,-0.19867804646492,-0.310554176568985,-0.9295607209205627,0,0,0,-1,-1,33697.32904116667,unknown,2,2022-06-02T10:38:37.800+02:00,2022-06-02T10:32:51.428+02:00,41,0.9590018,0,0,41.84445,0,0,2022-06-02T10:38:37.800+02:00,675851917.800199,0,4.808594,101.1334,1,0.92
2022-06-02T10:38:38.845+02:00,1654159115.433108,53.22877648649256,10.39870019039867,40.2193,-1,-1,-1,-1,19.11995315551758,40,-9999,33698.369493375,-0.1757354736328125,-0.3271331787109375,-0.893157958984375,33698.360756375,-2.55670042381592,-0.207551143326117,0.3161429723486924,-0.06771083921194077,0.1549959778785706,-0.4176032245159149,0.01312799751758575,-0.03539523482322693,0.03006505966186523,XArbitraryZVertical,-0.05281691936858525,-0.1794115714947082,-0.9452174769537651,0.2675553935701463,-0.1958520114421844,-0.310903012752533,-0.9300436973571777,0,0,0,-1,-1,33697.32904116667,unknown,2,2022-06-02T10:38:37.800+02:00,2022-06-02T10:32:51.428+02:00,41,0.9590018,0,0,41.84445,0,0,2022-06-02T10:38:37.800+02:00,675851917.800199,0,4.808594,101.1334,1,0.92
2022-06-02T10:38:38.856+02:00,1654159115.433108,53.22877648649256,10.39870019039867,40.2193,-1,-1,-1,-1,19.11995315551758,40,-9999,33698.379466375,-0.1688385009765625,-0.3149566650390625,-0.8864898681640625,33698.370729375,-2.561289551646133,-0.2046216445628893,0.3163787307739068,-0.06853326410055161,0.1362302005290985,-0.440732479095459,0.01453809440135956,-0.02493250370025635,0.03681915998458862,XArbitraryZVertical,-0.05180805005503406,-0.179011412663896,-0.9458915482492475,0.2656314603021365,-0.1931117177009583,-0.3111270666122437,-0.9305416941642761,0,0,0,-1,-1,33697.32904116667,unknown,2,2022-06-02T10:38:37.800+02:00,2022-06-02T10:32:51.428+02:00,41,0.9590018,0,0,41.84445,0,0,2022-06-02T10:38:37.800+02:00,675851917.800199,0,4.808594,101.1334,1,0.92
2022-06-02T10:38:38.865+02:00,1654159115.433108,53.22877648649256,10.39870019039867,40.2193,-1,-1,-1,-1,19.11995315551758,40,-9999,33698.389438375,-0.166473388671875,-0.310699462890625,-0.8824462890625,33698.38070237501,-2.566072264894727,-0.2017854086342386,0.3165775969001527,-0.07873930037021637,0.1185484081506729,-0.4598904550075531,0.01811125874519348,-0.008721798658370972,0.03975915908813477,XArbitraryZVertical,-0.05086440013304386,-0.1786065602564906,-0.9465850909791756,0.2636082959940844,-0.1904593110084534,-0.3113160729408264,-0.9310250282287598,0,0,0,-1,-1,33697.32904116667,unknown,2,2022-06-02T10:38:37.800+02:00,2022-06-02T10:32:51.428+02:00,41,0.9590018,0,0,41.84445,0,0,2022-06-02T10:38:37.800+02:00,675851917.800199,0,4.808594,101.1334,1,0.92
2022-06-02T10:38:38.875+02:00,1654159115.433108,53.22877648649256,10.39870019039867,40.2193,-1,-1,-1,-1,19.11995315551758,40,-9999,33698.399411375,-0.1669158935546875,-0.3055267333984375,-0.8793792724609375,33698.390674375,-2.571039871150783,-0.1990571018490005,0.3167476070440732,-0.08100205659866333,0.1059892103075981,-0.4665593802928925,0.01960355043411255,-0.002624571323394775,0.04647952318191528,XArbitraryZVertical,-0.04999087058349341,-0.1782029005760373,-0.9472955154371248,0.2614877584720849,-0.1879080086946487,-0.3114776015281677,-0.9314892888069153,0,0,0,-1,-1,33697.32904116667,unknown,2,2022-06-02T10:38:37.800+02:00,2022-06-02T10:32:51.428+02:00,41,0.9590018,0,0,41.84445,0,0,2022-06-02T10:38:37.800+02:00,675851917.800199,0,4.808594,101.1334,1,0.92
2022-06-02T10:38:38.885+02:00,1654159115.433108,53.22877648649256,10.39870019039867,40.2193,-1,-1,-1,-1,19.11995315551758,40,-9999,33698.409384375,-0.166046142578125,-0.30572509765625,-0.8805999755859375,33698.40064737501,-2.576036523178283,-0.1965143110957838,0.3170045229449898,-0.06155618652701378,0.09064673632383347,-0.4742311239242554,0.01898874342441559,0.003066927194595337,0.05203330516815186,XArbitraryZVertical,-0.04919353458190002,-0.1778685300642957,-0.9479933100338025,0.2593289207567208,-0.185523197054863,-0.3117217421531677,-0.9318855404853821,0,0,0,-1,-1,33697.32904116667,unknown,2,2022-06-02T10:38:37.800+02:00,2022-06-02T10:32:51.428+02:00,41,0.9590018,0,0,41.84445,0,0,2022-06-02T10:38:37.800+02:00,675851917.800199,0,4.808594,101.1334,1,0.92
2022-06-02T10:38:38.895+02:00,1654159115.433108,53.22877648649256,10.39870019039867,40.2193,-1,-1,-1,-1,19.11995315551758,40,-9999,33698.419356375,-0.163604736328125,-0.310089111328125,-0.8868255615234375,33698.41062037501,-2.581096194610385,-0.1940225534420179,0.3173545213374869,-0.06424247473478317,0.09103751182556152,-0.4764323830604553,0.01681295037269592,0.007412523031234741,0.05200409889221191,XArbitraryZVertical,-0.04841128101858956,-0.1775878155939853,-0.9486856053385104,0.2571273410418248,-0.1831795424222946,-0.3120542764663696,-0.9322378039360046,0,0,0,-1,-1,33697.32904116667,unknown,2,2022-06-02T10:38:37.800+02:00,2022-06-02T10:32:51.428+02:00,41,0.9590018,0,0,41.84445,0,0,2022-06-02T10:38:37.800+02:00,675851917.800199,0,4.808594,101.1334,1,0.92
2022-06-02T10:38:38.905+02:00,1654159115.433108,53.22877648649256,10.39870019039867,40.2193,-1,-1,-1,-1,19.11995315551758,40,-9999,33698.429329375,-0.1616058349609375,-0.3147125244140625,-0.89556884765625,33698.42059237501,-2.58615458904934,-0.1916299675004098,0.3176321786897398,-0.06943004578351974,0.06763258576393127,-0.477945864200592,0.01503847539424896,0.00540277361869812,0.05075240135192871,XArbitraryZVertical,-0.04768512870837949,-0.1772905939354768,-0.9493732941973121,0.2549206639839647,-0.1809320449829102,-0.3123180568218231,-0.9325883388519287,0,0,0,-1,-1,33697.32904116667,unknown,2,2022-06-02T10:38:37.800+02:00,2022-06-02T10:32:51.428+02:00,41,0.9590018,0,0,41.84445,0,0,2022-06-02T10:38:37.800+02:00,675851917.800199,0,4.808594,101.1334,1,0.92
2022-06-02T10:38:38.915+02:00,1654159115.433108,53.22877648649256,10.39870019039867,40.2193,-1,-1,-1,-1,19.11995315551758,40,-9999,33698.439302375,-0.1684112548828125,-0.313873291015625,-0.9010467529296875,33698.43056537501,-2.591252860794379,-0.1894317482219096,0.3178849554968174,-0.0705961138010025,0.05903244018554688,-0.4786075949668884,0.0181763768196106,0.0006990432739257812,0.04243385791778564,XArbitraryZVertical,-0.04705712186425648,-0.177009871460815,-0.9500564649816921,0.2526776095185093,-0.1788667142391205,-0.3125581741333008,-0.9329062700271606,0,0,0,-1,-1,33697.32904116667,unknown,2,2022-06-02T10:38:37.800+02:00,2022-06-02T10:32:51.428+02:00,41,0.9590018,0,0,41.84445,0,0,2022-06-02T10:38:37.800+02:00,675851917.800199,0,4.808594,101.1334,1,0.92
2022-06-02T10:38:38.925+02:00,1654159115.433108,53.22877648649256,10.39870019039867,40.2193,-1,-1,-1,-1,19.11995315551758,40,-9999,33698.449274375,-0.1699066162109375,-0.31890869140625,-0.9033966064453125,33698.44053837501,-2.596386500233713,-0.1872665067927851,0.318012775463608,-0.09471876174211502,0.05335165187716484,-0.4822574555873871,0.01305103302001953,-0.002322852611541748,0.03521132469177246,XArbitraryZVertical,-0.04646422773262074,-0.1766777514934883,-0.9507446036590839,0.2504210437877551,-0.1768388748168945,-0.3126795887947083,-0.9332520961761475,0,0,0,-1,-1,33697.32904116667,unknown,2,2022-06-02T10:38:37.800+02:00,2022-06-02T10:32:51.428+02:00,41,0.9590018,0,0,41.84445,0,0,2022-06-02T10:38:37.800+02:00,675851917.800199,0,4.808594,101.1334,1,0.92
2022-06-02T10:38:38.935+02:00,1654159115.433108,53.22877648649256,10.39870019039867,40.2193,-1,-1,-1,-1,19.11995315551758,40,-9999,33698.459247375,-0.1710052490234375,-0.317840576171875,-0.9013214111328125,33698.45051037501,-2.601533305549411,-0.1851179714175205,0.317901205617152,-0.1173079088330269,0.05255572125315666,-0.4766653776168823,0.005390897393226624,-0.003329098224639893,0.03128993511199951,XArbitraryZVertical,-0.0459120737198953,-0.1762384522270443,-0.9514429201417688,0.248170406143168,-0.1748397648334503,-0.3125736117362976,-0.9336642026901245,0,0,0,-1,-1,33697.32904116667,unknown,2,2022-06-02T10:38:37.800+02:00,2022-06-02T10:32:51.428+02:00,41,0.9590018,0,0,41.84445,0,0,2022-06-02T10:38:37.800+02:00,675851917.800199,0,4.808594,101.1334,1,0.92
2022-06-02T10:38:38.945+02:00,1654159115.433108,53.22877648649256,10.39870019039867,40.2193,-1,-1,-1,-1,19.11995315551758,40,-9999,33698.469220375,-0.1728515625,-0.3248748779296875,-0.9021148681640625,33698.46048337501,-2.606706096889935,-0.1829561322024447,0.317561775694616,-0.1347122043371201,0.05392592027783394,-0.4721334874629974,0.002750486135482788,-0.007405221462249756,0.03128170967102051,XArbitraryZVertical,-0.04538505776222205,-0.1756931261935519,-0.9521529037406971,0.2459208233171651,-0.1728402227163315,-0.3122511804103851,-0.9341442584991455,0,0,0,-1,-1,33697.32904116667,unknown,2,2022-06-02T10:38:37.800+02:00,2022-06-02T10:32:51.428+02:00,41,0.9590018,0,0,41.84445,0,0,2022-06-02T10:38:37.800+02:00,675851917.800199,0,4.808594,101.1334,1,0.92
2022-06-02T10:38:38.955+02:00,1654159115.433108,53.22877648649256,10.39870019039867,40.2193,-1,-1,-1,-1,19.11995315551758,40,-9999,33698.479192375,-0.16754150390625,-0.3296661376953125,-0.901153564453125,33698.47045637501,-2.611822348346802,-0.1807413465938299,0.3169767640695298,-0.1609721630811691,0.05976356565952301,-0.4596860706806183,-0.001513838768005371,-0.006313085556030273,0.03260469436645508,XArbitraryZVertical,-0.04485856053281938,-0.1750301834774066,-0.9528666285811173,0.2437157656888398,-0.1708036810159683,-0.3116953670978546,-0.9347043037414551,0,0,0,-1,-1,33697.32904116667,unknown,2,2022-06-02T10:38:37.800+02:00,2022-06-02T10:32:51.428+02:00,41,0.9590018,0,0,41.84445,0,0,2022-06-02T10:38:37.800+02:00,675851917.800199,0,4.808594,101.1334,1,0.92
2022-06-02T10:38:38.965+02:00,1654159115.433108,53.22877648649256,10.39870019039867,40.2193,-1,-1,-1,-1,19.11995315551758,40,-9999,33698.489165375,-0.15374755859375,-0.335601806640625,-0.9030303955078125,33698.48042837501,-2.61682150675451,-0.1785000727630082,0.3160455285430286,-0.2004497945308685,0.07011207938194275,-0.4398851990699768,-0.002550646662712097,-0.01761981844902039,0.03229385614395142,XArbitraryZVertical,-0.04435250514667753,-0.1742063559620292,-0.9535829463315882,0.2415876379542754,-0.1687597930431366,-0.310810387134552,-0.9353700280189514,0,0,0,-1,-1,33697.32904116667,unknown,2,2022-06-02T10:38:37.800+02:00,2022-06-02T10:32:51.428+02:00,41,0.9590018,0,0,41.84445,0,0,2022-06-02T10:38:37.800+02:00,675851917.800199,0,4.808594,101.1334,1,0.92
2022-06-02T10:38:38.975+02:00,1654159115.433108,53.22877648649256,10.39870019039867,40.2193,-1,-1,-1,-1,19.11995315551758,40,-9999,33698.499138375,-0.133697509765625,-0.3342742919921875,-0.9041595458984375,33698.49040137501,-2.621663634016004,-0.1762881859363533,0.3146600583058684,-0.2379056513309479,0.06243720278143883,-0.4213215708732605,0.004229158163070679,-0.02282795310020447,0.03519356250762939,XArbitraryZVertical,-0.04390327838470601,-0.1731775951635368,-0.9543032713012667,0.2395567476331285,-0.1667658090591431,-0.3094932436943054,-0.9361640214920044,0,0,0,-1,-1,33697.32904116667,unknown,2,2022-06-02T10:38:37.800+02:00,2022-06-02T10:32:51.428+02:00,41,0.9590018,0,0,41.84445,0,0,2022-06-02T10:38:37.800+02:00,675851917.800199,0,4.808594,101.1334,1,0.92
2022-06-02T10:38:38.985+02:00,1654159115.433108,53.22877648649256,10.39870019039867,40.2193,-1,-1,-1,-1,19.11995315551758,40,-9999,33698.509110375,-0.12237548828125,-0.334747314453125,-0.90802001953125,33698.500374375,-2.626348497665091,-0.1742369019356072,0.3128931146717888,-0.2707482874393463,0.05143808200955391,-0.3959227502346039,0.01828742027282715,-0.02957454323768616,0.03410243988037109,XArbitraryZVertical,-0.04356254725206115,-0.1719932232398137,-0.955020351805612,0.2376065255879998,-0.1649396568536758,-0.3078125715255737,-0.9370412826538086,0,0,0,-1,-1,33697.32904116667,unknown,2,2022-06-02T10:38:37.800+02:00,2022-06-02T10:32:51.428+02:00,41,0.9590018,0,0,41.84445,0,0,2022-06-02T10:38:37.800+02:00,675851917.800199,0,4.808594,101.1334,1,0.92
2022-06-02T10:38:38.995+02:00,1654159115.433108,53.22877648649256,10.39870019039867,40.2193,-1,-1,-1,-1,19.11995315551758,40,-9999,33698.519083375,-0.1175384521484375,-0.339447021484375,-0.9080657958984375,33698.51034637501,-2.630825447787137,-0.1723688515270631,0.3107780860545059,-0.2955261170864105,0.04310549423098564,-0.3709262907505035,0.03468388319015503,-0.02534672617912292,0.03306454420089722,XArbitraryZVertical,-0.0433315138801702,-0.1706717871878441,-0.9557260685383645,0.2357569472502895,-0.1633002310991287,-0.3057995438575745,-0.9379870295524597,0,0,0,-1,-1,33697.32904116667,unknown,2,2022-06-02T10:38:37.800+02:00,2022-06-02T10:32:51.428+02:00,41,0.9590018,0,0,41.84445,0,0,2022-06-02T10:38:37.800+02:00,675851917.800199,0,4.808594,101.1334,1,0.92
2022-06-02T10:38:39.005+02:00,1654159115.433108,53.22877648649256,10.39870019039867,40.2193,-1,-1,-1,-1,19.11995315551758,40,-9999,33698.529056375,-0.1182403564453125,-0.3222808837890625,-0.910430908203125,33698.520319375,-2.63504402590544,-0.170712160874355,0.3083789361807228,-0.3132156133651733,0.02881284058094025,-0.3401990234851837,0.04187509417533875,-0.03323179483413696,0.03117018938064575,XArbitraryZVertical,-0.04321048934650608,-0.1692470399430078,-0.9564101563203057,0.2340257349702793,-0.1618702262639999,-0.3035144507884979,-0.9389765858650208,0,0,0,-1,-1,33697.32904116667,unknown,2,2022-06-02T10:38:37.800+02:00,2022-06-02T10:32:51.428+02:00,41,0.9590018,0,0,41.84445,0,0,2022-06-02T10:38:37.800+02:00,675851917.800199,0,4.808594,101.1334,1,0.92
2022-06-02T10:38:39.015+02:00,1654159115.433108,53.22877648649256,10.39870019039867,40.2193,-1,-1,-1,-1,19.11995315551758,40,-9999,33698.539028375,-0.114715576171875,-0.3049468994140625,-0.9181976318359375,33698.530292375,-2.639014095359499,-0.1692357700025465,0.3057919545727366,-0.324198991060257,0.0301775336265564,-0.3213205337524414,0.04411458969116211,-0.03403455018997192,0.03187382221221924,XArbitraryZVertical,-0.04317289859699842,-0.1677599929247217,-0.9570687680446731,0.2324052327743627,-0.1606154590845108,-0.3010484874248505,-0.9399853944778442,0,0,0,-1,-1,33697.32904116667,unknown,2,2022-06-02T10:38:37.800+02:00,2022-06-02T10:32:51.428+02:00,41,0.9590018,0,0,41.84445,0,0,2022-06-02T10:38:37.800+02:00,675851917.800199,0,4.808594,101.1334,1,0.92
2022-06-02T10:38:39.025+02:00,1654159115.433108,53.22877648649256,10.39870019039867,40.2193,-1,-1,-1,-1,19.11995315551758,40,-9999,33698.549001375,-0.1109161376953125,-0.3027496337890625,-0.923065185546875,33698.540264375,-2.642788165161359,-0.1677763451167116,0.3032138059893222,-0.309964120388031,0.02869974449276924,-0.3015106022357941,0.04162043333053589,-0.01572686433792114,0.02633857727050781,XArbitraryZVertical,-0.04311994290021146,-0.1662835604177929,-0.9576995114072893,0.2308726129335442,-0.1593725383281708,-0.2985889315605164,-0.9409809112548828,0,0,0,-1,-1,33697.32904116667,unknown,2,2022-06-02T10:38:37.800+02:00,2022-06-02T10:32:51.428+02:00,41,0.9590018,0,0,41.84445,0,0,2022-06-02T10:38:37.800+02:00,675851917.800199,0,4.808594,101.1334,1,0.92
2022-06-02T10:38:39.035+02:00,1654159115.433108,53.22877648649256,10.39870019039867,40.2193,-1,-1,-1,-1,19.11995315551758,40,-9999,33698.558974375,-0.1084136962890625,-0.3025054931640625,-0.9259033203125,33698.550237375,-2.646305342385344,-0.1664428836775367,0.3007763279726893,-0.2853173613548279,0.02062584087252617,-0.2777087688446045,0.04451397061347961,-0.006884604692459106,0.02242815494537354,XArbitraryZVertical,-0.04308257827440617,-0.1648942867439426,-0.9582853820878411,0.2294407388208332,-0.1582377403974533,-0.2962617576122284,-0.941907525062561,0,0,0,-1,-1,33697.32904116667,unknown,2,2022-06-02T10:38:37.800+02:00,2022-06-02T10:32:51.428+02:00,41,0.9590018,0,0,41.84445,0,0,2022-06-02T10:38:37.800+02:00,675851917.800199,0,4.808594,101.1334,1,0.92
2022-06-02T10:38:39.045+02:00,1654159115.433108,53.22877648649256,10.39870019039867,40.2193,-1,-1,-1,-1,19.11995315551758,40,-9999,33698.568947375,-0.112762451171875,-0.2991790771484375,-0.92950439453125,33698.560210375,-2.64953358294716,-0.1653359852729482,0.2985494497236471,-0.2598415613174438,0.001733642304316163,-0.257652759552002,0.04652443528175354,-0.008844375610351562,0.01781904697418213,XArbitraryZVertical,-0.04309866006846105,-0.1636375702261262,-0.9588167500235685,0.2281132854607704,-0.1573032438755035,-0.2941341400146484,-0.9427304863929749,0,0,0,-1,-1,33697.32904116667,unknown,2,2022-06-02T10:38:37.800+02:00,2022-06-02T10:32:51.428+02:00,41,0.9590018,0,0,41.84445,0,0,2022-06-02T10:38:37.800+02:00,675851917.800199,0,4.808594,101.1334,1,0.92
2022-06-02T10:38:39.055+02:00,1654159115.433108,53.22877648649256,10.39870019039867,40.2193,-1,-1,-1,-1,19.11995315551758,40,-9999,33698.578919375,-0.1230010986328125,-0.3050994873046875,-0.93218994140625,33698.570183375,-2.652482292104103,-0.1644362657165753,0.2965497332836485,-0.2351076900959015,0.002173951594159007,-0.2325861752033234,0.04774051904678345,-0.009138792753219604,0.01628023386001587,XArbitraryZVertical,-0.04315880165122334,-0.1625186472355449,-0.9592950730476588,0.2268875162032896,-0.1565509587526321,-0.2922222912311554,-0.9434500336647034,0,0,0,-1,-1,33697.32904116667,unknown,2,2022-06-02T10:38:37.800+02:00,2022-06-02T10:32:51.428+02:00,41,0.9590018,0,0,41.84445,0,0,2022-06-02T10:38:37.800+02:00,675851917.800199,0,4.808594,101.1334,1,0.92
2022-06-02T10:38:39.065+02:00,1654159115.433108,53.22877648649256,10.39870019039867,40.2193,-1,-1,-1,-1,19.11995315551758,40,-9999,33698.588892375,-0.1299285888671875,-0.3238677978515625,-0.933349609375,33698.580155375,-2.655184820378324,-0.1636132159209646,0.2946791124641266,-0.2230811268091202,-0.001349943107925355,-0.2165496796369553,0.03809581696987152,-0.008624225854873657,0.01334536075592041,XArbitraryZVertical,-0.04321641889317716,-0.1614751504773325,-0.9597336224490405,0.2257643440550487,-0.1558631658554077,-0.2904328107833862,-0.9441162347793579,0,0,0,-1,-1,33697.32904116667,unknown,2,2022-06-02T10:38:37.800+02:00,2022-06-02T10:32:51.428+02:00,41,0.9590018,0,0,41.84445,0,0,2022-06-02T10:38:37.800+02:00,675851917.800199,0,4.808594,101.1334,1,0.92
2022-06-02T10:38:39.075+02:00,1654159115.433108,53.22877648649256,10.39870019039867,40.2193,-1,-1,-1,-1,19.11995315551758,40,-9999,33698.598865375,-0.1444549560546875,-0.3401031494140625,-0.929901123046875,33698.590128375,-2.657692354243426,-0.1628981965853813,0.2927941503019175,-0.2328726351261139,-0.009810272604227066,-0.1935691982507706,0.03050543367862701,-0.02178096771240234,0.01256078481674194,XArbitraryZVertical,-0.04330916285585593,-0.1604410651973942,-0.9601466327031187,0.2247251266000432,-0.1552765667438507,-0.2886285781860352,-0.9447659850120544,0,0,0,-1,-1,33697.32904116667,unknown,2,2022-06-02T10:38:37.800+02:00,2022-06-02T10:32:51.428+02:00,41,0.9590018,0,0,41.84445,0,0,2022-06-02T10:38:37.800+02:00,675851917.800199,0,4.808594,101.1334,1,0.92
2022-06-02T10:38:39.085+02:00,1654159115.433108,53.22877648649256,10.39870019039867,40.2193,-1,-1,-1,-1,19.11995315551758,40,-9999,33698.608837375,-0.160247802734375,-0.350677490234375,-0.9218902587890625,33698.600101375,-2.660073619557926,-0.1622612867670533,0.2907089127535048,-0.2555462718009949,-0.004592341370880604,-0.1844870150089264,0.01986873149871826,-0.04376712441444397,0.01303774118423462,XArbitraryZVertical,-0.04345138985559585,-0.1593226100868027,-0.9605540780049552,0.2237500485093087,-0.154771700501442,-0.2866314649581909,-0.9454565644264221,0,0,0,-1,-1,33697.32904116667,unknown,2,2022-06-02T10:38:37.800+02:00,2022-06-02T10:32:51.428+02:00,41,0.9590018,0,0,41.84445,0,0,2022-06-02T10:38:37.800+02:00,675851917.800199,0,4.808594,101.1334,1,0.92
2022-06-02T10:38:39.095+02:00,1654159115.433108,53.22877648649256,10.39870019039867,40.2193,-1,-1,-1,-1,19.11995315551758,40,-9999,33698.618810375,-0.1636962890625,-0.351898193359375,-0.91455078125,33698.610073375,-2.662347148331564,-0.1615299551134602,0.2883600026957441,-0.2785938382148743,0.01445582881569862,-0.1681768745183945,0.002469912171363831,-0.05938497185707092,0.0178561806678772,XArbitraryZVertical,-0.04356933622159093,-0.1580696393956657,-0.9609655319071271,0.2228473967592235,-0.1541880816221237,-0.284380316734314,-0.9462314248085022,0,0,0,-1,-1,33697.32904116667,unknown,2,2022-06-02T10:38:37.800+02:00,2022-06-02T10:32:51.428+02:00,41,0.9590018,0,0,41.84445,0,0,2022-06-02T10:38:37.800+02:00,675851917.800199,0,4.808594,101.1334,1,0.92
2022-06-02T10:38:39.105+02:00,1654159115.433108,53.22877648649256,10.39870019039867,40.2193,-1,-1,-1,-1,19.11995315551758,40,-9999,33698.628783375,-0.15277099609375,-0.3546142578125,-0.9061126708984375,33698.620046375,-2.664421304313164,-0.1606379086612441,0.2857746221068854,-0.3009731769561768,0.04389228299260139,-0.1414752155542374,-0.009716466069221497,-0.07024157047271729,0.02871048450469971,XArbitraryZVertical,-0.04362032271568628,-0.1566897621539989,-0.9613703621634007,0.2220644366318304,-0.1534610241651535,-0.2819007337093353,-0.9470911622047424,0,0,0,-1,-1,33697.32904116667,unknown,2,2022-06-02T10:38:37.800+02:00,2022-06-02T10:32:51.428+02:00,41,0.9590018,0,0,41.84445,0,0,2022-06-02T10:38:37.800+02:00,675851917.800199,0,4.808594,101.1334,1,0.92
2022-06-02T10:38:39.115+02:00,1654159115.433108,53.22877648649256,10.39870019039867,40.2193,-1,-1,-1,-1,19.11995315551758,40,-9999,33698.638755375,-0.1344757080078125,-0.347015380859375,-0.9026336669921875,33698.630019375,-2.666330784521812,-0.1594976257031097,0.2829870631330854,-0.3143121004104614,0.07254238426685333,-0.1296719759702682,-0.009527921676635742,-0.07429048418998718,0.03629457950592041,XArbitraryZVertical,-0.04356069654313346,-0.1551889527271554,-0.9617722587607584,0.221388959110452,-0.152505174279213,-0.2792251408100128,-0.9480376839637756,0,0,0,-1,-1,33697.32904116667,unknown,2,2022-06-02T10:38:37.800+02:00,2022-06-02T10:32:51.428+02:00,41,0.9590018,0,0,41.84445,0,0,2022-06-02T10:38:37.800+02:00,675851917.800199,0,4.808594,101.1334,1,0.92
2022-06-02T10:38:39.125+02:00,1654159115.433108,53.22877648649256,10.39870019039867,40.2193,-1,-1,-1,-1,19.11995315551758,40,-9999,33698.648728375,-0.10894775390625,-0.34185791015625,-0.9089508056640625,33698.639991375,-2.668159806516611,-0.15820109523206,0.2800913725531146,-0.3137552440166473,0.085605189204216,-0.1216515973210335,0.005665943026542664,-0.0760040283203125,0.04438132047653198,XArbitraryZVertical,-0.04342971153274425,-0.1536206486689682,-0.9621727145779425,0.2207674298757139,-0.1514026373624802,-0.2764434516429901,-0.9490290880203247,0,0,0,-1,-1,33697.32904116667,unknown,2,2022-06-02T10:38:37.800+02:00,2022-06-02T10:32:51.428+02:00,41,0.9590018,0,0,41.84445,0,0,2022-06-02T10:38:37.800+02:00,675851917.800199,0,4.808594,101.1334,1,0.92
2022-06-02T10:38:39.135+02:00,1654159115.433108,53.22877648649256,10.39870019039867,40.2193,-1,-1,-1,-1,19.11995315551758,40,-9999,33698.658701375,-0.0858154296875,-0.3438720703125,-0.914703369140625,33698.649964375,-2.669909984086038,-0.1567964197695939,0.277215033659749,-0.3095874786376953,0.09507708996534348,-0.1191977187991142,0.02493354678153992,-0.06949213147163391,0.04741919040679932,XArbitraryZVertical,-0.04323518044239792,-0.1520511805660571,-0.9625634728886933,0.2201881822245721,-0.1501929610967636,-0.2736780643463135,-0.9500223398208618,0,0,0,-1,-1,33697.32904116667,unknown,2,2022-06-02T10:38:37.800+02:00,2022-06-02T10:32:51.428+02:00,41,0.9590018,0,0,41.84445,0,0,2022-06-02T10:38:37.800+02:00,675851917.800199,0,4.808594,101.1334,1,0.92
2022-06-02T10:38:39.145+02:00,1654159115.433108,53.22877648649256,10.39870019039867,40.2193,-1,-1,-1,-1,19.11995315551758,40,-9999,33698.668673375,-0.089996337890625,-0.3371429443359375,-0.9243316650390625,33698.659937375,-2.671677013523814,-0.155518453669133,0.2743624793978617,-0.3095070421695709,0.06233777850866318,-0.1281688511371613,0.05122916400432587,-0.07077202200889587,0.03870368003845215,XArbitraryZVertical,-0.04309701811636513,-0.1505065181017229,-0.9629496623501574,0.2195869514751602,-0.1490990519523621,-0.2709333300590515,-0.9509808421134949,0,0,0,-1,-1,33697.32904116667,unknown,2,2022-06-02T10:38:37.800+02:00,2022-06-02T10:32:51.428+02:00,41,0.9590018,0,0,41.84445,0,0,2022-06-02T10:38:37.800+02:00,675851917.800199,0,4.808594,101.1334,1,0.92
2022-06-02T10:38:39.155+02:00,1654159115.433108,53.22877648649256,10.39870019039867,40.2193,-1,-1,-1,-1,19.11995315551758,40,-9999,33698.678646375,-0.09063720703125,-0.322601318359375,-0.9323272705078125,33698.669909375,-2.673502588042257,-0.154473691077285,0.2715665566062526,-0.2962368428707123,0.04911429435014725,-0.1299861669540405,0.06275691092014313,-0.07604312896728516,0.03314924240112305,XArbitraryZVertical,-0.04306575970058915,-0.1490130721686897,-0.9633317906334916,0.2189343572248787,-0.1482213884592056,-0.26824089884758,-0.9518808722496033,0,0,0,-1,-1,33697.32904116667,unknown,2,2022-06-02T10:38:37.800+02:00,2022-06-02T10:32:51.428+02:00,41,0.9590018,0,0,41.84445,0,0,2022-06-02T10:38:37.800+02:00,675851917.800199,0,4.808594,101.1334,1,0.92
2022-06-02T10:38:39.165+02:00,1654159115.433108,53.22877648649256,10.39870019039867,40.2193,-1,-1,-1,-1,19.11995315551758,40,-9999,33698.688619375,-0.091766357421875,-0.32373046875,-0.9391632080078125,33698.679882375,-2.675312661293938,-0.1535466310814057,0.2690274636944196,-0.2647508084774017,0.03687600418925285,-0.1344884932041168,0.05556938052177429,-0.06574898958206177,0.02437371015548706,XArbitraryZVertical,-0.04305651905611554,-0.1476556431154663,-0.963693089491561,0.2182647098849257,-0.1474425792694092,-0.2657940089702606,-0.9526879191398621,0,0,0,-1,-1,33697.32904116667,unknown,2,2022-06-02T10:38:37.800+02:00,2022-06-02T10:32:51.428+02:00,41,0.9590018,0,0,41.84445,0,0,2022-06-02T10:38:37.800+02:00,675851917.800199,0,4.808594,101.1334,1,0.92
2022-06-02T10:38:39.175+02:00,1654159115.433108,53.22877648649256,10.39870019039867,40.2193,-1,-1,-1,-1,19.11995315551758,40,-9999,33698.698591375,-0.0976409912109375,-0.3316192626953125,-0.9439697265625,33698.689855375,-2.677069258665218,-0.1527173397385753,0.2667242446854399,-0.2471026033163071,0.03287212178111076,-0.1273392289876938,0.05682514607906342,-0.05600714683532715,0.01867425441741943,XArbitraryZVertical,-0.04305985498470243,-0.1464228785120726,-0.9640315179770045,0.2175995027596144,-0.1467452049255371,-0.2635729312896729,-0.9534123539924622,0,0,0,-1,-1,33697.32904116667,unknown,2,2022-06-02T10:38:37.800+02:00,2022-06-02T10:32:51.428+02:00,41,0.9590018,0,0,41.84445,0,0,2022-06-02T10:38:37.800+02:00,675851917.800199,0,4.808594,101.1334,1,0.92
2022-06-02T10:38:39.185+02:00,1654159115.433108,53.22877648649256,10.39870019039867,40.2193,-1,-1,-1,-1,19.11995315551758,40,-9999,33698.708564375,-0.094573974609375,-0.3333282470703125,-0.9508514404296875,33698.699827375,-2.678705812866147,-0.1519522132661127,0.264566047089947,-0.2298786193132401,0.02518037892878056,-0.115147277712822,0.05108495056629181,-0.06663456559181213,0.01232725381851196,XArbitraryZVertical,-0.04306598142955029,-0.1452690614774949,-0.964345741501059,0.2169782528145185,-0.1461014449596405,-0.2614904344081879,-0.9540844559669495,0,0,0,-1,-1,33697.32904116667,unknown,2,2022-06-02T10:38:37.800+02:00,2022-06-02T10:32:51.428+02:00,41,0.9590018,0,0,41.84445,0,0,2022-06-02T10:38:37.800+02:00,675851917.800199,0,4.808594,101.1334,1,0.92
2022-06-02T10:38:39.195+02:00,1654159115.433108,53.22877648649256,10.39870019039867,40.2193,-1,-1,-1,-1,19.11995315551758,40,-9999,33698.718537375,-0.0927581787109375,-0.3377227783203125,-0.9487457275390625,33698.709800375,-2.680162036715812,-0.1511485048889349,0.2624499959697406,-0.2363892048597336,0.04887194558978081,-0.09859787672758102,0.04921092092990875,-0.07186666131019592,0.009281396865844727,XArbitraryZVertical,-0.04303353086919171,-0.144134997968712,-0.9646375254039146,0.2164431507006424,-0.1454175859689713,-0.2594474256038666,-0.954746425151825,0,0,0,-1,-1,33697.32904116667,unknown,2,2022-06-02T10:38:37.800+02:00,2022-06-02T10:32:51.428+02:00,41,0.9590018,0,0,41.84445,0,0,2022-06-02T10:38:37.800+02:00,675851917.800199,0,4.808594,101.1334,1,0.92
2022-06-02T10:38:39.205+02:00,1654159115.433108,53.22877648649256,10.39870019039867,40.2193,-1,-1,-1,-1,19.11995315551758,40,-9999,33698.728509375,-0.0869140625,-0.333465576171875,-0.9419708251953125,33698.719773375,-2.681445092243546,-0.1502820600207291,0.2602504845557395,-0.2406041771173477,0.05130447819828987,-0.08191503584384918,0.05112373828887939,-0.07858434319496155,0.003132998943328857,XArbitraryZVertical,-0.04296645749699956,-0.1429576524594731,-0.964915216720767,0.2159989431513799,-0.1446753740310669,-0.2573226094245911,-0.9554339647293091,0,0,0,-1,-1,33697.32904116667,unknown,2,2022-06-02T10:38:37.800+02:00,2022-06-02T10:32:51.428+02:00,41,0.9590018,0,0,41.84445,0,0,2022-06-02T10:38:37.800+02:00,675851917.800199,0,4.808594,101.1334,1,0.92
2022-06-02T10:38:39.215+02:00,1654159115.433108,53.22877648649256,10.39870019039867,40.2193,-1,-1,-1,-1,19.11995315551758,40,-9999,33698.738482375,-0.084930419921875,-0.32305908203125,-0.942169189453125,33698.729745375,-2.682569627743461,-0.1494806204120133,0.2579702245077027,-0.2427766174077988,0.04942544177174568,-0.06261853128671646,0.05400025844573975,-0.08152094483375549,0.01061654090881348,XArbitraryZVertical,-0.04292730776657191,-0.1417517565392561,-0.9651776041071926,0.2156293221156034,-0.1439966261386871,-0.2551184594631195,-0.9561273455619812,0,0,0,-1,-1,33697.32904116667,unknown,2,2022-06-02T10:38:37.800+02:00,2022-06-02T10:32:51.428+02:00,41,0.9590018,0,0,41.84445,0,0,2022-06-02T10:38:37.800+02:00,675851917.800199,0,4.808594,101.1334,1,0.92
2022-06-02T10:38:39.225+02:00,1654159115.433108,53.22877648649256,10.39870019039867,40.2193,-1,-1,-1,-1,19.11995315551758,40,-9999,33698.748455375,-0.081573486328125,-0.3075103759765625,-0.9479217529296875,33698.739718375,-2.683501777258526,-0.1487081478801415,0.2556781846556769,-0.2425145506858826,0.05110083520412445,-0.04580119624733925,0.05777294933795929,-0.0783514678478241,0.01530104875564575,XArbitraryZVertical,-0.04288850297312456,-0.1405472439847416,-0.9654179099238771,0.2153496486377429,-0.1433442533016205,-0.2529016137123108,-0.9568141102790833,0,0,0,-1,-1,33697.32904116667,unknown,2,2022-06-02T10:38:37.800+02:00,2022-06-02T10:32:51.428+02:00,41,0.9590018,0,0,41.84445,0,0,2022-06-02T10:38:37.800+02:00,675851917.800199,0,4.808594,101.1334,1,0.92
2022-06-02T10:38:39.234+02:00,1654159115.433108,53.22877648649256,10.39870019039867,40.2193,-1,-1,-1,-1,19.11995315551758,40,-9999,33698.758427375,-0.0754547119140625,-0.2931365966796875,-0.957244873046875,33698.749691375,-2.684274200867634,-0.1479093594719816,0.2534167759122326,-0.2278958410024643,0.05875227600336075,-0.02862838096916676,0.05889306962490082,-0.064655601978302,0.01339972019195557,XArbitraryZVertical,-0.04282102765373611,-0.1393578289655509,-0.9656386472259795,0.2151459995002261,-0.142663836479187,-0.2507130801677704,-0.9574915170669556,0,0,0,-1,-1,33697.32904116667,unknown,2,2022-06-02T10:38:37.800+02:00,2022-06-02T10:32:51.428+02:00,41,0.9590018,0,0,41.84445,0,0,2022-06-02T10:38:37.800+02:00,675851917.800199,0,4.808594,101.1334,1,0.92
2022-06-02T10:38:39.244+02:00,1654159115.433108,53.22877648649256,10.39870019039867,40.2193,-1,-1,-1,-1,19.11995315551758,40,-9999,33698.768400375,-0.0818023681640625,-0.281951904296875,-0.973541259765625,33698.759663375,-2.684849859303149,-0.1471987156442636,0.2513035906637515,-0.2086475789546967,0.04572435840964317,-0.02154437080025673,0.06407308578491211,-0.05359454452991486,0.008392333984375,XArbitraryZVertical,-0.04276418802950849,-0.1382531476237327,-0.9658273733683661,0.2150226139570274,-0.1420607566833496,-0.2486668080091476,-0.9581145644187927,0,0,0,-1,-1,33697.32904116667,unknown,2,2022-06-02T10:38:37.800+02:00,2022-06-02T10:32:51.428+02:00,41,0.9590018,0,0,41.84445,0,0,2022-06-02T10:38:37.800+02:00,675851917.800199,0,4.808594,101.1334,1,0.92
2022-06-02T10:38:39.254+02:00,1654159115.433108,53.22877648649256,10.39870019039867,40.2193,-1,-1,-1,-1,19.11995315551758,40,-9999,33698.778373375,-0.0731201171875,-0.2787322998046875,-0.9815216064453125,33698.769636375,-2.685310575398129,-0.1465800063742196,0.2494823369698218,-0.1677855551242828,0.04281343519687653,-0.005948146339505911,0.06339356303215027,-0.04064954817295074,-0.004562318325042725,XArbitraryZVertical,-0.04270913969889879,-0.1373009960878607,-0.9659855612229235,0.2149329589233676,-0.141533836722374,-0.2469023615121841,-0.9586487412452698,0,0,0,-1,-1,33697.32904116667,unknown,2,2022-06-02T10:38:37.800+02:00,2022-06-02T10:32:51.428+02:00,41,0.9590018,0,0,41.84445,0,0,2022-06-02T10:38:37.800+02:00,675851917.800199,0,4.808594,101.1334,1,0.92
2022-06-02T10:38:39.264+02:00,1654159115.433108,53.22877648649256,10.39870019039867,40.2193,-1,-1,-1,-1,19.11995315551758,40,-9999,33698.788345375,-0.061187744140625,-0.2758331298828125,-0.9868316650390625,33698.779609375,-2.68553275913227,-0.1460838780152849,0.2480025578470043,-0.1329740583896637,0.03369636833667755,0.004533789120614529,0.05991920828819275,-0.03536991775035858,-0.01836824417114258,XArbitraryZVertical,-0.04265680592351558,-0.1365312054605757,-0.9660970739759797,0.2149325919031559,-0.1411112397909164,-0.2454681247472763,-0.9590792655944824,0,0,0,-1,-1,33697.32904116667,unknown,2,2022-06-02T10:38:37.800+02:00,2022-06-02T10:32:51.428+02:00,41,0.9590018,0,0,41.84445,0,0,2022-06-02T10:38:37.800+02:00,675851917.800199,0,4.808594,101.1334,1,0.92
2022-06-02T10:38:39.274+02:00,1654159115.433108,53.22877648649256,10.39870019039867,40.2193,-1,-1,-1,-1,19.11995315551758,40,-9999,33698.798318375,-0.0705718994140625,-0.27813720703125,-0.995452880859375,33698.789581375,-2.685647366388671,-0.1458258215008024,0.2468029032548627,-0.110316090285778,0.002934017684310675,0.009344102814793587,0.07286746799945831,-0.03473250567913055,-0.02364116907119751,XArbitraryZVertical,-0.04267939462799551,-0.1359239498977299,-0.9661769958087313,0.2149537725295656,-0.140906423330307,-0.2443049997091293,-0.959406316280365,0,0,0,-1,-1,33697.32904116667,unknown,2,2022-06-02T10:38:37.800+02:00,2022-06-02T10:32:51.428+02:00,41,0.9590018,0,0,41.84445,0,0,2022-06-02T10:38:37.800+02:00,675851917.800199,0,4.808594,101.1334,1,0.92
2022-06-02T10:38:39.285+02:00,1654159115.433108,53.22877648649256,10.39870019039867,40.2193,-1,-1,-1,-1,19.11995315551758,40,-9999,33698.808291375,-0.0777435302734375,-0.2650299072265625,-0.9963531494140625,33698.799554375,-2.685895195384546,-0.1448826311322436,0.2477592591055242,-0.08796577900648117,-0.01351233292371035,0.02024575136601925,0.0770709216594696,-0.03047880530357361,-0.03147655725479126,XArbitraryZVertical,-0.04212950760197258,-0.136277412987343,-0.9661741449971761,0.2148514033750288,-0.1399676650762558,-0.2452322542667389,-0.9593071341514587,0,0,0,-1,-1,33697.32904116667,unknown,2,2022-06-02T10:38:37.800+02:00,2022-06-02T10:32:51.428+02:00,41,0.9590018,0,0,41.84445,0,0,2022-06-02T10:38:37.800+02:00,675851917.800199,0,4.808594,101.1334,1,0.92
2022-06-02T10:38:39.294+02:00,1654159115.433108,53.22877648649256,10.39870019039867,40.2193,-1,-1,-1,-1,19.11995315551758,40,-9999,33698.818263375,-0.07733154296875,-0.2596893310546875,-1.001022338867188,33698.809527375,-2.685980408986697,-0.1441510840560286,0.2487468707854858,-0.06823473423719406,-0.03104880452156067,0.02733936905860901,0.06374573707580566,-0.02936887741088867,-0.03791642189025879,XArbitraryZVertical,-0.04166723692454205,-0.136672144562584,-0.966147252980877,0.2148119544333718,-0.1392309963703156,-0.2461895942687988,-0.9591691493988037,0,0,0,-1,-1,33697.32904116667,unknown,2,2022-06-02T10:38:37.800+02:00,2022-06-02T10:32:51.428+02:00,41,0.9590018,0,0,41.84445,0,0,2022-06-02T10:38:37.800+02:00,675851917.800199,0,4.808594,101.1334,1,0.92
2022-06-02T10:38:39.305+02:00,1654159115.433108,53.22877648649256,10.39870019039867,40.2193,-1,-1,-1,-1,19.11995315551758,40,-9999,33698.828236375,-0.086029052734375,-0.2640533447265625,-1.007369995117188,33698.819499375,-2.685901467519008,-0.1437774993743509,0.2495443288482883,-0.05756264552474022,-0.05029706656932831,0.04368425533175468,0.06137560307979584,-0.01382553577423096,-0.0389745831489563,XArbitraryZVertical,-0.04138876946022794,-0.1370172662639005,-0.9661048413896541,0.2148367862743955,-0.1388444751501083,-0.2469624280929565,-0.9590264558792114,0,0,0,-1,-1,33697.32904116667,unknown,2,2022-06-02T10:38:37.800+02:00,2022-06-02T10:32:51.428+02:00,41,0.9590018,0,0,41.84445,0,0,2022-06-02T10:38:37.800+02:00,675851917.800199,0,4.808594,101.1334,1,0.92
2022-06-02T10:38:39.318+02:00,1654159115.433108,53.22877648649256,10.39870019039867,40.2193,-1,-1,-1,-1,19.11995315551758,40,-9999,33698.838209375,-0.09033203125,-0.2589111328125,-1.006271362304688,33698.829472375,-2.68567158710058,-0.1435280677424014,0.2501000219870543,-0.04093240201473236,-0.05363614112138748,0.05389927700161934,0.05927041172981262,-0.01363807916641235,-0.04481327533721924,XArbitraryZVertical,-0.04118797836791886,-0.1372625150741819,-0.9660561023993318,0.2149378383606196,-0.1385856121778488,-0.247500866651535,-0.9589251279830933,0,0,0,-1,-1,33697.32904116667,unknown,2,2022-06-02T10:38:37.800+02:00,2022-06-02T10:32:51.428+02:00,41,0.9590018,0,0,41.84445,0,0,2022-06-02T10:38:37.800+02:00,675851917.800199,0,4.808594,101.1334,1,0.92
2022-06-02T10:38:39.335+02:00,1654159115.433108,53.22877648649256,10.39870019039867,40.2193,-1,-1,-1,-1,19.11995315551758,40,-9999,33698.848181375,-0.0880584716796875,-0.251953125,-1.0057373046875,33698.839445375,-2.685200072786823,-0.1433764997314486,0.25053177091886,-0.01972618326544762,-0.05845459923148155,0.08526811003684998,0.05065642297267914,-0.01505081355571747,-0.04868233203887939,XArbitraryZVertical,-0.04103219978025526,-0.1374635760188434,-0.9659858064672916,0.2151549645996891,-0.1384249925613403,-0.2479191571474075,-0.9588402509689331,0,0,0,-1,-1,33697.32904116667,unknown,2,2022-06-02T10:38:37.800+02:00,2022-06-02T10:32:51.428+02:00,41,0.9590018,0,0,41.84445,0,0,2022-06-02T10:38:37.800+02:00,675851917.800199,0,4.808594,101.1334,1,0.92
2022-06-02T10:38:39.339+02:00,1654159115.433108,53.22877648649256,10.39870019039867,40.2193,-1,-1,-1,-1,19.11995315551758,40,-9999,33698.858154375,-0.091094970703125,-0.2545013427734375,-1.004638671875,33698.849417375,-2.684434106728391,-0.143363738270113,0.2508735342307076,0.003583401441574097,-0.05355118587613106,0.1063568890094757,0.0493503212928772,-0.007380262017250061,-0.04710125923156738,XArbitraryZVertical,-0.04093358583352744,-0.1376422738194521,-0.965885531959457,0.2155090795935823,-0.1384006291627884,-0.2482502460479736,-0.9587581157684326,0,0,0,-1,-1,33697.32904116667,unknown,2,2022-06-02T10:38:37.800+02:00,2022-06-02T10:32:51.428+02:00,41,0.9590018,0,0,41.84445,0,0,2022-06-02T10:38:37.800+02:00,675851917.800199,0,4.808594,101.1334,1,0.92
2022-06-02T10:38:39.344+02:00,1654159115.433108,53.22877648649256,10.39870019039867,40.2193,-1,-1,-1,-1,19.11995315551758,40,-9999,33698.868127375,-0.0920867919921875,-0.2563934326171875,-1.00128173828125,33698.859390375,-2.683468406648036,-0.1434676735161549,0.2511345306654533,0.01460915431380272,-0.05549103021621704,0.1121332868933678,0.04939493536949158,-0.003541618585586548,-0.04681360721588135,XArbitraryZVertical,-0.04088684876633288,-0.1377987482938953,-0.9657654586375853,0.2159555281862388,-0.1384910196065903,-0.2485030591487885,-0.9586795568466187,0,0,0,-1,-1,33697.32904116667,unknown,2,2022-06-02T10:38:37.800+02:00,2022-06-02T10:32:51.428+02:00,41,0.9590018,0,0,41.84445,0,0,2022-06-02T10:38:37.800+02:00,675851917.800199,0,4.808594,101.1334,1,0.92
2022-06-02T10:38:39.354+02:00,1654159115.433108,53.22877648649256,10.39870019039867,40.2193,-1,-1,-1,-1,19.11995315551758,40,-9999,33698.878099375,-0.0936737060546875,-0.2556915283203125,-0.997161865234375,33698.869363375,-2.682439419781715,-0.1435678014612405,0.2514683546544628,0.03265011683106422,-0.05905451625585556,0.1165272742509842,0.04726651310920715,-0.007338181138038635,-0.0444682240486145,XArbitraryZVertical,-0.04082524292818297,-0.1379910963712209,-0.9656345699003207,0.2164291700863115,-0.1385751217603683,-0.2488263994455338,-0.9585835337638855,0,0,0,-1,-1,33697.32904116667,unknown,2,2022-06-02T10:38:37.800+02:00,2022-06-02T10:32:51.428+02:00,41,0.9590018,0,0,41.84445,0,0,2022-06-02T10:38:37.800+02:00,675851917.800199,0,4.808594,101.1334,1,0.92
2022-06-02T10:38:39.364+02:00,1654159115.433108,53.22877648649256,10.39870019039867,40.2193,-1,-1,-1,-1,19.11995315551758,40,-9999,33698.888072375,-0.0994873046875,-0.2537384033203125,-0.99249267578125,33698.879335375,-2.681354277208106,-0.1437238665402564,0.2519450362676631,0.05978240072727203,-0.06671936064958572,0.1173163801431656,0.0463462620973587,-0.006586566567420959,-0.04115885496139526,XArbitraryZVertical,-0.0407698202650604,-0.1382592917171467,-0.9654886535494793,0.2169189710024702,-0.1387077271938324,-0.2492880672216415,-0.958444356918335,0,0,0,-1,-1,33697.32904116667,unknown,2,2022-06-02T10:38:37.800+02:00,2022-06-02T10:32:51.428+02:00,41,0.9590018,0,0,41.84445,0,0,2022-06-02T10:38:37.800+02:00,675851917.800199,0,4.808594,101.1334,1,0.92
2022-06-02T10:38:39.374+02:00,1654159115.433108,53.22877648649256,10.39870019039867,40.2193,-1,-1,-1,-1,19.11995315551758,40,-9999,33698.898045375,-0.10400390625,-0.2578887939453125,-0.9949951171875,33698.889308375,-2.680204790857824,-0.1441136960543004,0.2526007312703341,0.07582710683345795,-0.06399290263652802,0.1164588630199432,0.04376669228076935,-0.004578381776809692,-0.03473740816116333,XArbitraryZVertical,-0.04080144543816269,-0.1386402109993004,-0.9653211951228382,0.2174146970220778,-0.139057844877243,-0.2499230057001114,-0.9582282900810242,0,0,0,-1,-1,33697.32904116667,unknown,2,2022-06-02T10:38:37.800+02:00,2022-06-02T10:32:51.428+02:00,41,0.9590018,0,0,41.84445,0,0,2022-06-02T10:38:37.800+02:00,675851917.800199,0,4.808594,101.1334,1,0.92
2022-06-02T10:38:39.384+02:00,1654159115.433108,53.22877648649256,10.39870019039867,40.2193,-1,-1,-1,-1,19.11995315551758,40,-9999,33698.908017375,-0.1085357666015625,-0.25543212890625,-1.000396728515625,33698.899281375,-2.678984585299327,-0.144590258355134,0.2532635286596718,0.08318408578634262,-0.07509083300828934,0.1197521239519119,0.03647848963737488,-0.004333347082138062,-0.03620386123657227,XArbitraryZVertical,-0.04086873193133403,-0.1390354907271954,-0.9651434944585849,0.2179378746248958,-0.1394905745983124,-0.2505647242069244,-0.957997739315033,0,0,0,-1,-1,33697.32904116667,unknown,2,2022-06-02T10:38:37.800+02:00,2022-06-02T10:32:51.428+02:00,41,0.9590018,0,0,41.84445,0,0,2022-06-02T10:38:37.800+02:00,675851917.800199,0,4.808594,101.1334,1,0.92
2022-06-02T10:38:39.394+02:00,1654159115.433108,53.22877648649256,10.39870019039867,40.2193,-1,-1,-1,-1,19.11995315551758,40,-9999,33698.917990375,-0.1199493408203125,-0.2516937255859375,-1.0093994140625,33698.909253375,-2.677778496193232,-0.1452532779075036,0.2539760160685294,0.101614847779274,-0.09152715653181076,0.1151553243398666,0.03507357835769653,-0.005596816539764404,-0.03809088468551636,XArbitraryZVertical,-0.04102060039945689,-0.1394748087953687,-0.9649604888349687,0.2184384709093699,-0.1400998383760452,-0.2512544095516205,-0.9577281475067139,0,0,0,-1,-1,33697.32904116667,unknown,2,2022-06-02T10:38:37.800+02:00,2022-06-02T10:32:51.428+02:00,41,0.9590018,0,0,41.84445,0,0,2022-06-02T10:38:37.800+02:00,675851917.800199,0,4.808594,101.1334,1,0.92
2022-06-02T10:38:39.404+02:00,1654159115.433108,53.22877648649256,10.39870019039867,40.2193,-1,-1,-1,-1,19.11995315551758,40,-9999,33698.927963375,-0.1284942626953125,-0.25146484375,-1.017532348632812,33698.919226375,-2.676482478187423,-0.1461356932518554,0.254847549142966,0.1123774796724319,-0.09186457842588425,0.1246857196092606,0.02871508896350861,-0.0006639361381530762,-0.04671740531921387,XArbitraryZVertical,-0.04125261590806265,-0.1400165603773296,-0.9647541857125558,0.2189587300538413,-0.1409129649400711,-0.252097874879837,-0.9573871493339539,0,0,0,-1,-1,33697.32904116667,unknown,2,2022-06-02T10:38:37.800+02:00,2022-06-02T10:32:51.428+02:00,41,0.9590018,0,0,41.84445,0,0,2022-06-02T10:38:37.800+02:00,675851917.800199,0,4.808594,101.1334,1,0.92
2022-06-02T10:38:39.414+02:00,1654159115.433108,53.22877648649256,10.39870019039867,40.2193,-1,-1,-1,-1,19.11995315551758,40,-9999,33698.937936375,-0.1390838623046875,-0.25103759765625,-1.020309448242188,33698.929199375,-2.675152816011964,-0.1470691857067301,0.2557569960438025,0.1136182472109795,-0.09182169288396835,0.1206362470984459,0.01784105598926544,0.0005974769592285156,-0.05716264247894287,XArbitraryZVertical,-0.04150165064935608,-0.1405830835828,-0.9645405645550315,0.2194891016305767,-0.1417729556560516,-0.2529778480529785,-0.9570280313491821,0,0,0,-1,-1,33697.32904116667,unknown,2,2022-06-02T10:38:37.800+02:00,2022-06-02T10:32:51.428+02:00,41,0.9590018,0,0,41.84445,0,0,2022-06-02T10:38:37.800+02:00,675851917.800199,0,4.808594,101.1334,1,0.92
2022-06-02T10:38:39.424+02:00,1654159115.433108,53.22877648649256,10.39870019039867,40.2193,-1,-1,-1,-1,19.11995315551758,40,-9999,33698.947908375,-0.1360931396484375,-0.252197265625,-1.015869140625,33698.939172375,-2.673816931460905,-0.1479599465294456,0.2565782348787246,0.1035933122038841,-0.07778444141149521,0.1296342611312866,0.01027047634124756,0.00296357274055481,-0.0615234375,XArbitraryZVertical,-0.04173935897466552,-0.1411029873983625,-0.964331298712736,0.2200292579532959,-0.1425947099924088,-0.2537722885608673,-0.956695556640625,0,0,0,-1,-1,33697.32904116667,unknown,2,2022-06-02T10:38:37.800+02:00,2022-06-02T10:32:51.428+02:00,41,0.9590018,0,0,41.84445,0,0,2022-06-02T10:38:37.800+02:00,675851917.800199,0,4.808594,101.1334,1,0.92
2022-06-02T10:38:39.434+02:00,1654159115.433108,53.22877648649256,10.39870019039867,40.2193,-1,-1,-1,-1,19.11995315551758,40,-9999,33698.957881375,-0.1257171630859375,-0.2599334716796875,-1.005279541015625,33698.949144375,-2.672372438428549,-0.1487291278388078,0.2573336009007151,0.09667934477329254,-0.05714147910475731,0.1401884406805038,0.004050374031066895,0.002519190311431885,-0.06290662288665771,XArbitraryZVertical,-0.04191791689873556,-0.141580443240191,-0.9641155692792178,0.2206330960254957,-0.1433020979166031,-0.2545028626918793,-0.9563957452774048,0,0,0,-1,-1,33697.32904116667,unknown,2,2022-06-02T10:38:37.800+02:00,2022-06-02T10:32:51.428+02:00,41,0.9590018,0,0,41.84445,0,0,2022-06-02T10:38:37.800+02:00,675851917.800199,0,4.808594,101.1334,1,0.92
2022-06-02T10:38:39.444+02:00,1654159115.433108,53.22877648649256,10.39870019039867,40.2193,-1,-1,-1,-1,19.11995315551758,40,-9999,33698.96785437501,-0.1237945556640625,-0.2670440673828125,-0.990264892578125,33698.959117375,-2.670835224798955,-0.1493565152295879,0.2579578257492341,0.07989024370908737,-0.04231007024645805,0.1476530134677887,0.01140160858631134,0.001703768968582153,-0.05622649192810059,XArbitraryZVertical,-0.04203657515083316,-0.1419815130208083,-0.9638990332996322,0.2212978313186416,-0.1438784301280975,-0.2551064789295197,-0.9561483263969421,0,0,0,-1,-1,33697.32904116667,unknown,2,2022-06-02T10:38:37.800+02:00,2022-06-02T10:32:51.428+02:00,41,0.9590018,0,0,41.84445,0,0,2022-06-02T10:38:37.800+02:00,675851917.800199,0,4.808594,101.1334,1,0.92
2022-06-02T10:38:39.454+02:00,1654159115.433108,53.22877648649256,10.39870019039867,40.2193,-1,-1,-1,-1,19.11995315551758,40,-9999,33698.977826375,-0.1228179931640625,-0.2593231201171875,-0.9821319580078125,33698.969090375,-2.669243515387195,-0.1498769324470181,0.2584173243433025,0.06161922961473465,-0.02510232105851173,0.1528961807489395,0.02149470150470734,-0.008548378944396973,-0.04358488321304321,XArbitraryZVertical,-0.04211901005172669,-0.1422930643972022,-0.963687053317585,0.2220044961666739,-0.1443584859371185,-0.255550742149353,-0.9559573531150818,0,0,0,-1,-1,33697.32904116667,unknown,2,2022-06-02T10:38:37.800+02:00,2022-06-02T10:32:51.428+02:00,41,0.9590018,0,0,41.84445,0,0,2022-06-02T10:38:37.800+02:00,675851917.800199,0,4.808594,101.1334,1,0.92
2022-06-02T10:38:39.464+02:00,1654159115.433108,53.22877648649256,10.39870019039867,40.2193,-1,-1,-1,-1,19.11995315551758,40,-9999,33698.98779937501,-0.120819091796875,-0.24920654296875,-0.974578857421875,33698.979062375,-2.667586372604132,-0.1501880489318469,0.2588012229912218,0.06487787514925003,0.01038643065840006,0.1603048294782639,0.02029731869697571,-0.011259526014328,-0.03089427947998047,XArbitraryZVertical,-0.04210461395864554,-0.1425466497241966,-0.9634755217537513,0.2227610267549078,-0.1446412056684494,-0.255921870470047,-0.955815315246582,0,0,0,-1,-1,33697.32904116667,unknown,2,2022-06-02T10:38:37.800+02:00,2022-06-02T10:32:51.428+02:00,41,0.9590018,0,0,41.84445,0,0,2022-06-02T10:38:37.800+02:00,675851917.800199,0,4.808594,101.1334,1,0.92
2022-06-02T10:38:39.474+02:00,1654159115.433108,53.22877648649256,10.39870019039867,40.2193,-1,-1,-1,-1,19.11995315551758,40,-9999,33698.99777237501,-0.1197509765625,-0.24273681640625,-0.97222900390625,33698.989035375,-2.665907992181649,-0.150174099164699,0.2592446269795826,0.08477119356393814,0.03332112729549408,0.1623193472623825,0.02165554463863373,0.004382073879241943,-0.02323782444000244,XArbitraryZVertical,-0.04192451132184578,-0.1427929143674278,-0.9632647289471885,0.2235477721164027,-0.1446108818054199,-0.2563504874706268,-0.9557050466537476,0,0,0,-1,-1,33697.32904116667,unknown,2,2022-06-02T10:38:37.800+02:00,2022-06-02T10:32:51.428+02:00,41,0.9590018,0,0,41.84445,0,0,2022-06-02T10:38:37.800+02:00,675851917.800199,0,4.808594,101.1334,1,0.92
2022-06-02T10:38:39.484+02:00,1654159115.433108,53.22877648649256,10.39870019039867,40.2193,-1,-1,-1,-1,19.11995315551758,40,-9999,33699.00774437501,-0.1204376220703125,-0.249359130859375,-0.968475341796875,33698.999008375,-2.664137064026186,-0.1499024838166859,0.2598295788839369,0.1010801270604134,0.07230155169963837,0.1622706204652786,0.02598169445991516,0.01036432385444641,-0.01527512073516846,XArbitraryZVertical,-0.0415961308151702,-0.1430798423947768,-0.9630404865934731,0.2243899470485492,-0.1443288773298264,-0.2569158673286438,-0.955595850944519,0,0,0,-1,-1,33697.32904116667,unknown,2,2022-06-02T10:38:37.800+02:00,2022-06-02T10:32:51.428+02:00,41,0.9590018,0,0,41.84445,0,0,2022-06-02T10:38:37.800+02:00,675851917.800199,0,4.808594,101.1334,1,0.92
2022-06-02T10:38:39.494+02:00,1654159115.433108,53.22877648649256,10.39870019039867,40.2193,-1,-1,-1,-1,19.11995315551758,40,-9999,33699.01771737501,-0.11578369140625,-0.262664794921875,-0.97021484375,33699.008980375,-2.662414675426922,-0.1493413976086554,0.2606192116588196,0.1202052235603333,0.09702314436435699,0.14546999335289,0.02338585257530212,0.01361456513404846,-0.01663112640380859,XArbitraryZVertical,-0.04110640627367289,-0.1434307351739433,-0.9628159116238411,0.2252189774198168,-0.1437624543905258,-0.257678896188736,-0.9554757475852966,0,0,0,-1,-1,33697.32904116667,unknown,2,2022-06-02T10:38:37.800+02:00,2022-06-02T10:32:51.428+02:00,41,0.9590018,0,0,41.84445,0,0,2022-06-02T10:38:37.800+02:00,675851917.800199,0,4.808594,101.1334,1,0.92
2022-06-02T10:38:39.504+02:00,1654159115.433108,53.22877648649256,10.39870019039867,40.2193,-1,-1,-1,-1,19.11995315551758,40,-9999,33699.02769037501,-0.1099853515625,-0.267791748046875,-0.9702606201171875,33699.018953375,-2.660814210931374,-0.1484728083670409,0.2615004105577841,0.1245640218257904,0.1286899894475937,0.1438175141811371,0.02476528286933899,0.003693193197250366,-0.01281005144119263,XArbitraryZVertical,-0.04046570584684507,-0.1437875471931682,-0.962605156433995,0.2260064990237925,-0.142898827791214,-0.2585302293300629,-0.9553753137588501,0,0,0,-1,-1,33697.32904116667,unknown,2,2022-06-02T10:38:37.800+02:00,2022-06-02T10:32:51.428+02:00,41,0.9590018,0,0,41.84445,0,0,2022-06-02T10:38:37.800+02:00,675851917.800199,0,4.808594,101.1334,1,0.92
2022-06-02T10:38:39.514+02:00,1654159115.433108,53.22877648649256,10.39870019039867,40.2193,-1,-1,-1,-1,19.11995315551758,40,-9999,33699.03766237501,-0.109405517578125,-0.2746734619140625,-0.9706878662109375,33699.028926375,-2.659232669468737,-0.1474360972455503,0.2623712182266933,0.122948095202446,0.146230548620224,0.1303545236587524,0.02990616858005524,-0.006741940975189209,-0.01503700017929077,XArbitraryZVertical,-0.0397462167544285,-0.1441189809233479,-0.9623994316130051,0.2267977129360929,-0.1418751776218414,-0.2593713402748108,-0.9552999138832092,0,0,0,-1,-1,33697.32904116667,unknown,2,2022-06-02T10:38:37.800+02:00,2022-06-02T10:32:51.428+02:00,41,0.9590018,0,0,41.84445,0,0,2022-06-02T10:38:37.800+02:00,675851917.800199,0,4.808594,101.1334,1,0.92
2022-06-02T10:38:39.524+02:00,1654159115.433108,53.22877648649256,10.39870019039867,40.2193,-1,-1,-1,-1,19.11995315551758,40,-9999,33699.04763537501,-0.1118927001953125,-0.27685546875,-0.9664306640625,33699.038898375,-2.657790363941783,-0.1460620094712914,0.2632438326415991,0.1202902644872665,0.1660085171461105,0.1243517622351646,0.03115436434745789,-0.009576648473739624,-0.01483833789825439,XArbitraryZVertical,-0.03887377705946527,-0.1444091082898137,-0.9622148448179335,0.2275463769196007,-0.1405293941497803,-0.2602140009403229,-0.9552696943283081,0,0,0,-1,-1,33697.32904116667,unknown,2,2022-06-02T10:38:37.800+02:00,2022-06-02T10:32:51.428+02:00,41,0.9590018,0,0,41.84445,0,0,2022-06-02T10:38:37.800+02:00,675851917.800199,0,4.808594,101.1334,1,0.92
2022-06-02T10:38:39.534+02:00,1654159115.433108,53.22877648649256,10.39870019039867,40.2193,-1,-1,-1,-1,19.11995315551758,40,-9999,33699.05760837501,-0.1078033447265625,-0.2873687744140625,-0.9605560302734375,33699.048871375,-2.656490676324389,-0.1444545564895763,0.2640360371414356,0.08691952377557755,0.1854072362184525,0.114787682890892,0.02726958692073822,-0.0154188871383667,-0.01486372947692871,XArbitraryZVertical,-0.03790896247623864,-0.1446301806881986,-0.9620540313124568,0.2282476537107114,-0.1389639377593994,-0.2609788477420807,-0.9552900195121765,0,0,0,-1,-1,33697.32904116667,unknown,2,2022-06-02T10:38:37.800+02:00,2022-06-02T10:32:51.428+02:00,41,0.9590018,0,0,41.84445,0,0,2022-06-02T10:38:37.800+02:00,675851917.800199,0,4.808594,101.1334,1,0.92
2022-06-02T10:38:39.544+02:00,1654159115.433108,53.22877648649256,10.39870019039867,40.2193,-1,-1,-1,-1,19.11995315551758,40,-9999,33699.06758037501,-0.0941162109375,-0.2957611083984375,-0.9495391845703125,33699.058844375,-2.655218266748379,-0.142623007688313,0.2645693614881245,0.06167275458574295,0.2154218703508377,0.1178921163082123,0.02516420185565948,-0.01911550760269165,-0.008019626140594482,XArbitraryZVertical,-0.03687011458480408,-0.1446999302215972,-0.9619133628182447,0.2289653187911284,-0.1371942460536957,-0.2614936232566833,-0.955405056476593,0,0,0,-1,-1,33697.32904116667,unknown,2,2022-06-02T10:38:37.800+02:00,2022-06-02T10:32:51.428+02:00,41,0.9590018,0,0,41.84445,0,0,2022-06-02T10:38:37.800+02:00,675851917.800199,0,4.808594,101.1334,1,0.92
2022-06-02T10:38:39.554+02:00,1654159115.433108,53.22877648649256,10.39870019039867,40.2193,-1,-1,-1,-1,19.11995315551758,40,-9999,33699.07755337501,-0.0872039794921875,-0.3092041015625,-0.934967041015625,33699.068816375,-2.654068582162017,-0.1405136015956621,0.2647144134183702,0.02450346387922764,0.2332299798727036,0.1060612127184868,0.03229853510856628,-0.02744412422180176,-0.0003388524055480957,XArbitraryZVertical,-0.03575455204028984,-0.1445483767670274,-0.9618118205350251,0.2296635517133713,-0.1351732909679413,-0.2616336345672607,-0.9556547403335571,0,0,0,-1,-1,33697.32904116667,unknown,2,2022-06-02T10:38:37.800+02:00,2022-06-02T10:32:51.428+02:00,41,0.9590018,0,0,41.84445,0,0,2022-06-02T10:38:37.800+02:00,675851917.800199,0,4.808594,101.1334,1,0.92
2022-06-02T10:38:39.564+02:00,1654159115.433108,53.22877648649256,10.39870019039867,40.2193,-1,-1,-1,-1,19.11995315551758,40,-9999,33699.087526375,-0.0879669189453125,-0.3125,-0.9243011474609375,33699.078789375,-2.653070917717664,-0.1382010427922699,0.2644163119556235,-0.02413304708898067,0.2422128170728683,0.1012331694364548,0.04283997416496277,-0.03954216837882996,0.01208752393722534,XArbitraryZVertical,-0.03460738488190052,-0.1441572875245871,-0.9617543691329875,0.2303249968294001,-0.1329736560583115,-0.2613459229469299,-0.9560419917106628,0,0,0,-1,-1,33697.32904116667,unknown,2,2022-06-02T10:38:37.800+02:00,2022-06-02T10:32:51.428+02:00,41,0.9590018,0,0,41.84445,0,0,2022-06-02T10:38:37.800+02:00,675851917.800199,0,4.808594,101.1334,1,0.92
2022-06-02T10:38:39.574+02:00,1654159115.433108,53.22877648649256,10.39870019039867,40.2193,-1,-1,-1,-1,19.11995315551758,40,-9999,33699.09749837501,-0.0823516845703125,-0.29888916015625,-0.9120635986328125,33699.088762375,-2.652230047502661,-0.1357490867336944,0.2636356605878569,-0.04831011220812798,0.2569583058357239,0.08681166172027588,0.0418352335691452,-0.05041235685348511,0.02428555488586426,XArbitraryZVertical,-0.03346467692210511,-0.1435151551329711,-0.9617424305365868,0.2309437680799697,-0.1306566596031189,-0.2605923116207123,-0.9565670490264893,0,0,0,-1,-1,33697.32904116667,unknown,2,2022-06-02T10:38:37.800+02:00,2022-06-02T10:32:51.428+02:00,41,0.9590018,0,0,41.84445,0,0,2022-06-02T10:38:37.800+02:00,675851917.800199,0,4.808594,101.1334,1,0.92
2022-06-02T10:38:39.584+02:00,1654159115.433108,53.22877648649256,10.39870019039867,40.2193,-1,-1,-1,-1,19.11995315551758,40,-9999,33699.107471375,-0.080535888671875,-0.2880859375,-0.9127349853515625,33699.098734375,-2.651601438718529,-0.132980221681158,0.2627928661412814,-0.06335164606571198,0.2745609879493713,0.07205349206924438,0.04249584674835205,-0.04789969325065613,0.03740370273590088,XArbitraryZVertical,-0.03219283871746052,-0.142801895145497,-0.9617619211753913,0.231484812040769,-0.1280366331338882,-0.2597785294055939,-0.9571424722671509,0,0,0,-1,-1,33697.32904116667,unknown,2,2022-06-02T10:38:37.800+02:00,2022-06-02T10:32:51.428+02:00,41,0.9590018,0,0,41.84445,0,0,2022-06-02T10:38:37.800+02:00,675851917.800199,0,4.808594,101.1334,1,0.92
2022-06-02T10:38:39.593+02:00,1654159115.433108,53.22877648649256,10.39870019039867,40.2193,-1,-1,-1,-1,19.11995315551758,40,-9999,33699.117444375,-0.0803680419921875,-0.279571533203125,-0.904571533203125,33699.108707375,-2.651169217175389,-0.1299111737198251,0.2621931272875848,-0.05638761073350906,0.3027756214141846,0.04258474707603455,0.0443233847618103,-0.0361192524433136,0.04583531618118286,XArbitraryZVertical,-0.03076065095334268,-0.1421659615505931,-0.9617934716824148,0.2319398129826127,-0.1251186728477478,-0.2591993510723114,-0.9576852321624756,0,0,0,-1,-1,33697.32904116667,unknown,2,2022-06-02T10:38:37.800+02:00,2022-06-02T10:32:51.428+02:00,41,0.9590018,0,0,41.84445,0,0,2022-06-02T10:38:37.800+02:00,675851917.800199,0,4.808594,101.1334,1,0.92
2022-06-02T10:38:39.604+02:00,1654159115.433108,53.22877648649256,10.39870019039867,40.2193,-1,-1,-1,-1,19.11995315551758,40,-9999,33699.127416375,-0.080230712890625,-0.266845703125,-0.9115142822265625,33699.118680375,-2.651081968205738,-0.1265293371716327,0.2617679729930911,-0.04617865011096001,0.3210808336734772,0.008490691892802715,0.04025859385728836,-0.02429237961769104,0.04715561866760254,XArbitraryZVertical,-0.02918088903623759,-0.141571233562523,-0.9618575635020158,0.2322414326325278,-0.1218931302428246,-0.2587887048721313,-0.95821213722229,0,0,0,-1,-1,33697.32904116667,unknown,2,2022-06-02T10:38:37.800+02:00,2022-06-02T10:32:51.428+02:00,41,0.9590018,0,0,41.84445,0,0,2022-06-02T10:38:37.800+02:00,675851917.800199,0,4.808594,101.1334,1,0.92
2022-06-02T10:38:39.614+02:00,1654159115.433108,53.22877648649256,10.39870019039867,40.2193,-1,-1,-1,-1,19.11995315551758,40,-9999,33699.137389375,-0.0812530517578125,-0.25848388671875,-0.920928955078125,33699.128652375,-2.651211486948572,-0.1229902801039386,0.2617202360196738,-0.01393420621752739,0.3376570343971252,-0.02209049835801125,0.03789053112268448,-0.01911994814872742,0.05447500944137573,XArbitraryZVertical,-0.02749386518505082,-0.1411354007207773,-0.9619254579455359,0.2324314953797972,-0.1185027211904526,-0.2587426006793976,-0.958649754524231,0,0,0,-1,-1,33697.32904116667,unknown,2,2022-06-02T10:38:37.800+02:00,2022-06-02T10:32:51.428+02:00,41,0.9590018,0,0,41.84445,0,0,2022-06-02T10:38:37.800+02:00,675851917.800199,0,4.808594,101.1334,1,0.92
2022-06-02T10:38:39.624+02:00,1654159115.433108,53.22877648649256,10.39870019039867,40.2193,-1,-1,-1,-1,19.11995315551758,40,-9999,33699.147362375,-0.090087890625,-0.263336181640625,-0.9337615966796875,33699.138625375,-2.651688672186361,-0.1193235399091325,0.2621419946139517,0.01060921885073185,0.3548293709754944,-0.06118969991803169,0.03481937944889069,-0.00258404016494751,0.04580718278884888,XArbitraryZVertical,-0.02571162191626995,-0.1409049622558387,-0.9620060838961769,0.2324415636782779,-0.1149738132953644,-0.259149968624115,-0.9589694142341614,0,0,0,-1,-1,33697.32904116667,unknown,2,2022-06-02T10:38:37.800+02:00,2022-06-02T10:32:51.428+02:00,41,0.9590018,0,0,41.84445,0,0,2022-06-02T10:38:37.800+02:00,675851917.800199,0,4.808594,101.1334,1,0.92
2022-06-02T10:38:39.633+02:00,1654159115.433108,53.22877648649256,10.39870019039867,40.2193,-1,-1,-1,-1,19.11995315551758,40,-9999,33699.157334375,-0.093963623046875,-0.26861572265625,-0.94500732421875,33699.148598375,-2.652537522792134,-0.1152933936021168,0.2630131957975498,0.02080339938402176,0.3648660182952881,-0.09473174810409546,0.02589225023984909,0.0009428262710571289,0.03187793493270874,XArbitraryZVertical,-0.02372510034725777,-0.1408437061919795,-0.9621053802215564,0.2322787298774832,-0.1110820844769478,-0.2599912881851196,-0.9592003226280212,0,0,0,-1,-1,33697.32904116667,unknown,2,2022-06-02T10:38:37.800+02:00,2022-06-02T10:32:51.428+02:00,41,0.9590018,0,0,41.84445,0,0,2022-06-02T10:38:37.800+02:00,675851917.800199,0,4.808594,101.1334,1,0.92
2022-06-02T10:38:39.643+02:00,1654159115.433108,53.22877648649256,10.39870019039867,40.2193,-1,-1,-1,-1,19.11995315551758,40,-9999,33699.167307375,-0.1009979248046875,-0.2764892578125,-0.956085205078125,33699.158570375,-2.653612001123727,-0.1113348860162997,0.2632786422873707,0.01345387473702431,0.3766601085662842,-0.1196155250072479,0.0156322568655014,-0.005804628133773804,0.0230405330657959,XArbitraryZVertical,-0.02186354354945042,-0.1404991949506381,-0.9622601586106907,0.2320288038081273,-0.107276551425457,-0.2602476179599762,-0.9595639109611511,0,0,0,-1,-1,33697.32904116667,unknown,2,2022-06-02T10:38:37.800+02:00,2022-06-02T10:32:51.428+02:00,41,0.9590018,0,0,41.84445,0,0,2022-06-02T10:38:37.800+02:00,675851917.800199,0,4.808594,101.1334,1,0.92
2022-06-02T10:38:39.653+02:00,1654159115.433108,53.22877648649256,10.39870019039867,40.2193,-1,-1,-1,-1,19.11995315551758,40,-9999,33699.177280375,-0.112518310546875,-0.2909698486328125,-0.961090087890625,33699.168543375,-2.654973119328656,-0.1072739292726277,0.2634000366510543,-0.01218743901699781,0.3798604309558868,-0.1456964462995529,0.007336728274822235,-0.009212195873260498,0.009505569934844971,XArbitraryZVertical,-0.01999005656293008,-0.1400724108077442,-0.9624534754353687,0.2316535776115029,-0.1033755466341972,-0.260364830493927,-0.9599602222442627,0,0,0,-1,-1,33697.32904116667,unknown,2,2022-06-02T10:38:37.800+02:00,2022-06-02T10:32:51.428+02:00,41,0.9590018,0,0,41.84445,0,0,2022-06-02T10:38:37.800+02:00,675851917.800199,0,4.808594,101.1334,1,0.92
2022-06-02T10:38:39.663+02:00,1654159115.433108,53.22877648649256,10.39870019039867,40.2193,-1,-1,-1,-1,19.11995315551758,40,-9999,33699.187252375,-0.12237548828125,-0.3023681640625,-0.9608154296875,33699.178516375,-2.656656620555617,-0.103012659419523,0.2632034608724807,-0.05378681421279907,0.3919799327850342,-0.1733616292476654,-0.005508139729499817,-0.02025100588798523,0.000848233699798584,XArbitraryZVertical,-0.01808086649862175,-0.139469069466729,-0.9627001061808259,0.231149209302585,-0.09928923100233078,-0.2601750195026398,-0.9604429006576538,0,0,0,-1,-1,33697.32904116667,unknown,2,2022-06-02T10:38:37.800+02:00,2022-06-02T10:32:51.428+02:00,41,0.9590018,0,0,41.84445,0,0,2022-06-02T10:38:37.800+02:00,675851917.800199,0,4.808594,101.1334,1,0.92
2022-06-02T10:38:39.673+02:00,1654159115.433108,53.22877648649256,10.39870019039867,40.2193,-1,-1,-1,-1,19.11995315551758,40,-9999,33699.197225375,-0.130859375,-0.301605224609375,-0.9586639404296875,33699.188488375,-2.658625646487192,-0.09860354043022931,0.2625599335184921,-0.1082301661372185,0.4007042646408081,-0.1922439336776733,-0.02181229740381241,-0.03776389360427856,-0.0008762478828430176,XArbitraryZVertical,-0.01617350288273662,-0.1386345105905746,-0.9630021728000487,0.2305335143502889,-0.09507004171609879,-0.2595536112785339,-0.9610377550125122,0,0,0,-1,-1,33697.32904116667,unknown,2,2022-06-02T10:38:37.800+02:00,2022-06-02T10:32:51.428+02:00,41,0.9590018,0,0,41.84445,0,0,2022-06-02T10:38:37.800+02:00,675851917.800199,0,4.808594,101.1334,1,0.92
2022-06-02T10:38:39.683+02:00,1654159115.433108,53.22877648649256,10.39870019039867,40.2193,-1,-1,-1,-1,19.11995315551758,40,-9999,33699.207198375,-0.13922119140625,-0.2986297607421875,-0.95660400390625,33699.198461375,-2.660764455674718,-0.09401299671503735,0.2614160342693269,-0.1565273851156235,0.4203647971153259,-0.2012049406766891,-0.0341775119304657,-0.04431617259979248,0.001721799373626709,XArbitraryZVertical,-0.01424906920552995,-0.1375406994553187,-0.9633492260049322,0.2298647587399123,-0.09068518131971359,-0.2584487497806549,-0.9617590308189392,0,0,0,-1,-1,33697.32904116667,unknown,2,2022-06-02T10:38:37.800+02:00,2022-06-02T10:32:51.428+02:00,41,0.9590018,0,0,41.84445,0,0,2022-06-02T10:38:37.800+02:00,675851917.800199,0,4.808594,101.1334,1,0.92
2022-06-02T10:38:39.693+02:00,1654159115.433108,53.22877648649256,10.39870019039867,40.2193,-1,-1,-1,-1,19.11995315551758,40,-9999,33699.217170375,-0.1471405029296875,-0.2824249267578125,-0.9658050537109375,33699.208434375,-2.663018622805363,-0.08921765145191793,0.2598983067898152,-0.1808013916015625,0.4364399909973145,-0.2090047746896744,-0.04882644861936569,-0.04321914911270142,0.004015326499938965,XArbitraryZVertical,-0.01227605547859704,-0.1362464048905758,-0.9637271958634074,0.2291638470224565,-0.086107037961483,-0.2569822669029236,-0.962572455406189,0,0,0,-1,-1,33697.32904116667,unknown,2,2022-06-02T10:38:37.800+02:00,2022-06-02T10:32:51.428+02:00,41,0.9590018,0,0,41.84445,0,0,2022-06-02T10:38:37.800+02:00,675851917.800199,0,4.808594,101.1334,1,0.92
2022-06-02T10:38:39.703+02:00,1654159115.433108,53.22877648649256,10.39870019039867,40.2193,-1,-1,-1,-1,19.11995315551758,40,-9999,33699.227143375,-0.14886474609375,-0.2738494873046875,-0.972991943359375,33699.218406375,-2.665329097171647,-0.0841186412828354,0.2581721402853605,-0.1959031224250793,0.4751690030097961,-0.208156555891037,-0.06117536872625351,-0.0391351580619812,0.005523324012756348,XArbitraryZVertical,-0.01018196281713687,-0.1348204052787931,-0.9641196521539647,0.2284582285761415,-0.08123492449522018,-0.2553136944770813,-0.9634395837783813,0,0,0,-1,-1,33697.32904116667,unknown,2,2022-06-02T10:38:37.800+02:00,2022-06-02T10:32:51.428+02:00,41,0.9590018,0,0,41.84445,0,0,2022-06-02T10:38:37.800+02:00,675851917.800199,0,4.808594,101.1334,1,0.92
2022-06-02T10:38:39.713+02:00,1654159115.433108,53.22877648649256,10.39870019039867,40.2193,-1,-1,-1,-1,19.11995315551758,40,-9999,33699.237116375,-0.1376800537109375,-0.274932861328125,-0.9796295166015625,33699.228379375,-2.667642873009298,-0.07869256665455546,0.2562795425850258,-0.210679903626442,0.5086767077445984,-0.21132692694664,-0.07269878685474396,-0.0234026312828064,-0.004556417465209961,XArbitraryZVertical,-0.0079462789215519,-0.1332808264812435,-0.9645170040604394,0.2277719388499223,-0.07604390382766724,-0.2534833550453186,-0.964346170425415,0,0,0,-1,-1,33697.32904116667,unknown,2,2022-06-02T10:38:37.800+02:00,2022-06-02T10:32:51.428+02:00,41,0.9590018,0,0,41.84445,0,0,2022-06-02T10:38:37.800+02:00,675851917.800199,0,4.808594,101.1334,1,0.92
2022-06-02T10:38:39.723+02:00,1654159115.433108,53.22877648649256,10.39870019039867,40.2193,-1,-1,-1,-1,19.11995315551758,40,-9999,33699.247089375,-0.1302490234375,-0.26849365234375,-0.983123779296875,33699.238352375,-2.669941009791999,-0.07293335960942872,0.2543050790422301,-0.2086982429027557,0.5370007753372192,-0.202476441860199,-0.07525734603404999,-0.0216815173625946,-0.01007640361785889,XArbitraryZVertical,-0.005554305996880117,-0.1316679661198362,-0.9649111570022393,0.2271103519828788,-0.07052513957023621,-0.2515729069709778,-0.9652653932571411,0,0,0,-1,-1,33697.32904116667,unknown,2,2022-06-02T10:38:37.800+02:00,2022-06-02T10:32:51.428+02:00,41,0.9590018,0,0,41.84445,0,0,2022-06-02T10:38:37.800+02:00,675851917.800199,0,4.808594,101.1334,1,0.92
2022-06-02T10:38:39.733+02:00,1654159115.433108,53.22877648649256,10.39870019039867,40.2193,-1,-1,-1,-1,19.11995315551758,40,-9999,33699.257061375,-0.1253509521484375,-0.27313232421875,-0.9833984375,33699.248325375,-2.672137960315451,-0.06699078957381477,0.2524342321489692,-0.1870918273925781,0.5534477829933167,-0.1976620852947235,-0.06982441246509552,-0.02274495363235474,-0.01549303531646729,XArbitraryZVertical,-0.003050690895625563,-0.1300884851585961,-0.9652804146417898,0.2264982159108422,-0.06481916457414627,-0.249761775135994,-0.9661353826522827,0,0,0,-1,-1,33697.32904116667,unknown,2,2022-06-02T10:38:37.800+02:00,2022-06-02T10:32:51.428+02:00,41,0.9590018,0,0,41.84445,0,0,2022-06-02T10:38:37.800+02:00,675851917.800199,0,4.808594,101.1334,1,0.92
2022-06-02T10:38:39.743+02:00,1654159115.433108,53.22877648649256,10.39870019039867,40.2193,-1,-1,-1,-1,19.11995315551758,40,-9999,33699.267034375,-0.1198272705078125,-0.2810821533203125,-0.9797515869140625,33699.258297375,-2.67429670023318,-0.06096699315643559,0.2508087769418955,-0.1591049283742905,0.5574989914894104,-0.201012596487999,-0.06957820802927017,-0.02087073028087616,-0.01712709665298462,XArbitraryZVertical,-0.00047265056513799,-0.1286221649854089,-0.9656230347722587,0.2258944784930685,-0.05902287736535072,-0.2481875121593475,-0.9669122099876404,0,0,0,-1,-1,33697.32904116667,unknown,2,2022-06-02T10:38:37.800+02:00,2022-06-02T10:32:51.428+02:00,41,0.9590018,0,0,41.84445,0,0,2022-06-02T10:38:37.800+02:00,675851917.800199,0,4.808594,101.1334,1,0.92
2022-06-02T10:38:39.753+02:00,1654159115.433108,53.22877648649256,10.39870019039867,40.2193,-1,-1,-1,-1,19.11995315551758,40,-9999,33699.277007375,-0.1125335693359375,-0.2996063232421875,-0.9704742431640625,33699.268270375,-2.676368259801218,-0.05485356509855057,0.2494677411339498,-0.1267786920070648,0.5738816261291504,-0.1922512054443359,-0.07039104402065277,-0.02804467082023621,-0.0139961838722229,XArbitraryZVertical,0.002190932930566537,-0.1272869854580498,-0.9659309422443887,0.2253232848036749,-0.05312886461615562,-0.24688820540905,-0.9675864577293396,0,0,0,-1,-1,33697.32904116667,unknown,2,2022-06-02T10:38:37.800+02:00,2022-06-02T10:32:51.428+02:00,41,0.9590018,0,0,41.84445,0,0,2022-06-02T10:38:37.800+02:00,675851917.800199,0,4.808594,101.1334,1,0.92
