loggingTime(txt),locationTimestamp_since1970(s),locationLatitude(WGS84),locationLongitude(WGS84),locationAltitude(m),locationSpeed(m/s),locationSpeedAccuracy(m/s),locationCourse(°),locationCourseAccuracy(°),locationVerticalAccuracy(m),locationHorizontalAccuracy(m),locationFloor(Z),accelerometerTimestamp_sinceReboot(s),accelerometerAccelerationX(G),accelerometerAccelerationY(G),accelerometerAccelerationZ(G),motionTimestamp_sinceReboot(s),motionYaw(rad),motionRoll(rad),motionPitch(rad),motionRotationRateX(rad/s),motionRotationRateY(rad/s),motionRotationRateZ(rad/s),motionUserAccelerationX(G),motionUserAccelerationY(G),motionUserAccelerationZ(G),motionAttitudeReferenceFrame(txt),motionQuaternionX(R),motionQuaternionY(R),motionQuaternionZ(R),motionQuaternionW(R),motionGravityX(G),motionGravityY(G),motionGravityZ(G),motionMagneticFieldX(µT),motionMagneticFieldY(µT),motionMagneticFieldZ(µT),motionHeading(°),motionMagneticFieldCalibrationAccuracy(Z),activityTimestamp_sinceReboot(s),activity(txt),activityActivityConfidence(Z),activityActivityStartDate(txt),pedometerStartDate(txt),pedometerNumberofSteps(N),pedometerAverageActivePace(s/m),pedometerCurrentPace(s/m),pedometerCurrentCadence(steps/s),pedometerDistance(m),pedometerFloorAscended(N),pedometerFloorDescended(N),pedometerEndDate(txt),altimeterTimestamp_sinceReboot(s),altimeterReset(bool),altimeterRelativeAltitude(m),altimeterPressure(kPa),batteryState(N),batteryLevel(R)
2022-06-02T10:46:38.605+02:00,1654159593.440079,53.22906542196605,10.39847337337255,41.84494,-1,-1,-1,-1,26.66295433044434,36.58906540013426,-9999,34165.649494625,-0.149658203125,-0.229949951171875,-0.934722900390625,34165.640758625,3.067280263055517,-0.1308078365756277,0.2621719738235009,0.09845944494009018,-0.03909927606582642,-0.05000921711325645,-0.001585423946380615,0.03691935539245605,0.01870483160018921,XArbitraryZVertical,-0.06959706363303386,-0.1279343521963388,-0.9883006375383158,-0.04528721174794538,-0.1259780675172806,-0.2591789066791534,-0.9575781226158142,0,0,0,-1,-1,34162.295601875,unknown,2,2022-06-02T10:46:35.211+02:00,2022-06-02T10:32:51.428+02:00,75,2.361373,0,0,68.39739,0,0,2022-06-02T10:46:37.764+02:00,675852397.7635356,0,14.00781,101.0244,1,0.89
2022-06-02T10:46:38.610+02:00,1654159593.440079,53.22906542196605,10.39847337337255,41.84494,-1,-1,-1,-1,26.66295433044434,36.58906540013426,-9999,34165.659467625,-0.1631622314453125,-0.2669677734375,-0.9248504638671875,34165.650730625,3.066619219428842,-0.1312228291321972,0.2631937905178455,0.07024236768484116,-0.04765938594937325,-0.1120807901024818,-0.01513877511024475,0.03490015864372253,0.01779431104660034,XArbitraryZVertical,-0.06985896683902787,-0.1284071011197672,-0.9882031849491814,-0.04567108805928242,-0.1263407170772552,-0.2601656913757324,-0.9572626948356628,0,0,0,-1,-1,34162.295601875,unknown,2,2022-06-02T10:46:35.211+02:00,2022-06-02T10:32:51.428+02:00,75,2.361373,0,0,68.39739,0,0,2022-06-02T10:46:37.764+02:00,675852397.7635356,0,14.00781,101.0244,1,0.89
2022-06-02T10:46:38.613+02:00,1654159593.440079,53.22906542196605,10.39847337337255,41.84494,-1,-1,-1,-1,26.66295433044434,36.58906540013426,-9999,34165.669439625,-0.1402740478515625,-0.2901611328125,-0.9297027587890625,34165.660703625,3.064896624769709,-0.1314129008064007,0.2641145414500751,0.006799212656915188,-0.03384476900100708,-0.2612050175666809,-0.02743944525718689,0.02220875024795532,0.02801519632339478,XArbitraryZVertical,-0.0700769344979411,-0.1287976701618642,-0.9880953830647942,-0.04656203753374125,-0.1264912337064743,-0.2610546052455902,-0.9570007920265198,0,0,0,-1,-1,34162.295601875,unknown,2,2022-06-02T10:46:35.211+02:00,2022-06-02T10:32:51.428+02:00,75,2.361373,0,0,68.39739,0,0,2022-06-02T10:46:37.764+02:00,675852397.7635356,0,14.00781,101.0244,1,0.89
2022-06-02T10:46:38.617+02:00,1654159593.440079,53.22906542196605,10.39847337337255,41.84494,-1,-1,-1,-1,26.66295433044434,36.58906540013426,-9999,34165.679412625,-0.1083526611328125,-0.292327880859375,-0.931640625,34165.670675625,3.061744499516667,-0.1308826424218755,0.2643935731361399,-0.05512984842061996,-0.0490882582962513,-0.3235761821269989,-0.04277271032333374,-0.0219707190990448,0.02790302038192749,XArbitraryZVertical,-0.07002219484409106,-0.1288377655846502,-0.9880206383252124,-0.04809345976685668,-0.1259742379188538,-0.2613239586353302,-0.95699542760849,0,0,0,-1,-1,34162.295601875,unknown,2,2022-06-02T10:46:35.211+02:00,2022-06-02T10:32:51.428+02:00,75,2.361373,0,0,68.39739,0,0,2022-06-02T10:46:37.764+02:00,675852397.7635356,0,14.00781,101.0244,1,0.89
2022-06-02T10:46:38.621+02:00,1654159593.440079,53.22906542196605,10.39847337337255,41.84494,-1,-1,-1,-1,26.66295433044434,36.58906540013426,-9999,34165.689384625,-0.1186370849609375,-0.2813873291015625,-0.93695068359375,34165.680648625,3.05835307407729,-0.1305873385692786,0.2640027602777966,-0.1064191311597824,-0.09553512185811996,-0.3150977492332458,0.008944675326347351,-0.02813103795051575,0.02877384424209595,XArbitraryZVertical,-0.07008833264210636,-0.1285330028631179,-0.9879741629402454,-0.04973821896091084,-0.1257049143314362,-0.2609467208385468,-0.9571337699890137,0,0,0,-1,-1,34162.295601875,unknown,2,2022-06-02T10:46:35.211+02:00,2022-06-02T10:32:51.428+02:00,75,2.361373,0,0,68.39739,0,0,2022-06-02T10:46:37.764+02:00,675852397.7635356,0,14.00781,101.0244,1,0.89
2022-06-02T10:46:38.623+02:00,1654159593.440079,53.22906542196605,10.39847337337255,41.84494,-1,-1,-1,-1,26.66295433044434,36.58906540013426,-9999,34165.699357625,-0.137237548828125,-0.275970458984375,-0.9401702880859375,34165.690620625,3.054887486693048,-0.1310563755760685,0.2629545938852743,-0.1336919069290161,-0.1329477429389954,-0.344626396894455,0.01624992489814758,-0.0288989245891571,0.02481973171234131,XArbitraryZVertical,-0.07052465997064661,-0.1278811570201681,-0.9879400791679759,-0.05144920069311527,-0.1261895149946213,-0.2599347233772278,-0.9573453664779663,0,0,0,-1,-1,34162.295601875,unknown,2,2022-06-02T10:46:35.211+02:00,2022-06-02T10:32:51.428+02:00,75,2.361373,0,0,68.39739,0,0,2022-06-02T10:46:37.764+02:00,675852397.7635356,0,14.00781,101.0244,1,0.89
2022-06-02T10:46:38.630+02:00,1654159593.440079,53.22906542196605,10.39847337337255,41.84494,-1,-1,-1,-1,26.66295433044434,36.58906540013426,-9999,34165.709329625,-0.30511474609375,-0.3090972900390625,-0.960906982421875,34165.700593625,3.051737512347027,-0.1317703223296239,0.2618430716025957,-0.09794534742832184,-0.1148355752229691,-0.1388250291347504,0.001285240054130554,-0.02113756537437439,0.01967465877532959,XArbitraryZVertical,-0.07105870752521744,-0.1272015436808292,-0.9879066184354822,-0.05301775585927508,-0.1269108504056931,-0.258861243724823,-0.9575408697128296,0,0,0,-1,-1,34162.295601875,unknown,2,2022-06-02T10:46:35.211+02:00,2022-06-02T10:32:51.428+02:00,75,2.361373,0,0,68.39739,0,0,2022-06-02T10:46:37.764+02:00,675852397.7635356,0,14.00781,101.0244,1,0.89
2022-06-02T10:46:38.639+02:00,1654159593.440079,53.22906542196605,10.39847337337255,41.84494,-1,-1,-1,-1,26.66295433044434,36.58906540013426,-9999,34165.719302625,-0.1521759033203125,-0.300445556640625,-0.932464599609375,34165.710565625,3.052758346932392,-0.1299081148504037,0.259326238087559,-0.2718224227428436,0.4335645139217377,0.2182515114545822,-0.104814738035202,-0.03455570340156555,0.007307708263397217,XArbitraryZVertical,-0.07002919077801499,-0.1260422797145251,-0.9881657768761392,-0.05232134087208987,-0.1252114921808243,-0.2564293742179871,-0.9584184885025024,0,0,0,-1,-1,34162.295601875,unknown,2,2022-06-02T10:46:35.211+02:00,2022-06-02T10:32:51.428+02:00,75,2.361373,0,0,68.39739,0,0,2022-06-02T10:46:37.764+02:00,675852397.7635356,0,14.00781,101.0244,1,0.89
2022-06-02T10:46:38.650+02:00,1654159593.440079,53.22906542196605,10.39847337337255,41.84494,-1,-1,-1,-1,26.66295433044434,36.58906540013426,-9999,34165.729275625,-0.0325775146484375,-0.2373809814453125,-0.9295501708984375,34165.720538625,3.05263562875667,-0.1258228027619953,0.2563868887037411,-0.2791674137115479,0.3504315316677094,-0.1872871965169907,-0.1449988484382629,-0.06304791569709778,0.01311725378036499,XArbitraryZVertical,-0.06796549354072549,-0.1246910326538048,-0.9884960530893859,-0.05204125850938596,-0.1213890910148621,-0.2535872161388397,-0.9596656560897827,0,0,0,-1,-1,34162.295601875,unknown,2,2022-06-02T10:46:35.211+02:00,2022-06-02T10:32:51.428+02:00,75,2.361373,0,0,68.39739,0,0,2022-06-02T10:46:37.764+02:00,675852397.7635356,0,14.00781,101.0244,1,0.89
2022-06-02T10:46:38.659+02:00,1654159593.440079,53.22906542196605,10.39847337337255,41.84494,-1,-1,-1,-1,26.66295433044434,36.58906540013426,-9999,34165.739247625,-0.0509796142578125,-0.2309722900390625,-0.93896484375,34165.730511625,3.04963433413344,-0.1228246741183827,0.2539678480470086,-0.2477777153253555,0.1315512955188751,-0.2800180017948151,0.02547701448202133,-0.02267929911613464,0.02966207265853882,XArbitraryZVertical,-0.06662515279974585,-0.1234723936727856,-0.9886747895816231,-0.05327127160333993,-0.1185861527919769,-0.2512465119361877,-0.9606313109397888,0,0,0,-1,-1,34162.295601875,unknown,2,2022-06-02T10:46:35.211+02:00,2022-06-02T10:32:51.428+02:00,75,2.361373,0,0,68.39739,0,0,2022-06-02T10:46:37.764+02:00,675852397.7635356,0,14.00781,101.0244,1,0.89
2022-06-02T10:46:38.669+02:00,1654159593.440079,53.22906542196605,10.39847337337255,41.84494,-1,-1,-1,-1,26.66295433044434,36.58906540013426,-9999,34165.749220625,-0.137237548828125,-0.2464752197265625,-0.9524383544921875,34165.740483625,3.047275326648762,-0.1216137397523288,0.2519413555734056,-0.2033458054065704,0.0370495542883873,-0.135193407535553,0.09247518330812454,0.02290508151054382,0.02893513441085815,XArbitraryZVertical,-0.06613262338583624,-0.1224241214807718,-0.9887817752692163,-0.05430765235611597,-0.1174843311309814,-0.249284490942955,-0.9612776041030884,0,0,0,-1,-1,34162.295601875,unknown,2,2022-06-02T10:46:35.211+02:00,2022-06-02T10:32:51.428+02:00,75,2.361373,0,0,68.39739,0,0,2022-06-02T10:46:37.764+02:00,675852397.7635356,0,14.00781,101.0244,1,0.89
2022-06-02T10:46:38.679+02:00,1654159593.440079,53.22906542196605,10.39847337337255,41.84494,-1,-1,-1,-1,26.66295433044434,36.58906540013426,-9999,34165.759192625,-0.167999267578125,-0.2454071044921875,-0.959228515625,34165.750456625,3.045877987384734,-0.1208532088650931,0.2502870347063636,-0.1935224235057831,0.09350945800542831,-0.1213312819600105,0.03472574800252914,0.007981732487678528,0.01846122741699219,XArbitraryZVertical,-0.06580921314378176,-0.1215802815069351,-0.9888743288715879,-0.05490737275130007,-0.1168027743697166,-0.2476820647716522,-0.9617747664451599,0,0,0,-1,-1,34162.295601875,unknown,2,2022-06-02T10:46:35.211+02:00,2022-06-02T10:32:51.428+02:00,75,2.361373,0,0,68.39739,0,0,2022-06-02T10:46:37.764+02:00,675852397.7635356,0,14.00781,101.0244,1,0.89
2022-06-02T10:46:38.689+02:00,1654159593.440079,53.22906542196605,10.39847337337255,41.84494,-1,-1,-1,-1,26.66295433044434,36.58906540013426,-9999,34165.769165625,-0.139312744140625,-0.249786376953125,-0.9656829833984375,34165.760428625,3.044201734672008,-0.1190169514014922,0.2486904728335141,-0.1917785853147507,0.1941258162260056,-0.1576445549726486,-0.04559173434972763,0.002909839153289795,0.006400704383850098,XArbitraryZVertical,-0.0649706008227607,-0.1207861716364108,-0.9889894328917938,-0.05558233631886597,-0.115083321928978,-0.2461349368095398,-0.9623790383338928,0,0,0,-1,-1,34162.295601875,unknown,2,2022-06-02T10:46:35.211+02:00,2022-06-02T10:32:51.428+02:00,75,2.361373,0,0,68.39739,0,0,2022-06-02T10:46:37.764+02:00,675852397.7635356,0,14.00781,101.0244,1,0.89
2022-06-02T10:46:38.699+02:00,1654159593.440079,53.22906542196605,10.39847337337255,41.84494,-1,-1,-1,-1,26.66295433044434,36.58906540013426,-9999,34165.779137625,-0.1083221435546875,-0.2422943115234375,-0.971893310546875,34165.770401625,3.042382667483002,-0.11636226807786,0.2469791007700824,-0.1846413314342499,0.2458984553813934,-0.1506448239088058,-0.04547370225191116,-0.003876224160194397,0.00367128849029541,XArbitraryZVertical,-0.06373182524042866,-0.1199549389322754,-0.9891319168046679,-0.05627746150011545,-0.1125768423080444,-0.2444758415222168,-0.9630981087684631,0,0,0,-1,-1,34162.295601875,unknown,2,2022-06-02T10:46:35.211+02:00,2022-06-02T10:32:51.428+02:00,75,2.361373,0,0,68.39739,0,0,2022-06-02T10:46:37.764+02:00,675852397.7635356,0,14.00781,101.0244,1,0.89
2022-06-02T10:46:38.709+02:00,1654159593.440079,53.22906542196605,10.39847337337255,41.84494,-1,-1,-1,-1,26.66295433044434,36.58906540013426,-9999,34165.789110625,-0.0947113037109375,-0.243133544921875,-0.97100830078125,34165.780373625,3.040700944018327,-0.113496980475465,0.2452340416400224,-0.1923655569553375,0.2363598197698593,-0.1375047862529755,-0.0181104838848114,-0.003157809376716614,-0.005063414573669434,XArbitraryZVertical,-0.06237806922774748,-0.1191192531122446,-0.9892839715549028,-0.056893673905064,-0.1098649874329567,-0.2427833676338196,-0.9638391733169556,0,0,0,-1,-1,34162.295601875,unknown,2,2022-06-02T10:46:35.211+02:00,2022-06-02T10:32:51.428+02:00,75,2.361373,0,0,68.39739,0,0,2022-06-02T10:46:37.764+02:00,675852397.7635356,0,14.00781,101.0244,1,0.89
2022-06-02T10:46:38.719+02:00,1654159593.440079,53.22906542196605,10.39847337337255,41.84494,-1,-1,-1,-1,26.66295433044434,36.58906540013426,-9999,34165.799082625,-0.090606689453125,-0.23211669921875,-0.97509765625,34165.790346625,3.039081399231148,-0.1109828222993771,0.2433955818749388,-0.1968514323234558,0.190582662820816,-0.1330113559961319,0.007621869444847107,-0.0003335326910018921,-0.007918834686279297,XArbitraryZVertical,-0.06119044459939018,-0.1182310450465418,-0.9894295544079649,-0.0575002107783098,-0.1074906513094902,-0.2409995049238205,-0.9645543098449707,0,0,0,-1,-1,34162.295601875,unknown,2,2022-06-02T10:46:35.211+02:00,2022-06-02T10:32:51.428+02:00,75,2.361373,0,0,68.39739,0,0,2022-06-02T10:46:37.764+02:00,675852397.7635356,0,14.00781,101.0244,1,0.89
2022-06-02T10:46:38.729+02:00,1654159593.440079,53.22906542196605,10.39847337337255,41.84494,-1,-1,-1,-1,26.66295433044434,36.58906540013426,-9999,34165.809055625,-0.093902587890625,-0.216339111328125,-0.9724273681640625,34165.800318625,3.037435710270804,-0.1089366396746311,0.2417054185238375,-0.164221316576004,0.140747994184494,-0.1500827372074127,0.01278746873140335,-0.002447232604026794,-0.006702244281768799,XArbitraryZVertical,-0.06023740603548818,-0.1174034712714255,-0.989548397482926,-0.05815310183503811,-0.1055609062314034,-0.2393588125705719,-0.9651757478713989,0,0,0,-1,-1,34162.295601875,unknown,2,2022-06-02T10:46:35.211+02:00,2022-06-02T10:32:51.428+02:00,75,2.361373,0,0,68.39739,0,0,2022-06-02T10:46:37.764+02:00,675852397.7635356,0,14.00781,101.0244,1,0.89
2022-06-02T10:46:38.739+02:00,1654159593.440079,53.22906542196605,10.39847337337255,41.84494,-1,-1,-1,-1,26.66295433044434,36.58906540013426,-9999,34165.819027625,-0.0997467041015625,-0.2189178466796875,-0.9693450927734375,34165.810291625,3.035755261101764,-0.107369708556048,0.2404552845018512,-0.1045005023479462,0.09760016202926636,-0.1442072689533234,0.01470966637134552,0.01306241750717163,-0.009232044219970703,XArbitraryZVertical,-0.05953202365126593,-0.1167800051259832,-0.9896229035431947,-0.05886328882266478,-0.1040804013609886,-0.2381448298692703,-0.9656367301940918,0,0,0,-1,-1,34162.295601875,unknown,2,2022-06-02T10:46:35.211+02:00,2022-06-02T10:32:51.428+02:00,75,2.361373,0,0,68.39739,0,0,2022-06-02T10:46:37.764+02:00,675852397.7635356,0,14.00781,101.0244,1,0.89
2022-06-02T10:46:38.751+02:00,1654159593.440079,53.22906542196605,10.39847337337255,41.84494,-1,-1,-1,-1,26.66295433044434,36.58906540013426,-9999,34165.829000625,-0.1004791259765625,-0.2521820068359375,-0.965911865234375,34165.820263625,3.034215398582877,-0.106246650182262,0.2397553751545795,-0.05509274080395699,0.05524231866002083,-0.1507405340671539,0.006349079310894012,0.02317054569721222,-0.006051063537597656,XArbitraryZVertical,-0.05904983548458273,-0.1164210290498659,-0.9896534248459896,-0.0595434823064319,-0.1030135154724121,-0.2374650090932846,-0.9659185409545898,0,0,0,-1,-1,34162.295601875,unknown,2,2022-06-02T10:46:35.211+02:00,2022-06-02T10:32:51.428+02:00,75,2.361373,0,0,68.39739,0,0,2022-06-02T10:46:37.764+02:00,675852397.7635356,0,14.00781,101.0244,1,0.89
2022-06-02T10:46:38.762+02:00,1654159593.440079,53.22906542196605,10.39847337337255,41.84494,-1,-1,-1,-1,26.66295433044434,36.58906540013426,-9999,34165.838972625,-0.108978271484375,-0.2542266845703125,-0.9687042236328125,34165.830236625,3.032487532997647,-0.1054034463546858,0.2393004328195439,-0.08530084788799286,0.03747024387121201,-0.1714882105588913,0.001914344727993011,0.003746673464775085,-0.0006691813468933105,XArbitraryZVertical,-0.05872230441112998,-0.1161701580328409,-0.9896541756417039,-0.06033898240051372,-0.1022103726863861,-0.2370230555534363,-0.9661123752593994,0,0,0,-1,-1,34162.295601875,unknown,2,2022-06-02T10:46:35.211+02:00,2022-06-02T10:32:51.428+02:00,75,2.361373,0,0,68.39739,0,0,2022-06-02T10:46:37.764+02:00,675852397.7635356,0,14.00781,101.0244,1,0.89
2022-06-02T10:46:38.769+02:00,1654159593.440079,53.22906542196605,10.39847337337255,41.84494,-1,-1,-1,-1,26.66295433044434,36.58906540013426,-9999,34165.848945625,-0.1091461181640625,-0.236083984375,-0.975494384765625,34165.840208625,3.030612522664782,-0.1045191315906157,0.2383617469026031,-0.121676966547966,0.05258261784911156,-0.1712709069252014,-0.003418222069740295,-0.01749008893966675,-8.374452590942383e-05,XArbitraryZVertical,-0.05837073069903054,-0.1156773202000497,-0.9896802105037363,-0.06119420995331486,-0.1013791486620903,-0.2361110150814056,-0.9664232134819031,0,0,0,-1,-1,34162.295601875,unknown,2,2022-06-02T10:46:35.211+02:00,2022-06-02T10:32:51.428+02:00,75,2.361373,0,0,68.39739,0,0,2022-06-02T10:46:37.764+02:00,675852397.7635356,0,14.00781,101.0244,1,0.89
2022-06-02T10:46:38.779+02:00,1654159593.440079,53.22906542196605,10.39847337337255,41.84494,-1,-1,-1,-1,26.66295433044434,36.58906540013426,-9999,34165.858917625,-0.1026763916015625,-0.22210693359375,-0.9750518798828125,34165.850181625,3.028794854612298,-0.1033920151471751,0.2372041805791157,-0.1334242522716522,0.07896052300930023,-0.1577846109867096,-0.01091863214969635,-0.01483090221881866,-0.003269433975219727,XArbitraryZVertical,-0.05788930607406463,-0.1150859762576248,-0.9897271472748513,-0.0620026902949166,-0.1003179550170898,-0.2349860221147537,-0.9668080806732178,0,0,0,-1,-1,34162.295601875,unknown,2,2022-06-02T10:46:35.211+02:00,2022-06-02T10:32:51.428+02:00,75,2.361373,0,0,68.39739,0,0,2022-06-02T10:46:37.764+02:00,675852397.7635356,0,14.00781,101.0244,1,0.89
2022-06-02T10:46:38.789+02:00,1654159593.440079,53.22906542196605,10.39847337337255,41.84494,-1,-1,-1,-1,26.66295433044434,36.58906540013426,-9999,34165.868890625,-0.0980224609375,-0.2223663330078125,-0.9800872802734375,34165.860153625,3.027039501334377,-0.1022427457642504,0.2360695304308149,-0.1222943663597107,0.06895235925912857,-0.1666912883520126,-0.007455542683601379,0.00558096170425415,-0.009420931339263916,XArbitraryZVertical,-0.05739279069876102,-0.1145093349532246,-0.9897739435756775,-0.06278030453899522,-0.09923391789197922,-0.2338829785585403,-0.9671873450279236,0,0,0,-1,-1,34162.295601875,unknown,2,2022-06-02T10:46:35.211+02:00,2022-06-02T10:32:51.428+02:00,75,2.361373,0,0,68.39739,0,0,2022-06-02T10:46:37.764+02:00,675852397.7635356,0,14.00781,101.0244,1,0.89
2022-06-02T10:46:38.799+02:00,1654159593.440079,53.22906542196605,10.39847337337255,41.84494,-1,-1,-1,-1,26.66295433044434,36.58906540013426,-9999,34165.878862625,-0.0934295654296875,-0.2250213623046875,-0.984588623046875,34165.870126625,3.025131999083543,-0.101139990187081,0.2350207918040327,-0.1177202165126801,0.06830556690692902,-0.1823475658893585,-0.002439722418785095,0.01156497001647949,-0.008900701999664307,XArbitraryZVertical,-0.05692910795517334,-0.113970298594916,-0.989808081545174,-0.06363845174481662,-0.098191998898983,-0.2328632026910782,-0.9675396680831909,0,0,0,-1,-1,34162.295601875,unknown,2,2022-06-02T10:46:35.211+02:00,2022-06-02T10:32:51.428+02:00,75,2.361373,0,0,68.39739,0,0,2022-06-02T10:46:37.764+02:00,675852397.7635356,0,14.00781,101.0244,1,0.89
2022-06-02T10:46:38.809+02:00,1654159593.440079,53.22906542196605,10.39847337337255,41.84494,-1,-1,-1,-1,26.66295433044434,36.58906540013426,-9999,34165.888835625,-0.0929718017578125,-0.2252044677734375,-0.9857025146484375,34165.880098625,3.023124711558742,-0.09996442582234545,0.2339816072488746,-0.1212750002741814,0.07075993716716766,-0.1848972737789154,0.002062134444713593,0.007731348276138306,-0.01342850923538208,XArbitraryZVertical,-0.05643422347530043,-0.1134364205536747,-0.9898391783505752,-0.06454272163390315,-0.09707862138748169,-0.2318524569272995,-0.9678947329521179,0,0,0,-1,-1,34162.295601875,unknown,2,2022-06-02T10:46:35.211+02:00,2022-06-02T10:32:51.428+02:00,75,2.361373,0,0,68.39739,0,0,2022-06-02T10:46:37.764+02:00,675852397.7635356,0,14.00781,101.0244,1,0.89
2022-06-02T10:46:38.819+02:00,1654159593.440079,53.22906542196605,10.39847337337255,41.84494,-1,-1,-1,-1,26.66295433044434,36.58906540013426,-9999,34165.898808625,-0.089813232421875,-0.2203521728515625,-0.990325927734375,34165.890071625,3.021121608600009,-0.09875713912352282,0.2328689321683891,-0.1335219442844391,0.07823596894741058,-0.1859228014945984,0.003650233149528503,0.004710987210273743,-0.01812183856964111,XArbitraryZVertical,-0.0559202981553609,-0.1128683157186041,-0.989874172936969,-0.06544227432847291,-0.0959353968501091,-0.2307699620723724,-0.9682673215866089,0,0,0,-1,-1,34162.295601875,unknown,2,2022-06-02T10:46:35.211+02:00,2022-06-02T10:32:51.428+02:00,75,2.361373,0,0,68.39739,0,0,2022-06-02T10:46:37.764+02:00,675852397.7635356,0,14.00781,101.0244,1,0.89
2022-06-02T10:46:38.829+02:00,1654159593.440079,53.22906542196605,10.39847337337255,41.84494,-1,-1,-1,-1,26.66295433044434,36.58906540013426,-9999,34165.908780625,-0.0856475830078125,-0.2108154296875,-0.994476318359375,34165.900044625,3.019139894047883,-0.09749175886429537,0.2314053127913798,-0.1178923845291138,0.08579268306493759,-0.1778765916824341,0.001313306391239166,0.006521508097648621,-0.0191919207572937,XArbitraryZVertical,-0.0553655507766437,-0.1121299374393906,-0.9899307685646658,-0.06632150685249236,-0.09474287182092667,-0.2293456047773361,-0.9687230587005615,0,0,0,-1,-1,34162.295601875,unknown,2,2022-06-02T10:46:35.211+02:00,2022-06-02T10:32:51.428+02:00,75,2.361373,0,0,68.39739,0,0,2022-06-02T10:46:37.764+02:00,675852397.7635356,0,14.00781,101.0244,1,0.89
2022-06-02T10:46:38.839+02:00,1654159593.440079,53.22906542196605,10.39847337337255,41.84494,-1,-1,-1,-1,26.66295433044434,36.58906540013426,-9999,34165.918753625,-0.0782623291015625,-0.2046356201171875,-0.995697021484375,34165.910016625,3.017281052782657,-0.09636908144569732,0.2305547155699047,-0.1025275066494942,0.08665243536233902,-0.1705909967422485,0.004699982702732086,0.01086622476577759,-0.02292066812515259,XArbitraryZVertical,-0.05489022516853733,-0.1116948464820298,-0.9899498479078901,-0.06716135472831003,-0.09367398917675018,-0.2285175919532776,-0.9690226316452026,0,0,0,-1,-1,34162.295601875,unknown,2,2022-06-02T10:46:35.211+02:00,2022-06-02T10:32:51.428+02:00,75,2.361373,0,0,68.39739,0,0,2022-06-02T10:46:37.764+02:00,675852397.7635356,0,14.00781,101.0244,1,0.89
2022-06-02T10:46:38.849+02:00,1654159593.440079,53.22906542196605,10.39847337337255,41.84494,-1,-1,-1,-1,26.66295433044434,36.58906540013426,-9999,34165.928725625,-0.075592041015625,-0.206512451171875,-0.993408203125,34165.919989625,3.015488496736567,-0.09546378877367102,0.2304327796792137,-0.08110343664884567,0.06824307143688202,-0.1771253347396851,0.010142482817173,0.02152019739151001,-0.02621126174926758,XArbitraryZVertical,-0.05453875727911436,-0.111615993428828,-0.9899212694013808,-0.06799562156459031,-0.0927993506193161,-0.2283988893032074,-0.9691348075866699,0,0,0,-1,-1,34162.295601875,unknown,2,2022-06-02T10:46:35.211+02:00,2022-06-02T10:32:51.428+02:00,75,2.361373,0,0,68.39739,0,0,2022-06-02T10:46:37.764+02:00,675852397.7635356,0,14.00781,101.0244,1,0.89
2022-06-02T10:46:38.859+02:00,1654159593.440079,53.22906542196605,10.39847337337255,41.84494,-1,-1,-1,-1,26.66295433044434,36.58906540013426,-9999,34165.938698625,-0.0753021240234375,-0.213897705078125,-0.988433837890625,34165.929961625,3.013757452179516,-0.09491303824129534,0.2303848365040381,-0.06603522598743439,0.05025776848196983,-0.173027291893959,0.01589637994766235,0.02374708652496338,-0.02630198001861572,XArbitraryZVertical,-0.05436137197504326,-0.1115639675287693,-0.9898797894061344,-0.06882070281365449,-0.09226662665605545,-0.2283522039651871,-0.969196617603302,0,0,0,-1,-1,34162.295601875,unknown,2,2022-06-02T10:46:35.211+02:00,2022-06-02T10:32:51.428+02:00,75,2.361373,0,0,68.39739,0,0,2022-06-02T10:46:37.764+02:00,675852397.7635356,0,14.00781,101.0244,1,0.89
2022-06-02T10:46:38.869+02:00,1654159593.440079,53.22906542196605,10.39847337337255,41.84494,-1,-1,-1,-1,26.66295433044434,36.58906540013426,-9999,34165.948670625,-0.0771484375,-0.216156005859375,-0.98590087890625,34165.939934625,3.012060921843418,-0.09436692144516004,0.2299149466221856,-0.05093776434659958,0.04923724755644798,-0.16001296043396,0.01719296723604202,0.01848307251930237,-0.02233034372329712,XArbitraryZVertical,-0.05417188746387267,-0.1113041035911068,-0.9898635176590753,-0.06962066882743687,-0.09174741804599762,-0.2278947085142136,-0.9693536162376404,0,0,0,-1,-1,34162.295601875,unknown,2,2022-06-02T10:46:35.211+02:00,2022-06-02T10:32:51.428+02:00,75,2.361373,0,0,68.39739,0,0,2022-06-02T10:46:37.764+02:00,675852397.7635356,0,14.00781,101.0244,1,0.89
2022-06-02T10:46:38.879+02:00,1654159593.440079,53.22906542196605,10.39847337337255,41.84494,-1,-1,-1,-1,26.66295433044434,36.58906540013426,-9999,34165.958643625,-0.0812530517578125,-0.217498779296875,-0.9831695556640625,34165.949906625,3.010468911254739,-0.09371918324322068,0.2293808265569987,-0.04768857359886169,0.05102768912911415,-0.152874544262886,0.01530996710062027,0.0132022351026535,-0.01758766174316406,XArbitraryZVertical,-0.05392396486823735,-0.1110192063338217,-0.9898566485280739,-0.07036215261534082,-0.09113088995218277,-0.2273746132850647,-0.9695338606834412,0,0,0,-1,-1,34162.295601875,unknown,2,2022-06-02T10:46:35.211+02:00,2022-06-02T10:32:51.428+02:00,75,2.361373,0,0,68.39739,0,0,2022-06-02T10:46:37.764+02:00,675852397.7635356,0,14.00781,101.0244,1,0.89
2022-06-02T10:46:38.889+02:00,1654159593.440079,53.22906542196605,10.39847337337255,41.84494,-1,-1,-1,-1,26.66295433044434,36.58906540013426,-9999,34165.968615625,-0.0792999267578125,-0.218505859375,-0.9809417724609375,34165.959879625,3.008889229098448,-0.09293593696916343,0.2288976538246079,-0.0483303964138031,0.04770459607243538,-0.1478046774864197,0.01166155934333801,0.01032079756259918,-0.01553052663803101,XArbitraryZVertical,-0.053609385577161,-0.1107651283522332,-0.9898501423734217,-0.07109120529498913,-0.09038165956735611,-0.2269040644168854,-0.9697142243385315,0,0,0,-1,-1,34162.295601875,unknown,2,2022-06-02T10:46:35.211+02:00,2022-06-02T10:32:51.428+02:00,75,2.361373,0,0,68.39739,0,0,2022-06-02T10:46:37.764+02:00,675852397.7635356,0,14.00781,101.0244,1,0.89
2022-06-02T10:46:38.899+02:00,1654159593.440079,53.22906542196605,10.39847337337255,41.84494,-1,-1,-1,-1,26.66295433044434,36.58906540013426,-9999,34165.978588625,-0.07879638671875,-0.217742919921875,-0.9774322509765625,34165.969851625,3.007396064759553,-0.09210764664513732,0.2284607801113964,-0.0459323525428772,0.05033446848392487,-0.1332162171602249,0.01034863293170929,0.009010285139083862,-0.012778639793396,XArbitraryZVertical,-0.05326875396946132,-0.1105384491312777,-0.9898443978209137,-0.07177601860748947,-0.08958753943443298,-0.2264785617589951,-0.969887375831604,0,0,0,-1,-1,34162.295601875,unknown,2,2022-06-02T10:46:35.211+02:00,2022-06-02T10:32:51.428+02:00,75,2.361373,0,0,68.39739,0,0,2022-06-02T10:46:37.764+02:00,675852397.7635356,0,14.00781,101.0244,1,0.89
2022-06-02T10:46:38.908+02:00,1654159593.440079,53.22906542196605,10.39847337337255,41.84494,-1,-1,-1,-1,26.66295433044434,36.58906540013426,-9999,34165.988560625,-0.0785064697265625,-0.2212677001953125,-0.9770660400390625,34165.979824625,3.00599690787705,-0.09133354527955603,0.2279254224674676,-0.04999420419335365,0.05337366834282875,-0.1337011903524399,0.009151101112365723,0.00880923867225647,-0.009491443634033203,XArbitraryZVertical,-0.05294635705495634,-0.1102640509763396,-0.9898457210064425,-0.07241565152925891,-0.08884776383638382,-0.2259570807218552,-0.9700770378112793,0,0,0,-1,-1,34162.295601875,unknown,2,2022-06-02T10:46:35.211+02:00,2022-06-02T10:32:51.428+02:00,75,2.361373,0,0,68.39739,0,0,2022-06-02T10:46:37.764+02:00,675852397.7635356,0,14.00781,101.0244,1,0.89
2022-06-02T10:46:38.918+02:00,1654159593.440079,53.22906542196605,10.39847337337255,41.84494,-1,-1,-1,-1,26.66295433044434,36.58906540013426,-9999,34165.998533625,-0.0788116455078125,-0.2232513427734375,-0.9790802001953125,34165.989796625,3.004549778616888,-0.09047190678987328,0.2272580355612838,-0.05768555030226707,0.05194621160626411,-0.1394849717617035,0.01032771915197372,0.005610838532447815,-0.008258163928985596,XArbitraryZVertical,-0.0525787302664659,-0.109926664530403,-0.9898546722808428,-0.07307200283240405,-0.08802548050880432,-0.2253069132566452,-0.9703032374382019,0,0,0,-1,-1,34162.295601875,unknown,2,2022-06-02T10:46:35.211+02:00,2022-06-02T10:32:51.428+02:00,75,2.361373,0,0,68.39739,0,0,2022-06-02T10:46:37.764+02:00,675852397.7635356,0,14.00781,101.0244,1,0.89
2022-06-02T10:46:38.928+02:00,1654159593.440079,53.22906542196605,10.39847337337255,41.84494,-1,-1,-1,-1,26.66295433044434,36.58906540013426,-9999,34166.008505625,-0.0743255615234375,-0.2217559814453125,-0.9782867431640625,34165.999769625,3.003032540209217,-0.08941840155199658,0.2263241978892216,-0.06083180755376816,0.0604102686047554,-0.1406397223472595,0.008439190685749054,0.002259507775306702,-0.005576491355895996,XArbitraryZVertical,-0.0521109974962345,-0.1094631187552693,-0.9898805598424345,-0.07374796360840311,-0.08702196180820465,-0.2243969887495041,-0.9706045389175415,0,0,0,-1,-1,34162.295601875,unknown,2,2022-06-02T10:46:35.211+02:00,2022-06-02T10:32:51.428+02:00,75,2.361373,0,0,68.39739,0,0,2022-06-02T10:46:37.764+02:00,675852397.7635356,0,14.00781,101.0244,1,0.89
2022-06-02T10:46:38.938+02:00,1654159593.440079,53.22906542196605,10.39847337337255,41.84494,-1,-1,-1,-1,26.66295433044434,36.58906540013426,-9999,34166.018478625,-0.0641632080078125,-0.2222137451171875,-0.9854583740234375,34166.009741625,3.001493329730748,-0.08820379488945336,0.2252979036284077,-0.070845827460289,0.07186825573444366,-0.1324780583381653,0.007906071841716766,-9.876489639282227e-05,-0.008157014846801758,XArbitraryZVertical,-0.05156098102242161,-0.1089598936882271,-0.989914252245363,-0.07442491789833769,-0.08586324006319046,-0.2233967483043671,-0.9709383845329285,0,0,0,-1,-1,34162.295601875,unknown,2,2022-06-02T10:46:35.211+02:00,2022-06-02T10:32:51.428+02:00,75,2.361373,0,0,68.39739,0,0,2022-06-02T10:46:37.764+02:00,675852397.7635356,0,14.00781,101.0244,1,0.89
2022-06-02T10:46:38.948+02:00,1654159593.440079,53.22906542196605,10.39847337337255,41.84494,-1,-1,-1,-1,26.66295433044434,36.58906540013426,-9999,34166.028450625,-0.0568389892578125,-0.2167816162109375,-0.985595703125,34166.019714625,3.000055323731599,-0.08689673797722471,0.2243493404771515,-0.07363522052764893,0.0725707933306694,-0.1255351901054382,0.01339966803789139,-0.0002147406339645386,-0.01033741235733032,XArbitraryZVertical,-0.05096141094220062,-0.1085020512665967,-0.9899484387426976,-0.07504877942045909,-0.08461244404315948,-0.2224720567464828,-0.9712604880332947,0,0,0,-1,-1,34162.295601875,unknown,2,2022-06-02T10:46:35.211+02:00,2022-06-02T10:32:51.428+02:00,75,2.361373,0,0,68.39739,0,0,2022-06-02T10:46:37.764+02:00,675852397.7635356,0,14.00781,101.0244,1,0.89
2022-06-02T10:46:38.958+02:00,1654159593.440079,53.22906542196605,10.39847337337255,41.84494,-1,-1,-1,-1,26.66295433044434,36.58906540013426,-9999,34166.03842200001,-0.054534912109375,-0.214141845703125,-0.9856414794921875,34166.029686625,2.99865856411603,-0.08571292858389747,0.2235378567443983,-0.06595005095005035,0.06906305998563766,-0.131100982427597,0.02227501571178436,0.001877963542938232,-0.01253032684326172,XArbitraryZVertical,-0.0504244110427596,-0.1081092951642832,-0.9899723190684655,-0.07566192716875626,-0.08347802609205246,-0.2216808348894119,-0.9715394973754883,0,0,0,-1,-1,34162.295601875,unknown,2,2022-06-02T10:46:35.211+02:00,2022-06-02T10:32:51.428+02:00,75,2.361373,0,0,68.39739,0,0,2022-06-02T10:46:37.764+02:00,675852397.7635356,0,14.00781,101.0244,1,0.89
2022-06-02T10:46:38.968+02:00,1654159593.440079,53.22906542196605,10.39847337337255,41.84494,-1,-1,-1,-1,26.66295433044434,36.58906540013426,-9999,34166.048394,-0.0621337890625,-0.2175750732421875,-0.984130859375,34166.039658,2.997226661835926,-0.08466349685132589,0.2229273840820128,-0.04586794599890709,0.05321085825562477,-0.1334125995635986,0.02799595892429352,0.005539834499359131,-0.01319360733032227,XArbitraryZVertical,-0.0499619455936003,-0.1078108479302201,-0.989979032386612,-0.07630360139281001,-0.08246984332799911,-0.2210855036973953,-0.9717612266540527,0,0,0,-1,-1,34162.295601875,unknown,2,2022-06-02T10:46:35.211+02:00,2022-06-02T10:32:51.428+02:00,75,2.361373,0,0,68.39739,0,0,2022-06-02T10:46:37.764+02:00,675852397.7635356,0,14.00781,101.0244,1,0.89
2022-06-02T10:46:38.978+02:00,1654159593.440079,53.22906542196605,10.39847337337255,41.84494,-1,-1,-1,-1,26.66295433044434,36.58906540013426,-9999,34166.05836700001,-0.06817626953125,-0.2306671142578125,-0.97772216796875,34166.04963,2.995832399911606,-0.0837944867667708,0.2225995750029033,-0.01958228275179863,0.04034166410565376,-0.1313462555408478,0.02503654360771179,0.007051184773445129,-0.01453018188476562,XArbitraryZVertical,-0.04959586900506002,-0.10764706283728,-0.9899659258620505,-0.07694141831426014,-0.08163140714168549,-0.2207657992839813,-0.9719046950340271,0,0,0,-1,-1,34162.295601875,unknown,2,2022-06-02T10:46:35.211+02:00,2022-06-02T10:32:51.428+02:00,75,2.361373,0,0,68.39739,0,0,2022-06-02T10:46:37.764+02:00,675852397.7635356,0,14.00781,101.0244,1,0.89
2022-06-02T10:46:38.988+02:00,1654159593.440079,53.22906542196605,10.39847337337255,41.84494,-1,-1,-1,-1,26.66295433044434,36.58906540013426,-9999,34166.068339,-0.0814666748046875,-0.2464447021484375,-0.97552490234375,34166.059603,2.994441227637397,-0.08305031606360871,0.2224122553299231,-0.02151760272681713,0.04158163443207741,-0.1338477730751038,0.0167178213596344,-0.002378329634666443,-0.01044595241546631,XArbitraryZVertical,-0.04929599373587008,-0.1075486354868701,-0.9899412252568237,-0.07758686992996637,-0.0809115469455719,-0.2205830961465836,-0.9720063805580139,0,0,0,-1,-1,34162.295601875,unknown,2,2022-06-02T10:46:35.211+02:00,2022-06-02T10:32:51.428+02:00,75,2.361373,0,0,68.39739,0,0,2022-06-02T10:46:37.764+02:00,675852397.7635356,0,14.00781,101.0244,1,0.89
2022-06-02T10:46:38.998+02:00,1654159593.440079,53.22906542196605,10.39847337337255,41.84494,-1,-1,-1,-1,26.66295433044434,36.58906540013426,-9999,34166.07831200001,-0.0941925048828125,-0.25299072265625,-0.9680023193359375,34166.069575,2.992980595069928,-0.08223231505681586,0.2222039179065202,-0.03630240634083748,0.04626160487532616,-0.1473977863788605,0.008098699152469635,-0.01545996963977814,-0.003895163536071777,XArbitraryZVertical,-0.04896245519016695,-0.1074414460193877,-0.9899161588654615,-0.07826243682396516,-0.08012019097805023,-0.2203798890113831,-0.9721180200576782,0,0,0,-1,-1,34162.295601875,unknown,2,2022-06-02T10:46:35.211+02:00,2022-06-02T10:32:51.428+02:00,75,2.361373,0,0,68.39739,0,0,2022-06-02T10:46:37.764+02:00,675852397.7635356,0,14.00781,101.0244,1,0.89
2022-06-02T10:46:39.008+02:00,1654159593.440079,53.22906542196605,10.39847337337255,41.84494,-1,-1,-1,-1,26.66295433044434,36.58906540013426,-9999,34166.08828500001,-0.1049346923828125,-0.2524261474609375,-0.9656829833984375,34166.079548,2.991394631129152,-0.08126854939228351,0.2217757460724368,-0.08000727742910385,0.07001380622386932,-0.1540293246507645,-0.007326416671276093,-0.0305413156747818,0.0006396174430847168,XArbitraryZVertical,-0.04855564982997179,-0.1072285992151978,-0.9899015817627558,-0.07898879166749592,-0.07919091731309891,-0.2199622243642807,-0.9722887277603149,0,0,0,-1,-1,34162.295601875,unknown,2,2022-06-02T10:46:35.211+02:00,2022-06-02T10:32:51.428+02:00,75,2.361373,0,0,68.39739,0,0,2022-06-02T10:46:37.764+02:00,675852397.7635356,0,14.00781,101.0244,1,0.89
2022-06-02T10:46:39.018+02:00,1654159593.440079,53.22906542196605,10.39847337337255,41.84494,-1,-1,-1,-1,26.66295433044434,36.58906540013426,-9999,34166.09825700001,-0.107086181640625,-0.253509521484375,-0.9651336669921875,34166.089521,2.989713068296939,-0.07989526426445245,0.2209547278604385,-0.1156827211380005,0.1166268512606621,-0.1594024002552032,-0.02074755728244781,-0.03614883124828339,0.005123317241668701,XArbitraryZVertical,-0.04793699096571614,-0.106835884763737,-0.9899144100747945,-0.07973462798752025,-0.07786999642848969,-0.2191612422466278,-0.9725762605667114,0,0,0,-1,-1,34162.295601875,unknown,2,2022-06-02T10:46:35.211+02:00,2022-06-02T10:32:51.428+02:00,75,2.361373,0,0,68.39739,0,0,2022-06-02T10:46:37.764+02:00,675852397.7635356,0,14.00781,101.0244,1,0.89
2022-06-02T10:46:39.028+02:00,1654159593.440079,53.22906542196605,10.39847337337255,41.84494,-1,-1,-1,-1,26.66295433044434,36.58906540013426,-9999,34166.10823000001,-0.109832763671875,-0.2489166259765625,-0.9586029052734375,34166.099493,2.987845017687945,-0.07790761614850654,0.2197314930359692,-0.1579875499010086,0.1533217579126358,-0.1851892620325089,-0.02932813763618469,-0.03374141454696655,0.00778573751449585,XArbitraryZVertical,-0.04700896781729487,-0.106265316761305,-0.9899555712431307,-0.08053458299532162,-0.0759575143456459,-0.2179675847291946,-0.9729956984519958,0,0,0,-1,-1,34162.295601875,unknown,2,2022-06-02T10:46:35.211+02:00,2022-06-02T10:32:51.428+02:00,75,2.361373,0,0,68.39739,0,0,2022-06-02T10:46:37.764+02:00,675852397.7635356,0,14.00781,101.0244,1,0.89
2022-06-02T10:46:39.038+02:00,1654159593.440079,53.22906542196605,10.39847337337255,41.84494,-1,-1,-1,-1,26.66295433044434,36.58906540013426,-9999,34166.11820200001,-0.110565185546875,-0.2535858154296875,-0.952911376953125,34166.109466,2.985591992687909,-0.07546018506918531,0.2181553037994101,-0.1932001560926437,0.1699784845113754,-0.215352475643158,-0.03450676798820496,-0.03581403195858002,0.009576559066772461,XArbitraryZVertical,-0.04585953843235483,-0.1055314324528826,-0.9900092739669236,-0.08149694792596765,-0.07360175997018814,-0.2164290249347687,-0.973520040512085,0,0,0,-1,-1,34162.295601875,unknown,2,2022-06-02T10:46:35.211+02:00,2022-06-02T10:32:51.428+02:00,75,2.361373,0,0,68.39739,0,0,2022-06-02T10:46:37.764+02:00,675852397.7635356,0,14.00781,101.0244,1,0.89
2022-06-02T10:46:39.048+02:00,1654159593.440079,53.22906542196605,10.39847337337255,41.84494,-1,-1,-1,-1,26.66295433044434,36.58906540013426,-9999,34166.12817500001,-0.104034423828125,-0.2508087158203125,-0.9469757080078125,34166.119438,2.982977463017901,-0.07260169400614895,0.2161996645556652,-0.2110174894332886,0.2031159400939941,-0.2456645667552948,-0.0390293151140213,-0.03235265612602234,0.02080810070037842,XArbitraryZVertical,-0.04450947261174614,-0.1046209471397307,-0.9900749355732138,-0.08261346425549687,-0.0708492323756218,-0.2145193219184875,-0.9741467237472534,0,0,0,-1,-1,34162.295601875,unknown,2,2022-06-02T10:46:35.211+02:00,2022-06-02T10:32:51.428+02:00,75,2.361373,0,0,68.39739,0,0,2022-06-02T10:46:37.764+02:00,675852397.7635356,0,14.00781,101.0244,1,0.89
2022-06-02T10:46:39.058+02:00,1654159593.440079,53.22906542196605,10.39847337337255,41.84494,-1,-1,-1,-1,26.66295433044434,36.58906540013426,-9999,34166.13814700001,-0.101318359375,-0.2530364990234375,-0.9444427490234375,34166.129411,2.980165112816255,-0.06948117241943443,0.2140378989192202,-0.24867182970047,0.2348141223192215,-0.2616009712219238,-0.04115244746208191,-0.04273483157157898,0.0209050178527832,XArbitraryZVertical,-0.04302932190871659,-0.1036183756213065,-0.9901449164007563,-0.08381452002382006,-0.06784108281135559,-0.2124073803424835,-0.9748234152793884,0,0,0,-1,-1,34162.295601875,unknown,2,2022-06-02T10:46:35.211+02:00,2022-06-02T10:32:51.428+02:00,75,2.361373,0,0,68.39739,0,0,2022-06-02T10:46:37.764+02:00,675852397.7635356,0,14.00781,101.0244,1,0.89
2022-06-02T10:46:39.068+02:00,1654159593.440079,53.22906542196605,10.39847337337255,41.84494,-1,-1,-1,-1,26.66295433044434,36.58906540013426,-9999,34166.14812000001,-0.0963287353515625,-0.24517822265625,-0.936798095703125,34166.139383,2.977143719931461,-0.0662596081038483,0.2119001402407363,-0.2563523948192596,0.2618539929389954,-0.2962292432785034,-0.03808353096246719,-0.03934641182422638,0.02970224618911743,XArbitraryZVertical,-0.04150755878787719,-0.1026315767066113,-0.9902014626734009,-0.08511755164138296,-0.0647301971912384,-0.210317924618721,-0.9754877686500549,0,0,0,-1,-1,34162.295601875,unknown,2,2022-06-02T10:46:35.211+02:00,2022-06-02T10:32:51.428+02:00,75,2.361373,0,0,68.39739,0,0,2022-06-02T10:46:37.764+02:00,675852397.7635356,0,14.00781,101.0244,1,0.89
2022-06-02T10:46:39.078+02:00,1654159593.440079,53.22906542196605,10.39847337337255,41.84494,-1,-1,-1,-1,26.66295433044434,36.58906540013426,-9999,34166.15809200001,-0.0930938720703125,-0.2490234375,-0.9297332763671875,34166.149356,2.973772238511206,-0.06300136673664386,0.2099831129458757,-0.278466522693634,0.2745835483074188,-0.3347119092941284,-0.03856668248772621,-0.04231956601142883,0.03632056713104248,XArbitraryZVertical,-0.03999085180568009,-0.1017530796426888,-0.9902261897961301,-0.08659799345905696,-0.06157675385475159,-0.2084433883428574,-0.9760940670967102,0,0,0,-1,-1,34162.295601875,unknown,2,2022-06-02T10:46:35.211+02:00,2022-06-02T10:32:51.428+02:00,75,2.361373,0,0,68.39739,0,0,2022-06-02T10:46:37.764+02:00,675852397.7635356,0,14.00781,101.0244,1,0.89
2022-06-02T10:46:39.088+02:00,1654159593.440079,53.22906542196605,10.39847337337255,41.84494,-1,-1,-1,-1,26.66295433044434,36.58906540013426,-9999,34166.16806500001,-0.1032867431640625,-0.241546630859375,-0.927337646484375,34166.159328,2.97007291057374,-0.05995972029977419,0.208149075310262,-0.3006668984889984,0.283947765827179,-0.3762883841991425,-0.03623354807496071,-0.03820852935314178,0.04350560903549194,XArbitraryZVertical,-0.0385980074201995,-0.1009048013423981,-0.9902219451762388,-0.08825565564556685,-0.05863035097718239,-0.2066492885351181,-0.9766568541526794,0,0,0,-1,-1,34162.295601875,unknown,2,2022-06-02T10:46:35.211+02:00,2022-06-02T10:32:51.428+02:00,75,2.361373,0,0,68.39739,0,0,2022-06-02T10:46:37.764+02:00,675852397.7635356,0,14.00781,101.0244,1,0.89
2022-06-02T10:46:39.098+02:00,1654159593.440079,53.22906542196605,10.39847337337255,41.84494,-1,-1,-1,-1,26.66295433044434,36.58906540013426,-9999,34166.17803700001,-0.12176513671875,-0.245025634765625,-0.91143798828125,34166.169301,2.966020225177648,-0.05624780510930606,0.2052367456685389,-0.327491968870163,0.2941336631774902,-0.3870427310466766,-0.04060380905866623,-0.04537710547447205,0.04463368654251099,XArbitraryZVertical,-0.03684212880662916,-0.09955111507870418,-0.9902645174746812,-0.09004730433712441,-0.05503828823566437,-0.2037989497184753,-0.9774644374847412,0,0,0,-1,-1,34162.295601875,unknown,2,2022-06-02T10:46:35.211+02:00,2022-06-02T10:32:51.428+02:00,75,2.361373,0,0,68.39739,0,0,2022-06-02T10:46:37.764+02:00,675852397.7635356,0,14.00781,101.0244,1,0.89
2022-06-02T10:46:39.108+02:00,1654159593.440079,53.22906542196605,10.39847337337255,41.84494,-1,-1,-1,-1,26.66295433044434,36.58906540013426,-9999,34166.18801000001,-0.13726806640625,-0.2525482177734375,-0.8887481689453125,34166.179273,2.961645498900918,-0.05238086224123865,0.2019273566307697,-0.3740711808204651,0.310738205909729,-0.4395307004451752,-0.05803611502051353,-0.0399969220161438,0.05357927083969116,XArbitraryZVertical,-0.03500199269289014,-0.09800909498310625,-0.9903062284224916,-0.09199282013916735,-0.05129311606287956,-0.2005579024553299,-0.9783381819725037,0,0,0,-1,-1,34162.295601875,unknown,2,2022-06-02T10:46:35.211+02:00,2022-06-02T10:32:51.428+02:00,75,2.361373,0,0,68.39739,0,0,2022-06-02T10:46:37.764+02:00,675852397.7635356,0,14.00781,101.0244,1,0.89
2022-06-02T10:46:39.118+02:00,1654159593.440079,53.22906542196605,10.39847337337255,41.84494,-1,-1,-1,-1,26.66295433044434,36.58906540013426,-9999,34166.19798200001,-0.150360107421875,-0.2482452392578125,-0.8715667724609375,34166.189246,2.956722323782361,-0.04815129113267289,0.1981086694552534,-0.4348225891590118,0.3458073735237122,-0.4879451394081116,-0.08226433396339417,-0.05306260287761688,0.07535827159881592,XArbitraryZVertical,-0.03297852971997977,-0.09623055603858434,-0.9903430312516636,-0.09419500555017621,-0.04719123989343643,-0.1968153417110443,-0.9793041944503784,0,0,0,-1,-1,34162.295601875,unknown,2,2022-06-02T10:46:35.211+02:00,2022-06-02T10:32:51.428+02:00,75,2.361373,0,0,68.39739,0,0,2022-06-02T10:46:37.764+02:00,675852397.7635356,0,14.00781,101.0244,1,0.89
2022-06-02T10:46:39.128+02:00,1654159593.440079,53.22906542196605,10.39847337337255,41.84494,-1,-1,-1,-1,26.66295433044434,36.58906540013426,-9999,34166.20795500001,-0.1627349853515625,-0.2517852783203125,-0.8644256591796875,34166.199218,2.951360907801115,-0.04350704233114711,0.1935634033139406,-0.5148018598556519,0.3815443515777588,-0.5251867771148682,-0.09866108745336533,-0.05764305591583252,0.09921658039093018,XArbitraryZVertical,-0.0307272409665555,-0.09411498384166718,-0.990387348425057,-0.09659811445588809,-0.04268108308315277,-0.1923569589853287,-0.9803963899612427,0,0,0,-1,-1,34162.295601875,unknown,2,2022-06-02T10:46:35.211+02:00,2022-06-02T10:32:51.428+02:00,75,2.361373,0,0,68.39739,0,0,2022-06-02T10:46:37.764+02:00,675852397.7635356,0,14.00781,101.0244,1,0.89
2022-06-02T10:46:39.138+02:00,1654159593.440079,53.22906542196605,10.39847337337255,41.84494,-1,-1,-1,-1,26.66295433044434,36.58906540013426,-9999,34166.21792700001,-0.16497802734375,-0.23602294921875,-0.8717041015625,34166.209191,2.945505734131474,-0.0382878418240958,0.1881814910757717,-0.6153291463851929,0.4401321113109589,-0.5888271927833557,-0.1178843379020691,-0.06272886693477631,0.1164527535438538,XArbitraryZVertical,-0.02816149361752552,-0.09161811004541791,-0.9904380416971612,-0.09922551163306584,-0.03760272264480591,-0.1870727986097336,-0.9816260933876038,0,0,0,-1,-1,34162.295601875,unknown,2,2022-06-02T10:46:35.211+02:00,2022-06-02T10:32:51.428+02:00,75,2.361373,0,0,68.39739,0,0,2022-06-02T10:46:37.764+02:00,675852397.7635356,0,14.00781,101.0244,1,0.89
2022-06-02T10:46:39.148+02:00,1654159593.440079,53.22906542196605,10.39847337337255,41.84494,-1,-1,-1,-1,26.66295433044434,36.58906540013426,-9999,34166.22790000001,-0.1470947265625,-0.2347869873046875,-0.878082275390625,34166.219163,2.939123139829519,-0.03233222047065853,0.1816456702585332,-0.7397893667221069,0.5255905389785767,-0.6180385947227478,-0.1324813812971115,-0.07064861059188843,0.1197066903114319,XArbitraryZVertical,-0.02518127491026169,-0.08859489258662162,-0.9905020943110235,-0.102090924434098,-0.03179474174976349,-0.1806484162807465,-0.9830337166786194,0,0,0,-1,-1,34162.295601875,unknown,2,2022-06-02T10:46:35.211+02:00,2022-06-02T10:32:51.428+02:00,75,2.361373,0,0,68.39739,0,0,2022-06-02T10:46:37.764+02:00,675852397.7635356,0,14.00781,101.0244,1,0.89
2022-06-02T10:46:39.158+02:00,1654159593.440079,53.22906542196605,10.39847337337255,41.84494,-1,-1,-1,-1,26.66295433044434,36.58906540013426,-9999,34166.23787200001,-0.1154327392578125,-0.23162841796875,-0.918853759765625,34166.229136,2.932331220628649,-0.025684510587201,0.1738086069727818,-0.8667676448822021,0.5775763392448425,-0.6828199625015259,-0.1386456787586212,-0.05410072207450867,0.1063125133514404,XArbitraryZVertical,-0.02178758479623592,-0.08497702821089799,-0.9905799206197418,-0.1051457124888762,-0.02529474720358849,-0.17293481528759,-0.9846084117889404,0,0,0,-1,-1,34162.295601875,unknown,2,2022-06-02T10:46:35.211+02:00,2022-06-02T10:32:51.428+02:00,75,2.361373,0,0,68.39739,0,0,2022-06-02T10:46:37.764+02:00,675852397.7635356,0,14.00781,101.0244,1,0.89
2022-06-02T10:46:39.168+02:00,1654159593.440079,53.22906542196605,10.39847337337255,41.84494,-1,-1,-1,-1,26.66295433044434,36.58906540013426,-9999,34166.24784500001,-0.0975341796875,-0.197174072265625,-0.9386444091796875,34166.239108,2.924977821901162,-0.0185275668349389,0.1645252258023455,-1.005257606506348,0.6081571578979492,-0.7362280488014221,-0.1138495281338692,-0.0758400559425354,0.09597659111022949,XArbitraryZVertical,-0.01806006268239568,-0.08068691001479514,-0.9906538153079717,-0.1084823479999631,-0.01827632822096348,-0.1637839823961258,-0.9863269329071045,0,0,0,-1,-1,34162.295601875,unknown,2,2022-06-02T10:46:35.211+02:00,2022-06-02T10:32:51.428+02:00,75,2.361373,0,0,68.39739,0,0,2022-06-02T10:46:37.764+02:00,675852397.7635356,0,14.00781,101.0244,1,0.89
2022-06-02T10:46:39.178+02:00,1654159593.440079,53.22906542196605,10.39847337337255,41.84494,-1,-1,-1,-1,26.66295433044434,36.58906540013426,-9999,34166.25781700001,-0.0693511962890625,-0.1911773681640625,-0.926849365234375,34166.249081,2.91711871541371,-0.01094359314564356,0.1544207279914883,-1.03896951675415,0.656049370765686,-0.7884050607681274,-0.0979667529463768,-0.06640711426734924,0.06108546257019043,XArbitraryZVertical,-0.01406009783854228,-0.07603617731158888,-0.9906855117090462,-0.1120855479538843,-0.01081315707415342,-0.153807744383812,-0.9880416393280029,0,0,0,-1,-1,34162.295601875,unknown,2,2022-06-02T10:46:35.211+02:00,2022-06-02T10:32:51.428+02:00,75,2.361373,0,0,68.39739,0,0,2022-06-02T10:46:37.764+02:00,675852397.7635356,0,14.00781,101.0244,1,0.89
2022-06-02T10:46:39.188+02:00,1654159593.440079,53.22906542196605,10.39847337337255,41.84494,-1,-1,-1,-1,26.66295433044434,36.58906540013426,-9999,34166.26779000001,-0.062042236328125,-0.1887054443359375,-0.9137725830078125,34166.259053,2.908868043168232,-0.003334348982508601,0.144022512854113,-1.061258792877197,0.6233529448509216,-0.8305599689483643,-0.08401097357273102,-0.04681302607059479,0.05157661437988281,XArbitraryZVertical,-0.01000487115313714,-0.07126932861657673,-0.9906480507226647,-0.1159179640968893,-0.00329982116818428,-0.1435251384973526,-0.9896411895751953,0,0,0,-1,-1,34162.295601875,unknown,2,2022-06-02T10:46:35.211+02:00,2022-06-02T10:32:51.428+02:00,75,2.361373,0,0,68.39739,0,0,2022-06-02T10:46:37.764+02:00,675852397.7635356,0,14.00781,101.0244,1,0.89
2022-06-02T10:46:39.198+02:00,1654159593.440079,53.22906542196605,10.39847337337255,41.84494,-1,-1,-1,-1,26.66295433044434,36.58906540013426,-9999,34166.27776200001,-0.080322265625,-0.1959228515625,-0.9076690673828125,34166.269026,2.900369160502485,0.003919495862724326,0.1331135252238549,-1.113715410232544,0.5991894006729126,-0.8644456267356873,-0.06606438010931015,-0.05876179039478302,0.07259732484817505,XArbitraryZVertical,-0.006060950245545259,-0.06625961691127454,-0.9905510129817785,-0.1199235184815033,0.003884811885654926,-0.1327207684516907,-0.9911458492279053,0,0,0,-1,-1,34162.295601875,unknown,2,2022-06-02T10:46:35.211+02:00,2022-06-02T10:32:51.428+02:00,75,2.361373,0,0,68.39739,0,0,2022-06-02T10:46:37.764+02:00,675852397.7635356,0,14.00781,101.0244,1,0.89
2022-06-02T10:46:39.208+02:00,1654159593.440079,53.22906542196605,10.39847337337255,41.84494,-1,-1,-1,-1,26.66295433044434,36.58906540013426,-9999,34166.28773500001,-0.1033935546875,-0.199432373046875,-0.9035186767578125,34166.278998,2.89155387483516,0.01098097051803167,0.1216857506637972,-1.165363669395447,0.6055532693862915,-0.9118424654006958,-0.07860279828310013,-0.06814377009868622,0.08141279220581055,XArbitraryZVertical,-0.002144420063112396,-0.06101322131823901,-0.9903860776560598,-0.1241301396342211,0.0108995521441102,-0.1213856637477875,-0.9925456047058105,0,0,0,-1,-1,34162.295601875,unknown,2,2022-06-02T10:46:35.211+02:00,2022-06-02T10:32:51.428+02:00,75,2.361373,0,0,68.39739,0,0,2022-06-02T10:46:37.764+02:00,675852397.7635356,0,14.00781,101.0244,1,0.89
2022-06-02T10:46:39.218+02:00,1654159593.440079,53.22906542196605,10.39847337337255,41.84494,-1,-1,-1,-1,26.66295433044434,36.58906540013426,-9999,34166.29770800001,-0.106109619140625,-0.17706298828125,-0.8921966552734375,34166.288971,2.882344516880658,0.01824072708278763,0.1095556557925146,-1.250239372253418,0.637880802154541,-0.9645320773124695,-0.1064482405781746,-0.08768486976623535,0.08704012632369995,XArbitraryZVertical,0.001953336057350562,-0.05546598018781074,-0.9901465729026084,-0.1285669738506956,0.01813036389648914,-0.1093366295099258,-0.99383944272995,0,0,0,-1,-1,34162.295601875,unknown,2,2022-06-02T10:46:35.211+02:00,2022-06-02T10:32:51.428+02:00,75,2.361373,0,0,68.39739,0,0,2022-06-02T10:46:37.764+02:00,675852397.7635356,0,14.00781,101.0244,1,0.89
2022-06-02T10:46:39.228+02:00,1654159593.440079,53.22906542196605,10.39847337337255,41.84494,-1,-1,-1,-1,26.66295433044434,36.58906540013426,-9999,34166.30768000001,-0.118621826171875,-0.1455841064453125,-0.957275390625,34166.298944,2.873035235721034,0.02592520283401008,0.09656360875222733,-1.334120392799377,0.7418335676193237,-0.9141165614128113,-0.1330097913742065,-0.1191015392541885,0.09850728511810303,XArbitraryZVertical,0.006369886295081137,-0.0495578791174889,-0.9898438660468368,-0.1330883255031915,0.02580153569579124,-0.09641361236572266,-0.9950068593025208,0,0,0,-1,-1,34162.295601875,unknown,2,2022-06-02T10:46:35.211+02:00,2022-06-02T10:32:51.428+02:00,75,2.361373,0,0,68.39739,0,0,2022-06-02T10:46:37.764+02:00,675852397.7635356,0,14.00781,101.0244,1,0.89
2022-06-02T10:46:39.238+02:00,1654159593.440079,53.22906542196605,10.39847337337255,41.84494,-1,-1,-1,-1,26.66295433044434,36.58906540013426,-9999,34166.31765300001,-0.0747833251953125,-0.1907196044921875,-0.988800048828125,34166.308916,2.863887671900145,0.03434240687684851,0.08238273982853747,-1.436085104942322,0.7835772633552551,-1.041774034500122,-0.1465544104576111,-0.04715073853731155,0.0835605263710022,XArbitraryZVertical,0.01129196874033488,-0.04315185439370498,-0.9894873271264478,-0.1375686652963179,0.03421920537948608,-0.08228958398103714,-0.9960207939147949,0,0,0,-1,-1,34162.295601875,unknown,2,2022-06-02T10:46:35.211+02:00,2022-06-02T10:32:51.428+02:00,75,2.361373,0,0,68.39739,0,0,2022-06-02T10:46:37.764+02:00,675852397.7635356,0,14.00781,101.0244,1,0.89
2022-06-02T10:46:39.255+02:00,1654159593.440079,53.22906542196605,10.39847337337255,41.84494,-1,-1,-1,-1,26.66295433044434,36.58906540013426,-9999,34166.32762500001,-0.0239715576171875,-0.170440673828125,-1.020339965820312,34166.318889,2.853576983323364,0.04310034078961587,0.06695637251180066,-1.595653414726257,0.8161118030548096,-1.113817811012268,-0.1503970623016357,-0.1132084131240845,0.02304726839065552,XArbitraryZVertical,0.01651103590206468,-0.03620846983965485,-0.988968142128556,-0.1426831091848246,0.04299044981598854,-0.06690635532140732,-0.9968326687812805,0,0,0,-1,-1,34162.295601875,unknown,2,2022-06-02T10:46:35.211+02:00,2022-06-02T10:32:51.428+02:00,75,2.361373,0,0,68.39739,0,0,2022-06-02T10:46:37.764+02:00,675852397.7635356,0,14.00781,101.0244,1,0.89
2022-06-02T10:46:39.270+02:00,1654159593.440079,53.22906542196605,10.39847337337255,41.84494,-1,-1,-1,-1,26.66295433044434,36.58906540013426,-9999,34166.33759800001,0.00164794921875,-0.117706298828125,-1.06103515625,34166.328861,2.84333956050831,0.05193080874158668,0.04941551376012422,-1.805504441261292,0.8533305525779724,-1.095324635505676,-0.1055703014135361,-0.1338779330253601,0.001735806465148926,XArbitraryZVertical,0.02199716720855986,-0.02827899324098546,-0.9883614963930206,-0.1478447453717822,0.05184410884976387,-0.04939540475606918,-0.9974328279495239,0,0,0,-1,-1,34162.295601875,unknown,2,2022-06-02T10:46:35.211+02:00,2022-06-02T10:32:51.428+02:00,75,2.361373,0,0,68.39739,0,0,2022-06-02T10:46:37.764+02:00,675852397.7635356,0,14.00781,101.0244,1,0.89
2022-06-02T10:46:39.274+02:00,1654159593.440079,53.22906542196605,10.39847337337255,41.84494,-1,-1,-1,-1,26.66295433044434,36.58906540013426,-9999,34166.34757000001,0.0273284912109375,-0.0609893798828125,-1.0799560546875,34166.338834,2.833795552755444,0.06113951006027878,0.030108982573083,-1.944504380226135,0.9219921827316284,-1.036398410797119,-0.07407422363758087,-0.1264355033636093,-0.04202419519424438,XArbitraryZVertical,0.02789375823108716,-0.01955388023032034,-0.9876778994468872,-0.1527481000317254,0.06107373163104057,-0.03010443411767483,-0.9976791739463806,0,0,0,-1,-1,34162.295601875,unknown,2,2022-06-02T10:46:35.211+02:00,2022-06-02T10:32:51.428+02:00,75,2.361373,0,0,68.39739,0,0,2022-06-02T10:46:37.764+02:00,675852397.7635356,0,14.00781,101.0244,1,0.89
2022-06-02T10:46:39.278+02:00,1654159593.440079,53.22906542196605,10.39847337337255,41.84494,-1,-1,-1,-1,26.66295433044434,36.58906540013426,-9999,34166.35754300001,0.0463714599609375,-0.0398406982421875,-1.103866577148438,34166.348806,2.824722642787537,0.07074506878730343,0.009686995979508485,-1.999763965606689,0.9683478474617004,-1.061663746833801,-0.05936073511838913,-0.08285772800445557,-0.07191461324691772,XArbitraryZVertical,0.03415812216785861,-0.01035942651923345,-0.9868731513337323,-0.1575033202675594,0.07068275660276413,-0.009686844423413277,-0.9974517822265625,0,0,0,-1,-1,34162.295601875,unknown,2,2022-06-02T10:46:35.211+02:00,2022-06-02T10:32:51.428+02:00,75,2.361373,0,0,68.39739,0,0,2022-06-02T10:46:37.764+02:00,675852397.7635356,0,14.00781,101.0244,1,0.89
2022-06-02T10:46:39.288+02:00,1654159593.440079,53.22906542196605,10.39847337337255,41.84494,-1,-1,-1,-1,26.66295433044434,36.58906540013426,-9999,34166.36751500001,0.0718994140625,-0.0154876708984375,-1.119979858398438,34166.358779,2.815304676084345,0.08045227181723827,-0.01071122318005254,-1.920443415641785,0.9719132781028748,-1.130558967590332,-0.04703570902347565,-0.06227048486471176,-0.09569895267486572,XArbitraryZVertical,0.04054987985571954,-0.001251526054773357,-0.9858741284119932,-0.1625000213072073,0.08036090433597565,0.01071101799607277,-0.9967082738876343,0,0,0,-1,-1,34162.295601875,unknown,2,2022-06-02T10:46:35.211+02:00,2022-06-02T10:32:51.428+02:00,75,2.361373,0,0,68.39739,0,0,2022-06-02T10:46:37.764+02:00,675852397.7635356,0,14.00781,101.0244,1,0.89
2022-06-02T10:46:39.298+02:00,1654159593.440079,53.22906542196605,10.39847337337255,41.84494,-1,-1,-1,-1,26.66295433044434,36.58906540013426,-9999,34166.37748800001,0.08929443359375,-0.0286712646484375,-1.14923095703125,34166.368751,2.805550855748386,0.08994864453878078,-0.03015151170294953,-1.796120762825012,0.9782453179359436,-1.138224601745605,-0.03245929628610611,-0.06231248378753662,-0.1111542582511902,XArbitraryZVertical,0.04683948782187739,0.007330129009138475,-0.9846955302416331,-0.1677116208271491,0.08978657424449921,0.03014694340527058,-0.9955046772956848,0,0,0,-1,-1,34162.295601875,unknown,2,2022-06-02T10:46:35.211+02:00,2022-06-02T10:32:51.428+02:00,75,2.361373,0,0,68.39739,0,0,2022-06-02T10:46:37.764+02:00,675852397.7635356,0,14.00781,101.0244,1,0.89
2022-06-02T10:46:39.307+02:00,1654159593.440079,53.22906542196605,10.39847337337255,41.84494,-1,-1,-1,-1,26.66295433044434,36.58906540013426,-9999,34166.38746000001,0.0877227783203125,0.048736572265625,-1.222396850585938,34166.378724,2.7959272587544,0.09941687008560338,-0.04846006771742376,-1.664348363876343,1.015228509902954,-1.118695855140686,-0.02143890410661697,-0.06012934818863869,-0.1397729516029358,XArbitraryZVertical,0.05309469512563091,0.01529472088543052,-0.9833889599175584,-0.1728965905097586,0.09913666546344757,0.04844110459089279,-0.9938940405845642,0,0,0,-1,-1,34162.295601875,unknown,2,2022-06-02T10:46:35.211+02:00,2022-06-02T10:32:51.428+02:00,75,2.361373,0,0,68.39739,0,0,2022-06-02T10:46:37.764+02:00,675852397.7635356,0,14.00781,101.0244,1,0.89
2022-06-02T10:46:39.318+02:00,1654159593.440079,53.22906542196605,10.39847337337255,41.84494,-1,-1,-1,-1,26.66295433044434,36.58906540013426,-9999,34166.39743300001,0.0802459716796875,0.048614501953125,-1.245681762695312,34166.388696,2.787080563286298,0.109391603746563,-0.06578434902257452,-1.599014163017273,1.082836031913757,-1.015508651733398,-0.01407352834939957,-0.08311669528484344,-0.1855107545852661,XArbitraryZVertical,0.05957296988560219,0.02268809452787699,-0.9820106823215865,-0.1777400816841198,0.1089374199509621,0.06573691219091415,-0.9918726086616516,0,0,0,-1,-1,34162.295601875,unknown,2,2022-06-02T10:46:35.211+02:00,2022-06-02T10:32:51.428+02:00,75,2.361373,0,0,68.39739,0,0,2022-06-02T10:46:37.764+02:00,675852397.7635356,0,14.00781,101.0244,1,0.89
2022-06-02T10:46:39.328+02:00,1654159593.440079,53.22906542196605,10.39847337337255,41.84494,-1,-1,-1,-1,26.66295433044434,36.58906540013426,-9999,34166.40740500001,0.10369873046875,0.0361785888671875,-1.288986206054688,34166.398669,2.778479938487649,0.1197905209061498,-0.08221606972064999,-1.467440485954285,1.117602467536926,-1.084727168083191,-0.03845786303281784,-0.01327583193778992,-0.2469701170921326,XArbitraryZVertical,0.06623294902826646,0.02954937997551308,-0.9805265788280444,-0.1825041271590832,0.1191005632281303,0.08212348073720932,-0.9894800782203674,0,0,0,-1,-1,34162.295601875,unknown,2,2022-06-02T10:46:35.211+02:00,2022-06-02T10:32:51.428+02:00,75,2.361373,0,0,68.39739,0,0,2022-06-02T10:46:37.764+02:00,675852397.7635356,0,14.00781,101.0244,1,0.89
2022-06-02T10:46:39.338+02:00,1654159593.440079,53.22906542196605,10.39847337337255,41.84494,-1,-1,-1,-1,26.66295433044434,36.58906540013426,-9999,34166.41737800001,0.1267547607421875,0.045501708984375,-1.341552734375,34166.408641,2.769471806190449,0.1303280211547266,-0.09783551548180064,-1.428502798080444,1.160365462303162,-1.068932414054871,-0.04117262363433838,-0.06726875901222229,-0.264885425567627,XArbitraryZVertical,0.07294388223142098,0.03592063360231846,-0.9788927597183288,-0.1875045322886178,0.1293379068374634,0.0976795107126236,-0.9867777824401855,0,0,0,-1,-1,34162.295601875,unknown,2,2022-06-02T10:46:35.211+02:00,2022-06-02T10:32:51.428+02:00,75,2.361373,0,0,68.39739,0,0,2022-06-02T10:46:37.764+02:00,675852397.7635356,0,14.00781,101.0244,1,0.89
2022-06-02T10:46:39.348+02:00,1654159593.440079,53.22906542196605,10.39847337337255,41.84494,-1,-1,-1,-1,26.66295433044434,36.58906540013426,-9999,34166.42735000001,0.1285552978515625,0.0727386474609375,-1.380615234375,34166.418614,2.761288852387953,0.1413787724624255,-0.1135236708542336,-1.474241256713867,1.243242859840393,-0.9687432050704956,-0.02757449448108673,-0.06930416822433472,-0.3269884586334229,XArbitraryZVertical,0.0799416539411197,0.04224143782151562,-0.9771882135418939,-0.19216712668522,0.1400012522935867,0.1132799834012985,-0.9836499691009521,0,0,0,-1,-1,34162.295601875,unknown,2,2022-06-02T10:46:35.211+02:00,2022-06-02T10:32:51.428+02:00,75,2.361373,0,0,68.39739,0,0,2022-06-02T10:46:37.764+02:00,675852397.7635356,0,14.00781,101.0244,1,0.89
2022-06-02T10:46:39.358+02:00,1654159593.440079,53.22906542196605,10.39847337337255,41.84494,-1,-1,-1,-1,26.66295433044434,36.58906540013426,-9999,34166.43732300001,0.1303253173828125,0.1143646240234375,-1.374526977539062,34166.428586,2.754281772611554,0.1533147712165012,-0.1298312478885248,-1.541845917701721,1.33511757850647,-0.9053429365158081,-0.02050915360450745,-0.07612209022045135,-0.3834658265113831,XArbitraryZVertical,0.0874399138454966,0.04876348270870959,-0.9754085571614385,-0.196352983890108,0.1514295637607574,0.1294668167829514,-0.9799527525901794,0,0,0,-1,-1,34162.295601875,unknown,2,2022-06-02T10:46:35.211+02:00,2022-06-02T10:32:51.428+02:00,75,2.361373,0,0,68.39739,0,0,2022-06-02T10:46:37.764+02:00,675852397.7635356,0,14.00781,101.0244,1,0.89
2022-06-02T10:46:39.368+02:00,1654159593.440079,53.22906542196605,10.39847337337255,41.84494,-1,-1,-1,-1,26.66295433044434,36.58906540013426,-9999,34166.44729500001,0.152008056640625,0.1651763916015625,-1.354660034179688,34166.438559,2.747814344106006,0.1662602834201012,-0.1464973815717237,-1.535098195075989,1.448168039321899,-0.8951390385627747,-0.03680002689361572,-0.06060102581977844,-0.4040224552154541,XArbitraryZVertical,0.0954784623433205,0.05532185142529095,-0.9734839697890847,-0.200380604464138,0.1637226492166519,0.1459739357233047,-0.9756467342376709,0,0,0,-1,-1,34162.295601875,unknown,2,2022-06-02T10:46:35.211+02:00,2022-06-02T10:32:51.428+02:00,75,2.361373,0,0,68.39739,0,0,2022-06-02T10:46:37.764+02:00,675852397.7635356,0,14.00781,101.0244,1,0.89
2022-06-02T10:46:39.377+02:00,1654159593.440079,53.22906542196605,10.39847337337255,41.84494,-1,-1,-1,-1,26.66295433044434,36.58906540013426,-9999,34166.45726800001,0.182891845703125,0.1942901611328125,-1.336517333984375,34166.448531,2.741739850975858,0.1802026070192584,-0.1627913978447453,-1.470747351646423,1.540257334709167,-0.8492695689201355,-0.04157483577728271,-0.02819271385669708,-0.3974859118461609,XArbitraryZVertical,0.1039768024137406,0.06155259250022572,-0.9714210445112665,-0.2043069130175735,0.1768592745065689,0.1620733290910721,-0.9708002209663391,0,0,0,-1,-1,34162.295601875,unknown,2,2022-06-02T10:46:35.211+02:00,2022-06-02T10:32:51.428+02:00,75,2.361373,0,0,68.39739,0,0,2022-06-02T10:46:37.764+02:00,675852397.7635356,0,14.00781,101.0244,1,0.89
2022-06-02T10:46:39.387+02:00,1654159593.440079,53.22906542196605,10.39847337337255,41.84494,-1,-1,-1,-1,26.66295433044434,36.58906540013426,-9999,34166.467241,0.21551513671875,0.2236785888671875,-1.29046630859375,34166.458504,2.736278624372336,0.1953372344160309,-0.1783756293243848,-1.304116368293762,1.615834355354309,-0.7926997542381287,-0.02820637822151184,0.003324389457702637,-0.368750274181366,XArbitraryZVertical,0.1129800207205744,0.06728225401008062,-0.9692441644677305,-0.2080250412859639,0.1910176575183868,0.1774312108755112,-0.965417206287384,0,0,0,-1,-1,34162.295601875,unknown,2,2022-06-02T10:46:35.211+02:00,2022-06-02T10:32:51.428+02:00,75,2.361373,0,0,68.39739,0,0,2022-06-02T10:46:37.764+02:00,675852397.7635356,0,14.00781,101.0244,1,0.89
2022-06-02T10:46:39.397+02:00,1654159593.440079,53.22906542196605,10.39847337337255,41.84494,-1,-1,-1,-1,26.66295433044434,36.58906540013426,-9999,34166.47721300001,0.2155303955078125,0.2656402587890625,-1.286544799804688,34166.468477,2.731136038356246,0.2107277326385692,-0.1923826179370348,-1.206402182579041,1.676899433135986,-0.7540286183357239,-0.007619798183441162,0.003061532974243164,-0.3489078283309937,XArbitraryZVertical,0.1219501632468273,0.07217270280556225,-0.9670260086612636,-0.2116124110598554,0.2053126841783524,0.1911980956792831,-0.9598385095596313,0,0,0,-1,-1,34162.295601875,unknown,2,2022-06-02T10:46:35.211+02:00,2022-06-02T10:32:51.428+02:00,75,2.361373,0,0,68.39739,0,0,2022-06-02T10:46:37.764+02:00,675852397.7635356,0,14.00781,101.0244,1,0.89
2022-06-02T10:46:39.407+02:00,1654159593.440079,53.22906542196605,10.39847337337255,41.84494,-1,-1,-1,-1,26.66295433044434,36.58906540013426,-9999,34166.487186,0.2147369384765625,0.30657958984375,-1.296173095703125,34166.478449,2.726354905541164,0.2267079324491391,-0.205099458276208,-1.043245792388916,1.754412889480591,-0.7026282548904419,-0.002912044525146484,0.03382325172424316,-0.3319305181503296,XArbitraryZVertical,0.1310669404495376,0.07633555173956197,-0.9647500159262914,-0.2150621846717256,0.2200598865747452,0.2036645412445068,-0.9539886713027954,0,0,0,-1,-1,34162.295601875,unknown,2,2022-06-02T10:46:35.211+02:00,2022-06-02T10:32:51.428+02:00,75,2.361373,0,0,68.39739,0,0,2022-06-02T10:46:37.764+02:00,675852397.7635356,0,14.00781,101.0244,1,0.89
2022-06-02T10:46:39.418+02:00,1654159593.440079,53.22906542196605,10.39847337337255,41.84494,-1,-1,-1,-1,26.66295433044434,36.58906540013426,-9999,34166.49715800001,0.220855712890625,0.3314056396484375,-1.300674438476562,34166.488422,2.721664781285681,0.2433463782779874,-0.2162578093212576,-0.8351176977157593,1.865963339805603,-0.6715107560157776,-0.02153317630290985,0.070473313331604,-0.3434664607048035,XArbitraryZVertical,0.1403409178068409,0.07961852564204239,-0.9624079389074658,-0.2184861972530425,0.2353393286466599,0.2145761102437973,-0.947930634021759,0,0,0,-1,-1,34162.295601875,unknown,2,2022-06-02T10:46:35.211+02:00,2022-06-02T10:32:51.428+02:00,75,2.361373,0,0,68.39739,0,0,2022-06-02T10:46:37.764+02:00,675852397.7635356,0,14.00781,101.0244,1,0.89
2022-06-02T10:46:39.427+02:00,1654159593.440079,53.22906542196605,10.39847337337255,41.84494,-1,-1,-1,-1,26.66295433044434,36.58906540013426,-9999,34166.507131,0.228363037109375,0.3177642822265625,-1.32220458984375,34166.498394,2.716901095554722,0.2608899911436641,-0.2252292153018998,-0.6264355778694153,1.907763838768005,-0.6658766269683838,-0.03560540080070496,0.0948159396648407,-0.3574969172477722,XArbitraryZVertical,0.1498309286209804,0.08167916797943497,-0.9600139991010908,-0.2219284937231535,0.251425713300705,0.2233297973871231,-0.941758394241333,0,0,0,-1,-1,34162.295601875,unknown,2,2022-06-02T10:46:35.211+02:00,2022-06-02T10:32:51.428+02:00,75,2.361373,0,0,68.39739,0,0,2022-06-02T10:46:37.764+02:00,675852397.7635356,0,14.00781,101.0244,1,0.89
2022-06-02T10:46:39.437+02:00,1654159593.440079,53.22906542196605,10.39847337337255,41.84494,-1,-1,-1,-1,26.66295433044434,36.58906540013426,-9999,34166.51710300001,0.227691650390625,0.3298797607421875,-1.304763793945312,34166.508367,2.711655926193999,0.2788333433707804,-0.2325451730607348,-0.5083105564117432,1.963040113449097,-0.6805071830749512,-0.04341474175453186,0.0979294627904892,-0.3737195730209351,XArbitraryZVertical,0.1593571156154514,0.08279737694562728,-0.9575321037552567,-0.2255708462979693,0.2678257524967194,0.2304549366235733,-0.9354997873306274,0,0,0,-1,-1,34162.295601875,unknown,2,2022-06-02T10:46:35.211+02:00,2022-06-02T10:32:51.428+02:00,75,2.361373,0,0,68.39739,0,0,2022-06-02T10:46:37.764+02:00,675852397.7635356,0,14.00781,101.0244,1,0.89
2022-06-02T10:46:39.447+02:00,1654159593.440079,53.22906542196605,10.39847337337255,41.84494,-1,-1,-1,-1,26.66295433044434,36.58906540013426,-9999,34166.527076,0.2347564697265625,0.346099853515625,-1.253402709960938,34166.518339,2.706981480944924,0.2977487534070505,-0.2384201277287107,-0.3373227715492249,2.060595035552979,-0.5210613608360291,-0.0569206178188324,0.08358016610145569,-0.3915850520133972,XArbitraryZVertical,0.1691659714751911,0.08309456342489766,-0.9550239964265594,-0.2289264670620931,0.2850700318813324,0.2361677438020706,-0.9289563298225403,0,0,0,-1,-1,34162.295601875,unknown,2,2022-06-02T10:46:35.211+02:00,2022-06-02T10:32:51.428+02:00,75,2.361373,0,0,68.39739,0,0,2022-06-02T10:46:37.764+02:00,675852397.7635356,0,14.00781,101.0244,1,0.89
2022-06-02T10:46:39.457+02:00,1654159593.440079,53.22906542196605,10.39847337337255,41.84494,-1,-1,-1,-1,26.66295433044434,36.58906540013426,-9999,34166.53704800001,0.245880126953125,0.33056640625,-1.2012939453125,34166.528312,2.703155307227315,0.3176162757477274,-0.2422232751002999,-0.168488398194313,2.11676549911499,-0.4317481815814972,-0.07483813166618347,0.09885300695896149,-0.3653326034545898,XArbitraryZVertical,0.1791689257009351,0.08230182035907527,-0.9525705907164245,-0.2318063835775819,0.303185909986496,0.2398615926504135,-0.9222497940063477,0,0,0,-1,-1,34162.295601875,unknown,2,2022-06-02T10:46:35.211+02:00,2022-06-02T10:32:51.428+02:00,75,2.361373,0,0,68.39739,0,0,2022-06-02T10:46:37.764+02:00,675852397.7635356,0,14.00781,101.0244,1,0.89
2022-06-02T10:46:39.467+02:00,1654159593.440079,53.22906542196605,10.39847337337255,41.84494,-1,-1,-1,-1,26.66295433044434,36.58906540013426,-9999,34166.547021,0.2598114013671875,0.3178558349609375,-1.131927490234375,34166.538284,2.699289985253595,0.3379522708392558,-0.2445266281823898,-0.01906855963170528,2.151485681533813,-0.4289867579936981,-0.08313685655593872,0.1003101468086243,-0.3185469508171082,XArbitraryZVertical,0.1892236220597368,0.08068006612201603,-0.9500716078981476,-0.2346255205942941,0.3216927647590637,0.2420970648527145,-0.9153702855110168,0,0,0,-1,-1,34162.295601875,unknown,2,2022-06-02T10:46:35.211+02:00,2022-06-02T10:32:51.428+02:00,75,2.361373,0,0,68.39739,0,0,2022-06-02T10:46:37.764+02:00,675852397.7635356,0,14.00781,101.0244,1,0.89
2022-06-02T10:46:39.477+02:00,1654159593.440079,53.22906542196605,10.39847337337255,41.84494,-1,-1,-1,-1,26.66295433044434,36.58906540013426,-9999,34166.55699300001,0.269744873046875,0.318603515625,-1.065826416015625,34166.548257,2.695153742126437,0.358619459424421,-0.2456756650504132,0.08126590400934219,2.201091527938843,-0.3965829014778137,-0.08884084224700928,0.08154104650020599,-0.2705672979354858,XArbitraryZVertical,0.1993043874709888,0.07838940207590467,-0.947486737381213,-0.2374908069558604,0.3404430150985718,0.2432117611169815,-0.9082657098770142,0,0,0,-1,-1,34162.295601875,unknown,2,2022-06-02T10:46:35.211+02:00,2022-06-02T10:32:51.428+02:00,75,2.361373,0,0,68.39739,0,0,2022-06-02T10:46:37.764+02:00,675852397.7635356,0,14.00781,101.0244,1,0.89
2022-06-02T10:46:39.487+02:00,1654159593.440079,53.22906542196605,10.39847337337255,41.84494,-1,-1,-1,-1,26.66295433044434,36.58906540013426,-9999,34166.566966,0.277923583984375,0.333526611328125,-1.036941528320312,34166.558229,2.691154608166842,0.3798855697101129,-0.2459027846962923,0.1597346067428589,2.267623662948608,-0.3382335901260376,-0.094614177942276,0.07123470306396484,-0.2032341957092285,XArbitraryZVertical,0.2095410332426947,0.07554944059499061,-0.9448175010660927,-0.240218304878128,0.359659343957901,0.2434320449829102,-0.9007696509361267,0,0,0,-1,-1,34162.295601875,unknown,2,2022-06-02T10:46:35.211+02:00,2022-06-02T10:32:51.428+02:00,75,2.361373,0,0,68.39739,0,0,2022-06-02T10:46:37.764+02:00,675852397.7635356,0,14.00781,101.0244,1,0.89
2022-06-02T10:46:39.497+02:00,1654159593.440079,53.22906542196605,10.39847337337255,41.84494,-1,-1,-1,-1,26.66295433044434,36.58906540013426,-9999,34166.57693800001,0.293731689453125,0.3297271728515625,-1.011367797851562,34166.568202,2.687363883780322,0.4018781040866964,-0.2453649802789597,0.2193231880664825,2.33085036277771,-0.3027962744235992,-0.1065897345542908,0.08168983459472656,-0.1544018983840942,XArbitraryZVertical,0.2200029260491157,0.0722301948517458,-0.9420411646396544,-0.2427757616102063,0.3794321417808533,0.2429103851318359,-0.8927630186080933,0,0,0,-1,-1,34162.295601875,unknown,2,2022-06-02T10:46:35.211+02:00,2022-06-02T10:32:51.428+02:00,75,2.361373,0,0,68.39739,0,0,2022-06-02T10:46:37.764+02:00,675852397.7635356,0,14.00781,101.0244,1,0.89
2022-06-02T10:46:39.507+02:00,1654159593.440079,53.22906542196605,10.39847337337255,41.84494,-1,-1,-1,-1,26.66295433044434,36.58906540013426,-9999,34166.586911,0.3129730224609375,0.3145294189453125,-0.9877471923828125,34166.578174,2.683555865525522,0.4243687018990814,-0.2441998791942722,0.3114208877086639,2.373968362808228,-0.2820635735988617,-0.1165400147438049,0.09371496737003326,-0.1491246223449707,XArbitraryZVertical,0.2306004975509754,0.06850257642532791,-0.9391375356367982,-0.2452582274439707,0.3995295166969299,0.241780012845993,-0.8842616081237793,0,0,0,-1,-1,34162.295601875,unknown,2,2022-06-02T10:46:35.211+02:00,2022-06-02T10:32:51.428+02:00,75,2.361373,0,0,68.39739,0,0,2022-06-02T10:46:37.764+02:00,675852397.7635356,0,14.00781,101.0244,1,0.89
2022-06-02T10:46:39.517+02:00,1654159593.440079,53.22906542196605,10.39847337337255,41.84494,-1,-1,-1,-1,26.66295433044434,36.58906540013426,-9999,34166.59688300001,0.3399505615234375,0.317352294921875,-0.9741058349609375,34166.588147,2.679373606446438,0.4472030893569922,-0.2420171950272345,0.4405833184719086,2.414146184921265,-0.2727941274642944,-0.1181303262710571,0.08435887098312378,-0.1220844388008118,XArbitraryZVertical,0.2412310158643441,0.06415831128143035,-0.9361076540577143,-0.2477777301228572,0.419842392206192,0.2396615147590637,-0.8753826022148132,0,0,0,-1,-1,34162.295601875,unknown,2,2022-06-02T10:46:35.211+02:00,2022-06-02T10:32:51.428+02:00,75,2.361373,0,0,68.39739,0,0,2022-06-02T10:46:37.764+02:00,675852397.7635356,0,14.00781,101.0244,1,0.89
2022-06-02T10:46:39.527+02:00,1654159593.440079,53.22906542196605,10.39847337337255,41.84494,-1,-1,-1,-1,26.66295433044434,36.58906540013426,-9999,34166.606856,0.3738250732421875,0.31805419921875,-0.97735595703125,34166.598119,2.674659995804858,0.470435123761976,-0.238649998077014,0.5658144354820251,2.467152118682861,-0.2428913563489914,-0.1186043322086334,0.07644458115100861,-0.1151848435401917,XArbitraryZVertical,0.2519017742279315,0.05908935313657795,-0.9329351852075001,-0.2503714577765517,0.4404274821281433,0.2363910973072052,-0.8661078810691833,0,0,0,-1,-1,34162.295601875,unknown,2,2022-06-02T10:46:35.211+02:00,2022-06-02T10:32:51.428+02:00,75,2.361373,0,0,68.39739,0,0,2022-06-02T10:46:37.764+02:00,675852397.7635356,0,14.00781,101.0244,1,0.89
2022-06-02T10:46:39.537+02:00,1654159593.440079,53.22906542196605,10.39847337337255,41.84494,-1,-1,-1,-1,26.66295433044434,36.58906540013426,-9999,34166.61682800001,0.4033966064453125,0.3107452392578125,-0.9430694580078125,34166.608092,2.669769755333185,0.4939816182973597,-0.2342520182492689,0.6703084707260132,2.484983921051025,-0.1859359890222549,-0.1079295575618744,0.08839535713195801,-0.1171206831932068,XArbitraryZVertical,0.2625709666210098,0.05342117304908369,-0.9296576548040753,-0.2528624818405241,0.4611857831478119,0.2321154922246933,-0.8564053177833557,0,0,0,-1,-1,34162.295601875,unknown,2,2022-06-02T10:46:35.211+02:00,2022-06-02T10:32:51.428+02:00,75,2.361373,0,0,68.39739,0,0,2022-06-02T10:46:37.764+02:00,675852397.7635356,0,14.00781,101.0244,1,0.89
2022-06-02T10:46:39.547+02:00,1654159593.440079,53.22906542196605,10.39847337337255,41.84494,-1,-1,-1,-1,26.66295433044434,36.58906540013426,-9999,34166.626801,0.4215087890625,0.3141937255859375,-0.9394989013671875,34166.618064,2.664605071544982,0.5175380513193876,-0.228670759698639,0.8057265281677246,2.482775926589966,-0.1499020904302597,-0.09502243995666504,0.08764795958995819,-0.1237515211105347,XArbitraryZVertical,0.2730786322903494,0.04710952463186938,-0.9263132299929737,-0.2552501689348585,0.481863260269165,0.2266830801963806,-0.8464174866676331,0,0,0,-1,-1,34162.295601875,unknown,2,2022-06-02T10:46:35.211+02:00,2022-06-02T10:32:51.428+02:00,75,2.361373,0,0,68.39739,0,0,2022-06-02T10:46:37.764+02:00,675852397.7635356,0,14.00781,101.0244,1,0.89
2022-06-02T10:46:39.557+02:00,1654159593.440079,53.22906542196605,10.39847337337255,41.84494,-1,-1,-1,-1,26.66295433044434,36.58906540013426,-9999,34166.63677300001,0.4389801025390625,0.2724761962890625,-0.9584808349609375,34166.628037,2.659017622412264,0.5410139776898406,-0.2220607706726076,0.8497977256774902,2.472762584686279,-0.1177492886781693,-0.09020459651947021,0.0901082456111908,-0.0863613486289978,XArbitraryZVertical,0.2833949760079905,0.04022017739714299,-0.9228832762530159,-0.2575966641957655,0.5023598074913025,0.2202402651309967,-0.8361392617225647,0,0,0,-1,-1,34162.295601875,unknown,2,2022-06-02T10:46:35.211+02:00,2022-06-02T10:32:51.428+02:00,75,2.361373,0,0,68.39739,0,0,2022-06-02T10:46:37.764+02:00,675852397.7635356,0,14.00781,101.0244,1,0.89
2022-06-02T10:46:39.567+02:00,1654159593.440079,53.22906542196605,10.39847337337255,41.84494,-1,-1,-1,-1,26.66295433044434,36.58906540013426,-9999,34166.646746,0.4489288330078125,0.337738037109375,-0.8911590576171875,34166.638009,2.653642624064739,0.5644849100812019,-0.2154696808437473,0.8326144814491272,2.481559991836548,-0.07315599173307419,-0.09614193439483643,0.09558092057704926,-0.1201679110527039,XArbitraryZVertical,0.293641794538581,0.03332638607630321,-0.9193528815650026,-0.2597192507042758,0.5226098299026489,0.2138062715530396,-0.8253276944160461,0,0,0,-1,-1,34162.295601875,unknown,2,2022-06-02T10:46:35.211+02:00,2022-06-02T10:32:51.428+02:00,75,2.361373,0,0,68.39739,0,0,2022-06-02T10:46:37.764+02:00,675852397.7635356,0,14.00781,101.0244,1,0.89
2022-06-02T10:46:39.577+02:00,1654159593.440079,53.22906542196605,10.39847337337255,41.84494,-1,-1,-1,-1,26.66295433044434,36.58906540013426,-9999,34166.656719,0.4555206298828125,0.2422027587890625,-0.807891845703125,34166.647982,2.648716327755956,0.5885213575523206,-0.2084710500308314,0.8752865791320801,2.543890237808228,0.0006081117317080498,-0.1005769371986389,0.08232705295085907,-0.1450324654579163,XArbitraryZVertical,0.3040345248860563,0.02619646784078934,-0.9157038091623091,-0.2614635389147181,0.5431122779846191,0.206964299082756,-0.8137534856796265,0,0,0,-1,-1,34162.295601875,unknown,2,2022-06-02T10:46:35.211+02:00,2022-06-02T10:32:51.428+02:00,75,2.361373,0,0,68.39739,0,0,2022-06-02T10:46:37.764+02:00,675852397.7635356,0,14.00781,101.0244,1,0.89
2022-06-02T10:46:39.587+02:00,1654159593.440079,53.22906542196605,10.39847337337255,41.84494,-1,-1,-1,-1,26.66295433044434,36.58906540013426,-9999,34166.666691,0.47930908203125,0.1781005859375,-0.7765655517578125,34166.657955,2.643057284615627,0.6124607249154892,-0.2013481465983537,0.9404330849647522,2.486173152923584,-0.09903459250926971,-0.1124478578567505,0.1222294121980667,-0.03383499383926392,XArbitraryZVertical,0.3143102385086555,0.01887305701010412,-0.9118549507566894,-0.263388560171795,0.563268780708313,0.1999904215335846,-0.8017057776451111,0,0,0,-1,-1,34162.295601875,unknown,2,2022-06-02T10:46:35.211+02:00,2022-06-02T10:32:51.428+02:00,75,2.361373,0,0,68.39739,0,0,2022-06-02T10:46:37.764+02:00,675852397.7635356,0,14.00781,101.0244,1,0.89
2022-06-02T10:46:39.597+02:00,1654159593.440079,53.22906542196605,10.39847337337255,41.84494,-1,-1,-1,-1,26.66295433044434,36.58906540013426,-9999,34166.676664,0.5059814453125,0.2377777099609375,-0.7519683837890625,34166.667927,2.63653019460959,0.6358941147667506,-0.1935157021164673,1.064551591873169,2.489622354507446,-0.001477165147662163,-0.1202108263969421,0.005443751811981201,-0.02138948440551758,XArbitraryZVertical,0.324214040866139,0.01111058163704778,-0.9079040940916288,-0.2654657853470527,0.5828115344047546,0.1923101544380188,-0.7895236015319824,0,0,0,-1,-1,34162.295601875,unknown,2,2022-06-02T10:46:35.211+02:00,2022-06-02T10:32:51.428+02:00,75,2.361373,0,0,68.39739,0,0,2022-06-02T10:46:37.764+02:00,675852397.7635356,0,14.00781,101.0244,1,0.89
2022-06-02T10:46:39.607+02:00,1654159593.440079,53.22906542196605,10.39847337337255,41.84494,-1,-1,-1,-1,26.66295433044434,36.58906540013426,-9999,34166.686636,0.5384979248046875,0.23553466796875,-0.735443115234375,34166.6779,2.630897942825135,0.6598969401611592,-0.1852711900883467,0.9078829288482666,2.536559581756592,0.1083329543471336,-0.1145375370979309,0.01264053583145142,0.02194178104400635,XArbitraryZVertical,0.3342491074541764,0.003191781109425293,-0.9038889335301029,-0.2669312409572811,0.6025441884994507,0.1842130869626999,-0.7765346765518188,0,0,0,-1,-1,34162.295601875,unknown,2,2022-06-02T10:46:35.211+02:00,2022-06-02T10:32:51.428+02:00,75,2.361373,0,0,68.39739,0,0,2022-06-02T10:46:37.764+02:00,675852397.7635356,0,14.00781,101.0244,1,0.89
2022-06-02T10:46:39.617+02:00,1654159593.440079,53.22906542196605,10.39847337337255,41.84494,-1,-1,-1,-1,26.66295433044434,36.58906540013426,-9999,34166.696609,0.563690185546875,0.240936279296875,-0.743499755859375,34166.687872,2.626301359125276,0.6845173093272351,-0.1776649315905675,0.8701976537704468,2.573612689971924,0.1214039996266365,-0.1041576862335205,0.06931620836257935,0.01333820819854736,XArbitraryZVertical,0.3445521693373984,-0.004367564833834575,-0.8997277038380823,-0.2678708765891253,0.6223461627960205,0.176731750369072,-0.7625294327735901,0,0,0,-1,-1,34162.295601875,unknown,2,2022-06-02T10:46:35.211+02:00,2022-06-02T10:32:51.428+02:00,75,2.361373,0,0,68.39739,0,0,2022-06-02T10:46:37.764+02:00,675852397.7635356,0,14.00781,101.0244,1,0.89
2022-06-02T10:46:39.627+02:00,1654159593.440079,53.22906542196605,10.39847337337255,41.84494,-1,-1,-1,-1,26.66295433044434,36.58906540013426,-9999,34166.706581,0.576324462890625,0.2680511474609375,-0.76263427734375,34166.697845,2.62151030437925,0.7092936768356922,-0.1702243879348444,0.883489191532135,2.565630912780762,0.1114728003740311,-0.09230875968933105,0.06195025146007538,0.01216745376586914,XArbitraryZVertical,0.3548668069774242,-0.01192514984357544,-0.895370107931599,-0.2687745652605669,0.6418846249580383,0.1694034934043884,-0.7478547096252441,0,0,0,-1,-1,34162.295601875,unknown,2,2022-06-02T10:46:35.211+02:00,2022-06-02T10:32:51.428+02:00,75,2.361373,0,0,68.39739,0,0,2022-06-02T10:46:37.764+02:00,675852397.7635356,0,14.00781,101.0244,1,0.89
2022-06-02T10:46:39.637+02:00,1654159593.440079,53.22906542196605,10.39847337337255,41.84494,-1,-1,-1,-1,26.66295433044434,36.58906540013426,-9999,34166.716554,0.5756378173828125,0.2612152099609375,-0.7693023681640625,34166.707817,2.616445829888964,0.7340479966924213,-0.1626784799697543,0.9193484783172607,2.577992677688599,0.1442344337701797,-0.09113568067550659,0.08845007419586182,-0.0136871337890625,XArbitraryZVertical,0.3650794500885314,-0.01959576670188438,-0.8908592390315498,-0.2696345138558633,0.6610361933708191,0.1619618982076645,-0.732666015625,0,0,0,-1,-1,34162.295601875,unknown,2,2022-06-02T10:46:35.211+02:00,2022-06-02T10:32:51.428+02:00,75,2.361373,0,0,68.39739,0,0,2022-06-02T10:46:37.764+02:00,675852397.7635356,0,14.00781,101.0244,1,0.89
2022-06-02T10:46:39.647+02:00,1654159593.440079,53.22906542196605,10.39847337337255,41.84494,-1,-1,-1,-1,26.66295433044434,36.58906540013426,-9999,34166.726526,0.572174072265625,0.2281494140625,-0.7361907958984375,34166.71779,2.611106390113423,0.7589034256566999,-0.154708907845121,0.9742109179496765,2.591893196105957,0.1609465628862381,-0.1016756296157837,0.1169798821210861,-0.05489516258239746,XArbitraryZVertical,0.3752053908599475,-0.02754049504115529,-0.886199992290543,-0.2703922548530663,0.679907500743866,0.1540924906730652,-0.7169248461723328,0,0,0,-1,-1,34162.295601875,unknown,2,2022-06-02T10:46:35.211+02:00,2022-06-02T10:32:51.428+02:00,75,2.361373,0,0,68.39739,0,0,2022-06-02T10:46:37.764+02:00,675852397.7635356,0,14.00781,101.0244,1,0.89
2022-06-02T10:46:39.657+02:00,1654159593.440079,53.22906542196605,10.39847337337255,41.84494,-1,-1,-1,-1,26.66295433044434,36.58906540013426,-9999,34166.736499,0.5738525390625,0.2127227783203125,-0.6998291015625,34166.727762,2.60515935427666,0.7839893252397503,-0.1463962899476633,1.037567377090454,2.619286060333252,0.1643834561109543,-0.1256197094917297,0.1020508706569672,-0.0571931004524231,XArbitraryZVertical,0.3852975704785223,-0.03580312945481426,-0.8813155542695842,-0.2711951116881169,0.6985567808151245,0.1458739191293716,-0.7005278468132019,0,0,0,-1,-1,34162.295601875,unknown,2,2022-06-02T10:46:35.211+02:00,2022-06-02T10:32:51.428+02:00,75,2.361373,0,0,68.39739,0,0,2022-06-02T10:46:37.764+02:00,675852397.7635356,0,14.00781,101.0244,1,0.89
2022-06-02T10:46:39.667+02:00,1654159593.440079,53.22906542196605,10.39847337337255,41.84494,-1,-1,-1,-1,26.66295433044434,36.58906540013426,-9999,34166.746471,0.57794189453125,0.207763671875,-0.672760009765625,34166.737735,2.598709749777133,0.8094405885760448,-0.1378373619715041,1.081396102905273,2.676051616668701,0.164295569062233,-0.1443120837211609,0.08478190004825592,-0.04141712188720703,XArbitraryZVertical,0.3954159189513548,-0.04434185934891788,-0.876183390109749,-0.2719977904388376,0.7170354723930359,0.1374013125896454,-0.6833600997924805,0,0,0,-1,-1,34162.295601875,unknown,2,2022-06-02T10:46:35.211+02:00,2022-06-02T10:32:51.428+02:00,75,2.361373,0,0,68.39739,0,0,2022-06-02T10:46:37.764+02:00,675852397.7635356,0,14.00781,101.0244,1,0.89
2022-06-02T10:46:39.677+02:00,1654159593.440079,53.22906542196605,10.39847337337255,41.84494,-1,-1,-1,-1,26.66295433044434,36.58906540013426,-9999,34166.756444,0.5881195068359375,0.1823272705078125,-0.612579345703125,34166.747707,2.591971020530967,0.8355727678183299,-0.1295960871357414,1.01326584815979,2.751477479934692,0.1336455047130585,-0.1624783873558044,0.07773657143115997,-0.01368951797485352,XArbitraryZVertical,0.4057542259098397,-0.05290951213395077,-0.8707176928659793,-0.2727909039355897,0.7354612350463867,0.1292336285114288,-0.6651281714439392,0,0,0,-1,-1,34162.295601875,unknown,2,2022-06-02T10:46:35.211+02:00,2022-06-02T10:32:51.428+02:00,75,2.361373,0,0,68.39739,0,0,2022-06-02T10:46:37.764+02:00,675852397.7635356,0,14.00781,101.0244,1,0.89
2022-06-02T10:46:39.687+02:00,1654159593.440079,53.22906542196605,10.39847337337255,41.84494,-1,-1,-1,-1,26.66295433044434,36.58906540013426,-9999,34166.766416,0.604888916015625,0.1513519287109375,-0.5343780517578125,34166.75768,2.585023556098904,0.8624836722092308,-0.1218725144725246,1.049972414970398,2.825840711593628,0.1181453764438629,-0.1741613149642944,0.08089782297611237,-0.01937216520309448,XArbitraryZVertical,0.416369670913654,-0.06141930333990218,-0.864883691568453,-0.2735695805845335,0.7538275718688965,0.1215710416436195,-0.6457279324531555,0,0,0,-1,-1,34162.295601875,unknown,2,2022-06-02T10:46:35.211+02:00,2022-06-02T10:32:51.428+02:00,75,2.361373,0,0,68.39739,0,0,2022-06-02T10:46:37.764+02:00,675852397.7635356,0,14.00781,101.0244,1,0.89
2022-06-02T10:46:39.697+02:00,1654159593.440079,53.22906542196605,10.39847337337255,41.84494,-1,-1,-1,-1,26.66295433044434,36.58906540013426,-9999,34166.776389,0.6255035400390625,0.147003173828125,-0.5391082763671875,34166.767652,2.577630722606145,0.8900235961718601,-0.1144578251161321,1.022959113121033,2.876694679260254,0.08288394659757614,-0.177656888961792,0.05620206147432327,0.04890525341033936,XArbitraryZVertical,0.4271563846550276,-0.0699976301652884,-0.8586876973872877,-0.2743963265126477,0.7720020413398743,0.1142080798745155,-0.6252754926681519,0,0,0,-1,-1,34162.295601875,unknown,2,2022-06-02T10:46:35.211+02:00,2022-06-02T10:32:51.428+02:00,75,2.361373,0,0,68.39739,0,0,2022-06-02T10:46:37.764+02:00,675852397.7635356,0,14.00781,101.0244,1,0.89
2022-06-02T10:46:39.707+02:00,1654159593.440079,53.22906542196605,10.39847337337255,41.84494,-1,-1,-1,-1,26.66295433044434,36.58906540013426,-9999,34166.786361,0.642242431640625,0.14251708984375,-0.44427490234375,34166.777625,2.570588397694598,0.9181620571191622,-0.1078360504174647,0.9072325229644775,2.935760259628296,0.1091935783624649,-0.1767127513885498,0.03934547305107117,0.07338893413543701,XArbitraryZVertical,0.4381755770356174,-0.0782636199564454,-0.8521959877729011,-0.2750256667269895,0.7898719310760498,0.1076271757483482,-0.603753924369812,0,0,0,-1,-1,34162.295601875,unknown,2,2022-06-02T10:46:35.211+02:00,2022-06-02T10:32:51.428+02:00,75,2.361373,0,0,68.39739,0,0,2022-06-02T10:46:37.764+02:00,675852397.7635356,0,14.00781,101.0244,1,0.89
2022-06-02T10:46:39.717+02:00,1654159599.478372,53.22911916597133,10.39880538204919,40.30224,-1,-1,-1,-1,27.99508666992188,75,-9999,34166.796334,0.6510009765625,0.137420654296875,-0.38671875,34166.787597,2.564167030118858,0.9471034411318383,-0.1015778127779019,0.8609729409217834,3.009210824966431,0.1399105936288834,-0.1740286946296692,0.04357051849365234,0.06517243385314941,XArbitraryZVertical,0.4494745928802744,-0.08636806775824248,-0.845428022013478,-0.2752538133563275,0.8075430989265442,0.101403221487999,-0.5810263156890869,0,0,0,-1,-1,34162.295601875,unknown,2,2022-06-02T10:46:35.211+02:00,2022-06-02T10:32:51.428+02:00,75,2.361373,0,0,68.39739,0,0,2022-06-02T10:46:37.764+02:00,675852397.7635356,0,14.00781,101.0244,1,0.89
2022-06-02T10:46:39.727+02:00,1654159599.478372,53.22911916597133,10.39880538204919,40.30224,-1,-1,-1,-1,27.99508666992188,75,-9999,34166.806306,0.6683807373046875,0.136810302734375,-0.3573150634765625,34166.79757,2.558292323427515,0.9767556842420686,-0.09589721379166045,0.7611283659934998,3.066951990127563,0.129942387342453,-0.180575966835022,0.04765177518129349,0.1428815126419067,XArbitraryZVertical,0.4610341899442147,-0.09421421754657261,-0.8383642885482553,-0.2751661101895148,0.8248783349990845,0.09575030207633972,-0.5571423172950745,0,0,0,-1,-1,34162.295601875,unknown,2,2022-06-02T10:46:35.211+02:00,2022-06-02T10:32:51.428+02:00,75,2.361373,0,0,68.39739,0,0,2022-06-02T10:46:37.764+02:00,675852397.7635356,0,14.00781,101.0244,1,0.89
2022-06-02T10:46:39.737+02:00,1654159599.478372,53.22911916597133,10.39880538204919,40.30224,-1,-1,-1,-1,27.99508666992188,75,-9999,34166.816279,0.680450439453125,0.158782958984375,-0.3231658935546875,34166.807542,2.553086041411338,1.007250532713798,-0.09099186057042188,0.6522466540336609,3.152227163314819,0.1345634460449219,-0.1844441890716553,0.04286165535449982,0.156321108341217,XArbitraryZVertical,0.4729358148789032,-0.1017012280192176,-0.8309611924503743,-0.274758107032777,0.8418691158294678,0.09086634963750839,-0.5319771766662598,0,0,0,-1,-1,34162.295601875,unknown,2,2022-06-02T10:46:35.211+02:00,2022-06-02T10:32:51.428+02:00,75,2.361373,0,0,68.39739,0,0,2022-06-02T10:46:37.764+02:00,675852397.7635356,0,14.00781,101.0244,1,0.89
2022-06-02T10:46:39.747+02:00,1654159599.478372,53.22911916597133,10.39880538204919,40.30224,-1,-1,-1,-1,27.99508666992188,75,-9999,34166.826251,0.6915283203125,0.15301513671875,-0.2913055419921875,34166.817515,2.548750887002614,1.038536982081178,-0.08668655872930418,0.5375611186027527,3.202255964279175,0.1485019028186798,-0.1859265565872192,0.05731233954429626,0.1577060222625732,XArbitraryZVertical,0.4851454667436967,-0.108839112283772,-0.8232586804571996,-0.2739214700591535,0.8584271669387817,0.08657803386449814,-0.5055758357048035,0,0,0,-1,-1,34162.295601875,unknown,2,2022-06-02T10:46:35.211+02:00,2022-06-02T10:32:51.428+02:00,75,2.361373,0,0,68.39739,0,0,2022-06-02T10:46:37.764+02:00,675852397.7635356,0,14.00781,101.0244,1,0.89
2022-06-02T10:46:39.773+02:00,1654159599.478372,53.22911916597133,10.39880538204919,40.30224,-1,-1,-1,-1,27.99508666992188,75,-9999,34166.836224,0.6858673095703125,0.1342926025390625,-0.2544708251953125,34166.827487,2.545120097362833,1.070062520414228,-0.08319450247827215,0.4417146742343903,3.19101095199585,0.1071856692433357,-0.1872916221618652,0.07894976437091827,0.1718446612358093,XArbitraryZVertical,0.4974504286604245,-0.115492717136682,-0.8153364523290594,-0.2728205618068095,0.8741965293884277,0.08309856802225113,-0.4784089922904968,0,0,0,-1,-1,34162.295601875,unknown,2,2022-06-02T10:46:35.211+02:00,2022-06-02T10:32:51.428+02:00,75,2.361373,0,0,68.39739,0,0,2022-06-02T10:46:37.764+02:00,675852397.7635356,0,14.00781,101.0244,1,0.89
2022-06-02T10:46:39.780+02:00,1654159599.478372,53.22911916597133,10.39880538204919,40.30224,-1,-1,-1,-1,27.99508666992188,75,-9999,34166.846196,0.68035888671875,0.1724700927734375,-0.24334716796875,34166.83746,2.541443837208006,1.101372427413335,-0.08046909118834539,0.492991179227829,3.122545957565308,0.005021746270358562,-0.1950955390930176,0.06332498043775558,0.1646691858768463,XArbitraryZVertical,0.5096169317526202,-0.1218039558115279,-0.8072057905646901,-0.2717963000103752,0.8889431953430176,0.08038227260112762,-0.450908750295639,0,0,0,-1,-1,34162.295601875,unknown,2,2022-06-02T10:46:35.211+02:00,2022-06-02T10:32:51.428+02:00,75,2.361373,0,0,68.39739,0,0,2022-06-02T10:46:37.764+02:00,675852397.7635356,0,14.00781,101.0244,1,0.89
2022-06-02T10:46:39.783+02:00,1654159599.478372,53.22911916597133,10.39880538204919,40.30224,-1,-1,-1,-1,27.99508666992188,75,-9999,34166.856169,0.7054595947265625,0.1143951416015625,-0.1378631591796875,34166.847432,2.537428033783238,1.132474575298643,-0.07885701133718941,0.357925683259964,3.223719596862793,-0.03990959748625755,-0.2212243676185608,0.0676480233669281,0.1837369203567505,XArbitraryZVertical,0.5216678675030106,-0.1277179097500468,-0.7987943302852435,-0.2710690181943076,0.9026514291763306,0.0787753090262413,-0.423101544380188,0,0,0,-1,-1,34162.295601875,unknown,2,2022-06-02T10:46:35.211+02:00,2022-06-02T10:32:51.428+02:00,75,2.361373,0,0,68.39739,0,0,2022-06-02T10:46:37.764+02:00,675852397.7635356,0,14.00781,101.0244,1,0.89
2022-06-02T10:46:39.786+02:00,1654159599.478372,53.22911916597133,10.39880538204919,40.30224,-1,-1,-1,-1,27.99508666992188,75,-9999,34166.866142,0.74029541015625,0.2011566162109375,-0.030303955078125,34166.857405,2.534042547762662,1.164949346118393,-0.07757292053400168,0.4546114802360535,3.362366676330566,0.05706861615180969,-0.2268115878105164,0.08366817981004715,0.1607454419136047,XArbitraryZVertical,0.5341973768284335,-0.1335224115305065,-0.789888112810004,-0.2699663905595572,0.9160054326057434,0.07749514281749725,-0.3936098515987396,0,0,0,-1,-1,34162.295601875,unknown,2,2022-06-02T10:46:35.211+02:00,2022-06-02T10:32:51.428+02:00,75,2.361373,0,0,68.39739,0,0,2022-06-02T10:46:37.764+02:00,675852397.7635356,0,14.00781,101.0244,1,0.89
2022-06-02T10:46:39.796+02:00,1654159599.478372,53.22911916597133,10.39880538204919,40.30224,-1,-1,-1,-1,27.99508666992188,75,-9999,34166.876114,0.7819061279296875,0.13934326171875,0.0679168701171875,34166.867378,2.531661142062189,1.198011660714246,-0.0762555542035768,0.07199525833129883,3.35914134979248,0.03868634626269341,-0.2070984840393066,0.06279537081718445,0.2897266149520874,XArbitraryZVertical,0.5468673038043953,-0.1391410440779169,-0.7807616670347113,-0.2683042645893336,0.9286103248596191,0.07618167251348495,-0.3631518483161926,0,0,0,-1,-1,34162.295601875,unknown,2,2022-06-02T10:46:35.211+02:00,2022-06-02T10:32:51.428+02:00,75,2.361373,0,0,68.39739,0,0,2022-06-02T10:46:37.764+02:00,675852397.7635356,0,14.00781,101.0244,1,0.89
2022-06-02T10:46:39.806+02:00,1654159599.478372,53.22911916597133,10.39880538204919,40.30224,-1,-1,-1,-1,27.99508666992188,75,-9999,34166.886087,0.8177337646484375,0.089385986328125,0.0870208740234375,34166.87735,2.532361575116143,1.230913416006985,-0.07678237989442635,-0.2021691799163818,3.338608503341675,-0.0009004790335893631,-0.1826611757278442,0.122984804213047,0.340237557888031,XArbitraryZVertical,0.5597460847983985,-0.1431330851902561,-0.7716996640116542,-0.2658513138314372,0.940015971660614,0.07670695334672928,-0.3323944807052612,0,0,0,-1,-1,34162.295601875,unknown,2,2022-06-02T10:46:35.211+02:00,2022-06-02T10:32:51.428+02:00,75,2.361373,0,0,68.39739,0,0,2022-06-02T10:46:37.764+02:00,675852397.7635356,0,14.00781,101.0244,1,0.89
2022-06-02T10:46:39.816+02:00,1654159599.478372,53.22911916597133,10.39880538204919,40.30224,-1,-1,-1,-1,27.99508666992188,75,-9999,34166.896059,0.82781982421875,0.0853424072265625,0.106597900390625,34166.887323,2.535478616263348,1.264343581012346,-0.077750561662031,-0.4370280504226685,3.345700740814209,0.05494068190455437,-0.1538527607917786,0.02828476577997208,0.3815014660358429,XArbitraryZVertical,0.572901513722099,-0.1462883097959172,-0.7625459975584283,-0.2625018199013114,0.9505293965339661,0.07767225056886673,-0.300767183303833,0,0,0,-1,-1,34162.295601875,unknown,2,2022-06-02T10:46:35.211+02:00,2022-06-02T10:32:51.428+02:00,75,2.361373,0,0,68.39739,0,0,2022-06-02T10:46:37.764+02:00,675852397.7635356,0,14.00781,101.0244,1,0.89
2022-06-02T10:46:39.826+02:00,1654159599.478372,53.22911916597133,10.39880538204919,40.30224,-1,-1,-1,-1,27.99508666992188,75,-9999,34166.906032,0.8249969482421875,0.08087158203125,0.1118927001953125,34166.897295,2.540896679421693,1.297698261391339,-0.07886141279617058,-0.6545007228851318,3.27963662147522,0.05411456897854805,-0.1354842782020569,0.009141445159912109,0.36168172955513,XArbitraryZVertical,0.5860627098087464,-0.1486325217572877,-0.7534719031273965,-0.2583004768516035,0.9599472880363464,0.07877969741821289,-0.2688777446746826,0,0,0,-1,-1,34162.295601875,unknown,2,2022-06-02T10:46:35.211+02:00,2022-06-02T10:32:51.428+02:00,75,2.361373,0,0,68.39739,0,0,2022-06-02T10:46:37.764+02:00,675852397.7635356,0,14.00781,101.0244,1,0.89
2022-06-02T10:46:39.836+02:00,1654159599.478372,53.22911916597133,10.39880538204919,40.30224,-1,-1,-1,-1,27.99508666992188,75,-9999,34166.916004,0.8250274658203125,0.0967864990234375,0.09796142578125,34166.907268,2.54782424934294,1.330613571852217,-0.08038119926325728,-0.7607220411300659,3.232667446136475,0.01713289320468903,-0.142428994178772,0.001782342791557312,0.3479366898536682,XArbitraryZVertical,0.5990659754123191,-0.1502129289426833,-0.7444467538726537,-0.2536830127121481,0.9681583642959595,0.08029466867446899,-0.2371120601892471,0,0,0,-1,-1,34162.295601875,unknown,2,2022-06-02T10:46:35.211+02:00,2022-06-02T10:32:51.428+02:00,75,2.361373,0,0,68.39739,0,0,2022-06-02T10:46:37.764+02:00,675852397.7635356,0,14.00781,101.0244,1,0.89
2022-06-02T10:46:39.846+02:00,1654159599.478372,53.22911916597133,10.39880538204919,40.30224,-1,-1,-1,-1,27.99508666992188,75,-9999,34166.925977,0.8304290771484375,0.1222076416015625,0.138580322265625,34166.91724,2.555580857216074,1.363176051174977,-0.08191617718788836,-0.8086394667625427,3.178916454315186,0.04954729229211807,-0.1509479284286499,0.001824073493480682,0.3090326189994812,XArbitraryZVertical,0.6118536970960243,-0.1513760987676232,-0.735401021547803,-0.2488085563316509,0.9752430319786072,0.08182459324598312,-0.2054406553506851,0,0,0,-1,-1,34162.295601875,unknown,2,2022-06-02T10:46:35.211+02:00,2022-06-02T10:32:51.428+02:00,75,2.361373,0,0,68.39739,0,0,2022-06-02T10:46:37.764+02:00,675852397.7635356,0,14.00781,101.0244,1,0.89
2022-06-02T10:46:39.858+02:00,1654159599.478372,53.22911916597133,10.39880538204919,40.30224,-1,-1,-1,-1,27.99508666992188,75,-9999,34166.935949,0.842498779296875,0.1426544189453125,0.208953857421875,34166.927213,2.563775714225767,1.395296028564331,-0.08281108059152273,-0.8134067058563232,3.12562894821167,0.09257660806179047,-0.1556119918823242,0.02555989474058151,0.283285915851593,XArbitraryZVertical,0.6243023838778013,-0.1524641075969016,-0.7263882481990848,-0.2436421391111218,0.9812651872634888,0.08271646499633789,-0.1740024536848068,0,0,0,-1,-1,34162.295601875,unknown,2,2022-06-02T10:46:35.211+02:00,2022-06-02T10:32:51.428+02:00,75,2.361373,0,0,68.39739,0,0,2022-06-02T10:46:37.764+02:00,675852397.7635356,0,14.00781,101.0244,1,0.89
2022-06-02T10:46:39.887+02:00,1654159599.478372,53.22911916597133,10.39880538204919,40.30224,-1,-1,-1,-1,27.99508666992188,75,-9999,34166.945922,0.853607177734375,0.148529052734375,0.257293701171875,34166.937185,2.572189872650366,1.426563145176942,-0.08304957752113655,-0.8655431270599365,3.023637771606445,0.1197379156947136,-0.1519466042518616,0.04544854909181595,0.306858241558075,XArbitraryZVertical,0.6362556198314482,-0.153491603021742,-0.7175228073222163,-0.2382859845037715,0.9862056374549866,0.08295413851737976,-0.1432382315397263,0,0,0,-1,-1,34162.295601875,unknown,2,2022-06-02T10:46:35.211+02:00,2022-06-02T10:32:51.428+02:00,75,2.361373,0,0,68.39739,0,0,2022-06-02T10:46:37.764+02:00,675852397.7635356,0,14.00781,101.0244,1,0.89
2022-06-02T10:46:39.891+02:00,1654159599.478372,53.22911916597133,10.39880538204919,40.30224,-1,-1,-1,-1,27.99508666992188,75,-9999,34166.955894,0.859222412109375,0.17010498046875,0.28485107421875,34166.947158,2.581050569171494,1.456968043778985,-0.08317911704389286,-0.9050548076629639,2.936809062957764,0.09330374002456665,-0.142757773399353,0.06189050525426865,0.3421023488044739,XArbitraryZVertical,0.6477910530333778,-0.1541809967819728,-0.7087920755431437,-0.2328279852812105,0.9900936484336853,0.08308323472738266,-0.1131899431347847,0,0,0,-1,-1,34162.295601875,unknown,2,2022-06-02T10:46:35.211+02:00,2022-06-02T10:32:51.428+02:00,75,2.361373,0,0,68.39739,0,0,2022-06-02T10:46:37.764+02:00,675852397.7635356,0,14.00781,101.0244,1,0.89
2022-06-02T10:46:39.894+02:00,1654159599.478372,53.22911916597133,10.39880538204919,40.30224,-1,-1,-1,-1,27.99508666992188,75,-9999,34166.965867,0.8777008056640625,0.185943603515625,0.3277740478515625,34166.95713,2.590456188355349,1.486748348687549,-0.0833994122948559,-0.9549813270568848,2.877560377120972,0.05441386252641678,-0.1383312940597534,0.07508344948291779,0.3529443740844727,XArbitraryZVertical,0.6590259702566027,-0.1544543165946929,-0.7001208035049804,-0.2272870415360891,0.9930065274238586,0.08330276608467102,-0.08365727216005325,0,0,0,-1,-1,34162.295601875,unknown,2,2022-06-02T10:46:35.211+02:00,2022-06-02T10:32:51.428+02:00,75,2.361373,0,0,68.39739,0,0,2022-06-02T10:46:37.764+02:00,675852397.7635356,0,14.00781,101.0244,1,0.89
2022-06-02T10:46:39.898+02:00,1654159599.478372,53.22911916597133,10.39880538204919,40.30224,-1,-1,-1,-1,27.99508666992188,75,-9999,34166.975839,0.8936767578125,0.2113037109375,0.4062652587890625,34166.967103,2.600011503185167,1.515541223059415,-0.08358545160127145,-0.961777925491333,2.72929835319519,0.06757862120866776,-0.130119800567627,0.08882932364940643,0.3537249565124512,XArbitraryZVertical,0.6697979071609984,-0.1544463494205054,-0.6916084451039987,-0.2217989582296433,0.9949878454208374,0.08348815888166428,-0.05503417924046516,0,0,0,-1,-1,34162.295601875,unknown,2,2022-06-02T10:46:35.211+02:00,2022-06-02T10:32:51.428+02:00,75,2.361373,0,0,68.39739,0,0,2022-06-02T10:46:37.764+02:00,675852397.7635356,0,14.00781,101.0244,1,0.89
2022-06-02T10:46:39.906+02:00,1654159599.478372,53.22911916597133,10.39880538204919,40.30224,-1,-1,-1,-1,27.99508666992188,75,-9999,34166.985812,0.8856964111328125,0.2012786865234375,0.3934783935546875,34166.977075,2.609972636614851,1.541774695782161,-0.08300414546171217,-1.01194703578949,2.372715950012207,0.1170795932412148,-0.1107920408248901,0.1138532012701035,0.379900336265564,XArbitraryZVertical,0.6795403167819563,-0.1541626752652558,-0.6839112671451788,-0.2161579233019529,0.9961374998092651,0.08290886878967285,-0.02891765534877777,0,0,0,-1,-1,34162.295601875,unknown,2,2022-06-02T10:46:35.211+02:00,2022-06-02T10:32:51.428+02:00,75,2.361373,0,0,68.39739,0,0,2022-06-02T10:46:37.764+02:00,675852397.7635356,0,14.00781,101.0244,1,0.89
2022-06-02T10:46:39.916+02:00,1654159599.478372,53.22911916597133,10.39880538204919,40.30224,-1,-1,-1,-1,27.99508666992188,75,-9999,34166.995784,0.8819122314453125,0.210235595703125,0.4354095458984375,34166.987048,2.620500572251343,1.566406654343566,-0.08227910452136825,-1.08771538734436,2.439802646636963,0.037007175385952,-0.1044260263442993,0.1237615495920181,0.4220536947250366,XArbitraryZVertical,0.6886716176282093,-0.1534405394168849,-0.6766848432154308,-0.2104399738744551,0.9966073632240295,0.08218629658222198,-0.004374807700514793,0,0,0,-1,-1,34162.295601875,unknown,2,2022-06-02T10:46:35.211+02:00,2022-06-02T10:32:51.428+02:00,75,2.361373,0,0,68.39739,0,0,2022-06-02T10:46:37.764+02:00,675852397.7635356,0,14.00781,101.0244,1,0.89
2022-06-02T10:46:39.926+02:00,1654159599.478372,53.22911916597133,10.39880538204919,40.30224,-1,-1,-1,-1,27.99508666992188,75,-9999,34167.005757,0.903778076171875,0.215789794921875,0.5168914794921875,34166.99702,2.632143739363927,1.591715118378361,-0.08219503770676995,-1.253819108009338,2.392637968063354,-0.02362554520368576,-0.1147377490997314,0.119710199534893,0.3688018321990967,XArbitraryZVertical,0.6980698477484917,-0.1520585759023043,-0.6691273762324765,-0.2045609259568019,0.9964057803153992,0.08210251480340958,0.0208466462790966,0,0,0,-1,-1,34162.295601875,unknown,2,2022-06-02T10:46:35.211+02:00,2022-06-02T10:32:51.428+02:00,75,2.361373,0,0,68.39739,0,0,2022-06-02T10:46:37.764+02:00,675852397.7635356,0,14.00781,101.0244,1,0.89
2022-06-02T10:46:39.936+02:00,1654159599.478372,53.22911916597133,10.39880538204919,40.30224,-1,-1,-1,-1,27.99508666992188,75,-9999,34167.015729,0.9095916748046875,0.224884033203125,0.5671844482421875,34167.006993,2.645874609430898,1.615496953552263,-0.08204096102768654,-1.482731461524963,2.144573450088501,-0.0232030563056469,-0.1079304218292236,0.1322233825922012,0.4331867694854736,XArbitraryZVertical,0.7070099382616537,-0.1496818928374519,-0.662171699864249,-0.198143739729841,0.9956409931182861,0.08194895833730698,0.04453544318675995,0,0,0,-1,-1,34162.295601875,unknown,2,2022-06-02T10:46:35.211+02:00,2022-06-02T10:32:51.428+02:00,75,2.361373,0,0,68.39739,0,0,2022-06-02T10:46:37.764+02:00,675852397.7635356,0,14.00781,101.0244,1,0.89
2022-06-02T10:46:39.946+02:00,1654159599.478372,53.22911916597133,10.39880538204919,40.30224,-1,-1,-1,-1,27.99508666992188,75,-9999,34167.025702,0.8805999755859375,0.1996612548828125,0.513092041015625,34167.016965,2.662026802456438,1.636076620098612,-0.08069527878564399,-1.75578510761261,1.800698041915894,0.07283692061901093,-0.08037722110748291,0.1414686739444733,0.4748648405075073,XArbitraryZVertical,0.7148982289800567,-0.1463945099298719,-0.656562776432588,-0.1908258339475038,0.9946228265762329,0.08060772716999054,0.06502166390419006,0,0,0,-1,-1,34162.295601875,unknown,2,2022-06-02T10:46:35.211+02:00,2022-06-02T10:32:51.428+02:00,75,2.361373,0,0,68.39739,0,0,2022-06-02T10:46:37.764+02:00,675852397.7635356,0,14.00781,101.0244,1,0.89
2022-06-02T10:46:39.956+02:00,1654159599.478372,53.22911916597133,10.39880538204919,40.30224,-1,-1,-1,-1,27.99508666992188,75,-9999,34167.035675,0.8681488037109375,0.2171783447265625,0.5693359375,34167.026938,2.680764255805569,1.655946925555901,-0.07951811667160043,-1.996156573295593,1.863200664520264,-0.1143306121230125,-0.09334135055541992,0.1392393410205841,0.459028959274292,XArbitraryZVertical,0.7226694912733156,-0.1419094843629796,-0.6512878372862205,-0.1828513505128734,0.9932283759117126,0.0794343426823616,0.08477899432182312,0,0,0,-1,-1,34162.295601875,unknown,2,2022-06-02T10:46:35.211+02:00,2022-06-02T10:32:51.428+02:00,75,2.361373,0,0,68.39739,0,0,2022-06-02T10:46:37.764+02:00,675852397.7635356,0,14.00781,101.0244,1,0.89
2022-06-02T10:46:39.966+02:00,1654159599.478372,53.22911916597133,10.39880538204919,40.30224,-1,-1,-1,-1,27.99508666992188,75,-9999,34167.045648875,0.8533782958984375,0.21197509765625,0.5728607177734375,34167.036911,2.702164636809634,1.675200826202413,-0.07872686001338666,-2.283250093460083,1.63481330871582,-0.106878824532032,-0.11920565366745,0.1257001161575317,0.4233753681182861,XArbitraryZVertical,0.7303549761206879,-0.1361164530212417,-0.6462799666185562,-0.1742880128075264,0.9914745092391968,0.07864556461572647,0.1038921624422073,0,0,0,-1,-1,34162.295601875,unknown,2,2022-06-02T10:46:35.211+02:00,2022-06-02T10:32:51.428+02:00,75,2.361373,0,0,68.39739,0,0,2022-06-02T10:46:37.764+02:00,675852397.7635356,0,14.00781,101.0244,1,0.89
2022-06-02T10:46:39.977+02:00,1654159599.478372,53.22911916597133,10.39880538204919,40.30224,-1,-1,-1,-1,27.99508666992188,75,-9999,34167.055621875,0.837188720703125,0.1992645263671875,0.587890625,34167.046884875,2.726141068343189,1.692271275044582,-0.07686161453878711,-2.519429445266724,1.424337029457092,-0.06291243433952332,-0.1217804551124573,0.1410484910011292,0.4581151008605957,XArbitraryZVertical,0.7373402676777424,-0.1293779661207954,-0.642219418781194,-0.1647570684965572,0.9897003173828125,0.07678595930337906,0.1208186596632004,0,0,0,-1,-1,34162.295601875,unknown,2,2022-06-02T10:46:35.211+02:00,2022-06-02T10:32:51.428+02:00,75,2.361373,0,0,68.39739,0,0,2022-06-02T10:46:37.764+02:00,675852397.7635356,0,14.00781,101.0244,1,0.89
2022-06-02T10:46:39.986+02:00,1654159599.478372,53.22911916597133,10.39880538204919,40.30224,-1,-1,-1,-1,27.99508666992188,75,-9999,34167.065593875,0.8333282470703125,0.1887054443359375,0.596405029296875,34167.056857875,2.752136581143673,1.707563463337001,-0.07432345009756476,-2.705306529998779,1.26115894317627,-0.1003799065947533,-0.1415372490882874,0.1327762007713318,0.4380403757095337,XArbitraryZVertical,0.743738549101592,-0.1218004546081725,-0.6388535420916219,-0.154543788382013,0.9879270195960999,0.07425504177808762,0.1359647661447525,0,0,0,-1,-1,34162.295601875,unknown,2,2022-06-02T10:46:35.211+02:00,2022-06-02T10:32:51.428+02:00,75,2.361373,0,0,68.39739,0,0,2022-06-02T10:46:37.764+02:00,675852397.7635356,0,14.00781,101.0244,1,0.89
2022-06-02T10:46:39.996+02:00,1654159599.478372,53.22911916597133,10.39880538204919,40.30224,-1,-1,-1,-1,27.99508666992188,75,-9999,34167.075566875,0.841278076171875,0.174224853515625,0.6214752197265625,34167.066829875,2.78001240255232,1.72156726078036,-0.07152364352709167,-2.8852219581604,1.12220311164856,-0.1301677227020264,-0.151151716709137,0.1240023970603943,0.4393255710601807,XArbitraryZVertical,0.7497075288767023,-0.1133437252946824,-0.6359343341177439,-0.1438034182173814,0.9861279726028442,0.07146267592906952,0.1498163640499115,0,0,0,-1,-1,34162.295601875,unknown,2,2022-06-02T10:46:35.211+02:00,2022-06-02T10:32:51.428+02:00,75,2.361373,0,0,68.39739,0,0,2022-06-02T10:46:37.764+02:00,675852397.7635356,0,14.00781,101.0244,1,0.89
2022-06-02T10:46:40.006+02:00,1654159599.478372,53.22911916597133,10.39880538204919,40.30224,-1,-1,-1,-1,27.99508666992188,75,-9999,34167.085538875,0.8344573974609375,0.1724700927734375,0.6280517578125,34167.076802875,2.809426645890885,1.733809127155412,-0.06833427840745916,-3.0215904712677,0.9195040464401245,-0.14870785176754,-0.1492958664894104,0.112794928252697,0.4447611570358276,XArbitraryZVertical,0.7550556818037341,-0.1041510353942383,-0.6336063065897137,-0.1326144676385629,0.9844399690628052,0.06828110665082932,0.1619130373001099,0,0,0,-1,-1,34162.295601875,unknown,2,2022-06-02T10:46:35.211+02:00,2022-06-02T10:32:51.428+02:00,75,2.361373,0,0,68.39739,0,0,2022-06-02T10:46:37.764+02:00,675852397.7635356,0,14.00781,101.0244,1,0.89
2022-06-02T10:46:40.017+02:00,1654159599.478372,53.22911916597133,10.39880538204919,40.30224,-1,-1,-1,-1,27.99508666992188,75,-9999,34167.095511875,0.8254241943359375,0.1559295654296875,0.6318817138671875,34167.086774875,2.839962125659314,1.74400221585272,-0.06479150112184284,-3.117847204208374,0.7143435478210449,-0.1704438030719757,-0.14204341173172,0.1097533106803894,0.4540427923202515,XArbitraryZVertical,0.7596605779260104,-0.09436938778441421,-0.631934168861301,-0.1211176843074449,0.9829705357551575,0.0647461786866188,0.171979546546936,0,0,0,-1,-1,34162.295601875,unknown,2,2022-06-02T10:46:35.211+02:00,2022-06-02T10:32:51.428+02:00,75,2.361373,0,0,68.39739,0,0,2022-06-02T10:46:37.764+02:00,675852397.7635356,0,14.00781,101.0244,1,0.89
2022-06-02T10:46:40.026+02:00,1654159599.478372,53.22911916597133,10.39880538204919,40.30224,-1,-1,-1,-1,27.99508666992188,75,-9999,34167.105483875,0.8331146240234375,0.137298583984375,0.64697265625,34167.096747875,2.871097192506415,1.751974972094284,-0.06119996568077653,-3.135720729827881,0.4949440658092499,-0.217217430472374,-0.1531620025634766,0.1056930720806122,0.4494513273239136,XArbitraryZVertical,0.7634459523322544,-0.08411978941834834,-0.6309259842717191,-0.1095745486440286,0.9817905426025391,0.06116176769137383,0.1798517256975174,0,0,0,-1,-1,34162.295601875,unknown,2,2022-06-02T10:46:35.211+02:00,2022-06-02T10:32:51.428+02:00,75,2.361373,0,0,68.39739,0,0,2022-06-02T10:46:37.764+02:00,675852397.7635356,0,14.00781,101.0244,1,0.89
2022-06-02T10:46:40.036+02:00,1654159599.478372,53.22911916597133,10.39880538204919,40.30224,-1,-1,-1,-1,27.99508666992188,75,-9999,34167.115456875,0.8495025634765625,0.1278076171875,0.6757354736328125,34167.106719875,2.902079953053661,1.757662733033307,-0.05800105981743625,-3.082327842712402,0.2630970478057861,-0.2828077673912048,-0.1545991897583008,0.09028583765029907,0.448839545249939,XArbitraryZVertical,0.766367785616529,-0.07358398692151298,-0.6305477832655073,-0.09836333633917944,0.9809389710426331,0.05796854570508003,0.1854683756828308,0,0,0,-1,-1,34162.295601875,unknown,2,2022-06-02T10:46:35.211+02:00,2022-06-02T10:32:51.428+02:00,75,2.361373,0,0,68.39739,0,0,2022-06-02T10:46:37.764+02:00,675852397.7635356,0,14.00781,101.0244,1,0.89
2022-06-02T10:46:40.046+02:00,1654159599.478372,53.22911916597133,10.39880538204919,40.30224,-1,-1,-1,-1,27.99508666992188,75,-9999,34167.125428875,0.8842315673828125,0.09185791015625,0.705047607421875,34167.116692875,2.93261648282055,1.760773349480737,-0.05518399516977773,-3.014370441436768,0.01361639983952045,-0.3132535815238953,-0.1424400210380554,0.08124230057001114,0.4709512889385223,XArbitraryZVertical,0.7683209363092494,-0.0629076549011187,-0.6309201688837016,-0.08755156939857942,0.9805136919021606,0.05515599250793457,0.1885488629341125,0,0,0,-1,-1,34162.295601875,unknown,2,2022-06-02T10:46:35.211+02:00,2022-06-02T10:32:51.428+02:00,75,2.361373,0,0,68.39739,0,0,2022-06-02T10:46:37.764+02:00,675852397.7635356,0,14.00781,101.0244,1,0.89
2022-06-02T10:46:40.056+02:00,1654159599.478372,53.22911916597133,10.39880538204919,40.30224,-1,-1,-1,-1,27.99508666992188,75,-9999,34167.135401875,0.927337646484375,0.0589599609375,0.7425689697265625,34167.126664875,2.962311767818035,1.761213771042843,-0.05304666433013436,-2.913164138793945,-0.2547034025192261,-0.387493908405304,-0.1207876205444336,0.06102238222956657,0.4949116706848145,XArbitraryZVertical,0.7692707494934941,-0.05219001599171654,-0.6320731887433959,-0.07734442596080827,0.9805440306663513,0.05302178859710693,0.1890025734901428,0,0,0,-1,-1,34162.295601875,unknown,2,2022-06-02T10:46:35.211+02:00,2022-06-02T10:32:51.428+02:00,75,2.361373,0,0,68.39739,0,0,2022-06-02T10:46:37.764+02:00,675852397.7635356,0,14.00781,101.0244,1,0.89
2022-06-02T10:46:40.066+02:00,1654159599.478372,53.22911916597133,10.39880538204919,40.30224,-1,-1,-1,-1,27.99508666992188,75,-9999,34167.145373875,0.9503173828125,0.0342254638671875,0.7567138671875,34167.136637875,2.991230061960616,1.758702571742809,-0.0516868039980147,-2.826795339584351,-0.5532767176628113,-0.4329617917537689,-0.07990151643753052,0.02736145257949829,0.5330362915992737,XArbitraryZVertical,0.7691304885933384,-0.0414094985012067,-0.6341422420169118,-0.06772766083699175,0.9810854196548462,0.05166379362344742,0.1865529119968414,0,0,0,-1,-1,34162.295601875,unknown,2,2022-06-02T10:46:35.211+02:00,2022-06-02T10:32:51.428+02:00,75,2.361373,0,0,68.39739,0,0,2022-06-02T10:46:37.764+02:00,675852397.7635356,0,14.00781,101.0244,1,0.89
2022-06-02T10:46:40.076+02:00,1654159599.478372,53.22911916597133,10.39880538204919,40.30224,-1,-1,-1,-1,27.99508666992188,75,-9999,34167.155346875,0.9591522216796875,0.035186767578125,0.7449951171875,34167.146609875,3.019423470927173,1.753199010313045,-0.05117710537816773,-2.742908477783203,-0.8407284617424011,-0.5009524822235107,-0.04434853792190552,-0.004386596381664276,0.5718506574630737,XArbitraryZVertical,0.7678824914273111,-0.03056467185563894,-0.6371656691628124,-0.05867062270227896,0.9821231961250305,0.05115476995706558,0.1811554431915283,0,0,0,-1,-1,34162.295601875,unknown,2,2022-06-02T10:46:35.211+02:00,2022-06-02T10:32:51.428+02:00,75,2.361373,0,0,68.39739,0,0,2022-06-02T10:46:37.764+02:00,675852397.7635356,0,14.00781,101.0244,1,0.89
2022-06-02T10:46:40.086+02:00,1654159599.478372,53.22911916597133,10.39880538204919,40.30224,-1,-1,-1,-1,27.99508666992188,75,-9999,34167.165318875,0.9639739990234375,0.0438079833984375,0.72418212890625,34167.156582875,3.047106502782177,1.744811449239771,-0.0516237751068733,-2.705492496490479,-1.129846572875977,-0.5649756789207458,-0.02843105792999268,-0.0204881839454174,0.5813953876495361,XArbitraryZVertical,0.7655523476130078,-0.01958061047065143,-0.6411211908150516,-0.05009973342972589,0.9835856556892395,0.05160084739327431,0.1729075908660889,0,0,0,-1,-1,34162.295601875,unknown,2,2022-06-02T10:46:35.211+02:00,2022-06-02T10:32:51.428+02:00,75,2.361373,0,0,68.39739,0,0,2022-06-02T10:46:37.764+02:00,675852397.7635356,0,14.00781,101.0244,1,0.89
2022-06-02T10:46:40.096+02:00,1654159599.478372,53.22911916597133,10.39880538204919,40.30224,-1,-1,-1,-1,27.99508666992188,75,-9999,34167.175291875,0.9616851806640625,0.0474090576171875,0.6955718994140625,34167.166554875,3.074772592599414,1.733564726705221,-0.05285143630257583,-2.711618185043335,-1.413535714149475,-0.607856810092926,-0.0237652063369751,-0.01225373148918152,0.5762585401535034,XArbitraryZVertical,0.7621301014367557,-0.008359802773214978,-0.6460226592961359,-0.04174358085077343,0.9854045510292053,0.05282683670520782,0.1618243604898453,0,0,0,-1,-1,34162.295601875,unknown,2,2022-06-02T10:46:35.211+02:00,2022-06-02T10:32:51.428+02:00,75,2.361373,0,0,68.39739,0,0,2022-06-02T10:46:37.764+02:00,675852397.7635356,0,14.00781,101.0244,1,0.89
