loggingTime(txt),locationTimestamp_since1970(s),locationLatitude(WGS84),locationLongitude(WGS84),locationAltitude(m),locationSpeed(m/s),locationSpeedAccuracy(m/s),locationCourse(°),locationCourseAccuracy(°),locationVerticalAccuracy(m),locationHorizontalAccuracy(m),locationFloor(Z),accelerometerTimestamp_sinceReboot(s),accelerometerAccelerationX(G),accelerometerAccelerationY(G),accelerometerAccelerationZ(G),motionTimestamp_sinceReboot(s),motionYaw(rad),motionRoll(rad),motionPitch(rad),motionRotationRateX(rad/s),motionRotationRateY(rad/s),motionRotationRateZ(rad/s),motionUserAccelerationX(G),motionUserAccelerationY(G),motionUserAccelerationZ(G),motionAttitudeReferenceFrame(txt),motionQuaternionX(R),motionQuaternionY(R),motionQuaternionZ(R),motionQuaternionW(R),motionGravityX(G),motionGravityY(G),motionGravityZ(G),motionMagneticFieldX(µT),motionMagneticFieldY(µT),motionMagneticFieldZ(µT),motionHeading(°),motionMagneticFieldCalibrationAccuracy(Z),activityTimestamp_sinceReboot(s),activity(txt),activityActivityConfidence(Z),activityActivityStartDate(txt),pedometerStartDate(txt),pedometerNumberofSteps(N),pedometerAverageActivePace(s/m),pedometerCurrentPace(s/m),pedometerCurrentCadence(steps/s),pedometerDistance(m),pedometerFloorAscended(N),pedometerFloorDescended(N),pedometerEndDate(txt),altimeterTimestamp_sinceReboot(s),altimeterReset(bool),altimeterRelativeAltitude(m),altimeterPressure(kPa),batteryState(N),batteryLevel(R)
2022-06-02T10:49:00.031+02:00,1654159739.254308,53.22900487174962,10.39904550212939,31.63843,0.03878657,1.506368,-1,-1,3,64,-9999,34292.52240337501,0.17083740234375,-0.58367919921875,-0.8109283447265625,34292.518653375,-2.961400214458015,0.1766454393837837,0.6296667914751127,-0.07930642366409302,0.05797187983989716,-0.06500048190355301,0.01786912977695465,-0.006995499134063721,-0.0198591947555542,XArbitraryZVertical,0.1112848484797671,-0.299653644485868,-0.94084248105571,0.1124219840268284,0.1420277059078217,-0.5888754725456238,-0.7956467270851135,0,0,0,-1,-1,34290.70918641667,walking,2,2022-06-02T10:48:58.178+02:00,2022-06-02T10:32:51.428+02:00,110,2.414618,0,0,95.08166,0,0,2022-06-02T10:48:58.177+02:00,675852538.1774958,0,14.33984,101.0191,1,0.88
2022-06-02T10:49:00.034+02:00,1654159739.254308,53.22900487174962,10.39904550212939,31.63843,0.03878657,1.506368,-1,-1,3,64,-9999,34292.53237637501,0.158355712890625,-0.5790252685546875,-0.799041748046875,34292.528625375,-2.962086117027145,0.177505718709109,0.6290334002950222,-0.03424924239516258,0.04578197002410889,-0.07359301298856735,0.02725070714950562,0.003356695175170898,-0.01642560958862305,XArbitraryZVertical,0.1115685353784868,-0.2993439767617557,-0.9409328186474019,0.1122104005637138,0.1427779793739319,-0.5883634686470032,-0.795891284942627,0,0,0,-1,-1,34290.70918641667,walking,2,2022-06-02T10:48:58.178+02:00,2022-06-02T10:32:51.428+02:00,110,2.414618,0,0,95.08166,0,0,2022-06-02T10:48:58.177+02:00,675852538.1774958,0,14.33984,101.0191,1,0.88
2022-06-02T10:49:00.035+02:00,1654159739.254308,53.22900487174962,10.39904550212939,31.63843,0.03878657,1.506368,-1,-1,3,64,-9999,34292.54234837501,0.1512908935546875,-0.5843505859375,-0.797576904296875,34292.538598375,-2.962619845793304,0.1779443893588379,0.6288883147723825,-0.008193939924240112,0.05639813095331192,-0.06970319896936417,0.0172734260559082,0.00955653190612793,-0.004273533821105957,XArbitraryZVertical,0.1116908806370445,-0.2992805859648723,-0.9409609862122102,0.1120208339626064,0.1431421935558319,-0.5882461071014404,-0.7959125638008118,0,0,0,-1,-1,34290.70918641667,walking,2,2022-06-02T10:48:58.178+02:00,2022-06-02T10:32:51.428+02:00,110,2.414618,0,0,95.08166,0,0,2022-06-02T10:48:58.177+02:00,675852538.1774958,0,14.33984,101.0191,1,0.88
2022-06-02T10:49:00.044+02:00,1654159739.254308,53.22900487174962,10.39904550212939,31.63843,0.03878657,1.506368,-1,-1,3,64,-9999,34292.55232137501,0.147918701171875,-0.5920867919921875,-0.8021392822265625,34292.548571375,-2.963728519116023,0.1795325233047897,0.6287415705452734,-0.01809535175561905,0.06076189503073692,-0.06610497832298279,0.00747978687286377,0.005501091480255127,-0.0008158683776855469,XArbitraryZVertical,0.1122680072429267,-0.2991843779000047,-0.9409572810200051,0.1117326708082482,0.1444214582443237,-0.5881274342536926,-0.795769214630127,0,0,0,-1,-1,34290.70918641667,walking,2,2022-06-02T10:48:58.178+02:00,2022-06-02T10:32:51.428+02:00,110,2.414618,0,0,95.08166,0,0,2022-06-02T10:48:58.177+02:00,675852538.1774958,0,14.33984,101.0191,1,0.88
2022-06-02T10:49:00.046+02:00,1654159739.254308,53.22900487174962,10.39904550212939,31.63843,0.03878657,1.506368,-1,-1,3,64,-9999,34292.56229337501,0.1504669189453125,-0.593994140625,-0.80816650390625,34292.558543375,-2.964550614070796,0.1808494735260464,0.6283507713938004,-0.02849872410297394,0.07766152173280716,-0.05835358425974846,0.003140464425086975,-0.00426018238067627,-0.005419433116912842,XArbitraryZVertical,0.1127536976251614,-0.2989723124968399,-0.9409904143699253,0.1115314855668201,0.1455106437206268,-0.5878113508224487,-0.7958043217658997,0,0,0,-1,-1,34290.70918641667,walking,2,2022-06-02T10:48:58.178+02:00,2022-06-02T10:32:51.428+02:00,110,2.414618,0,0,95.08166,0,0,2022-06-02T10:48:58.177+02:00,675852538.1774958,0,14.33984,101.0191,1,0.88
2022-06-02T10:49:00.048+02:00,1654159739.254308,53.22900487174962,10.39904550212939,31.63843,0.03878657,1.506368,-1,-1,3,64,-9999,34292.57226637501,0.1524658203125,-0.5951995849609375,-0.8125457763671875,34292.568516375,-2.965106879781067,0.181919106487823,0.62782534538785,-0.03417782485485077,0.0842660665512085,-0.05389989167451859,0.00308796763420105,-0.007111489772796631,-0.01058191061019897,XArbitraryZVertical,0.1131592128214595,-0.2986956089969933,-0.9410434739007518,0.1114141651555702,0.1464176326990128,-0.5873861908912659,-0.7959518432617188,0,0,0,-1,-1,34290.70918641667,walking,2,2022-06-02T10:48:58.178+02:00,2022-06-02T10:32:51.428+02:00,110,2.414618,0,0,95.08166,0,0,2022-06-02T10:48:58.177+02:00,675852538.1774958,0,14.33984,101.0191,1,0.88
2022-06-02T10:49:00.055+02:00,1654159739.254308,53.22900487174962,10.39904550212939,31.63843,0.03878657,1.506368,-1,-1,3,64,-9999,34292.582239375,0.1636810302734375,-0.5985565185546875,-0.812744140625,34292.578488375,-2.965651254301084,0.1830715034970308,0.627205089347697,-0.05329213291406631,0.09487157315015793,-0.05847014114260674,0.004637479782104492,-0.007827222347259521,-0.01510810852050781,XArbitraryZVertical,0.1136030400452754,-0.2983689088494167,-0.9411057853015617,0.1113116452662568,0.1474010944366455,-0.586884081363678,-0.7961406707763672,0,0,0,-1,-1,34290.70918641667,walking,2,2022-06-02T10:48:58.178+02:00,2022-06-02T10:32:51.428+02:00,110,2.414618,0,0,95.08166,0,0,2022-06-02T10:48:58.177+02:00,675852538.1774958,0,14.33984,101.0191,1,0.88
2022-06-02T10:49:00.065+02:00,1654159739.254308,53.22900487174962,10.39904550212939,31.63843,0.03878657,1.506368,-1,-1,3,64,-9999,34292.592211375,0.1761932373046875,-0.605560302734375,-0.8084869384765625,34292.588461375,-2.966174043310283,0.1842894049711241,0.626515501519228,-0.06353970617055893,0.09993264824151993,-0.05793511494994164,0.01427499949932098,-0.01194101572036743,-0.01699626445770264,XArbitraryZVertical,0.1140792654670271,-0.29800471428749,-0.9411735913908704,0.1112265314015711,0.148444727063179,-0.5863256454467773,-0.7963582277297974,0,0,0,-1,-1,34290.70918641667,walking,2,2022-06-02T10:48:58.178+02:00,2022-06-02T10:32:51.428+02:00,110,2.414618,0,0,95.08166,0,0,2022-06-02T10:48:58.177+02:00,675852538.1774958,0,14.33984,101.0191,1,0.88
2022-06-02T10:49:00.075+02:00,1654159739.254308,53.22900487174962,10.39904550212939,31.63843,0.03878657,1.506368,-1,-1,3,64,-9999,34292.602184375,0.180816650390625,-0.6074676513671875,-0.80670166015625,34292.598433375,-2.966759550665404,0.1856316888818366,0.6256395074070176,-0.09077319502830505,0.09566919505596161,-0.06310058385133743,0.02495226263999939,-0.01912057399749756,-0.01275491714477539,XArbitraryZVertical,0.1145998999244001,-0.2975491178731003,-0.9412666322088303,0.1111242592963965,0.1496082693338394,-0.5856157541275024,-0.7966627478599548,0,0,0,-1,-1,34290.70918641667,walking,2,2022-06-02T10:48:58.178+02:00,2022-06-02T10:32:51.428+02:00,110,2.414618,0,0,95.08166,0,0,2022-06-02T10:48:58.177+02:00,675852538.1774958,0,14.33984,101.0191,1,0.88
2022-06-02T10:49:00.085+02:00,1654159739.254308,53.22900487174962,10.39904550212939,31.63843,0.03878657,1.506368,-1,-1,3,64,-9999,34292.612156375,0.17938232421875,-0.593048095703125,-0.8035888671875,34292.608406375,-2.96737351766484,0.1869783748927233,0.6244687826444248,-0.1119970753788948,0.09214245527982712,-0.06132473796606064,0.02985571324825287,-0.02287757396697998,-0.009140729904174805,XArbitraryZVertical,0.1151108356704088,-0.2969556606891735,-0.9414063966768725,0.110999436190537,0.1508083343505859,-0.58466637134552,-0.7971336841583252,0,0,0,-1,-1,34290.70918641667,walking,2,2022-06-02T10:48:58.178+02:00,2022-06-02T10:32:51.428+02:00,110,2.414618,0,0,95.08166,0,0,2022-06-02T10:48:58.177+02:00,675852538.1774958,0,14.33984,101.0191,1,0.88
2022-06-02T10:49:00.095+02:00,1654159739.254308,53.22900487174962,10.39904550212939,31.63843,0.03878657,1.506368,-1,-1,3,64,-9999,34292.622129375,0.169952392578125,-0.5718841552734375,-0.801788330078125,34292.618379375,-2.967974431976118,0.1882746354172978,0.6231794373764569,-0.1097549647092819,0.08284855633974075,-0.07173077762126923,0.02712517976760864,-0.01240372657775879,-0.006750702857971191,XArbitraryZVertical,0.1155973234769123,-0.2963082433264773,-0.9415661987168698,0.110868667062591,0.1519824713468552,-0.5836198925971985,-0.7976773381233215,0,0,0,-1,-1,34290.70918641667,walking,2,2022-06-02T10:48:58.178+02:00,2022-06-02T10:32:51.428+02:00,110,2.414618,0,0,95.08166,0,0,2022-06-02T10:48:58.177+02:00,675852538.1774958,0,14.33984,101.0191,1,0.88
2022-06-02T10:49:00.105+02:00,1654159739.254308,53.22900487174962,10.39904550212939,31.63843,0.03878657,1.506368,-1,-1,3,64,-9999,34292.632102375,0.164794921875,-0.5687103271484375,-0.7995452880859375,34292.628351375,-2.968626911036653,0.1895140883383624,0.6220943331185153,-0.0823926255106926,0.08491268754005432,-0.07313969731330872,0.01803706586360931,0.008275508880615234,-0.003495335578918457,XArbitraryZVertical,0.1160554170107335,-0.2957637651558384,-0.9416996328511084,0.1107107284033239,0.153090238571167,-0.5827383995056152,-0.7981098890304565,0,0,0,-1,-1,34290.70918641667,walking,2,2022-06-02T10:48:58.178+02:00,2022-06-02T10:32:51.428+02:00,110,2.414618,0,0,95.08166,0,0,2022-06-02T10:48:58.177+02:00,675852538.1774958,0,14.33984,101.0191,1,0.88
2022-06-02T10:49:00.115+02:00,1654159739.254308,53.22900487174962,10.39904550212939,31.63843,0.03878657,1.506368,-1,-1,3,64,-9999,34292.642074375,0.16119384765625,-0.571014404296875,-0.7981719970703125,34292.638324375,-2.969276458738454,0.1907809630946014,0.6213058397816494,-0.06437447667121887,0.09882877022027969,-0.07162702828645706,0.01062187552452087,0.01251733303070068,-0.001392722129821777,XArbitraryZVertical,0.1165351518444658,-0.2953582001854856,-0.9417845656613015,0.1105669437312896,0.1541883051395416,-0.5820974707603455,-0.7983661890029907,0,0,0,-1,-1,34290.70918641667,walking,2,2022-06-02T10:48:58.178+02:00,2022-06-02T10:32:51.428+02:00,110,2.414618,0,0,95.08166,0,0,2022-06-02T10:48:58.177+02:00,675852538.1774958,0,14.33984,101.0191,1,0.88
2022-06-02T10:49:00.125+02:00,1654159739.254308,53.22900487174962,10.39904550212939,31.63843,0.03878657,1.506368,-1,-1,3,64,-9999,34292.652047375,0.1637725830078125,-0.5764312744140625,-0.7918853759765625,34292.648296375,-2.969894588944987,0.1920573524937897,0.6206363920118338,-0.06424043327569962,0.1016220673918724,-0.07347583770751953,0.006019100546836853,0.01020288467407227,-0.0001397132873535156,XArbitraryZVertical,0.1170274685653835,-0.2950068442038938,-0.9418482209738793,0.1104426427933494,0.1552815586328506,-0.5815529823303223,-0.798551082611084,0,0,0,-1,-1,34290.70918641667,walking,2,2022-06-02T10:48:58.178+02:00,2022-06-02T10:32:51.428+02:00,110,2.414618,0,0,95.08166,0,0,2022-06-02T10:48:58.177+02:00,675852538.1774958,0,14.33984,101.0191,1,0.88
2022-06-02T10:49:00.135+02:00,1654159739.254308,53.22900487174962,10.39904550212939,31.63843,0.03878657,1.506368,-1,-1,3,64,-9999,34292.662019375,0.174774169921875,-0.5806427001953125,-0.7887420654296875,34292.658269375,-2.970500638140622,0.1933217619353312,0.6199083441282188,-0.06909909844398499,0.1020697504281998,-0.07039961963891983,0.006652474403381348,0.004193544387817383,0.00642627477645874,XArbitraryZVertical,0.1175147108996058,-0.294627906047717,-0.9419205366596372,0.1103198501708001,0.1563724279403687,-0.5809605717658997,-0.7987693548202515,0,0,0,-1,-1,34290.70918641667,walking,2,2022-06-02T10:48:58.178+02:00,2022-06-02T10:32:51.428+02:00,110,2.414618,0,0,95.08166,0,0,2022-06-02T10:48:58.177+02:00,675852538.1774958,0,14.33984,101.0191,1,0.88
2022-06-02T10:49:00.145+02:00,1654159739.254308,53.22900487174962,10.39904550212939,31.63843,0.03878657,1.506368,-1,-1,3,64,-9999,34292.671992375,0.1782989501953125,-0.582763671875,-0.7916717529296875,34292.668242375,-2.971267278051973,0.1948602912307034,0.619206556469552,-0.06837481260299683,0.09797202795743942,-0.07801474630832672,0.01659055054187775,-0.0002992749214172363,0.0102771520614624,XArbitraryZVertical,0.1181084257532854,-0.2942559696425215,-0.9419810034042284,0.1101620983595944,0.1576800793409348,-0.5803892016410828,-0.7989276647567749,0,0,0,-1,-1,34290.70918641667,walking,2,2022-06-02T10:48:58.178+02:00,2022-06-02T10:32:51.428+02:00,110,2.414618,0,0,95.08166,0,0,2022-06-02T10:48:58.177+02:00,675852538.1774958,0,14.33984,101.0191,1,0.88
2022-06-02T10:49:00.155+02:00,1654159739.254308,53.22900487174962,10.39904550212939,31.63843,0.03878657,1.506368,-1,-1,3,64,-9999,34292.681964375,0.1758880615234375,-0.581878662109375,-0.7989654541015625,34292.678214375,-2.97226757673171,0.1966399626832289,0.6186978751719735,-0.06423013657331467,0.08984006196260452,-0.07713350653648376,0.01871238648891449,-0.002056360244750977,0.008575737476348877,XArbitraryZVertical,0.11878663596662,-0.2939763988890103,-0.9420095133911859,0.1099356327672877,0.159159317612648,-0.579974889755249,-0.7989352345466614,0,0,0,-1,-1,34290.70918641667,walking,2,2022-06-02T10:48:58.178+02:00,2022-06-02T10:32:51.428+02:00,110,2.414618,0,0,95.08166,0,0,2022-06-02T10:48:58.177+02:00,675852538.1774958,0,14.33984,101.0191,1,0.88
2022-06-02T10:49:00.165+02:00,1654159739.254308,53.22900487174962,10.39904550212939,31.63843,0.03878657,1.506368,-1,-1,3,64,-9999,34292.691937375,0.17333984375,-0.5805816650390625,-0.805877685546875,34292.688187375,-2.973347905901102,0.1985729374851176,0.618268387987313,-0.06920478492975235,0.09655069559812546,-0.07684968411922455,0.01566965878009796,-0.00205540657043457,0.001491665840148926,XArbitraryZVertical,0.1195276175800669,-0.293731251038101,-0.9420201675115522,0.1096961703769244,0.160752460360527,-0.5796249508857727,-0.7988702058792114,0,0,0,-1,-1,34290.70918641667,walking,2,2022-06-02T10:48:58.178+02:00,2022-06-02T10:32:51.428+02:00,110,2.414618,0,0,95.08166,0,0,2022-06-02T10:48:58.177+02:00,675852538.1774958,0,14.33984,101.0191,1,0.88
2022-06-02T10:49:00.175+02:00,1654159739.254308,53.22900487174962,10.39904550212939,31.63843,0.03878657,1.506368,-1,-1,3,64,-9999,34292.701910375,0.1726837158203125,-0.576446533203125,-0.8136138916015625,34292.698159375,-2.974291846366461,0.2004305940676928,0.617564297967245,-0.08580134063959122,0.1030687838792801,-0.07179420441389084,0.0111444890499115,-0.002583444118499756,-0.005549728870391846,XArbitraryZVertical,0.1202467389353548,-0.2933526292388956,-0.94206941068725,0.1094998362589272,0.1623174250125885,-0.5790510773658752,-0.7989699244499207,0,0,0,-1,-1,34290.70918641667,walking,2,2022-06-02T10:48:58.178+02:00,2022-06-02T10:32:51.428+02:00,110,2.414618,0,0,95.08166,0,0,2022-06-02T10:48:58.177+02:00,675852538.1774958,0,14.33984,101.0191,1,0.88
2022-06-02T10:49:00.185+02:00,1654159739.254308,53.22900487174962,10.39904550212939,31.63843,0.03878657,1.506368,-1,-1,3,64,-9999,34292.711882375,0.17376708984375,-0.5647125244140625,-0.817840576171875,34292.708132375,-2.97496785911928,0.2019809786967966,0.6164419655336018,-0.08851128071546555,0.1005999445915222,-0.05497345700860023,0.008768633008003235,0.0006210207939147949,-0.01288712024688721,XArbitraryZVertical,0.12085070864528,-0.2927770081438485,-0.9421863349956304,0.1093691917907808,0.1636862009763718,-0.5781356692314148,-0.7993534803390503,0,0,0,-1,-1,34290.70918641667,walking,2,2022-06-02T10:48:58.178+02:00,2022-06-02T10:32:51.428+02:00,110,2.414618,0,0,95.08166,0,0,2022-06-02T10:48:58.177+02:00,675852538.1774958,0,14.33984,101.0191,1,0.88
2022-06-02T10:49:00.195+02:00,1654159739.254308,53.22900487174962,10.39904550212939,31.63843,0.03878657,1.506368,-1,-1,3,64,-9999,34292.721855375,0.1752777099609375,-0.5590667724609375,-0.8179168701171875,34292.718105375,-2.975452100096205,0.2033251401032305,0.6153451498439253,-0.07549960911273956,0.1093012914061546,-0.05720092356204987,0.008939653635025024,0.01089513301849365,-0.01747691631317139,XArbitraryZVertical,0.1213867040542466,-0.2922133178983749,-0.9423006168077827,0.109298699383954,0.1648884564638138,-0.5772404074668884,-0.7997533082962036,0,0,0,-1,-1,34290.70918641667,walking,2,2022-06-02T10:48:58.178+02:00,2022-06-02T10:32:51.428+02:00,110,2.414618,0,0,95.08166,0,0,2022-06-02T10:48:58.177+02:00,675852538.1774958,0,14.33984,101.0191,1,0.88
2022-06-02T10:49:00.205+02:00,1654159739.254308,53.22900487174962,10.39904550212939,31.63843,0.03878657,1.506368,-1,-1,3,64,-9999,34292.731827375,0.1717071533203125,-0.5505523681640625,-0.8177032470703125,34292.728077375,-2.975936247915582,0.2045983870655453,0.6145104388208348,-0.05394429340958595,0.09961874783039093,-0.05690622329711914,0.008479788899421692,0.01688146591186523,-0.01764321327209473,XArbitraryZVertical,0.1218959659599431,-0.291777797016663,-0.9423781611464176,0.1092265225850343,0.1660044491291046,-0.5765585899353027,-0.8000141978263855,0,0,0,-1,-1,34290.70918641667,walking,2,2022-06-02T10:48:58.178+02:00,2022-06-02T10:32:51.428+02:00,110,2.414618,0,0,95.08166,0,0,2022-06-02T10:48:58.177+02:00,675852538.1774958,0,14.33984,101.0191,1,0.88
2022-06-02T10:49:00.215+02:00,1654159739.254308,53.22900487174962,10.39904550212939,31.63843,0.03878657,1.506368,-1,-1,3,64,-9999,34292.741800375,0.1679534912109375,-0.5492706298828125,-0.814666748046875,34292.738050375,-2.976433498232672,0.2058922179287474,0.6140211853073447,-0.0431172139942646,0.1092876195907593,-0.04843391105532646,0.0060749351978302,0.02427887916564941,-0.01843714714050293,XArbitraryZVertical,0.1224214849516076,-0.291505713110267,-0.9424016678475983,0.1091631740258491,0.1670970469713211,-0.5761587619781494,-0.8000748157501221,0,0,0,-1,-1,34290.70918641667,walking,2,2022-06-02T10:48:58.178+02:00,2022-06-02T10:32:51.428+02:00,110,2.414618,0,0,95.08166,0,0,2022-06-02T10:48:58.177+02:00,675852538.1774958,0,14.33984,101.0191,1,0.88
2022-06-02T10:49:00.225+02:00,1654159739.254308,53.22900487174962,10.39904550212939,31.63843,0.03878657,1.506368,-1,-1,3,64,-9999,34292.751773375,0.174468994140625,-0.55364990234375,-0.8105316162109375,34292.748022375,-2.97699610492973,0.2075082737302341,0.6137856541088527,-0.02599277719855309,0.1103029027581215,-0.0374358743429184,-0.0004032254219055176,0.0268481969833374,-0.01433348655700684,XArbitraryZVertical,0.1230954444351703,-0.2913404704471254,-0.9423694002491037,0.109124927263813,0.168417751789093,-0.5759662389755249,-0.7999364733695984,0,0,0,-1,-1,34290.70918641667,walking,2,2022-06-02T10:48:58.178+02:00,2022-06-02T10:32:51.428+02:00,110,2.414618,0,0,95.08166,0,0,2022-06-02T10:48:58.177+02:00,675852538.1774958,0,14.33984,101.0191,1,0.88
2022-06-02T10:49:00.235+02:00,1654159739.254308,53.22900487174962,10.39904550212939,31.63843,0.03878657,1.506368,-1,-1,3,64,-9999,34292.761745375,0.1715087890625,-0.5620269775390625,-0.804046630859375,34292.757995375,-2.977557036151508,0.2091021830235086,0.6136479336862817,-0.02370565384626389,0.1067055091261864,-0.04112328961491585,0.005126163363456726,0.02195960283279419,-0.01165670156478882,XArbitraryZVertical,0.123761556897303,-0.2912229008274557,-0.9423227780192286,0.1090876610240129,0.1697090119123459,-0.5758536458015442,-0.7997446060180664,0,0,0,-1,-1,34290.70918641667,walking,2,2022-06-02T10:48:58.178+02:00,2022-06-02T10:32:51.428+02:00,110,2.414618,0,0,95.08166,0,0,2022-06-02T10:48:58.177+02:00,675852538.1774958,0,14.33984,101.0191,1,0.88
2022-06-02T10:49:00.244+02:00,1654159739.254308,53.22900487174962,10.39904550212939,31.63843,0.03878657,1.506368,-1,-1,3,64,-9999,34292.771718375,0.1672515869140625,-0.5677337646484375,-0.8090362548828125,34292.767968375,-2.978040075363531,0.2106297438108347,0.6134588750635667,-0.02847191318869591,0.1242501512169838,-0.03439414501190186,0.001196414232254028,0.01429766416549683,-0.004547297954559326,XArbitraryZVertical,0.1244066019193623,-0.2910800015965215,-0.942283383093024,0.109075362445258,0.1709532290697098,-0.5756990909576416,-0.7995908856391907,0,0,0,-1,-1,34290.70918641667,walking,2,2022-06-02T10:48:58.178+02:00,2022-06-02T10:32:51.428+02:00,110,2.414618,0,0,95.08166,0,0,2022-06-02T10:48:58.177+02:00,675852538.1774958,0,14.33984,101.0191,1,0.88
2022-06-02T10:49:00.254+02:00,1654159739.254308,53.22900487174962,10.39904550212939,31.63843,0.03878657,1.506368,-1,-1,3,64,-9999,34292.781690375,0.171417236328125,-0.5708465576171875,-0.8115386962890625,34292.777940375,-2.97840282994899,0.2121401672999137,0.6131215140317258,-0.03481343388557434,0.1347398012876511,-0.03619470819830894,-0.004583850502967834,0.008284509181976318,-0.00914841890335083,XArbitraryZVertical,0.1250577513288164,-0.2908604341712567,-0.9422607665606082,0.1091114151284743,0.1722016334533691,-0.5754231810569763,-0.7995215058326721,0,0,0,-1,-1,34290.70918641667,walking,2,2022-06-02T10:48:58.178+02:00,2022-06-02T10:32:51.428+02:00,110,2.414618,0,0,95.08166,0,0,2022-06-02T10:48:58.177+02:00,675852538.1774958,0,14.33984,101.0191,1,0.88
2022-06-02T10:49:00.265+02:00,1654159739.254308,53.22900487174962,10.39904550212939,31.63843,0.03878657,1.506368,-1,-1,3,64,-9999,34292.791663375,0.1680450439453125,-0.5727691650390625,-0.8104248046875,34292.787913375,-2.978698969561938,0.2136751431019893,0.612562122139452,-0.04294810444116592,0.1403584480285645,-0.04460534825921059,-0.003269881010055542,0.003218770027160645,-0.01199841499328613,XArbitraryZVertical,0.1257252175584492,-0.2905301898456076,-0.9422667312891799,0.1091736078537457,0.1734969168901443,-0.5749655961990356,-0.7995707392692566,0,0,0,-1,-1,34290.70918641667,walking,2,2022-06-02T10:48:58.178+02:00,2022-06-02T10:32:51.428+02:00,110,2.414618,0,0,95.08166,0,0,2022-06-02T10:48:58.177+02:00,675852538.1774958,0,14.33984,101.0191,1,0.88
2022-06-02T10:49:00.274+02:00,1654159739.254308,53.22900487174962,10.39904550212939,31.63843,0.03878657,1.506368,-1,-1,3,64,-9999,34292.801636375,0.1621856689453125,-0.5962677001953125,-0.8155059814453125,34292.797885375,-2.979701645162009,0.2155970691434201,0.6113160325896547,-0.09469038993120193,0.1914687752723694,-0.1558439880609512,-0.003937080502510071,0.002458155155181885,-0.01120686531066895,XArbitraryZVertical,0.1264573893088857,-0.2898982228935864,-0.9423914101211526,0.1089317802151893,0.1751864552497864,-0.5739456415176392,-0.7999351024627686,0,0,0,-1,-1,34290.70918641667,walking,2,2022-06-02T10:48:58.178+02:00,2022-06-02T10:32:51.428+02:00,110,2.414618,0,0,95.08166,0,0,2022-06-02T10:48:58.177+02:00,675852538.1774958,0,14.33984,101.0191,1,0.88
2022-06-02T10:49:00.284+02:00,1654159739.254308,53.22900487174962,10.39904550212939,31.63843,0.03878657,1.506368,-1,-1,3,64,-9999,34292.811608375,0.2079620361328125,-0.5933990478515625,-0.7947845458984375,34292.807858375,-2.980199883367448,0.2178335981480432,0.6101182502109065,-0.06073451414704323,0.1883787959814072,-0.004697504453361034,-0.0255884975194931,-0.02485978603363037,-0.01707929372787476,XArbitraryZVertical,0.1274126975143803,-0.2892404508712506,-0.9424600047089203,0.1089737004532354,0.1771235316991806,-0.5729643702507019,-0.8002119064331055,0,0,0,-1,-1,34290.70918641667,walking,2,2022-06-02T10:48:58.178+02:00,2022-06-02T10:32:51.428+02:00,110,2.414618,0,0,95.08166,0,0,2022-06-02T10:48:58.177+02:00,675852538.1774958,0,14.33984,101.0191,1,0.88
2022-06-02T10:49:00.294+02:00,1654159739.254308,53.22900487174962,10.39904550212939,31.63843,0.03878657,1.506368,-1,-1,3,64,-9999,34292.821581375,0.191436767578125,-0.57537841796875,-0.7948150634765625,34292.817830375,-2.980406335062045,0.2195517663591253,0.6086074664528293,-0.1159050911664963,0.171259731054306,-0.08363386243581772,0.03098452091217041,-0.02123105525970459,0.005324959754943848,XArbitraryZVertical,0.1281595418381889,-0.288444043386937,-0.9425922776217367,0.109064302290202,0.1786864995956421,-0.5717255473136902,-0.8007503151893616,0,0,0,-1,-1,34290.70918641667,walking,2,2022-06-02T10:48:58.178+02:00,2022-06-02T10:32:51.428+02:00,110,2.414618,0,0,95.08166,0,0,2022-06-02T10:48:58.177+02:00,675852538.1774958,0,14.33984,101.0191,1,0.88
2022-06-02T10:49:00.304+02:00,1654159739.254308,53.22900487174962,10.39904550212939,31.63843,0.03878657,1.506368,-1,-1,3,64,-9999,34292.831553375,0.20391845703125,-0.5673370361328125,-0.7883758544921875,34292.827803375,-2.980876322088516,0.221441989222475,0.6068626864648015,-0.09816896915435791,0.1930454522371292,-0.07491400837898254,0.01234570145606995,-0.007557213306427002,0.007269918918609619,XArbitraryZVertical,0.1289449204182254,-0.2875442006353396,-0.9427623233584116,0.1090445238146955,0.1804185807704926,-0.570293128490448,-0.8013830780982971,0,0,0,-1,-1,34290.70918641667,walking,2,2022-06-02T10:48:58.178+02:00,2022-06-02T10:32:51.428+02:00,110,2.414618,0,0,95.08166,0,0,2022-06-02T10:48:58.177+02:00,675852538.1774958,0,14.33984,101.0191,1,0.88
2022-06-02T10:49:00.314+02:00,1654159739.254308,53.22900487174962,10.39904550212939,31.63843,0.03878657,1.506368,-1,-1,3,64,-9999,34292.841526375,0.218017578125,-0.5567626953125,-0.7674713134765625,34292.837776375,-2.981269049194227,0.2233517161896621,0.605527701443466,-0.08064643293619156,0.1557327061891556,-0.05836432799696922,0.01949721574783325,0.001050293445587158,0.01138883829116821,XArbitraryZVertical,0.1297600608799789,-0.286832593224182,-0.9428632655568916,0.109079023887242,0.1821171492338181,-0.5691960453987122,-0.8017787933349609,0,0,0,-1,-1,34290.70918641667,walking,2,2022-06-02T10:48:58.178+02:00,2022-06-02T10:32:51.428+02:00,110,2.414618,0,0,95.08166,0,0,2022-06-02T10:48:58.177+02:00,675852538.1774958,0,14.33984,101.0191,1,0.88
2022-06-02T10:49:00.324+02:00,1654159739.254308,53.22900487174962,10.39904550212939,31.63843,0.03878657,1.506368,-1,-1,3,64,-9999,34292.851499375,0.209381103515625,-0.5553741455078125,-0.7689666748046875,34292.847748375,-2.981895785509161,0.2250362240681872,0.6045032711383073,-0.06196152046322823,0.1479869782924652,-0.1025891378521919,0.03596119582653046,0.009881734848022461,0.03273648023605347,XArbitraryZVertical,0.1304426119890342,-0.2862958478100192,-0.9429433326966385,0.1089824996641629,0.1835975050926208,-0.5683534741401672,-0.802038848400116,0,0,0,-1,-1,34290.70918641667,walking,2,2022-06-02T10:48:58.178+02:00,2022-06-02T10:32:51.428+02:00,110,2.414618,0,0,95.08166,0,0,2022-06-02T10:48:58.177+02:00,675852538.1774958,0,14.33984,101.0191,1,0.88
2022-06-02T10:49:00.334+02:00,1654159739.254308,53.22900487174962,10.39904550212939,31.63843,0.03878657,1.506368,-1,-1,3,64,-9999,34292.861471375,0.2054901123046875,-0.558807373046875,-0.7644805908203125,34292.857721375,-2.982920937398786,0.2267296239620697,0.6037697457601127,-0.02329535037279129,0.1218736320734024,-0.1203689351677895,0.02601045370101929,0.0135505199432373,0.03414273262023926,XArbitraryZVertical,0.1310789597262318,-0.2859228788464419,-0.9429997189867736,0.1087106987066508,0.1850490868091583,-0.5677497386932373,-0.8021328449249268,0,0,0,-1,-1,34290.70918641667,walking,2,2022-06-02T10:48:58.178+02:00,2022-06-02T10:32:51.428+02:00,110,2.414618,0,0,95.08166,0,0,2022-06-02T10:48:58.177+02:00,675852538.1774958,0,14.33984,101.0191,1,0.88
2022-06-02T10:49:00.344+02:00,1654159739.254308,53.22900487174962,10.39904550212939,31.63843,0.03878657,1.506368,-1,-1,3,64,-9999,34292.871444375,0.204345703125,-0.5724029541015625,-0.7684326171875,34292.867693375,-2.984101433496774,0.228276127623375,0.6032152824115715,-0.02593014761805534,0.1144567281007767,-0.1259027719497681,0.02118946611881256,0.008867383003234863,0.03715282678604126,XArbitraryZVertical,0.1316280343116222,-0.2856536092591602,-0.9430460754804983,0.1083515646752973,0.1863605678081512,-0.5672932267189026,-0.802152156829834,0,0,0,-1,-1,34290.70918641667,walking,2,2022-06-02T10:48:58.178+02:00,2022-06-02T10:32:51.428+02:00,110,2.414618,0,0,95.08166,0,0,2022-06-02T10:48:58.177+02:00,675852538.1774958,0,14.33984,101.0191,1,0.88
2022-06-02T10:49:00.354+02:00,1654159739.254308,53.22900487174962,10.39904550212939,31.63843,0.03878657,1.506368,-1,-1,3,64,-9999,34292.881416375,0.212127685546875,-0.5787506103515625,-0.7704315185546875,34292.877666375,-2.985169797855711,0.2297977847584525,0.6027341965422286,-0.01998038217425346,0.1217652410268784,-0.1065434664487839,0.01676364243030548,-0.002774655818939209,0.03450942039489746,XArbitraryZVertical,0.132183261245473,-0.2854136194545626,-0.9430763291511497,0.1080444394558884,0.1876430958509445,-0.5668969750404358,-0.802133321762085,0,0,0,-1,-1,34290.70918641667,walking,2,2022-06-02T10:48:58.178+02:00,2022-06-02T10:32:51.428+02:00,110,2.414618,0,0,95.08166,0,0,2022-06-02T10:48:58.177+02:00,675852538.1774958,0,14.33984,101.0191,1,0.88
2022-06-02T10:49:00.364+02:00,1654159739.254308,53.22900487174962,10.39904550212939,31.63843,0.03878657,1.506368,-1,-1,3,64,-9999,34292.891389375,0.2198486328125,-0.580169677734375,-0.7678070068359375,34292.887639375,-2.985721282318333,0.2305964604267275,0.6027616578491297,-0.02638306468725204,0.09193108975887299,-0.08774252980947495,0.02236743271350861,-0.01155632734298706,0.03100252151489258,XArbitraryZVertical,0.1324817058933449,-0.2854200003106818,-0.9430491454566151,0.1078995658772678,0.1882801353931427,-0.5669196248054504,-0.8019680380821228,0,0,0,-1,-1,34290.70918641667,walking,2,2022-06-02T10:48:58.178+02:00,2022-06-02T10:32:51.428+02:00,110,2.414618,0,0,95.08166,0,0,2022-06-02T10:48:58.177+02:00,675852538.1774958,0,14.33984,101.0191,1,0.88
2022-06-02T10:49:00.374+02:00,1654159739.254308,53.22900487174962,10.39904550212939,31.63843,0.03878657,1.506368,-1,-1,3,64,-9999,34292.901361375,0.22265625,-0.577911376953125,-0.771026611328125,34292.897611375,-2.986924181644408,0.2324121964988345,0.6026969214847586,-0.03014797531068325,0.06595434993505478,-0.07693514972925186,0.02978374063968658,-0.01279979944229126,0.03405195474624634,XArbitraryZVertical,0.1331649272149597,-0.285371387063671,-0.9430031089328887,0.1075886602239384,0.1897444278001785,-0.5668662786483765,-0.8016605377197266,0,0,0,-1,-1,34290.70918641667,walking,2,2022-06-02T10:48:58.178+02:00,2022-06-02T10:32:51.428+02:00,110,2.414618,0,0,95.08166,0,0,2022-06-02T10:48:58.177+02:00,675852538.1774958,0,14.33984,101.0191,1,0.88
2022-06-02T10:49:00.384+02:00,1654159739.254308,53.22900487174962,10.39904550212939,31.63843,0.03878657,1.506368,-1,-1,3,64,-9999,34292.911334375,0.22003173828125,-0.566680908203125,-0.78411865234375,34292.907584375,-2.987817969754498,0.2336341078870436,0.6023606248111595,-0.04329773038625717,0.06317480653524399,-0.08044059574604034,0.03289535641670227,-0.01194781064987183,0.03189921379089355,XArbitraryZVertical,0.1336070630964481,-0.2852058650565071,-0.9430205495337697,0.1073267468460736,0.1907679736614227,-0.5665891766548157,-0.8016135096549988,0,0,0,-1,-1,34290.70918641667,walking,2,2022-06-02T10:48:58.178+02:00,2022-06-02T10:32:51.428+02:00,110,2.414618,0,0,95.08166,0,0,2022-06-02T10:48:58.177+02:00,675852538.1774958,0,14.33984,101.0191,1,0.88
2022-06-02T10:49:00.394+02:00,1654159739.254308,53.22900487174962,10.39904550212939,31.63843,0.03878657,1.506368,-1,-1,3,64,-9999,34292.921307375,0.2270660400390625,-0.5542755126953125,-0.79571533203125,34292.917556375,-2.988694785920901,0.2348523745893366,0.6018328152990271,-0.0500059686601162,0.03995257988572121,-0.0669197291135788,0.02658508718013763,-0.002159416675567627,0.01933789253234863,XArbitraryZVertical,0.13404647359133,-0.2849489867066829,-0.9430657018941484,0.1070635386341752,0.1918139755725861,-0.5661542415618896,-0.8016712069511414,0,0,0,-1,-1,34290.70918641667,walking,2,2022-06-02T10:48:58.178+02:00,2022-06-02T10:32:51.428+02:00,110,2.414618,0,0,95.08166,0,0,2022-06-02T10:48:58.177+02:00,675852538.1774958,0,14.33984,101.0191,1,0.88
2022-06-02T10:49:00.404+02:00,1654159739.254308,53.22900487174962,10.39904550212939,31.63843,0.03878657,1.506368,-1,-1,3,64,-9999,34292.931279375,0.2176666259765625,-0.5440216064453125,-0.8050994873046875,34292.927529375,-2.989775272949877,0.2362058495087898,0.6013136938590763,-0.0508900061249733,0.01439102552831173,-0.07260231673717499,0.03393058478832245,0.01077932119369507,0.008331120014190674,XArbitraryZVertical,0.1345210843558335,-0.2847029964043339,-0.9431110468236497,0.1067235756263588,0.1929675936698914,-0.5657262206077576,-0.8016965389251709,0,0,0,-1,-1,34290.70918641667,walking,2,2022-06-02T10:48:58.178+02:00,2022-06-02T10:32:51.428+02:00,110,2.414618,0,0,95.08166,0,0,2022-06-02T10:48:58.177+02:00,675852538.1774958,0,14.33984,101.0191,1,0.88
2022-06-02T10:49:00.414+02:00,1654159739.254308,53.22900487174962,10.39904550212939,31.63843,0.03878657,1.506368,-1,-1,3,64,-9999,34292.941252375,0.2174224853515625,-0.5372314453125,-0.81060791015625,34292.937502375,-2.990703506153979,0.2373268525169778,0.6008796093947941,-0.0365866981446743,0.01746085099875927,-0.04875131696462631,0.02532963454723358,0.01972919702529907,-0.002404510974884033,XArbitraryZVertical,0.1349096262185996,-0.2844999411692524,-0.9431504646052431,0.1064257801449431,0.1939238905906677,-0.5653682351112366,-0.8017183542251587,0,0,0,-1,-1,34290.70918641667,walking,2,2022-06-02T10:48:58.178+02:00,2022-06-02T10:32:51.428+02:00,110,2.414618,0,0,95.08166,0,0,2022-06-02T10:48:58.177+02:00,675852538.1774958,0,14.33984,101.0191,1,0.88
2022-06-02T10:49:00.424+02:00,1654159739.254308,53.22900487174962,10.39904550212939,31.63843,0.03878657,1.506368,-1,-1,3,64,-9999,34292.951224375,0.2189788818359375,-0.5358734130859375,-0.806060791015625,34292.947474375,-2.991376196910395,0.2381732026029249,0.6008272611387269,-0.01297382637858391,-0.002387510612607002,-0.02790233679115772,0.02214175462722778,0.02734589576721191,-0.008597970008850098,XArbitraryZVertical,0.1352121073811454,-0.2844755610840722,-0.9431369272849718,0.1062265636100705,0.1946093440055847,-0.5653250217437744,-0.8015826940536499,0,0,0,-1,-1,34290.70918641667,walking,2,2022-06-02T10:48:58.178+02:00,2022-06-02T10:32:51.428+02:00,110,2.414618,0,0,95.08166,0,0,2022-06-02T10:48:58.177+02:00,675852538.1774958,0,14.33984,101.0191,1,0.88
2022-06-02T10:49:00.434+02:00,1654159739.254308,53.22900487174962,10.39904550212939,31.63843,0.03878657,1.506368,-1,-1,3,64,-9999,34292.961197375,0.21197509765625,-0.5367584228515625,-0.7969512939453125,34292.957447375,-2.991883353613352,0.2386462817366674,0.6011363702360696,0.001076478976756334,-0.01777525618672371,-0.02181994169950485,0.02426055073738098,0.02963030338287354,-0.006128609180450439,XArbitraryZVertical,0.1353685948358663,-0.2846313547542912,-0.9430851749376274,0.1060688171480011,0.194947212934494,-0.5655800104141235,-0.8013206720352173,0,0,0,-1,-1,34290.70918641667,walking,2,2022-06-02T10:48:58.178+02:00,2022-06-02T10:32:51.428+02:00,110,2.414618,0,0,95.08166,0,0,2022-06-02T10:48:58.177+02:00,675852538.1774958,0,14.33984,101.0191,1,0.88
2022-06-02T10:49:00.444+02:00,1654159739.254308,53.22900487174962,10.39904550212939,31.63843,0.03878657,1.506368,-1,-1,3,64,-9999,34292.971170375,0.2089996337890625,-0.546630859375,-0.793975830078125,34292.967419375,-2.992316115592455,0.2390349437677304,0.6015524322515896,0.001990120857954025,-0.02008066512644291,-0.003684704191982746,0.01825228333473206,0.02921038866043091,0.00371396541595459,XArbitraryZVertical,0.1354976526900175,-0.2848373131447515,-0.9430191128444383,0.1059391393019692,0.1952029168605804,-0.5659230947494507,-0.8010162115097046,0,0,0,-1,-1,34290.70918641667,walking,2,2022-06-02T10:48:58.178+02:00,2022-06-02T10:32:51.428+02:00,110,2.414618,0,0,95.08166,0,0,2022-06-02T10:48:58.177+02:00,675852538.1774958,0,14.33984,101.0191,1,0.88
2022-06-02T10:49:00.454+02:00,1654159739.254308,53.22900487174962,10.39904550212939,31.63843,0.03878657,1.506368,-1,-1,3,64,-9999,34292.981142375,0.210601806640625,-0.5576324462890625,-0.7866973876953125,34292.977392375,-2.992631265203567,0.2392800074727257,0.6019904273655622,0.002434336114674807,-0.04636020585894585,0.002952692098915577,0.01339979469776154,0.02191156148910522,0.005820870399475098,XArbitraryZVertical,0.135576044919091,-0.2850533556937246,-0.9429530865442451,0.1058455468977956,0.1953404396772385,-0.5662841200828552,-0.8007274270057678,0,0,0,-1,-1,34290.70918641667,walking,2,2022-06-02T10:48:58.178+02:00,2022-06-02T10:32:51.428+02:00,110,2.414618,0,0,95.08166,0,0,2022-06-02T10:48:58.177+02:00,675852538.1774958,0,14.33984,101.0191,1,0.88
2022-06-02T10:49:00.484+02:00,1654159739.254308,53.22900487174962,10.39904550212939,31.63843,0.03878657,1.506368,-1,-1,3,64,-9999,34292.991115375,0.20098876953125,-0.56317138671875,-0.7879638671875,34292.987364375,-2.99290233115719,0.2393060266279149,0.6023481617101377,0.003644698299467564,-0.05619055405259132,0.005955429747700691,0.01504442095756531,0.009785652160644531,0.01279056072235107,XArbitraryZVertical,0.135555956853838,-0.2852399431085471,-0.9429116617541898,0.1057378796845017,0.1953132450580597,-0.5665789246559143,-0.8005254864692688,0,0,0,-1,-1,34290.70918641667,walking,2,2022-06-02T10:48:58.178+02:00,2022-06-02T10:32:51.428+02:00,110,2.414618,0,0,95.08166,0,0,2022-06-02T10:48:58.177+02:00,675852538.1774958,0,14.33984,101.0191,1,0.88
2022-06-02T10:49:00.487+02:00,1654159739.254308,53.22900487174962,10.39904550212939,31.63843,0.03878657,1.506368,-1,-1,3,64,-9999,34293.001087375,0.199462890625,-0.5610809326171875,-0.797393798828125,34292.997337375,-2.992933157831491,0.2391128218152215,0.6024775903667265,-0.007418072782456875,-0.04741703718900681,0.02874889224767685,0.007922738790512085,0.00467383861541748,0.01342839002609253,XArbitraryZVertical,0.1354627463832139,-0.2853136087909611,-0.9429068111782981,0.1057017243473334,0.1951412111520767,-0.5666855573654175,-0.800491988658905,0,0,0,-1,-1,34290.70918641667,walking,2,2022-06-02T10:48:58.178+02:00,2022-06-02T10:32:51.428+02:00,110,2.414618,0,0,95.08166,0,0,2022-06-02T10:48:58.177+02:00,675852538.1774958,0,14.33984,101.0191,1,0.88
2022-06-02T10:49:00.489+02:00,1654159739.254308,53.22900487174962,10.39904550212939,31.63843,0.03878657,1.506368,-1,-1,3,64,-9999,34293.011060375,0.2044677734375,-0.54827880859375,-0.7981414794921875,34293.007310375,-2.992823861974772,0.2389131433838734,0.6022744887488162,-0.01130579970777035,-0.0654456615447998,0.04363931342959404,0.004744201898574829,0.004948973655700684,0.004011869430541992,XArbitraryZVertical,0.1353806285196502,-0.2852204910414459,-0.9429451852222197,0.1057154580367633,0.1950085908174515,-0.566518247127533,-0.800642728805542,0,0,0,-1,-1,34290.70918641667,walking,2,2022-06-02T10:48:58.178+02:00,2022-06-02T10:32:51.428+02:00,110,2.414618,0,0,95.08166,0,0,2022-06-02T10:48:58.177+02:00,675852538.1774958,0,14.33984,101.0191,1,0.88
2022-06-02T10:49:00.494+02:00,1654159739.254308,53.22900487174962,10.39904550212939,31.63843,0.03878657,1.506368,-1,-1,3,64,-9999,34293.021033375,0.20343017578125,-0.5376434326171875,-0.806793212890625,34293.017282375,-2.992597796836828,0.238406577403563,0.6019084658738426,-0.001935733831487596,-0.06906649470329285,0.03900035470724106,0.009464859962463379,0.01714426279067993,0.002801418304443359,XArbitraryZVertical,0.135167545148238,-0.2850584157420605,-0.9430228584392309,0.1057330918846733,0.1946519613265991,-0.5662165880203247,-0.8009428977966309,0,0,0,-1,-1,34290.70918641667,walking,2,2022-06-02T10:48:58.178+02:00,2022-06-02T10:32:51.428+02:00,110,2.414618,0,0,95.08166,0,0,2022-06-02T10:48:58.177+02:00,675852538.1774958,0,14.33984,101.0191,1,0.88
2022-06-02T10:49:00.504+02:00,1654159739.254308,53.22900487174962,10.39904550212939,31.63843,0.03878657,1.506368,-1,-1,3,64,-9999,34293.031005375,0.194549560546875,-0.526763916015625,-0.813995361328125,34293.027255375,-2.992376379963082,0.2378921748482523,0.6014892285085512,0.01452348846942186,-0.06711741536855698,0.04269770905375481,0.01059919595718384,0.02622860670089722,-0.004924654960632324,XArbitraryZVertical,0.1349490964230237,-0.2848719056148279,-0.9431090714321442,0.1057450702845845,0.1942958384752274,-0.5658709406852722,-0.8012734651565552,0,0,0,-1,-1,34290.70918641667,walking,2,2022-06-02T10:48:58.178+02:00,2022-06-02T10:32:51.428+02:00,110,2.414618,0,0,95.08166,0,0,2022-06-02T10:48:58.177+02:00,675852538.1774958,0,14.33984,101.0191,1,0.88
2022-06-02T10:49:00.514+02:00,1654159740.259994,53.22912605451184,10.39918254904366,35.74418,0.243949,0.9313551,-1,-1,3,32,-9999,34293.040978375,0.1905975341796875,-0.5255279541015625,-0.8165740966796875,34293.037227375,-2.992229015321243,0.2375689511370582,0.6011402485682099,0.02436919696629047,-0.0536000095307827,0.04331503063440323,0.002159968018531799,0.03793430328369141,-0.01159745454788208,XArbitraryZVertical,0.1348114300942425,-0.2847135845131186,-0.9431756873110435,0.1057526514621425,0.1940832883119583,-0.5655831694602966,-0.8015280961990356,0,0,0,-1,-1,34290.70918641667,walking,2,2022-06-02T10:48:58.178+02:00,2022-06-02T10:32:51.428+02:00,110,2.414618,0,0,95.08166,0,0,2022-06-02T10:48:58.177+02:00,675852538.1774958,0,14.33984,101.0191,1,0.88
2022-06-02T10:49:00.524+02:00,1654159740.259994,53.22912605451184,10.39918254904366,35.74418,0.243949,0.9313551,-1,-1,3,32,-9999,34293.050950375,0.196807861328125,-0.52899169921875,-0.8218841552734375,34293.047200375,-2.992029438486426,0.237323771301709,0.6010319898895546,0.0318419374525547,-0.03421423584222794,0.04994048550724983,-0.003486722707748413,0.0399964451789856,-0.01556450128555298,XArbitraryZVertical,0.1347222690120572,-0.2846617528863644,-0.9431980210268837,0.1058069568642582,0.1939011663198471,-0.5654938817024231,-0.801635205745697,0,0,0,-1,-1,34290.70918641667,walking,2,2022-06-02T10:48:58.178+02:00,2022-06-02T10:32:51.428+02:00,110,2.414618,0,0,95.08166,0,0,2022-06-02T10:48:58.177+02:00,675852538.1774958,0,14.33984,101.0191,1,0.88
2022-06-02T10:49:00.534+02:00,1654159740.259994,53.22912605451184,10.39918254904366,35.74418,0.243949,0.9313551,-1,-1,3,32,-9999,34293.060923375,0.2042694091796875,-0.5352020263671875,-0.82171630859375,34293.057173375,-2.991727023409066,0.2370752714505644,0.6010965158017584,0.02662586979568005,-0.03368213772773743,0.04904219880700111,0.002778783440589905,0.03699791431427002,-0.01961064338684082,XArbitraryZVertical,0.1346492800237382,-0.2846851276685629,-0.9431890587465155,0.1059171355927004,0.1936933845281601,-0.5655471086502075,-0.8016479015350342,0,0,0,-1,-1,34290.70918641667,walking,2,2022-06-02T10:48:58.178+02:00,2022-06-02T10:32:51.428+02:00,110,2.414618,0,0,95.08166,0,0,2022-06-02T10:48:58.177+02:00,675852538.1774958,0,14.33984,101.0191,1,0.88
2022-06-02T10:49:00.544+02:00,1654159740.259994,53.22912605451184,10.39918254904366,35.74418,0.243949,0.9313551,-1,-1,3,32,-9999,34293.070896375,0.205291748046875,-0.5458984375,-0.813262939453125,34293.067145375,-2.991562532735644,0.2369204485931901,0.6014308052204863,0.02498092502355576,-0.03955689445137978,0.0383831188082695,0.009829014539718628,0.0310632586479187,-0.0205121636390686,XArbitraryZVertical,0.134605733853085,-0.2848407980189793,-0.9431402794932835,0.105987794886042,0.1935248821973801,-0.5658227801322937,-0.8014940619468689,0,0,0,-1,-1,34290.70918641667,walking,2,2022-06-02T10:48:58.178+02:00,2022-06-02T10:32:51.428+02:00,110,2.414618,0,0,95.08166,0,0,2022-06-02T10:48:58.177+02:00,675852538.1774958,0,14.33984,101.0191,1,0.88
2022-06-02T10:49:00.554+02:00,1654159740.259994,53.22912605451184,10.39918254904366,35.74418,0.243949,0.9313551,-1,-1,3,32,-9999,34293.080868375,0.19677734375,-0.5543365478515625,-0.808563232421875,34293.077118375,-2.991421140676933,0.2366603619436991,0.601811765296452,0.02510662376880646,-0.04170553013682365,0.02800398319959641,0.01231580972671509,0.02185583114624023,-0.01292002201080322,XArbitraryZVertical,0.1345101308823473,-0.2850257215380607,-0.9430927685163931,0.1060346401051116,0.1932658702135086,-0.5661368370056152,-0.8013347387313843,0,0,0,-1,-1,34290.70918641667,walking,2,2022-06-02T10:48:58.178+02:00,2022-06-02T10:32:51.428+02:00,110,2.414618,0,0,95.08166,0,0,2022-06-02T10:48:58.177+02:00,675852538.1774958,0,14.33984,101.0191,1,0.88
2022-06-02T10:49:00.564+02:00,1654159740.259994,53.22912605451184,10.39918254904366,35.74418,0.243949,0.9313551,-1,-1,3,32,-9999,34293.090841375,0.1903533935546875,-0.5629425048828125,-0.80181884765625,34293.087090375,-2.991260177192228,0.2363248646378138,0.6020326879342149,0.0171889141201973,-0.03222334757447243,0.02372994273900986,0.005549132823944092,0.01318782567977905,-0.00812453031539917,XArbitraryZVertical,0.1343788808543598,-0.285137433232527,-0.9430734675900403,0.1060726935205786,0.1929677277803421,-0.5663189291954041,-0.8012779355049133,0,0,0,-1,-1,34290.70918641667,walking,2,2022-06-02T10:48:58.178+02:00,2022-06-02T10:32:51.428+02:00,110,2.414618,0,0,95.08166,0,0,2022-06-02T10:48:58.177+02:00,675852538.1774958,0,14.33984,101.0191,1,0.88
2022-06-02T10:49:00.574+02:00,1654159740.259994,53.22912605451184,10.39918254904366,35.74418,0.243949,0.9313551,-1,-1,3,32,-9999,34293.100813375,0.1904296875,-0.5647430419921875,-0.794342041015625,34293.097063375,-2.991105662447052,0.2361826863956059,0.6019424941634947,0.007024959661066532,-0.01506886258721352,0.03758104145526886,-0.002527624368667603,0.004690647125244141,-0.0008910894393920898,XArbitraryZVertical,0.134332220893702,-0.2850918215176128,-0.9430884662568428,0.1061212237072856,0.1928657442331314,-0.5662446022033691,-0.8013550043106079,0,0,0,-1,-1,34290.70918641667,walking,2,2022-06-02T10:48:58.178+02:00,2022-06-02T10:32:51.428+02:00,110,2.414618,0,0,95.08166,0,0,2022-06-02T10:48:58.177+02:00,675852538.1774958,0,14.33984,101.0191,1,0.88
2022-06-02T10:49:00.584+02:00,1654159740.259994,53.22912605451184,10.39918254904366,35.74418,0.243949,0.9313551,-1,-1,3,32,-9999,34293.110786375,0.1955413818359375,-0.5679779052734375,-0.7927093505859375,34293.107036375,-2.990879809177955,0.2361025538873603,0.6014789204397198,-0.01216666586697102,-0.004930119030177593,0.03141187503933907,-0.002677366137504578,0.002019643783569336,0.005879759788513184,XArbitraryZVertical,0.1343181420344843,-0.2848610745050075,-0.9431518739631255,0.1061954411254676,0.1928629130125046,-0.5658624768257141,-0.8016256093978882,0,0,0,-1,-1,34290.70918641667,walking,2,2022-06-02T10:48:58.178+02:00,2022-06-02T10:32:51.428+02:00,110,2.414618,0,0,95.08166,0,0,2022-06-02T10:48:58.177+02:00,675852538.1774958,0,14.33984,101.0191,1,0.88
2022-06-02T10:49:00.594+02:00,1654159740.259994,53.22912605451184,10.39918254904366,35.74418,0.243949,0.9313551,-1,-1,3,32,-9999,34293.120758375,0.2006683349609375,-0.561065673828125,-0.7941741943359375,34293.117008375,-2.990410591984345,0.2357852660953076,0.6006352737674339,-0.02364249527454376,-0.007875575684010983,0.04185173287987709,0.001676946878433228,-0.002918064594268799,0.0096549391746521,XArbitraryZVertical,0.1342197739924507,-0.2844463436539418,-0.943275477749557,0.106333631887673,0.1927200108766556,-0.5651666522026062,-0.8021506667137146,0,0,0,-1,-1,34290.70918641667,walking,2,2022-06-02T10:48:58.178+02:00,2022-06-02T10:32:51.428+02:00,110,2.414618,0,0,95.08166,0,0,2022-06-02T10:48:58.177+02:00,675852538.1774958,0,14.33984,101.0191,1,0.88
2022-06-02T10:49:00.604+02:00,1654159740.259994,53.22912605451184,10.39918254904366,35.74418,0.243949,0.9313551,-1,-1,3,32,-9999,34293.130731375,0.199249267578125,-0.5495147705078125,-0.79498291015625,34293.126981375,-2.989764933972116,0.2352339803680557,0.5996811827028046,-0.02083450183272362,-0.01037184521555901,0.04336003586649895,0.00879901647567749,0.001711428165435791,0.008621871471405029,XArbitraryZVertical,0.1340337677764513,-0.2839798526866935,-0.9434217735911599,0.1065170416943985,0.1924033612012863,-0.5643793344497681,-0.80278080701828,0,0,0,-1,-1,34290.70918641667,walking,2,2022-06-02T10:48:58.178+02:00,2022-06-02T10:32:51.428+02:00,110,2.414618,0,0,95.08166,0,0,2022-06-02T10:48:58.177+02:00,675852538.1774958,0,14.33984,101.0191,1,0.88
2022-06-02T10:49:00.614+02:00,1654159740.259994,53.22912605451184,10.39918254904366,35.74418,0.243949,0.9313551,-1,-1,3,32,-9999,34293.140704375,0.1972808837890625,-0.542694091796875,-0.80059814453125,34293.136953375,-2.989179742771049,0.2347856135184508,0.5987654282956258,-0.02417783439159393,-0.007380582857877016,0.04542185738682747,0.007497712969779968,0.01291811466217041,0.008981466293334961,XArbitraryZVertical,0.1338880728488933,-0.283530179579685,-0.9435582192954005,0.1066885347702722,0.1921635419130325,-0.5636231303215027,-0.8033692240715027,0,0,0,-1,-1,34290.70918641667,walking,2,2022-06-02T10:48:58.178+02:00,2022-06-02T10:32:51.428+02:00,110,2.414618,0,0,95.08166,0,0,2022-06-02T10:48:58.177+02:00,675852538.1774958,0,14.33984,101.0191,1,0.88
2022-06-02T10:49:00.624+02:00,1654159740.259994,53.22912605451184,10.39918254904366,35.74418,0.243949,0.9313551,-1,-1,3,32,-9999,34293.150676375,0.199005126953125,-0.5409698486328125,-0.8011016845703125,34293.146926375,-2.98871326193509,0.2344845654930779,0.5980631064088694,-0.0006426358595490456,-0.02215864136815071,0.03946208208799362,0.005450353026390076,0.02030295133590698,0.003854691982269287,XArbitraryZVertical,0.1337987906904526,-0.2831818034146824,-0.9436590314134939,0.1068346552002354,0.1920136064291,-0.5630428194999695,-0.8038119077682495,0,0,0,-1,-1,34290.70918641667,walking,2,2022-06-02T10:48:58.178+02:00,2022-06-02T10:32:51.428+02:00,110,2.414618,0,0,95.08166,0,0,2022-06-02T10:48:58.177+02:00,675852538.1774958,0,14.33984,101.0191,1,0.88
2022-06-02T10:49:00.634+02:00,1654159740.259994,53.22912605451184,10.39918254904366,35.74418,0.243949,0.9313551,-1,-1,3,32,-9999,34293.160649375,0.2017669677734375,-0.547821044921875,-0.804656982421875,34293.156899375,-2.988440174673892,0.2342526679843498,0.5977563739973769,0.01233441475778818,-0.02543752454221249,0.03330271691083908,0.007183611392974854,0.02246034145355225,0.002510726451873779,XArbitraryZVertical,0.1337221740454775,-0.2830304145675557,-0.9437059224829394,0.1069170188171329,0.1918672770261765,-0.5627893209457397,-0.804024338722229,0,0,0,-1,-1,34290.70918641667,walking,2,2022-06-02T10:48:58.178+02:00,2022-06-02T10:32:51.428+02:00,110,2.414618,0,0,95.08166,0,0,2022-06-02T10:48:58.177+02:00,675852538.1774958,0,14.33984,101.0191,1,0.88
2022-06-02T10:49:00.644+02:00,1654159740.259994,53.22912605451184,10.39918254904366,35.74418,0.243949,0.9313551,-1,-1,3,32,-9999,34293.17062179167,0.1969757080078125,-0.561187744140625,-0.8021392822265625,34293.16687179167,-2.988276505985867,0.2339170807621077,0.5977847588161863,0.02634552866220474,-0.04007541015744209,0.01904271170496941,0.01047839224338531,0.01648706197738647,0.0002402067184448242,XArbitraryZVertical,0.1335875257833728,-0.283050865465016,-0.9437154115755887,0.1069480247025869,0.1915937513113022,-0.5628127455711365,-0.8040731549263,0,0,0,-1,-1,34290.70918641667,walking,2,2022-06-02T10:48:58.178+02:00,2022-06-02T10:32:51.428+02:00,110,2.414618,0,0,95.08166,0,0,2022-06-02T10:48:58.177+02:00,675852538.1774958,0,14.33984,101.0191,1,0.88
2022-06-02T10:49:00.654+02:00,1654159740.259994,53.22912605451184,10.39918254904366,35.74418,0.243949,0.9313551,-1,-1,3,32,-9999,34293.18059479167,0.1895904541015625,-0.5776824951171875,-0.7990570068359375,34293.17684479167,-2.988181587346483,0.2334397582237151,0.5980669076972519,0.02493644878268242,-0.04034625366330147,0.009360258467495441,0.006626486778259277,0.003704547882080078,0.00124514102935791,XArbitraryZVertical,0.1333811609934957,-0.2832039171177674,-0.9436998812579318,0.1069377539886195,0.1911731958389282,-0.5630459785461426,-0.8040100336074829,0,0,0,-1,-1,34290.70918641667,walking,2,2022-06-02T10:48:58.178+02:00,2022-06-02T10:32:51.428+02:00,110,2.414618,0,0,95.08166,0,0,2022-06-02T10:48:58.177+02:00,675852538.1774958,0,14.33984,101.0191,1,0.88
2022-06-02T10:49:00.664+02:00,1654159740.259994,53.22912605451184,10.39918254904366,35.74418,0.243949,0.9313551,-1,-1,3,32,-9999,34293.19056779167,0.1799163818359375,-0.5859832763671875,-0.792755126953125,34293.18681679167,-2.988124828049998,0.2330138147944204,0.5983576455050039,0.004537301138043404,-0.04046982526779175,0.009608796797692776,-0.0001648664474487305,-0.0119396448135376,0.004814028739929199,XArbitraryZVertical,0.1331938300380036,-0.2833608660762923,-0.9436815365359552,0.1069170540418213,0.1907929033041,-0.5632862448692322,-0.8039320707321167,0,0,0,-1,-1,34290.70918641667,walking,2,2022-06-02T10:48:58.178+02:00,2022-06-02T10:32:51.428+02:00,110,2.414618,0,0,95.08166,0,0,2022-06-02T10:48:58.177+02:00,675852538.1774958,0,14.33984,101.0191,1,0.88
2022-06-02T10:49:00.674+02:00,1654159740.259994,53.22912605451184,10.39918254904366,35.74418,0.243949,0.9313551,-1,-1,3,32,-9999,34293.20053979167,0.173004150390625,-0.58551025390625,-0.7948150634765625,34293.19678979167,-2.988079672027672,0.2326549217283,0.5984896646954423,-0.025529520586133,-0.04064399749040604,0.009164848364889622,-0.009304344654083252,-0.02205395698547363,0.01022696495056152,XArbitraryZVertical,0.1330334383087351,-0.2834396838473408,-0.9436831763863577,0.1068933283720241,0.1904872059822083,-0.5633953213691711,-0.8039280772209167,0,0,0,-1,-1,34290.70918641667,walking,2,2022-06-02T10:48:58.178+02:00,2022-06-02T10:32:51.428+02:00,110,2.414618,0,0,95.08166,0,0,2022-06-02T10:48:58.177+02:00,675852538.1774958,0,14.33984,101.0191,1,0.88
2022-06-02T10:49:00.684+02:00,1654159740.259994,53.22912605451184,10.39918254904366,35.74418,0.243949,0.9313551,-1,-1,3,32,-9999,34293.21051279167,0.1772613525390625,-0.569122314453125,-0.794036865234375,34293.20676279167,-2.987966834434354,0.2324374279473459,0.5982122268501875,-0.04975602775812149,-0.03237461671233177,0.01717856526374817,-0.01775620877742767,-0.02284777164459229,0.01006948947906494,XArbitraryZVertical,0.1329414278143194,-0.2833121597966998,-0.9437333024265034,0.1069035405119195,0.190348356962204,-0.563166081905365,-0.8041216135025024,0,0,0,-1,-1,34290.70918641667,walking,2,2022-06-02T10:48:58.178+02:00,2022-06-02T10:32:51.428+02:00,110,2.414618,0,0,95.08166,0,0,2022-06-02T10:48:58.177+02:00,675852538.1774958,0,14.33984,101.0191,1,0.88
2022-06-02T10:49:00.693+02:00,1654159740.259994,53.22912605451184,10.39918254904366,35.74418,0.243949,0.9313551,-1,-1,3,32,-9999,34293.22048479167,0.180145263671875,-0.5526885986328125,-0.7938079833984375,34293.21673479167,-2.987760871131447,0.2321156172210877,0.5976606962962994,-0.04659592360258102,-0.04473461210727692,0.01404029782861471,-0.01289965212345123,-0.008670449256896973,0.009608864784240723,XArbitraryZVertical,0.1328080111925747,-0.283053958468796,-0.9438264999755112,0.1069309201715791,0.1901610046625137,-0.5627102255821228,-0.8044849634170532,0,0,0,-1,-1,34290.70918641667,walking,2,2022-06-02T10:48:58.178+02:00,2022-06-02T10:32:51.428+02:00,110,2.414618,0,0,95.08166,0,0,2022-06-02T10:48:58.177+02:00,675852538.1774958,0,14.33984,101.0191,1,0.88
2022-06-02T10:49:00.703+02:00,1654159740.259994,53.22912605451184,10.39918254904366,35.74418,0.243949,0.9313551,-1,-1,3,32,-9999,34293.23045779167,0.16900634765625,-0.5448455810546875,-0.796722412109375,34293.22670779167,-2.987625381997354,0.2317466953422245,0.596971923627523,-0.04078410565853119,-0.03803729638457298,0.005387952551245689,-0.008877113461494446,0.007575273513793945,0.01116985082626343,XArbitraryZVertical,0.1326396333190318,-0.2827378605922942,-0.9439469061590514,0.1069124327263522,0.1899531632661819,-0.5621407032012939,-0.8049320578575134,0,0,0,-1,-1,34290.70918641667,walking,2,2022-06-02T10:48:58.178+02:00,2022-06-02T10:32:51.428+02:00,110,2.414618,0,0,95.08166,0,0,2022-06-02T10:48:58.177+02:00,675852538.1774958,0,14.33984,101.0191,1,0.88
2022-06-02T10:49:00.713+02:00,1654159740.259994,53.22912605451184,10.39918254904366,35.74418,0.243949,0.9313551,-1,-1,3,32,-9999,34293.24043079167,0.16754150390625,-0.5395355224609375,-0.798553466796875,34293.23667979167,-2.987528531130664,0.2315640699433906,0.5962912535813391,-0.03570093214511871,-0.02522749081254005,0.01521315332502127,-0.01962108910083771,0.01508408784866333,0.00850975513458252,XArbitraryZVertical,0.1325537870782028,-0.2824181520073123,-0.9440557734206829,0.10690250131884,0.1898939162492752,-0.5615776181221008,-0.805338978767395,0,0,0,-1,-1,34290.70918641667,walking,2,2022-06-02T10:48:58.178+02:00,2022-06-02T10:32:51.428+02:00,110,2.414618,0,0,95.08166,0,0,2022-06-02T10:48:58.177+02:00,675852538.1774958,0,14.33984,101.0191,1,0.88
2022-06-02T10:49:00.723+02:00,1654159740.259994,53.22912605451184,10.39918254904366,35.74418,0.243949,0.9313551,-1,-1,3,32,-9999,34293.25040279167,0.165802001953125,-0.5382843017578125,-0.794342041015625,34293.24665279167,-2.987410922056953,0.2314991539621868,0.5957489077865907,-0.03283164277672768,-0.01230583246797323,0.0108961695805192,-0.02244628965854645,0.02081507444381714,0.007475674152374268,XArbitraryZVertical,0.1325290882256794,-0.2821563914935676,-0.9441349719161889,0.1069250946251469,0.1899114996194839,-0.5611287951469421,-0.805647611618042,0,0,0,-1,-1,34290.70918641667,walking,2,2022-06-02T10:48:58.178+02:00,2022-06-02T10:32:51.428+02:00,110,2.414618,0,0,95.08166,0,0,2022-06-02T10:48:58.177+02:00,675852538.1774958,0,14.33984,101.0191,1,0.88
2022-06-02T10:49:00.733+02:00,1654159740.259994,53.22912605451184,10.39918254904366,35.74418,0.243949,0.9313551,-1,-1,3,32,-9999,34293.26037579167,0.1556396484375,-0.5397491455078125,-0.7881011962890625,34293.25662479167,-2.98740919987682,0.2315134352407766,0.5953878794380354,-0.0435471385717392,-0.007389371283352375,-0.01329678483307362,-0.02332824468612671,0.02301859855651855,0.01055401563644409,XArbitraryZVertical,0.1325289627925328,-0.2819841111678347,-0.9441880061617723,0.1069121123330494,0.1899694800376892,-0.5608299374580383,-0.8058420419692993,0,0,0,-1,-1,34290.70918641667,walking,2,2022-06-02T10:48:58.178+02:00,2022-06-02T10:32:51.428+02:00,110,2.414618,0,0,95.08166,0,0,2022-06-02T10:48:58.177+02:00,675852538.1774958,0,14.33984,101.0191,1,0.88
2022-06-02T10:49:00.743+02:00,1654159740.259994,53.22912605451184,10.39918254904366,35.74418,0.243949,0.9313551,-1,-1,3,32,-9999,34293.27034779167,0.14166259765625,-0.5457000732421875,-0.77423095703125,34293.26659779167,-2.987518103625519,0.2316373236125374,0.595154508571062,-0.05461332947015762,0.01220465917140245,-0.02385357767343521,-0.03210985660552979,0.02152842283248901,0.01668500900268555,XArbitraryZVertical,0.1325675174722585,-0.2818739500910618,-0.9442204116652603,0.1068679190944058,0.1900993436574936,-0.5606366991996765,-0.805945873260498,0,0,0,-1,-1,34290.70918641667,walking,2,2022-06-02T10:48:58.178+02:00,2022-06-02T10:32:51.428+02:00,110,2.414618,0,0,95.08166,0,0,2022-06-02T10:49:00.731+02:00,675852540.7306511,0,14.53125,101.0184,1,0.88
2022-06-02T10:49:00.754+02:00,1654159740.259994,53.22912605451184,10.39918254904366,35.74418,0.243949,0.9313551,-1,-1,3,32,-9999,34293.28032079167,0.1300811767578125,-0.557525634765625,-0.7646484375,34293.27657079167,-2.987629949790273,0.2318414749025397,0.5948525178989832,-0.07608905434608459,0.0345429889857769,-0.03488305956125259,-0.04665654897689819,0.0160139799118042,0.02964359521865845,XArbitraryZVertical,0.1326422031941676,-0.2817270647578489,-0.9442580720246299,0.106830633951868,0.190302774310112,-0.560386598110199,-0.8060718178749084,0,0,0,-1,-1,34290.70918641667,walking,2,2022-06-02T10:48:58.178+02:00,2022-06-02T10:32:51.428+02:00,110,2.414618,0,0,95.08166,0,0,2022-06-02T10:49:00.731+02:00,675852540.7306511,0,14.53125,101.0184,1,0.88
2022-06-02T10:49:00.763+02:00,1654159740.259994,53.22912605451184,10.39918254904366,35.74418,0.243949,0.9313551,-1,-1,3,32,-9999,34293.29029379167,0.0700531005859375,-0.5817718505859375,-0.7387237548828125,34293.28654279167,-2.987790240012473,0.2321716464520546,0.5942095137467103,-0.1160031780600548,0.02812823280692101,-0.06352269649505615,-0.05927360057830811,0.003518462181091309,0.04079544544219971,XArbitraryZVertical,0.1327629309685686,-0.2814148207271872,-0.9443406485515211,0.1067731429206191,0.1906517744064331,-0.5598539113998413,-0.8063594102859497,0,0,0,-1,-1,34290.70918641667,walking,2,2022-06-02T10:48:58.178+02:00,2022-06-02T10:32:51.428+02:00,110,2.414618,0,0,95.08166,0,0,2022-06-02T10:49:00.731+02:00,675852540.7306511,0,14.53125,101.0184,1,0.88
2022-06-02T10:49:00.774+02:00,1654159740.259994,53.22912605451184,10.39918254904366,35.74418,0.243949,0.9313551,-1,-1,3,32,-9999,34293.30026579167,0.0629730224609375,-0.6406707763671875,-0.7584381103515625,34293.29651579167,-2.989805316790595,0.2337231271576064,0.5917315785242585,-0.2531112432479858,0.1343582719564438,-0.2759848833084106,-0.1006858348846436,-0.01519906520843506,0.06485605239868164,XArbitraryZVertical,0.1331647844380189,-0.2802896102317093,-0.9447136932880013,0.1059295125092596,0.1922233104705811,-0.5577990412712097,-0.8074097633361816,0,0,0,-1,-1,34290.70918641667,walking,2,2022-06-02T10:48:58.178+02:00,2022-06-02T10:32:51.428+02:00,110,2.414618,0,0,95.08166,0,0,2022-06-02T10:49:00.731+02:00,675852540.7306511,0,14.53125,101.0184,1,0.88
2022-06-02T10:49:00.783+02:00,1654159740.259994,53.22912605451184,10.39918254904366,35.74418,0.243949,0.9313551,-1,-1,3,32,-9999,34293.31023879167,0.0636444091796875,-0.6370391845703125,-0.727935791015625,34293.30648779167,-2.991117571259345,0.235844145435198,0.588548968331076,-0.354682981967926,0.1314573734998703,-0.157787099480629,-0.1400584578514099,-0.08598911762237549,0.04656100273132324,XArbitraryZVertical,0.1339233718046564,-0.2787533273397769,-0.9451130923299018,0.1054628389697329,0.1943492293357849,-0.5551547408103943,-0.808722198009491,0,0,0,-1,-1,34290.70918641667,walking,2,2022-06-02T10:48:58.178+02:00,2022-06-02T10:32:51.428+02:00,110,2.414618,0,0,95.08166,0,0,2022-06-02T10:49:00.731+02:00,675852540.7306511,0,14.53125,101.0184,1,0.88
2022-06-02T10:49:00.793+02:00,1654159740.259994,53.22912605451184,10.39918254904366,35.74418,0.243949,0.9313551,-1,-1,3,32,-9999,34293.32021079167,0.010986328125,-0.61065673828125,-0.726165771484375,34293.31646079167,-2.99265175128997,0.2379192984707974,0.5834845234081046,-0.5662375092506409,0.1430402547121048,-0.3432645499706268,-0.1261457651853561,-0.08676004409790039,0.08057039976119995,XArbitraryZVertical,0.1345976075735181,-0.2763402098823536,-0.9458000651040763,0.1047942124199146,0.1966871470212936,-0.5509352684020996,-0.8110391497612,0,0,0,-1,-1,34290.70918641667,walking,2,2022-06-02T10:48:58.178+02:00,2022-06-02T10:32:51.428+02:00,110,2.414618,0,0,95.08166,0,0,2022-06-02T10:49:00.731+02:00,675852540.7306511,0,14.53125,101.0184,1,0.88
2022-06-02T10:49:00.803+02:00,1654159740.259994,53.22912605451184,10.39918254904366,35.74418,0.243949,0.9313551,-1,-1,3,32,-9999,34293.33018379167,-0.015472412109375,-0.596771240234375,-0.7170257568359375,34293.32643379167,-2.995381860590671,0.2411615874766213,0.5764775855108675,-0.6817167401313782,0.2183962762355804,-0.4395484626293182,-0.1832955330610275,-0.07028228044509888,0.08892142772674561,XArbitraryZVertical,0.1356303472941114,-0.2730228182799068,-0.9467447654739115,0.1036210825646912,0.2002328038215637,-0.5450741648674011,-0.8141258955001831,0,0,0,-1,-1,34290.70918641667,walking,2,2022-06-02T10:48:58.178+02:00,2022-06-02T10:32:51.428+02:00,110,2.414618,0,0,95.08166,0,0,2022-06-02T10:49:00.731+02:00,675852540.7306511,0,14.53125,101.0184,1,0.88
2022-06-02T10:49:00.813+02:00,1654159740.259994,53.22912605451184,10.39918254904366,35.74418,0.243949,0.9313551,-1,-1,3,32,-9999,34293.34015679167,-0.0344390869140625,-0.582550048828125,-0.7033843994140625,34293.33640579167,-2.998853933141203,0.24531932458013,0.5683480461387459,-0.7703086137771606,0.247140571475029,-0.5381887555122375,-0.2180216312408447,-0.05947679281234741,0.09888428449630737,XArbitraryZVertical,0.1369884672591256,-0.2691749746188481,-0.947810331308652,0.1021505251431471,0.2046854346990585,-0.5382405519485474,-0.8175579905509949,0,0,0,-1,-1,34290.70918641667,walking,2,2022-06-02T10:48:58.178+02:00,2022-06-02T10:32:51.428+02:00,110,2.414618,0,0,95.08166,0,0,2022-06-02T10:49:00.731+02:00,675852540.7306511,0,14.53125,101.0184,1,0.88
2022-06-02T10:49:00.823+02:00,1654159740.259994,53.22912605451184,10.39918254904366,35.74418,0.243949,0.9313551,-1,-1,3,32,-9999,34293.35012879167,-0.0499420166015625,-0.56292724609375,-0.6940765380859375,34293.34637879167,-3.00335103921756,0.2503058682518372,0.5587937190588648,-0.9018662571907043,0.2861580848693848,-0.6788046956062317,-0.2424030601978302,-0.05543804168701172,0.1170958280563354,XArbitraryZVertical,0.1385971396686654,-0.264678691499637,-0.9490489702059764,0.1002102383496219,0.2100239098072052,-0.5301637649536133,-0.8214720487594604,0,0,0,-1,-1,34290.70918641667,walking,2,2022-06-02T10:48:58.178+02:00,2022-06-02T10:32:51.428+02:00,110,2.414618,0,0,95.08166,0,0,2022-06-02T10:49:00.731+02:00,675852540.7306511,0,14.53125,101.0184,1,0.88
2022-06-02T10:49:00.833+02:00,1654159740.259994,53.22912605451184,10.39918254904366,35.74418,0.243949,0.9313551,-1,-1,3,32,-9999,34293.36010179167,-0.0419921875,-0.5476531982421875,-0.69342041015625,34293.35635079167,-3.008860209460474,0.2562542809474443,0.5475539880962544,-1.04811418056488,0.3408149480819702,-0.796758770942688,-0.2654756307601929,-0.04524129629135132,0.130730152130127,XArbitraryZVertical,0.1405304642245232,-0.2594048670769058,-0.9504717046902758,0.0977952004574094,0.2164033651351929,-0.5206003785133362,-0.825920581817627,0,0,0,-1,-1,34290.70918641667,walking,2,2022-06-02T10:48:58.178+02:00,2022-06-02T10:32:51.428+02:00,110,2.414618,0,0,95.08166,0,0,2022-06-02T10:49:00.731+02:00,675852540.7306511,0,14.53125,101.0184,1,0.88
2022-06-02T10:49:00.843+02:00,1654159740.259994,53.22912605451184,10.39918254904366,35.74418,0.243949,0.9313551,-1,-1,3,32,-9999,34293.37007379167,0.0009002685546875,-0.5319366455078125,-0.698577880859375,34293.36632379167,-3.015109507781584,0.2630904241426487,0.534584644231731,-1.18725860118866,0.3902300596237183,-0.9111586809158325,-0.2692527770996094,-0.04059571027755737,0.1379703879356384,XArbitraryZVertical,0.1428035580034109,-0.2533202600875253,-0.9520559772286958,0.09500303340826466,0.2237815707921982,-0.5094836950302124,-0.8308719992637634,0,0,0,-1,-1,34290.70918641667,walking,2,2022-06-02T10:48:58.178+02:00,2022-06-02T10:32:51.428+02:00,110,2.414618,0,0,95.08166,0,0,2022-06-02T10:49:00.731+02:00,675852540.7306511,0,14.53125,101.0184,1,0.88
2022-06-02T10:49:00.853+02:00,1654159740.259994,53.22912605451184,10.39918254904366,35.74418,0.243949,0.9313551,-1,-1,3,32,-9999,34293.38004679167,0.0539398193359375,-0.5263519287109375,-0.709442138671875,34293.37629679167,-3.022166764428031,0.2705894673886713,0.520005018849341,-1.311643719673157,0.4080266356468201,-1.043648600578308,-0.2378568649291992,-0.03734099864959717,0.1379519104957581,XArbitraryZVertical,0.1453184105858109,-0.2465007556498871,-0.9537820835178905,0.09175879559486871,0.2319669723510742,-0.4968844950199127,-0.8362398743629456,0,0,0,-1,-1,34290.70918641667,walking,2,2022-06-02T10:48:58.178+02:00,2022-06-02T10:32:51.428+02:00,110,2.414618,0,0,95.08166,0,0,2022-06-02T10:49:00.731+02:00,675852540.7306511,0,14.53125,101.0184,1,0.88
2022-06-02T10:49:00.863+02:00,1654159740.259994,53.22912605451184,10.39918254904366,35.74418,0.243949,0.9313551,-1,-1,3,32,-9999,34293.39001879167,0.1013336181640625,-0.541748046875,-0.70843505859375,34293.38626879167,-3.030196006073823,0.2784965205689942,0.5037025581123598,-1.460414171218872,0.3998520076274872,-1.196089267730713,-0.1939987391233444,-0.04398557543754578,0.1337894797325134,XArbitraryZVertical,0.147949932017468,-0.2389193770236022,-0.9556659576755819,0.08792607929832739,0.2407669425010681,-0.4826715588569641,-0.8420566916465759,0,0,0,-1,-1,34290.70918641667,walking,2,2022-06-02T10:48:58.178+02:00,2022-06-02T10:32:51.428+02:00,110,2.414618,0,0,95.08166,0,0,2022-06-02T10:49:00.731+02:00,675852540.7306511,0,14.53125,101.0184,1,0.88
2022-06-02T10:49:00.873+02:00,1654159740.259994,53.22912605451184,10.39918254904366,35.74418,0.243949,0.9313551,-1,-1,3,32,-9999,34293.39999179167,0.1380157470703125,-0.5610198974609375,-0.711639404296875,34293.39624179167,-3.039005156449955,0.2865805658698783,0.4852337882085179,-1.673404455184937,0.3932422995567322,-1.331328511238098,-0.1546152234077454,-0.07257106900215149,0.1400700807571411,XArbitraryZVertical,0.1506272326693321,-0.2303616866955981,-0.9577416954858291,0.08352137940124017,0.2500437200069427,-0.4664151668548584,-0.8484898805618286,0,0,0,-1,-1,34290.70918641667,walking,2,2022-06-02T10:48:58.178+02:00,2022-06-02T10:32:51.428+02:00,110,2.414618,0,0,95.08166,0,0,2022-06-02T10:49:00.731+02:00,675852540.7306511,0,14.53125,101.0184,1,0.88
2022-06-02T10:49:00.883+02:00,1654159740.259994,53.22912605451184,10.39918254904366,35.74418,0.243949,0.9313551,-1,-1,3,32,-9999,34293.40996479167,0.182098388671875,-0.5617218017578125,-0.7257843017578125,34293.40621379167,-3.048031821201235,0.2945993809643813,0.464007896031066,-1.937705039978027,0.3975549340248108,-1.430027961730957,-0.1260652840137482,-0.1127516627311707,0.1460840106010437,XArbitraryZVertical,0.1533148611126552,-0.2205100680456757,-0.9600374913656133,0.07872671870714724,0.2596559524536133,-0.4475358128547668,-0.8557397127151489,0,0,0,-1,-1,34290.70918641667,walking,2,2022-06-02T10:48:58.178+02:00,2022-06-02T10:32:51.428+02:00,110,2.414618,0,0,95.08166,0,0,2022-06-02T10:49:00.731+02:00,675852540.7306511,0,14.53125,101.0184,1,0.88
2022-06-02T10:49:00.893+02:00,1654159740.259994,53.22912605451184,10.39918254904366,35.74418,0.243949,0.9313551,-1,-1,3,32,-9999,34293.41993679167,0.240325927734375,-0.5294342041015625,-0.738922119140625,34293.41618679167,-3.056842913925193,0.302216531732573,0.4399455936767055,-2.198813199996948,0.3720026910305023,-1.513719320297241,-0.09374213218688965,-0.1369149386882782,0.1386262774467468,XArbitraryZVertical,0.1559128566748814,-0.2092996908065616,-0.9625253017633755,0.07368777857400725,0.2692944705486298,-0.4258902370929718,-0.8637696504592896,0,0,0,-1,-1,34290.70918641667,walking,2,2022-06-02T10:48:58.178+02:00,2022-06-02T10:32:51.428+02:00,110,2.414618,0,0,95.08166,0,0,2022-06-02T10:49:00.731+02:00,675852540.7306511,0,14.53125,101.0184,1,0.88
2022-06-02T10:49:00.903+02:00,1654159740.259994,53.22912605451184,10.39918254904366,35.74418,0.243949,0.9313551,-1,-1,3,32,-9999,34293.42990979167,0.28033447265625,-0.474761962890625,-0.769805908203125,34293.42615979167,-3.065540889407623,0.3093507051053734,0.4133449568206792,-2.400393724441528,0.343010276556015,-1.610177397727966,-0.04431918263435364,-0.1337408423423767,0.1369599103927612,XArbitraryZVertical,0.1583798906272079,-0.1968757660233433,-0.9651338580488706,0.06835427947194257,0.2788009941577911,-0.4016748070716858,-0.8723114728927612,0,0,0,-1,-1,34290.70918641667,walking,2,2022-06-02T10:48:58.178+02:00,2022-06-02T10:32:51.428+02:00,110,2.414618,0,0,95.08166,0,0,2022-06-02T10:49:00.731+02:00,675852540.7306511,0,14.53125,101.0184,1,0.88
2022-06-02T10:49:00.913+02:00,1654159740.259994,53.22912605451184,10.39918254904366,35.74418,0.243949,0.9313551,-1,-1,3,32,-9999,34293.43988179167,0.2955322265625,-0.4031219482421875,-0.8000335693359375,34293.43613179167,-3.074342153006985,0.316057167847225,0.3849383241309363,-2.502560377120972,0.3225097954273224,-1.688860416412354,-0.01068651676177979,-0.106462150812149,0.115320086479187,XArbitraryZVertical,0.160729069076739,-0.1835998062953242,-0.9677444770629735,0.06267247731204144,0.2880760431289673,-0.375501960515976,-0.880914568901062,0,0,0,-1,-1,34290.70918641667,walking,2,2022-06-02T10:48:58.178+02:00,2022-06-02T10:32:51.428+02:00,110,2.414618,0,0,95.08166,0,0,2022-06-02T10:49:00.731+02:00,675852540.7306511,0,14.53125,101.0184,1,0.88
2022-06-02T10:49:00.923+02:00,1654159740.259994,53.22912605451184,10.39918254904366,35.74418,0.243949,0.9313551,-1,-1,3,32,-9999,34293.44985479167,0.2967681884765625,-0.3251495361328125,-0.82562255859375,34293.44610479167,-3.083180706669312,0.3223316019057094,0.3556622543524945,-2.549459934234619,0.3056219816207886,-1.722328305244446,-0.002367526292800903,-0.06495097279548645,0.09150069952011108,XArbitraryZVertical,0.1629697172208395,-0.1699163523852913,-0.970231764586008,0.05674294874311914,0.2969536781311035,-0.348211258649826,-0.8891385793685913,0,0,0,-1,-1,34290.70918641667,walking,2,2022-06-02T10:48:58.178+02:00,2022-06-02T10:32:51.428+02:00,110,2.414618,0,0,95.08166,0,0,2022-06-02T10:49:00.731+02:00,675852540.7306511,0,14.53125,101.0184,1,0.88
2022-06-02T10:49:00.933+02:00,1654159740.259994,53.22912605451184,10.39918254904366,35.74418,0.243949,0.9313551,-1,-1,3,32,-9999,34293.45982779167,0.2852325439453125,-0.260009765625,-0.8685760498046875,34293.45607679167,-3.091834829182428,0.3282803247173369,0.3258210287811253,-2.604185581207275,0.3150556981563568,-1.74078369140625,-0.007402896881103516,-0.01414176821708679,0.07448464632034302,XArbitraryZVertical,0.1651711233766151,-0.1559502940054112,-0.9725360922085161,0.05071149031753845,0.305452823638916,-0.3200867176055908,-0.8967959880828857,0,0,0,-1,-1,34290.70918641667,walking,2,2022-06-02T10:48:58.178+02:00,2022-06-02T10:32:51.428+02:00,110,2.414618,0,0,95.08166,0,0,2022-06-02T10:49:00.731+02:00,675852540.7306511,0,14.53125,101.0184,1,0.88
2022-06-02T10:49:00.943+02:00,1654159740.259994,53.22912605451184,10.39918254904366,35.74418,0.243949,0.9313551,-1,-1,3,32,-9999,34293.46979979167,0.27264404296875,-0.20721435546875,-0.912200927734375,34293.46604979167,-3.100112466747022,0.3341530155309762,0.2952387363489511,-2.6850426197052,0.364675372838974,-1.74836540222168,-0.02727979421615601,0.02366477251052856,0.04254722595214844,XArbitraryZVertical,0.1674640543042689,-0.1415931627555459,-0.9746336787586105,0.04468223088649945,0.313778817653656,-0.290968269109726,-0.9038143157958984,0,0,0,-1,-1,34290.70918641667,walking,2,2022-06-02T10:48:58.178+02:00,2022-06-02T10:32:51.428+02:00,110,2.414618,0,0,95.08166,0,0,2022-06-02T10:49:00.731+02:00,675852540.7306511,0,14.53125,101.0184,1,0.88
2022-06-02T10:49:00.953+02:00,1654159740.259994,53.22912605451184,10.39918254904366,35.74418,0.243949,0.9313551,-1,-1,3,32,-9999,34293.47977279167,0.27178955078125,-0.1536102294921875,-0.943389892578125,34293.47602179167,-3.10788030628345,0.3401791524759519,0.2637696805747209,-2.777836561203003,0.4270436763763428,-1.754321575164795,-0.04793095588684082,0.04700708389282227,0.001857221126556396,XArbitraryZVertical,0.1699613450041821,-0.1267584436495595,-0.9764968175802087,0.0387242891115618,0.3221161663532257,-0.2607216835021973,-0.9100908637046814,0,0,0,-1,-1,34290.70918641667,walking,2,2022-06-02T10:48:58.178+02:00,2022-06-02T10:32:51.428+02:00,110,2.414618,0,0,95.08166,0,0,2022-06-02T10:49:00.731+02:00,675852540.7306511,0,14.53125,101.0184,1,0.88
2022-06-02T10:49:00.967+02:00,1654159740.259994,53.22912605451184,10.39918254904366,35.74418,0.243949,0.9313551,-1,-1,3,32,-9999,34293.48974479167,0.2794647216796875,-0.1008758544921875,-0.97686767578125,34293.48599479167,-3.115159457322529,0.3465257282685306,0.2314871205086765,-2.829718828201294,0.4928794205188751,-1.761740684509277,-0.05869176983833313,0.06910111010074615,-0.0234488844871521,XArbitraryZVertical,0.1727322549485675,-0.1114830657272832,-0.978088350347374,0.03283884206377946,0.3305728733539581,-0.229425236582756,-0.9154701828956604,0,0,0,-1,-1,34290.70918641667,walking,2,2022-06-02T10:48:58.178+02:00,2022-06-02T10:32:51.428+02:00,110,2.414618,0,0,95.08166,0,0,2022-06-02T10:49:00.731+02:00,675852540.7306511,0,14.53125,101.0184,1,0.88
2022-06-02T10:49:00.982+02:00,1654159740.259994,53.22912605451184,10.39918254904366,35.74418,0.243949,0.9313551,-1,-1,3,32,-9999,34293.49971779167,0.29534912109375,-0.0334320068359375,-1.001541137695312,34293.49596779167,-3.122178524655009,0.3532639931114739,0.1989533256780698,-2.826394319534302,0.5537736415863037,-1.768966317176819,-0.06179386377334595,0.08936703205108643,-0.05323606729507446,XArbitraryZVertical,0.1757870661379344,-0.09606565579469489,-0.9793587703487259,0.02695854360135932,0.3391376435756683,-0.1976434141397476,-0.919740617275238,0,0,0,-1,-1,34290.70918641667,walking,2,2022-06-02T10:48:58.178+02:00,2022-06-02T10:32:51.428+02:00,110,2.414618,0,0,95.08166,0,0,2022-06-02T10:49:00.731+02:00,675852540.7306511,0,14.53125,101.0184,1,0.88
2022-06-02T10:49:00.985+02:00,1654159740.259994,53.22912605451184,10.39918254904366,35.74418,0.243949,0.9313551,-1,-1,3,32,-9999,34293.50969079167,0.3064727783203125,0.005096435546875,-1.018890380859375,34293.50593979167,-3.129224328847947,0.3602284443672235,0.1669511223499039,-2.689763784408569,0.5769295692443848,-1.792153835296631,-0.05379432439804077,0.1223839074373245,-0.07263284921646118,XArbitraryZVertical,0.1790220372417268,-0.08092430731530309,-0.980286371270658,0.02099922727116027,0.3475870192050934,-0.1661766469478607,-0.9228047132492065,0,0,0,-1,-1,34290.70918641667,walking,2,2022-06-02T10:48:58.178+02:00,2022-06-02T10:32:51.428+02:00,110,2.414618,0,0,95.08166,0,0,2022-06-02T10:49:00.731+02:00,675852540.7306511,0,14.53125,101.0184,1,0.88
2022-06-02T10:49:00.993+02:00,1654159740.259994,53.22912605451184,10.39918254904366,35.74418,0.243949,0.9313551,-1,-1,3,32,-9999,34293.51966279167,0.31683349609375,0.05328369140625,-1.020797729492188,34293.51591279167,-3.136899966487599,0.3672546498289121,0.1362322570676554,-2.520065069198608,0.596412718296051,-1.817688822746277,-0.05091825127601624,0.1360859125852585,-0.09435850381851196,XArbitraryZVertical,0.1823301692872619,-0.06649154225429461,-0.9808759995249229,0.0147297009758848,0.3557277619838715,-0.1358112543821335,-0.9246691465377808,0,0,0,-1,-1,34290.70918641667,walking,2,2022-06-02T10:48:58.178+02:00,2022-06-02T10:32:51.428+02:00,110,2.414618,0,0,95.08166,0,0,2022-06-02T10:49:00.731+02:00,675852540.7306511,0,14.53125,101.0184,1,0.88
2022-06-02T10:49:01.003+02:00,1654159740.259994,53.22912605451184,10.39918254904366,35.74418,0.243949,0.9313551,-1,-1,3,32,-9999,34293.52963579167,0.310577392578125,0.0821380615234375,-1.02044677734375,34293.52588479167,3.138100193749384,0.3743039560966197,0.1069638294093685,-2.365389347076416,0.6312575340270996,-1.830373048782349,-0.04686948657035828,0.1550845503807068,-0.09463769197463989,XArbitraryZVertical,0.1857033201805668,-0.05284733179063442,-0.9811492032652701,0.008232874483831198,0.3635351657867432,-0.1067599803209305,-0.9254428744316101,0,0,0,-1,-1,34290.70918641667,walking,2,2022-06-02T10:48:58.178+02:00,2022-06-02T10:32:51.428+02:00,110,2.414618,0,0,95.08166,0,0,2022-06-02T10:49:00.731+02:00,675852540.7306511,0,14.53125,101.0184,1,0.88
2022-06-02T10:49:01.012+02:00,1654159740.259994,53.22912605451184,10.39918254904366,35.74418,0.243949,0.9313551,-1,-1,3,32,-9999,34293.53960779167,0.294189453125,0.1263275146484375,-1.00640869140625,34293.53585779167,3.129583872291135,0.3815378188106178,0.07877088692958738,-2.267876863479614,0.6670836806297302,-1.838249087333679,-0.05870884656906128,0.1567839235067368,-0.09617751836776733,XArbitraryZVertical,0.1892313166592129,-0.03979787405564832,-0.9811244264800463,0.001575107128396008,0.3711935579776764,-0.07868944853544235,-0.9252153038978577,0,0,0,-1,-1,34290.70918641667,walking,2,2022-06-02T10:48:58.178+02:00,2022-06-02T10:32:51.428+02:00,110,2.414618,0,0,95.08166,0,0,2022-06-02T10:49:00.731+02:00,675852540.7306511,0,14.53125,101.0184,1,0.88
2022-06-02T10:49:01.022+02:00,1654159740.259994,53.22912605451184,10.39918254904366,35.74418,0.243949,0.9313551,-1,-1,3,32,-9999,34293.54958079167,0.288909912109375,0.171142578125,-1.000213623046875,34293.54583079167,3.121028743811477,0.3890616899175466,0.05116323576519611,-2.21809196472168,0.7281493544578552,-1.824492692947388,-0.08297136425971985,0.1723567247390747,-0.08487176895141602,XArbitraryZVertical,0.1929747461124102,-0.02708192545684338,-0.9808164772066006,-0.005140258678524495,0.3788240253925323,-0.0511409156024456,-0.9240546226501465,0,0,0,-1,-1,34290.70918641667,walking,2,2022-06-02T10:48:58.178+02:00,2022-06-02T10:32:51.428+02:00,110,2.414618,0,0,95.08166,0,0,2022-06-02T10:49:00.731+02:00,675852540.7306511,0,14.53125,101.0184,1,0.88
2022-06-02T10:49:01.032+02:00,1654159740.259994,53.22912605451184,10.39918254904366,35.74418,0.243949,0.9313551,-1,-1,3,32,-9999,34293.55955279167,0.3049774169921875,0.206878662109375,-0.99908447265625,34293.55580279167,3.112703465010448,0.3969297296947707,0.02416626968203965,-2.132233142852783,0.7898616790771484,-1.787176966667175,-0.09806933999061584,0.1902405619621277,-0.07797122001647949,XArbitraryZVertical,0.1969584955926259,-0.01469207868925592,-0.9802310260405724,-0.0117774691311852,0.3864757418632507,-0.02416391670703888,-0.921983003616333,0,0,0,-1,-1,34290.70918641667,walking,2,2022-06-02T10:48:58.178+02:00,2022-06-02T10:32:51.428+02:00,110,2.414618,0,0,95.08166,0,0,2022-06-02T10:49:00.731+02:00,675852540.7306511,0,14.53125,101.0184,1,0.88
2022-06-02T10:49:01.042+02:00,1654159740.259994,53.22912605451184,10.39918254904366,35.74418,0.243949,0.9313551,-1,-1,3,32,-9999,34293.56952579167,0.328582763671875,0.226043701171875,-1.00665283203125,34293.56577579167,3.104587916447375,0.4050150701168534,-0.001818112836482715,-2.027329921722412,0.8095881342887878,-1.748404264450073,-0.09273195266723633,0.1999793648719788,-0.08000475168228149,XArbitraryZVertical,0.2011082172503953,-0.00283077074006885,-0.9793938965761504,-0.01830604215574121,0.3940319716930389,0.001818111864849925,-0.9190949201583862,0,0,0,-1,-1,34290.70918641667,walking,2,2022-06-02T10:48:58.178+02:00,2022-06-02T10:32:51.428+02:00,110,2.414618,0,0,95.08166,0,0,2022-06-02T10:49:00.731+02:00,675852540.7306511,0,14.53125,101.0184,1,0.88
2022-06-02T10:49:01.052+02:00,1654159740.259994,53.22912605451184,10.39918254904366,35.74418,0.243949,0.9313551,-1,-1,3,32,-9999,34293.57949879167,0.3413543701171875,0.226531982421875,-1.027786254882812,34293.57574779167,3.096442755419111,0.4130097952778323,-0.02657327179414527,-1.872942090034485,0.8226490616798401,-1.723568439483643,-0.07432189583778381,0.1984206885099411,-0.08884668350219727,XArbitraryZVertical,0.205263500582915,0.008372671323977909,-0.9783563616779305,-0.02481501086311266,0.4012261629104614,0.0265701450407505,-0.9155935645103455,0,0,0,-1,-1,34290.70918641667,walking,2,2022-06-02T10:48:58.178+02:00,2022-06-02T10:32:51.428+02:00,110,2.414618,0,0,95.08166,0,0,2022-06-02T10:49:00.731+02:00,675852540.7306511,0,14.53125,101.0184,1,0.88
2022-06-02T10:49:01.062+02:00,1654159740.259994,53.22912605451184,10.39918254904366,35.74418,0.243949,0.9313551,-1,-1,3,32,-9999,34293.58947079167,0.3365325927734375,0.2369232177734375,-1.025497436523438,34293.58572079167,3.088115181961483,0.4208166022150618,-0.04980276573483142,-1.706103324890137,0.8156919479370117,-1.688515782356262,-0.06711810827255249,0.1754985749721527,-0.1139192581176758,XArbitraryZVertical,0.2093708252947911,0.0187587448232757,-0.9771540531084291,-0.03133629873473136,0.4079994559288025,0.04978217929601669,-0.9116239547729492,0,0,0,-1,-1,34290.70918641667,walking,2,2022-06-02T10:48:58.178+02:00,2022-06-02T10:32:51.428+02:00,110,2.414618,0,0,95.08166,0,0,2022-06-02T10:49:00.731+02:00,675852540.7306511,0,14.53125,101.0184,1,0.88
2022-06-02T10:49:01.072+02:00,1654159740.259994,53.22912605451184,10.39918254904366,35.74418,0.243949,0.9313551,-1,-1,3,32,-9999,34293.59944379167,0.323211669921875,0.2481536865234375,-1.01708984375,34293.59569379167,3.079557034719301,0.4283990778522811,-0.07145665125878899,-1.548635959625244,0.8146924376487732,-1.663042426109314,-0.07698312401771545,0.16424560546875,-0.1196363568305969,XArbitraryZVertical,0.2134099651116006,0.02829955610389322,-0.9758181031823677,-0.03787409415377012,0.4143549799919128,0.07139585912227631,-0.9073106646537781,0,0,0,-1,-1,34290.70918641667,walking,2,2022-06-02T10:48:58.178+02:00,2022-06-02T10:32:51.428+02:00,110,2.414618,0,0,95.08166,0,0,2022-06-02T10:49:00.731+02:00,675852540.7306511,0,14.53125,101.0184,1,0.88
2022-06-02T10:49:01.082+02:00,1654159740.259994,53.22912605451184,10.39918254904366,35.74418,0.243949,0.9313551,-1,-1,3,32,-9999,34293.60941579167,0.3147735595703125,0.253631591796875,-1.0068359375,34293.60566579167,3.070729714759702,0.4358396695703417,-0.09167589152323437,-1.396928906440735,0.8290807604789734,-1.638811111450195,-0.09543249011039734,0.1556448340415955,-0.1153877377510071,XArbitraryZVertical,0.2174212984675513,0.03705949249940934,-0.9743606467408262,-0.04445035725463374,0.4203988909721375,0.09154753386974335,-0.9027091264724731,0,0,0,-1,-1,34290.70918641667,walking,2,2022-06-02T10:48:58.178+02:00,2022-06-02T10:32:51.428+02:00,110,2.414618,0,0,95.08166,0,0,2022-06-02T10:49:00.731+02:00,675852540.7306511,0,14.53125,101.0184,1,0.88
2022-06-02T10:49:01.092+02:00,1654159740.259994,53.22912605451184,10.39918254904366,35.74418,0.243949,0.9313551,-1,-1,3,32,-9999,34293.61938879167,0.314666748046875,0.2534332275390625,-0.9841461181640625,34293.61563879167,3.061742653744886,0.4433535605790828,-0.1105304191326297,-1.262431621551514,0.8687637448310852,-1.592286586761475,-0.110420286655426,0.1419985592365265,-0.1109068989753723,XArbitraryZVertical,0.2215058723341719,0.04508009217375358,-0.9727797902120918,-0.05101330553417509,0.4263535141944885,0.1103054955601692,-0.8978058695793152,0,0,0,-1,-1,34290.70918641667,walking,2,2022-06-02T10:48:58.178+02:00,2022-06-02T10:32:51.428+02:00,110,2.414618,0,0,95.08166,0,0,2022-06-02T10:49:00.731+02:00,675852540.7306511,0,14.53125,101.0184,1,0.88
2022-06-02T10:49:01.102+02:00,1654159740.259994,53.22912605451184,10.39918254904366,35.74418,0.243949,0.9313551,-1,-1,3,32,-9999,34293.62936179167,0.328277587890625,0.2430877685546875,-0.9437103271484375,34293.62561079167,3.052848966802627,0.4512123253875084,-0.1284669944514237,-1.220698475837708,0.9238770604133606,-1.558680772781372,-0.1185444295406342,0.1268756985664368,-0.09570163488388062,XArbitraryZVertical,0.2257912736774008,0.05259897906203309,-0.9710543942494431,-0.05748889467258594,0.4324634969234467,0.1281139254570007,-0.8925033211708069,0,0,0,-1,-1,34290.70918641667,walking,2,2022-06-02T10:48:58.178+02:00,2022-06-02T10:32:51.428+02:00,110,2.414618,0,0,95.08166,0,0,2022-06-02T10:49:00.731+02:00,675852540.7306511,0,14.53125,101.0184,1,0.88
2022-06-02T10:49:01.112+02:00,1654159740.259994,53.22912605451184,10.39918254904366,35.74418,0.243949,0.9313551,-1,-1,3,32,-9999,34293.63933379167,0.355499267578125,0.2342987060546875,-0.8956756591796875,34293.63558379167,3.044296022463311,0.4593327421564667,-0.1461710070196491,-1.226001143455505,0.9418182373046875,-1.523091435432434,-0.1135337352752686,0.09873369336128235,-0.06145226955413818,XArbitraryZVertical,0.2302339945987089,0.05997799251533268,-0.9691856498039328,-0.06382947377239884,0.4386222362518311,0.1456510424613953,-0.8867899179458618,0,0,0,-1,-1,34290.70918641667,walking,2,2022-06-02T10:48:58.178+02:00,2022-06-02T10:32:51.428+02:00,110,2.414618,0,0,95.08166,0,0,2022-06-02T10:49:00.731+02:00,675852540.7306511,0,14.53125,101.0184,1,0.88
2022-06-02T10:49:01.122+02:00,1654159740.259994,53.22912605451184,10.39918254904366,35.74418,0.243949,0.9313551,-1,-1,3,32,-9999,34293.64930679167,0.3766326904296875,0.251983642578125,-0.8438262939453125,34293.64555679167,3.036310323637427,0.4673787188487676,-0.1637672710097512,-1.222536325454712,0.9231095314025879,-1.470288157463074,-0.09191930294036865,0.07092678546905518,-0.02161264419555664,XArbitraryZVertical,0.2346592541016753,0.06731516116369057,-0.9672194758857879,-0.06992937551197127,0.4445194005966187,0.1630362272262573,-0.8808073997497559,0,0,0,-1,-1,34290.70918641667,walking,2,2022-06-02T10:48:58.178+02:00,2022-06-02T10:32:51.428+02:00,110,2.414618,0,0,95.08166,0,0,2022-06-02T10:49:00.731+02:00,675852540.7306511,0,14.53125,101.0184,1,0.88
2022-06-02T10:49:01.132+02:00,1654159740.259994,53.22912605451184,10.39918254904366,35.74418,0.243949,0.9313551,-1,-1,3,32,-9999,34293.65927879167,0.37969970703125,0.279998779296875,-0.8231353759765625,34293.65552879167,3.028869532479608,0.4752162111466358,-0.1811931267793553,-1.218781590461731,0.9110534191131592,-1.424011826515198,-0.07513222098350525,0.06834709644317627,0.0249515175819397,XArbitraryZVertical,0.2389943858929294,0.07458621354657928,-0.965181310920776,-0.07578600037954228,0.4500406384468079,0.1802032887935638,-0.8746371865272522,0,0,0,-1,-1,34290.70918641667,walking,2,2022-06-02T10:48:58.178+02:00,2022-06-02T10:32:51.428+02:00,110,2.414618,0,0,95.08166,0,0,2022-06-02T10:49:00.731+02:00,675852540.7306511,0,14.53125,101.0184,1,0.88
2022-06-02T10:49:01.142+02:00,1654159740.259994,53.22912605451184,10.39918254904366,35.74418,0.243949,0.9313551,-1,-1,3,32,-9999,34293.66925179167,0.3798828125,0.2991943359375,-0.8320465087890625,34293.66550179167,3.021906217135482,0.4828777553781012,-0.198311020523451,-1.194223761558533,0.8948519825935364,-1.370534181594849,-0.07484295964241028,0.07903300225734711,0.04542809724807739,XArbitraryZVertical,0.2432484894034746,0.08172000981528699,-0.9630803115011155,-0.08141442308414416,0.4552292823791504,0.1970137357711792,-0.8683040142059326,0,0,0,-1,-1,34290.70918641667,walking,2,2022-06-02T10:48:58.178+02:00,2022-06-02T10:32:51.428+02:00,110,2.414618,0,0,95.08166,0,0,2022-06-02T10:49:00.731+02:00,675852540.7306511,0,14.53125,101.0184,1,0.88
2022-06-02T10:49:01.152+02:00,1654159740.259994,53.22912605451184,10.39918254904366,35.74418,0.243949,0.9313551,-1,-1,3,32,-9999,34293.67922479167,0.386993408203125,0.308349609375,-0.8451385498046875,34293.67547379167,3.015493813564472,0.490301336674196,-0.2149955458773678,-1.169425487518311,0.8599539399147034,-1.306641578674316,-0.07983207702636719,0.08313518762588501,0.0313904881477356,XArbitraryZVertical,0.2473800996572115,0.08867228927450624,-0.9609439099984759,-0.08675896738977285,0.4600505530834198,0.21334308385849,-0.8618806004524231,0,0,0,-1,-1,34290.70918641667,walking,2,2022-06-02T10:48:58.178+02:00,2022-06-02T10:32:51.428+02:00,110,2.414618,0,0,95.08166,0,0,2022-06-02T10:49:00.731+02:00,675852540.7306511,0,14.53125,101.0184,1,0.88
2022-06-02T10:49:01.162+02:00,1654159740.259994,53.22912605451184,10.39918254904366,35.74418,0.243949,0.9313551,-1,-1,3,32,-9999,34293.68919679167,0.391021728515625,0.324676513671875,-0.8723907470703125,34293.68544679167,3.009568458362526,0.4973507217332805,-0.2312830768035372,-1.158710718154907,0.8246950507164001,-1.262584805488586,-0.07840889692306519,0.07828374207019806,0.01236993074417114,XArbitraryZVertical,0.2513210466200874,0.09546441213792281,-0.9587955275242764,-0.0918445194500014,0.4643952250480652,0.2292266190052032,-0.8554485440254211,0,0,0,-1,-1,34290.70918641667,walking,2,2022-06-02T10:48:58.178+02:00,2022-06-02T10:32:51.428+02:00,110,2.414618,0,0,95.08166,0,0,2022-06-02T10:49:00.731+02:00,675852540.7306511,0,14.53125,101.0184,1,0.88
2022-06-02T10:49:01.172+02:00,1654159740.259994,53.22912605451184,10.39918254904366,35.74418,0.243949,0.9313551,-1,-1,3,32,-9999,34293.69916979167,0.3903656005859375,0.3621826171875,-0.895751953125,34293.69541879167,3.004101538341553,0.5041387878624867,-0.2473859506164144,-1.176310181617737,0.8065906167030334,-1.218860745429993,-0.07743248343467712,0.07712061703205109,-0.01965707540512085,XArbitraryZVertical,0.255125486899243,0.1021953019078087,-0.9566160535847099,-0.09671122968074269,0.4683474004268646,0.2448703348636627,-0.8489342331886292,0,0,0,-1,-1,34290.70918641667,walking,2,2022-06-02T10:48:58.178+02:00,2022-06-02T10:32:51.428+02:00,110,2.414618,0,0,95.08166,0,0,2022-06-02T10:49:00.731+02:00,675852540.7306511,0,14.53125,101.0184,1,0.88
2022-06-02T10:49:01.182+02:00,1654159740.259994,53.22912605451184,10.39918254904366,35.74418,0.243949,0.9313551,-1,-1,3,32,-9999,34293.70914179167,0.3917999267578125,0.395843505859375,-0.896636962890625,34293.70539179167,2.999197076818312,0.5106245662923957,-0.263614324635773,-1.210232257843018,0.7546892166137695,-1.194973468780518,-0.08113777637481689,0.09642291069030762,-0.05203229188919067,XArbitraryZVertical,0.2587689596539436,0.1090336182328547,-0.9544004515805927,-0.1013418366362218,0.4718391001224518,0.2605717182159424,-0.8423005938529968,0,0,0,-1,-1,34290.70918641667,walking,2,2022-06-02T10:48:58.178+02:00,2022-06-02T10:32:51.428+02:00,110,2.414618,0,0,95.08166,0,0,2022-06-02T10:49:00.731+02:00,675852540.7306511,0,14.53125,101.0184,1,0.88
2022-06-02T10:49:01.192+02:00,1654159740.259994,53.22912605451184,10.39918254904366,35.74418,0.243949,0.9313551,-1,-1,3,32,-9999,34293.71911479167,0.389556884765625,0.4086761474609375,-0.8928375244140625,34293.71536479167,2.994852064370712,0.51673743316284,-0.2801144407871106,-1.262948751449585,0.7138762474060059,-1.162113785743713,-0.08329537510871887,0.1158225536346436,-0.06096649169921875,XArbitraryZVertical,0.2622148160031098,0.1160569042560874,-0.9521508248408859,-0.1057497003955217,0.4747901260852814,0.2764656245708466,-0.8355483412742615,0,0,0,-1,-1,34290.70918641667,walking,2,2022-06-02T10:48:58.178+02:00,2022-06-02T10:32:51.428+02:00,110,2.414618,0,0,95.08166,0,0,2022-06-02T10:49:00.731+02:00,675852540.7306511,0,14.53125,101.0184,1,0.88
2022-06-02T10:49:01.202+02:00,1654159740.259994,53.22912605451184,10.39918254904366,35.74418,0.243949,0.9313551,-1,-1,3,32,-9999,34293.72908779167,0.38787841796875,0.4017486572265625,-0.8857421875,34293.72533679167,2.990999379755519,0.5224878163532636,-0.2969069992497689,-1.285393476486206,0.6715590357780457,-1.149951457977295,-0.0873558521270752,0.1163105666637421,-0.06405150890350342,XArbitraryZVertical,0.2654667968427682,0.1232695852779906,-0.9498627289949451,-0.1099677486458309,0.4772026836872101,0.2925639450550079,-0.8286640048027039,0,0,0,-1,-1,34290.70918641667,walking,2,2022-06-02T10:48:58.178+02:00,2022-06-02T10:32:51.428+02:00,110,2.414618,0,0,95.08166,0,0,2022-06-02T10:49:00.731+02:00,675852540.7306511,0,14.53125,101.0184,1,0.88
2022-06-02T10:49:01.212+02:00,1654159740.259994,53.22912605451184,10.39918254904366,35.74418,0.243949,0.9313551,-1,-1,3,32,-9999,34293.73905979167,0.3928070068359375,0.41229248046875,-0.856597900390625,34293.73530979167,2.987535389991947,0.5280716172784017,-0.3136358869177477,-1.286590576171875,0.6571641564369202,-1.096197843551636,-0.09122741222381592,0.09261909127235413,-0.06667739152908325,XArbitraryZVertical,0.2686134766510359,0.1304800793581023,-0.9475352478026571,-0.1140118539560565,0.4792889356613159,0.308519184589386,-0.8216434717178345,0,0,0,-1,-1,34290.70918641667,walking,2,2022-06-02T10:48:58.178+02:00,2022-06-02T10:32:51.428+02:00,110,2.414618,0,0,95.08166,0,0,2022-06-02T10:49:00.731+02:00,675852540.7306511,0,14.53125,101.0184,1,0.88
2022-06-02T10:49:01.222+02:00,1654159740.259994,53.22912605451184,10.39918254904366,35.74418,0.243949,0.9313551,-1,-1,3,32,-9999,34293.74903279167,0.392822265625,0.4151763916015625,-0.8590087890625,34293.74528179167,2.984653686315292,0.5336372257228595,-0.3300893607496447,-1.27750825881958,0.6511536240577698,-1.040243744850159,-0.08879664540290833,0.08764612674713135,-0.04565572738647461,XArbitraryZVertical,0.2717040198203542,0.1376075411074631,-0.9451828359644706,-0.1177733665629751,0.4812069535255432,0.3241275548934937,-0.8144821524620056,0,0,0,-1,-1,34290.70918641667,walking,2,2022-06-02T10:48:58.178+02:00,2022-06-02T10:32:51.428+02:00,110,2.414618,0,0,95.08166,0,0,2022-06-02T10:49:00.731+02:00,675852540.7306511,0,14.53125,101.0184,1,0.88
2022-06-02T10:49:01.232+02:00,1654159740.259994,53.22912605451184,10.39918254904366,35.74418,0.243949,0.9313551,-1,-1,3,32,-9999,34293.75900479167,0.4055938720703125,0.454437255859375,-0.835174560546875,34293.75525479167,2.982507325034799,0.5392913188053065,-0.3461631056106798,-1.297653794288635,0.6340015530586243,-0.9467803239822388,-0.09103748202323914,0.07391700148582458,-0.05157613754272461,XArbitraryZVertical,0.2747698144479918,0.1446199803679374,-0.9428166527493169,-0.1211755499648892,0.4830662906169891,0.3392910063266754,-0.8071731925010681,0,0,0,-1,-1,34290.70918641667,walking,2,2022-06-02T10:48:58.178+02:00,2022-06-02T10:32:51.428+02:00,110,2.414618,0,0,95.08166,0,0,2022-06-02T10:49:00.731+02:00,675852540.7306511,0,14.53125,101.0184,1,0.88
2022-06-02T10:49:01.242+02:00,1654159740.259994,53.22912605451184,10.39918254904366,35.74418,0.243949,0.9313551,-1,-1,3,32,-9999,34293.76897779167,0.414459228515625,0.4722442626953125,-0.81280517578125,34293.76522779167,2.981576502820528,0.5452175939684331,-0.3621024320041817,-1.351333022117615,0.6332479119300842,-0.8506364822387695,-0.08078473806381226,0.09625938534736633,-0.04018187522888184,XArbitraryZVertical,0.2778565022563716,0.1516924632470254,-0.9404251670980385,-0.1240393727386121,0.4849748313426971,0.3542411029338837,-0.7995703220367432,0,0,0,-1,-1,34290.70918641667,walking,2,2022-06-02T10:48:58.178+02:00,2022-06-02T10:32:51.428+02:00,110,2.414618,0,0,95.08166,0,0,2022-06-02T10:49:00.731+02:00,675852540.7306511,0,14.53125,101.0184,1,0.88
2022-06-02T10:49:01.252+02:00,1654159740.259994,53.22912605451184,10.39918254904366,35.74418,0.243949,0.9313551,-1,-1,3,32,-9999,34293.77895079167,0.434539794921875,0.5022125244140625,-0.8265228271484375,34293.77519979167,2.981764727296103,0.5517007500914849,-0.3780115298003629,-1.393433332443237,0.6753138303756714,-0.7644917368888855,-0.07290220260620117,0.1021182537078857,-0.02395087480545044,XArbitraryZVertical,0.2810925300489197,0.1588470020774621,-0.9379575335283176,-0.1264523657001421,0.4871325492858887,0.3690731227397919,-0.791509211063385,0,0,0,-1,-1,34290.70918641667,walking,2,2022-06-02T10:48:58.178+02:00,2022-06-02T10:32:51.428+02:00,110,2.414618,0,0,95.08166,0,0,2022-06-02T10:49:00.731+02:00,675852540.7306511,0,14.53125,101.0184,1,0.88
2022-06-02T10:49:01.262+02:00,1654159740.259994,53.22912605451184,10.39918254904366,35.74418,0.243949,0.9313551,-1,-1,3,32,-9999,34293.78892279167,0.4665069580078125,0.4965667724609375,-0.864715576171875,34293.78517279167,2.983413854059871,0.5591302839762391,-0.3937408428693049,-1.446990847587585,0.6990364193916321,-0.6409918069839478,-0.05914953351020813,0.1150572896003723,-0.04046863317489624,XArbitraryZVertical,0.2846155342039933,0.166039481755583,-0.9353981114866032,-0.1282776978934204,0.4898593425750732,0.3836456835269928,-0.7828497886657715,0,0,0,-1,-1,34290.70918641667,walking,2,2022-06-02T10:48:58.178+02:00,2022-06-02T10:32:51.428+02:00,110,2.414618,0,0,95.08166,0,0,2022-06-02T10:49:00.731+02:00,675852540.7306511,0,14.53125,101.0184,1,0.88
2022-06-02T10:49:01.272+02:00,1654159740.259994,53.22912605451184,10.39918254904366,35.74418,0.243949,0.9313551,-1,-1,3,32,-9999,34293.79889579167,0.494720458984375,0.46392822265625,-0.9148712158203125,34293.79514479167,2.986575165289646,0.5673670880550697,-0.4095282647273087,-1.5560382604599,0.70778489112854,-0.5495068430900574,-0.03069385886192322,0.1012892723083496,-0.08693563938140869,XArbitraryZVertical,0.2883390890184551,0.173403256614847,-0.9327459845637083,-0.1295250377353651,0.4929741322994232,0.3981766402721405,-0.7735837697982788,0,0,0,-1,-1,34290.70918641667,walking,2,2022-06-02T10:48:58.178+02:00,2022-06-02T10:32:51.428+02:00,110,2.414618,0,0,95.08166,0,0,2022-06-02T10:49:00.731+02:00,675852540.7306511,0,14.53125,101.0184,1,0.88
2022-06-02T10:49:01.282+02:00,1654159740.259994,53.22912605451184,10.39918254904366,35.74418,0.243949,0.9313551,-1,-1,3,32,-9999,34293.80886779167,0.5152587890625,0.4041290283203125,-0.9342803955078125,34293.80511779167,2.991392108882711,0.5760759563385468,-0.425902084565999,-1.679688215255737,0.6540461778640747,-0.4831500053405762,-0.003627181053161621,0.05687400698661804,-0.1446495056152344,XArbitraryZVertical,0.2920760754832876,0.1812348708417408,-0.9299991498625502,-0.1301816591880409,0.4960740804672241,0.4131424427032471,-0.7636909484863281,0,0,0,-1,-1,34290.70918641667,walking,2,2022-06-02T10:48:58.178+02:00,2022-06-02T10:32:51.428+02:00,110,2.414618,0,0,95.08166,0,0,2022-06-02T10:49:00.731+02:00,675852540.7306511,0,14.53125,101.0184,1,0.88
2022-06-02T10:49:01.292+02:00,1654159740.259994,53.22912605451184,10.39918254904366,35.74418,0.243949,0.9313551,-1,-1,3,32,-9999,34293.81884079167,0.5213470458984375,0.4051361083984375,-0.887298583984375,34293.81509079167,2.997837105701647,0.5850573949996039,-0.4428182540274527,-1.808890342712402,0.6256414651870728,-0.3848119676113129,0.01330164074897766,-0.01781255006790161,-0.1840011477470398,XArbitraryZVertical,0.295709572769946,0.1895279978848409,-0.9271837037676541,-0.1302511910112733,0.4989816844463348,0.4284875988960266,-0.7532699704170227,0,0,0,-1,-1,34290.70918641667,walking,2,2022-06-02T10:48:58.178+02:00,2022-06-02T10:32:51.428+02:00,110,2.414618,0,0,95.08166,0,0,2022-06-02T10:49:00.731+02:00,675852540.7306511,0,14.53125,101.0184,1,0.88
2022-06-02T10:49:01.302+02:00,1654159740.259994,53.22912605451184,10.39918254904366,35.74418,0.243949,0.9313551,-1,-1,3,32,-9999,34293.82881279167,0.4930572509765625,0.4338226318359375,-0.867584228515625,34293.82506279167,3.006381924424302,0.5951116221706818,-0.4602386638255666,-1.950786948204041,0.6562412977218628,-0.2770821750164032,0.02017700672149658,-0.04299312829971313,-0.1486890316009521,XArbitraryZVertical,0.2995351433066268,0.1982885594907682,-0.9242095114201614,-0.1296034972812876,0.5022686719894409,0.4441619515419006,-0.7419207096099854,0,0,0,-1,-1,34290.70918641667,walking,2,2022-06-02T10:48:58.178+02:00,2022-06-02T10:32:51.428+02:00,110,2.414618,0,0,95.08166,0,0,2022-06-02T10:49:00.731+02:00,675852540.7306511,0,14.53125,101.0184,1,0.88
2022-06-02T10:49:01.312+02:00,1654159740.259994,53.22912605451184,10.39918254904366,35.74418,0.243949,0.9313551,-1,-1,3,32,-9999,34293.83878579167,0.471527099609375,0.461517333984375,-0.8256988525390625,34293.83503579167,3.016632872515704,0.6067210385530809,-0.4779194087916055,-2.007246971130371,0.7568579316139221,-0.2151588648557663,-0.008747279644012451,-0.02859723567962646,-0.1426730155944824,XArbitraryZVertical,0.3037782128562989,0.2073210423423809,-0.9209960923411269,-0.1284637286817398,0.50629061460495,0.4599327147006989,-0.7294735908508301,0,0,0,-1,-1,34290.70918641667,walking,2,2022-06-02T10:48:58.178+02:00,2022-06-02T10:32:51.428+02:00,110,2.414618,0,0,95.08166,0,0,2022-06-02T10:49:00.731+02:00,675852540.7306511,0,14.53125,101.0184,1,0.88
2022-06-02T10:49:01.321+02:00,1654159740.259994,53.22912605451184,10.39918254904366,35.74418,0.243949,0.9313551,-1,-1,3,32,-9999,34293.84875879167,0.4744720458984375,0.5014190673828125,-0.801055908203125,34293.84500779167,3.027975792919149,0.6200332608614513,-0.4954887712786489,-2.031726598739624,0.85944664478302,-0.1585559099912643,-0.03785395622253418,-0.0180184543132782,-0.1135472655296326,XArbitraryZVertical,0.3085420474774305,0.2163585890961839,-0.9175151400275126,-0.1271093133710686,0.5111815929412842,0.4754616916179657,-0.7159815430641174,0,0,0,-1,-1,34290.70918641667,walking,2,2022-06-02T10:48:58.178+02:00,2022-06-02T10:32:51.428+02:00,110,2.414618,0,0,95.08166,0,0,2022-06-02T10:49:00.731+02:00,675852540.7306511,0,14.53125,101.0184,1,0.88
2022-06-02T10:49:01.332+02:00,1654159740.259994,53.22912605451184,10.39918254904366,35.74418,0.243949,0.9313551,-1,-1,3,32,-9999,34293.85873079167,0.50225830078125,0.5152435302734375,-0.7867889404296875,34293.85498079167,3.040346092897603,0.6349887271334286,-0.5126795683328825,-2.048613548278809,0.960831344127655,-0.09956663101911545,-0.0439605712890625,0.006388396024703979,-0.1016352772712708,XArbitraryZVertical,0.3137877784330783,0.2252801896385772,-0.9137957665195311,-0.1255528550250686,0.51690673828125,0.4905140697956085,-0.7015721201896667,0,0,0,-1,-1,34290.70918641667,walking,2,2022-06-02T10:48:58.178+02:00,2022-06-02T10:32:51.428+02:00,110,2.414618,0,0,95.08166,0,0,2022-06-02T10:49:00.731+02:00,675852540.7306511,0,14.53125,101.0184,1,0.88
2022-06-02T10:49:01.341+02:00,1654159740.259994,53.22912605451184,10.39918254904366,35.74418,0.243949,0.9313551,-1,-1,3,32,-9999,34293.86870379167,0.5413360595703125,0.51287841796875,-0.7595672607421875,34293.86495379167,3.054225877775418,0.6519064418815943,-0.5299557707418944,-2.175732374191284,1.050426244735718,-0.03860154002904892,-0.02520549297332764,0.01034343242645264,-0.1016945838928223,XArbitraryZVertical,0.3195755134280707,0.2343663080440464,-0.9097477619643284,-0.1237058654773032,0.5234812498092651,0.5054951906204224,-0.68588787317276,0,0,0,-1,-1,34290.70918641667,walking,2,2022-06-02T10:48:58.178+02:00,2022-06-02T10:32:51.428+02:00,110,2.414618,0,0,95.08166,0,0,2022-06-02T10:49:00.731+02:00,675852540.7306511,0,14.53125,101.0184,1,0.88
2022-06-02T10:49:01.351+02:00,1654159740.259994,53.22912605451184,10.39918254904366,35.74418,0.243949,0.9313551,-1,-1,3,32,-9999,34293.87867579167,0.57464599609375,0.527587890625,-0.733917236328125,34293.87492579167,3.069920210297477,0.6704691438236565,-0.5475088142233764,-2.257312774658203,1.048302888870239,0.007440783083438873,0.005789279937744141,-0.008064866065979004,-0.09432405233383179,XArbitraryZVertical,0.3256835918522525,0.2437862867766403,-0.9053982769933249,-0.1214590575628322,0.5305266380310059,0.5205618143081665,-0.6689968705177307,0,0,0,-1,-1,34290.70918641667,walking,2,2022-06-02T10:48:58.178+02:00,2022-06-02T10:32:51.428+02:00,110,2.414618,0,0,95.08166,0,0,2022-06-02T10:49:00.731+02:00,675852540.7306511,0,14.53125,101.0184,1,0.88
2022-06-02T10:49:01.361+02:00,1654159740.259994,53.22912605451184,10.39918254904366,35.74418,0.243949,0.9313551,-1,-1,3,32,-9999,34293.88864879167,0.594207763671875,0.553497314453125,-0.710906982421875,34293.88489879167,3.086682210252631,0.689373903536165,-0.5650486209260617,-2.261283397674561,0.9692862033843994,0.004783704876899719,0.03379631042480469,-0.01075291633605957,-0.08596891164779663,XArbitraryZVertical,0.3315864411239959,0.2533760932319509,-0.9009413184350524,-0.1189778701416534,0.5371875762939453,0.5354568958282471,-0.6517019867897034,0,0,0,-1,-1,34290.70918641667,walking,2,2022-06-02T10:48:58.178+02:00,2022-06-02T10:32:51.428+02:00,110,2.414618,0,0,95.08166,0,0,2022-06-02T10:49:00.731+02:00,675852540.7306511,0,14.53125,101.0184,1,0.88
2022-06-02T10:49:01.371+02:00,1654159740.259994,53.22912605451184,10.39918254904366,35.74418,0.243949,0.9313551,-1,-1,3,32,-9999,34293.89862179167,0.59136962890625,0.5758514404296875,-0.723388671875,34293.89487079167,3.103546830671541,0.7078676663184088,-0.582008487308786,-2.158044099807739,0.9242212772369385,-0.005222590640187263,0.0506928563117981,0.001200437545776367,-0.07715749740600586,XArbitraryZVertical,0.3370777848285675,0.2627661850269509,-0.8965245954621415,-0.1165163694847719,0.5431639552116394,0.5497028827667236,-0.6346650123596191,0,0,0,-1,-1,34290.70918641667,walking,2,2022-06-02T10:48:58.178+02:00,2022-06-02T10:32:51.428+02:00,110,2.414618,0,0,95.08166,0,0,2022-06-02T10:49:00.731+02:00,675852540.7306511,0,14.53125,101.0184,1,0.88
2022-06-02T10:49:01.381+02:00,1654159740.259994,53.22912605451184,10.39918254904366,35.74418,0.243949,0.9313551,-1,-1,3,32,-9999,34293.90859379167,0.597412109375,0.5994110107421875,-0.7328948974609375,34293.90484379167,3.120412351568528,0.7262792006017296,-0.5976479485078366,-2.051105260848999,0.897341787815094,0.07979129999876022,0.04286313056945801,0.009001374244689941,-0.1037936806678772,XArbitraryZVertical,0.3423643780287596,0.2715873943808267,-0.892202137992697,-0.1140275955275255,0.5489795207977295,0.5626996755599976,-0.6180538535118103,0,0,0,-1,-1,34290.70918641667,walking,2,2022-06-02T10:48:58.178+02:00,2022-06-02T10:32:51.428+02:00,110,2.414618,0,0,95.08166,0,0,2022-06-02T10:49:00.731+02:00,675852540.7306511,0,14.53125,101.0184,1,0.88
2022-06-02T10:49:01.393+02:00,1654159740.259994,53.22912605451184,10.39918254904366,35.74418,0.243949,0.9313551,-1,-1,3,32,-9999,34293.91856679167,0.58660888671875,0.6116180419921875,-0.7431488037109375,34293.91481679167,3.137472741371793,0.7446185973956687,-0.611378854152851,-1.870844602584839,0.8463355898857117,0.1707150936126709,0.04211330413818359,0.02440685033798218,-0.1297897100448608,XArbitraryZVertical,0.3474798352982924,0.2796172991125102,-0.8880783098910184,-0.1113057011583876,0.5549325942993164,0.5739970803260803,-0.6021438837051392,0,0,0,-1,-1,34290.70918641667,walking,2,2022-06-02T10:48:58.178+02:00,2022-06-02T10:32:51.428+02:00,110,2.414618,0,0,95.08166,0,0,2022-06-02T10:49:00.731+02:00,675852540.7306511,0,14.53125,101.0184,1,0.88
2022-06-02T10:49:01.401+02:00,1654159740.259994,53.22912605451184,10.39918254904366,35.74418,0.243949,0.9313551,-1,-1,3,32,-9999,34293.92853879167,0.5636444091796875,0.6380615234375,-0.7566070556640625,34293.92478879167,-3.129249957044408,0.7622273628008995,-0.622748301430283,-1.632688879966736,0.7817475199699402,0.2418230026960373,0.02831202745437622,0.02628833055496216,-0.1535832285881042,XArbitraryZVertical,0.3523066997901185,0.2865651107717777,-0.8843010502347275,-0.1084993415350081,0.5609061121940613,0.5832697749137878,-0.5875208377838135,0,0,0,-1,-1,34290.70918641667,walking,2,2022-06-02T10:48:58.178+02:00,2022-06-02T10:32:51.428+02:00,110,2.414618,0,0,95.08166,0,0,2022-06-02T10:49:00.731+02:00,675852540.7306511,0,14.53125,101.0184,1,0.88
2022-06-02T10:49:01.411+02:00,1654159740.259994,53.22912605451184,10.39918254904366,35.74418,0.243949,0.9313551,-1,-1,3,32,-9999,34293.93851179167,0.541229248046875,0.6452484130859375,-0.7316436767578125,34293.93476179167,-3.114178746737921,0.7785574180528636,-0.6315734616125814,-1.340255975723267,0.7285338044166565,0.2939911484718323,-0.0001683235168457031,0.04386192560195923,-0.1807595491409302,XArbitraryZVertical,0.3567825565095962,0.2922465951436872,-0.8809679489016766,-0.1058006620773712,0.5667882561683655,0.5904154181480408,-0.5745962858200073,0,0,0,-1,-1,34290.70918641667,walking,2,2022-06-02T10:48:58.178+02:00,2022-06-02T10:32:51.428+02:00,110,2.414618,0,0,95.08166,0,0,2022-06-02T10:49:00.731+02:00,675852540.7306511,0,14.53125,101.0184,1,0.88
2022-06-02T10:49:01.421+02:00,1654159740.259994,53.22912605451184,10.39918254904366,35.74418,0.243949,0.9313551,-1,-1,3,32,-9999,34293.94848479167,0.5390777587890625,0.6180267333984375,-0.649139404296875,34293.94473379167,-3.10125041244578,0.7931042967132919,-0.6374913936560921,-0.9804635047912598,0.6709455847740173,0.356060266494751,-0.02963340282440186,0.05133348703384399,-0.1755505800247192,XArbitraryZVertical,0.3608802759426927,0.2963963016677376,-0.878199507087982,-0.1033462546694417,0.5725868940353394,0.595181405544281,-0.5638293027877808,0,0,0,-1,-1,34290.70918641667,walking,2,2022-06-02T10:48:58.178+02:00,2022-06-02T10:32:51.428+02:00,110,2.414618,0,0,95.08166,0,0,2022-06-02T10:49:00.731+02:00,675852540.7306511,0,14.53125,101.0184,1,0.88
2022-06-02T10:49:01.431+02:00,1654159740.259994,53.22912605451184,10.39918254904366,35.74418,0.243949,0.9313551,-1,-1,3,32,-9999,34293.95845679167,0.5489501953125,0.5615692138671875,-0.5623779296875,34293.95470679167,-3.090659054556036,0.805727039500801,-0.6404345477834527,-0.6585187911987305,0.6095815300941467,0.4232369065284729,-0.03997039794921875,0.02443480491638184,-0.1042503714561462,XArbitraryZVertical,0.3646306002138745,0.2989546720470302,-0.8760380062338318,-0.1011333444702562,0.578391969203949,0.5975439548492432,-0.5553412437438965,0,0,0,-1,-1,34290.70918641667,walking,2,2022-06-02T10:48:58.178+02:00,2022-06-02T10:32:51.428+02:00,110,2.414618,0,0,95.08166,0,0,2022-06-02T10:49:00.731+02:00,675852540.7306511,0,14.53125,101.0184,1,0.88
2022-06-02T10:49:01.441+02:00,1654159740.259994,53.22912605451184,10.39918254904366,35.74418,0.243949,0.9313551,-1,-1,3,32,-9999,34293.96842979167,0.5567779541015625,0.50860595703125,-0.5003509521484375,34293.96467879167,-3.082204875458699,0.8164024258336998,-0.6406231643669523,-0.3634229898452759,0.5361586213111877,0.4988594949245453,-0.0365825891494751,-0.02671122550964355,-0.02502340078353882,XArbitraryZVertical,0.3680224666020414,0.3000507575291141,-0.8744795619978308,-0.09906820839030779,0.5842052698135376,0.5976951718330383,-0.5490580201148987,0,0,0,-1,-1,34290.70918641667,walking,2,2022-06-02T10:48:58.178+02:00,2022-06-02T10:32:51.428+02:00,110,2.414618,0,0,95.08166,0,0,2022-06-02T10:49:00.731+02:00,675852540.7306511,0,14.53125,101.0184,1,0.88
2022-06-02T10:49:01.451+02:00,1654159740.259994,53.22912605451184,10.39918254904366,35.74418,0.243949,0.9313551,-1,-1,3,32,-9999,34293.97840179167,0.5470123291015625,0.4951324462890625,-0.4866790771484375,34293.97465179167,-3.075422182755265,0.8252342044144156,-0.6384385695275654,-0.1465506106615067,0.4349392950534821,0.5809990763664246,-0.03237229585647583,-0.08356738090515137,0.04091638326644897,XArbitraryZVertical,0.3710312840477382,0.2999249785027643,-0.873481966592524,-0.09700553578886541,0.5899894833564758,0.5959423184394836,-0.544761598110199,0,0,0,-1,-1,34290.70918641667,walking,2,2022-06-02T10:48:58.178+02:00,2022-06-02T10:32:51.428+02:00,110,2.414618,0,0,95.08166,0,0,2022-06-02T10:49:00.731+02:00,675852540.7306511,0,14.53125,101.0184,1,0.88
2022-06-02T10:49:01.462+02:00,1654159740.259994,53.22912605451184,10.39918254904366,35.74418,0.243949,0.9313551,-1,-1,3,32,-9999,34293.98837479167,0.5326690673828125,0.5146331787109375,-0.4867095947265625,34293.98462479167,-3.069802732736983,0.8323993581939106,-0.6342691294022369,0.02091166004538536,0.3503445982933044,0.6564947962760925,-0.04711079597473145,-0.09814316034317017,0.05532592535018921,XArbitraryZVertical,0.3736434907667111,0.2988251983050126,-0.8729866805860536,-0.09480710705530802,0.5957100987434387,0.5925889611244202,-0.5421881079673767,0,0,0,-1,-1,34290.70918641667,walking,2,2022-06-02T10:48:58.178+02:00,2022-06-02T10:32:51.428+02:00,110,2.414618,0,0,95.08166,0,0,2022-06-02T10:49:00.731+02:00,675852540.7306511,0,14.53125,101.0184,1,0.88
2022-06-02T10:49:01.471+02:00,1654159741.260732,53.22919497861625,10.39904692937961,35.68074,0.1516352,0.9192317,-1,-1,3,24,-9999,34293.99834779167,0.5167388916015625,0.5421600341796875,-0.523712158203125,34293.99459679167,-3.064833793896502,0.8384679314107067,-0.6287776146251841,0.1139446645975113,0.2951580584049225,0.7057744860649109,-0.06702220439910889,-0.07755178213119507,0.05618780851364136,XArbitraryZVertical,0.375986133808464,0.297101223450139,-0.8728213744520721,-0.09245553806928108,0.6014001369476318,0.5881565809249878,-0.5407305955886841,0,0,0,-1,-1,34290.70918641667,walking,2,2022-06-02T10:48:58.178+02:00,2022-06-02T10:32:51.428+02:00,110,2.414618,0,0,95.08166,0,0,2022-06-02T10:49:00.731+02:00,675852540.7306511,0,14.53125,101.0184,1,0.88
2022-06-02T10:49:01.482+02:00,1654159741.260732,53.22919497861625,10.39904692937961,35.68074,0.1516352,0.9192317,-1,-1,3,24,-9999,34294.00831979167,0.50958251953125,0.547393798828125,-0.54693603515625,34294.00456979167,-3.060411374034545,0.8437684614417329,-0.6224607381069757,0.1990854889154434,0.2680437862873077,0.7200344204902649,-0.0884975790977478,-0.04267668724060059,0.0216376781463623,XArbitraryZVertical,0.378149599345975,0.2949676501369659,-0.8728620067144107,-0.09004905887435839,0.607021689414978,0.5830361247062683,-0.539993941783905,0,0,0,-1,-1,34290.70918641667,walking,2,2022-06-02T10:48:58.178+02:00,2022-06-02T10:32:51.428+02:00,110,2.414618,0,0,95.08166,0,0,2022-06-02T10:49:00.731+02:00,675852540.7306511,0,14.53125,101.0184,1,0.88
2022-06-02T10:49:01.491+02:00,1654159741.260732,53.22919497861625,10.39904692937961,35.68074,0.1516352,0.9192317,-1,-1,3,24,-9999,34294.01829279167,0.51190185546875,0.5512847900390625,-0.52752685546875,34294.01454179167,-3.056917026384363,0.8482666955467012,-0.6155208479308587,0.2884624898433685,0.2488472163677216,0.7054616212844849,-0.1028369069099426,-0.03061568737030029,-0.00709158182144165,XArbitraryZVertical,0.3801582505063761,0.2924369115338344,-0.8730713042967205,-0.08778884467581682,0.6124651432037354,0.5773838758468628,-0.5399206876754761,0,0,0,-1,-1,34290.70918641667,walking,2,2022-06-02T10:48:58.178+02:00,2022-06-02T10:32:51.428+02:00,110,2.414618,0,0,95.08166,0,0,2022-06-02T10:49:00.731+02:00,675852540.7306511,0,14.53125,101.0184,1,0.88
2022-06-02T10:49:01.502+02:00,1654159741.260732,53.22919497861625,10.39904692937961,35.68074,0.1516352,0.9192317,-1,-1,3,24,-9999,34294.02826479167,0.5334930419921875,0.5376434326171875,-0.496917724609375,34294.02451479167,-3.054282067806192,0.8520399924086008,-0.6083959321496083,0.3090668618679047,0.2174003273248672,0.6609012484550476,-0.1069279313087463,-0.02020609378814697,0.01036322116851807,XArbitraryZVertical,0.3819973857314373,0.2897024664848554,-0.8733832002306576,-0.08574589838464289,0.6175786256790161,0.5715519785881042,-0.5403009653091431,0,0,0,-1,-1,34290.70918641667,walking,2,2022-06-02T10:48:58.178+02:00,2022-06-02T10:32:51.428+02:00,110,2.414618,0,0,95.08166,0,0,2022-06-02T10:49:00.731+02:00,675852540.7306511,0,14.53125,101.0184,1,0.88
2022-06-02T10:49:01.511+02:00,1654159741.260732,53.22919497861625,10.39904692937961,35.68074,0.1516352,0.9192317,-1,-1,3,24,-9999,34294.03823779167,0.560699462890625,0.5177459716796875,-0.4618682861328125,34294.03448779167,-3.051971860658735,0.8553090866318204,-0.6017304413853943,0.2720808684825897,0.1863883435726166,0.6055524945259094,-0.09196031093597412,-0.0263817310333252,0.04030853509902954,XArbitraryZVertical,0.3836308351883495,0.2871311181680242,-0.8737000541494072,-0.08385258601874283,0.6222031712532043,0.5660698413848877,-0.540766179561615,0,0,0,-1,-1,34290.70918641667,walking,2,2022-06-02T10:48:58.178+02:00,2022-06-02T10:32:51.428+02:00,110,2.414618,0,0,95.08166,0,0,2022-06-02T10:49:00.731+02:00,675852540.7306511,0,14.53125,101.0184,1,0.88
2022-06-02T10:49:01.521+02:00,1654159741.260732,53.22919497861625,10.39904692937961,35.68074,0.1516352,0.9192317,-1,-1,3,24,-9999,34294.04820979167,0.588714599609375,0.49542236328125,-0.4259033203125,34294.04445979167,-3.049529367515941,0.8583679112674014,-0.5958166311666883,0.1964236050844193,0.1636627167463303,0.561475396156311,-0.0693243145942688,-0.04018872976303101,0.07555472850799561,XArbitraryZVertical,0.3850965485927821,0.2849227354251422,-0.8739527968195352,-0.08201425931601766,0.6263769865036011,0.5611848831176758,-0.5410393476486206,0,0,0,-1,-1,34290.70918641667,walking,2,2022-06-02T10:48:58.178+02:00,2022-06-02T10:32:51.428+02:00,110,2.414618,0,0,95.08166,0,0,2022-06-02T10:49:00.731+02:00,675852540.7306511,0,14.53125,101.0184,1,0.88
2022-06-02T10:49:01.531+02:00,1654159741.260732,53.22919497861625,10.39904692937961,35.68074,0.1516352,0.9192317,-1,-1,3,24,-9999,34294.05818279167,0.6067352294921875,0.4919586181640625,-0.4254150390625,34294.05443279167,-3.046597032192316,0.8615864701398251,-0.5907560334102846,0.08642919361591339,0.1602940857410431,0.5339133143424988,-0.04478240013122559,-0.05984246730804443,0.1099700927734375,XArbitraryZVertical,0.3864974379158828,0.2831752046769357,-0.8740752039278843,-0.08015089769746055,0.6302621364593506,0.5569890737533569,-0.5408630967140198,0,0,0,-1,-1,34290.70918641667,walking,2,2022-06-02T10:48:58.178+02:00,2022-06-02T10:32:51.428+02:00,110,2.414618,0,0,95.08166,0,0,2022-06-02T10:49:00.731+02:00,675852540.7306511,0,14.53125,101.0184,1,0.88
2022-06-02T10:49:01.541+02:00,1654159741.260732,53.22919497861625,10.39904692937961,35.68074,0.1516352,0.9192317,-1,-1,3,24,-9999,34294.06815579167,0.6169891357421875,0.4863433837890625,-0.473541259765625,34294.06440479167,-3.042711240761596,0.8653621386463465,-0.5866423084372142,-0.04521733894944191,0.1756422370672226,0.5188707709312439,-0.02950084209442139,-0.06150245666503906,0.1176736354827881,XArbitraryZVertical,0.3879344600684936,0.2820045306497184,-0.8739994150165554,-0.0781372448422962,0.6340388655662537,0.5535678267478943,-0.5399606227874756,0,0,0,-1,-1,34290.70918641667,walking,2,2022-06-02T10:48:58.178+02:00,2022-06-02T10:32:51.428+02:00,110,2.414618,0,0,95.08166,0,0,2022-06-02T10:49:00.731+02:00,675852540.7306511,0,14.53125,101.0184,1,0.88
