loggingTime(txt),locationTimestamp_since1970(s),locationLatitude(WGS84),locationLongitude(WGS84),locationAltitude(m),locationSpeed(m/s),locationSpeedAccuracy(m/s),locationCourse(°),locationCourseAccuracy(°),locationVerticalAccuracy(m),locationHorizontalAccuracy(m),locationFloor(Z),accelerometerTimestamp_sinceReboot(s),accelerometerAccelerationX(G),accelerometerAccelerationY(G),accelerometerAccelerationZ(G),motionTimestamp_sinceReboot(s),motionYaw(rad),motionRoll(rad),motionPitch(rad),motionRotationRateX(rad/s),motionRotationRateY(rad/s),motionRotationRateZ(rad/s),motionUserAccelerationX(G),motionUserAccelerationY(G),motionUserAccelerationZ(G),motionAttitudeReferenceFrame(txt),motionQuaternionX(R),motionQuaternionY(R),motionQuaternionZ(R),motionQuaternionW(R),motionGravityX(G),motionGravityY(G),motionGravityZ(G),motionMagneticFieldX(µT),motionMagneticFieldY(µT),motionMagneticFieldZ(µT),motionHeading(°),motionMagneticFieldCalibrationAccuracy(Z),activityTimestamp_sinceReboot(s),activity(txt),activityActivityConfidence(Z),activityActivityStartDate(txt),pedometerStartDate(txt),pedometerNumberofSteps(N),pedometerAverageActivePace(s/m),pedometerCurrentPace(s/m),pedometerCurrentCadence(steps/s),pedometerDistance(m),pedometerFloorAscended(N),pedometerFloorDescended(N),pedometerEndDate(txt),altimeterTimestamp_sinceReboot(s),altimeterReset(bool),altimeterRelativeAltitude(m),altimeterPressure(kPa),batteryState(N),batteryLevel(R)
2022-06-02T10:39:55.109+02:00,1654159194.631284,53.22904976599147,10.39859308999677,36.06742,-1,-1,-1,-1,3,48.00000000000001,-9999,33770.760544625,-0.054412841796875,-0.2541351318359375,-0.939422607421875,33770.75679462501,2.99009961996877,-0.07697265940441732,0.2887636944136001,-0.01982085779309273,0.1060967966914177,-0.01844782754778862,0.00254589319229126,0.03527083992958069,0.01522183418273926,XArbitraryZVertical,-0.04884728119914743,-0.1404805250008922,-0.9856078723485368,-0.0803514721842386,-0.07371289283037186,-0.2847673296928406,-0.9557583332061768,0,0,0,-1,-1,33770.09030075,unknown,2,2022-06-02T10:39:54.392+02:00,2022-06-02T10:32:51.428+02:00,41,0.9590018,0,0,41.84445,0,0,2022-06-02T10:39:54.392+02:00,675851994.3918289,0,7.769531,101.0994,1,0.91
2022-06-02T10:39:55.113+02:00,1654159194.631284,53.22904976599147,10.39859308999677,36.06742,-1,-1,-1,-1,3,48.00000000000001,-9999,33770.770517625,-0.0683135986328125,-0.2578887939453125,-0.9501800537109375,33770.766767625,2.989829920535929,-0.07631210249575102,0.2881995496638135,-0.07141405344009399,0.0002589613432064652,-0.02021521143615246,0.01697194576263428,0.03065589070320129,0.01294314861297607,XArbitraryZVertical,-0.04852109593134778,-0.140222253104611,-0.9856543444771472,-0.08043043932895627,-0.07309378683567047,-0.2842265069484711,-0.9559668302536011,0,0,0,-1,-1,33770.09030075,unknown,2,2022-06-02T10:39:54.392+02:00,2022-06-02T10:32:51.428+02:00,41,0.9590018,0,0,41.84445,0,0,2022-06-02T10:39:54.392+02:00,675851994.3918289,0,7.769531,101.0994,1,0.91
2022-06-02T10:39:55.116+02:00,1654159194.631284,53.22904976599147,10.39859308999677,36.06742,-1,-1,-1,-1,3,48.00000000000001,-9999,33770.780490625,-0.1196746826171875,-0.324127197265625,-0.96875,33770.77673962501,2.988612150852453,-0.07628613529579832,0.2867994320754154,-0.2510858178138733,-0.08487723767757416,-0.3232017159461975,-0.03035537898540497,-0.01772958040237427,0.03473371267318726,XArbitraryZVertical,-0.0485445796922167,-0.1395031457377333,-0.9857076767878385,-0.08101005102466122,-0.07309921830892563,-0.2828838527202606,-0.9563645720481873,0,0,0,-1,-1,33770.09030075,unknown,2,2022-06-02T10:39:54.392+02:00,2022-06-02T10:32:51.428+02:00,41,0.9590018,0,0,41.84445,0,0,2022-06-02T10:39:54.392+02:00,675851994.3918289,0,7.769531,101.0994,1,0.91
2022-06-02T10:39:55.130+02:00,1654159194.631284,53.22904976599147,10.39859308999677,36.06742,-1,-1,-1,-1,3,48.00000000000001,-9999,33770.790462625,-0.0210113525390625,-0.2024078369140625,-0.9535980224609375,33770.786712625,2.985374690600575,-0.07623445331752345,0.2842348602783523,-0.2609235048294067,-0.1547614187002182,-0.2300921678543091,0.01062006503343582,0.03088083863258362,-0.0150335431098938,XArbitraryZVertical,-0.04865282782622774,-0.138161508635582,-0.9857621237180538,-0.08256795995709422,-0.07310479879379272,-0.280423104763031,-0.9570885896682739,0,0,0,-1,-1,33770.09030075,unknown,2,2022-06-02T10:39:54.392+02:00,2022-06-02T10:32:51.428+02:00,41,0.9590018,0,0,41.84445,0,0,2022-06-02T10:39:54.392+02:00,675851994.3918289,0,7.769531,101.0994,1,0.91
2022-06-02T10:39:55.132+02:00,1654159194.631284,53.22904976599147,10.39859308999677,36.06742,-1,-1,-1,-1,3,48.00000000000001,-9999,33770.800435625,-0.084259033203125,-0.2565460205078125,-0.9714508056640625,33770.796685625,2.983074648264392,-0.07852338772058111,0.2806473090191698,-0.3391959369182587,-0.2738001942634583,-0.2274308651685715,0.02213583141565323,0.05247512459754944,-0.001862287521362305,XArbitraryZVertical,-0.04980909227753796,-0.1362398190369398,-0.9858670115531403,-0.08381003946595816,-0.07537375390529633,-0.2769776880741119,-0.9579155445098877,0,0,0,-1,-1,33770.09030075,unknown,2,2022-06-02T10:39:54.392+02:00,2022-06-02T10:32:51.428+02:00,41,0.9590018,0,0,41.84445,0,0,2022-06-02T10:39:54.392+02:00,675851994.3918289,0,7.769531,101.0994,1,0.91
2022-06-02T10:39:55.134+02:00,1654159194.631284,53.22904976599147,10.39859308999677,36.06742,-1,-1,-1,-1,3,48.00000000000001,-9999,33770.810407625,-0.0585784912109375,-0.229522705078125,-0.974151611328125,33770.806657625,2.980135850001996,-0.08064353253987831,0.2767002109166858,-0.3928477466106415,-0.3325011730194092,-0.2511733174324036,-0.008491314947605133,0.01463791728019714,-0.01732993125915527,XArbitraryZVertical,-0.05090769662702835,-0.1341286710543162,-0.9859685027904231,-0.08534642231930989,-0.07749196887016296,-0.2731828689575195,-0.9588358402252197,0,0,0,-1,-1,33770.09030075,unknown,2,2022-06-02T10:39:54.392+02:00,2022-06-02T10:32:51.428+02:00,41,0.9590018,0,0,41.84445,0,0,2022-06-02T10:39:54.392+02:00,675851994.3918289,0,7.769531,101.0994,1,0.91
2022-06-02T10:39:55.140+02:00,1654159194.631284,53.22904976599147,10.39859308999677,36.06742,-1,-1,-1,-1,3,48.00000000000001,-9999,33770.820380625,-0.0505523681640625,-0.2095947265625,-0.974578857421875,33770.816630625,2.977619073113495,-0.0836904015185512,0.2726082515544301,-0.371745377779007,-0.3930220305919647,-0.1805641353130341,0.03076215833425522,0.05357655882835388,-0.01422154903411865,XArbitraryZVertical,-0.05242412052426335,-0.1319133356141384,-0.9860672220275336,-0.0867296447527903,-0.08050581812858582,-0.2692442834377289,-0.9597011804580688,0,0,0,-1,-1,33770.09030075,unknown,2,2022-06-02T10:39:54.392+02:00,2022-06-02T10:32:51.428+02:00,41,0.9590018,0,0,41.84445,0,0,2022-06-02T10:39:54.392+02:00,675851994.3918289,0,7.769531,101.0994,1,0.91
2022-06-02T10:39:55.142+02:00,1654159194.631284,53.22904976599147,10.39859308999677,36.06742,-1,-1,-1,-1,3,48.00000000000001,-9999,33770.830353625,-0.092254638671875,-0.22149658203125,-0.97821044921875,33770.826602625,2.975501434480983,-0.0871957658398187,0.2688954143139329,-0.263284295797348,-0.3300886154174805,-0.193863645195961,0.01924337446689606,0.05054831504821777,-0.01826584339141846,XArbitraryZVertical,-0.05415022730786896,-0.1298714501633446,-0.9861373216651541,-0.08794550892573866,-0.08395589888095856,-0.2656666934490204,-0.9604023098945618,0,0,0,-1,-1,33770.09030075,unknown,2,2022-06-02T10:39:54.392+02:00,2022-06-02T10:32:51.428+02:00,41,0.9590018,0,0,41.84445,0,0,2022-06-02T10:39:54.392+02:00,675851994.3918289,0,7.769531,101.0994,1,0.91
2022-06-02T10:39:55.147+02:00,1654159194.631284,53.22904976599147,10.39859308999677,36.06742,-1,-1,-1,-1,3,48.00000000000001,-9999,33770.840325625,-0.1562957763671875,-0.1952972412109375,-0.982574462890625,33770.836575625,2.973480666854072,-0.08904945081207252,0.2672614025476233,-0.09369978308677673,-0.1147155612707138,-0.1681867688894272,-0.02604188770055771,0.04129743576049805,-0.01626783609390259,XArbitraryZVertical,-0.05513223861099283,-0.1289277512605806,-0.986108956318568,-0.08903537214064788,-0.08577452600002289,-0.2640910446643829,-0.9606761336326599,0,0,0,-1,-1,33770.09030075,unknown,2,2022-06-02T10:39:54.392+02:00,2022-06-02T10:32:51.428+02:00,41,0.9590018,0,0,41.84445,0,0,2022-06-02T10:39:54.392+02:00,675851994.3918289,0,7.769531,101.0994,1,0.91
2022-06-02T10:39:55.157+02:00,1654159194.631284,53.22904976599147,10.39859308999677,36.06742,-1,-1,-1,-1,3,48.00000000000001,-9999,33770.850298625,-0.1641082763671875,-0.1386260986328125,-0.9573516845703125,33770.846548625,2.971461492600918,-0.08834204665485382,0.2673127956059292,0.04804549738764763,0.1266504526138306,-0.2253739535808563,-0.09386136382818222,0.09789609909057617,-0.01611411571502686,XArbitraryZVertical,-0.05491562535143179,-0.128929225235871,-0.9860345384447158,-0.08998612979147864,-0.08509372174739838,-0.2641406357288361,-0.9607230424880981,0,0,0,-1,-1,33770.09030075,unknown,2,2022-06-02T10:39:54.392+02:00,2022-06-02T10:32:51.428+02:00,41,0.9590018,0,0,41.84445,0,0,2022-06-02T10:39:54.392+02:00,675851994.3918289,0,7.769531,101.0994,1,0.91
2022-06-02T10:39:55.167+02:00,1654159194.631284,53.22904976599147,10.39859308999677,36.06742,-1,-1,-1,-1,3,48.00000000000001,-9999,33770.860271625,-0.0843963623046875,-0.2760467529296875,-0.9370269775390625,33770.856520625,2.969364559135543,-0.08635922430902897,0.2684414978763287,0.1451355516910553,0.1408578902482986,-0.1737054288387299,-0.04900879412889481,0.1201942563056946,0.01402854919433594,XArbitraryZVertical,-0.05411809346136665,-0.1295187399539152,-0.9859166278996487,-0.09090966673710558,-0.08316284418106079,-0.2652290761470795,-0.9605922698974609,0,0,0,-1,-1,33770.09030075,unknown,2,2022-06-02T10:39:54.392+02:00,2022-06-02T10:32:51.428+02:00,41,0.9590018,0,0,41.84445,0,0,2022-06-02T10:39:54.392+02:00,675851994.3918289,0,7.769531,101.0994,1,0.91
2022-06-02T10:39:55.176+02:00,1654159194.631284,53.22904976599147,10.39859308999677,36.06742,-1,-1,-1,-1,3,48.00000000000001,-9999,33770.870243625,-0.1053009033203125,-0.347198486328125,-0.939453125,33770.866493625,2.968438750827094,-0.08526186330027347,0.2699266804073566,0.0881534144282341,0.05486530438065529,-0.05057547241449356,0.001157678663730621,-0.07629579305648804,0.02799266576766968,XArbitraryZVertical,-0.05369644516677964,-0.1302766027591918,-0.9858021478820176,-0.09131761901930205,-0.08207504451274872,-0.2666607797145844,-0.9602894186973572,0,0,0,-1,-1,33770.09030075,unknown,2,2022-06-02T10:39:54.392+02:00,2022-06-02T10:32:51.428+02:00,41,0.9590018,0,0,41.84445,0,0,2022-06-02T10:39:54.392+02:00,675851994.3918289,0,7.769531,101.0994,1,0.91
2022-06-02T10:39:55.186+02:00,1654159194.631284,53.22904976599147,10.39859308999677,36.06742,-1,-1,-1,-1,3,48.00000000000001,-9999,33770.880216625,-0.11370849609375,-0.2819976806640625,-0.9670867919921875,33770.876466625,2.967876986539886,-0.08448268370270488,0.2703987311614837,0.008140603080391884,0.09265715628862381,-0.0784880593419075,-0.03643593192100525,-0.05043500661849976,0.007270395755767822,XArbitraryZVertical,-0.05336791834278745,-0.1305301025502052,-0.9857647491928532,-0.09155081988022237,-0.08131615072488785,-0.2671157121658325,-0.9602274894714355,0,0,0,-1,-1,33770.09030075,unknown,2,2022-06-02T10:39:54.392+02:00,2022-06-02T10:32:51.428+02:00,41,0.9590018,0,0,41.84445,0,0,2022-06-02T10:39:54.392+02:00,675851994.3918289,0,7.769531,101.0994,1,0.91
2022-06-02T10:39:55.196+02:00,1654159194.631284,53.22904976599147,10.39859308999677,36.06742,-1,-1,-1,-1,3,48.00000000000001,-9999,33770.890188625,-0.0746002197265625,-0.289947509765625,-0.9682769775390625,33770.886438625,2.967152171753718,-0.08331207684899058,0.2704748479377671,-0.01524616777896881,0.1057296395301819,-0.06743836402893066,-0.01899178326129913,-0.01029205322265625,-0.008234560489654541,XArbitraryZVertical,-0.05284132557719566,-0.1306020670937296,-0.9857574372191791,-0.0918327957255049,-0.08019035309553146,-0.2671890556812286,-0.9603018164634705,0,0,0,-1,-1,33770.09030075,unknown,2,2022-06-02T10:39:54.392+02:00,2022-06-02T10:32:51.428+02:00,41,0.9590018,0,0,41.84445,0,0,2022-06-02T10:39:54.392+02:00,675851994.3918289,0,7.769531,101.0994,1,0.91
2022-06-02T10:39:55.206+02:00,1654159194.631284,53.22904976599147,10.39859308999677,36.06742,-1,-1,-1,-1,3,48.00000000000001,-9999,33770.900161625,-0.06817626953125,-0.3025054931640625,-0.9730987548828125,33770.896411625,2.966492151784132,-0.0823606474453744,0.2700485115121128,-0.09265147894620895,0.05914589017629623,-0.0608837865293026,0.01165906339883804,-0.03191262483596802,-0.008716702461242676,XArbitraryZVertical,-0.05239821869875388,-0.1304181191879443,-0.9857813836643988,-0.0920897944828081,-0.07928602397441864,-0.2667782008647919,-0.9604910612106323,0,0,0,-1,-1,33770.09030075,unknown,2,2022-06-02T10:39:54.392+02:00,2022-06-02T10:32:51.428+02:00,41,0.9590018,0,0,41.84445,0,0,2022-06-02T10:39:54.392+02:00,675851994.3918289,0,7.769531,101.0994,1,0.91
2022-06-02T10:39:55.216+02:00,1654159194.631284,53.22904976599147,10.39859308999677,36.06742,-1,-1,-1,-1,3,48.00000000000001,-9999,33770.910134625,-0.0832672119140625,-0.27496337890625,-0.9819793701171875,33770.906383625,2.965738845848824,-0.08180719185251521,0.2689292940278377,-0.1430063545703888,0.0253954716026783,-0.06512842327356339,0.005918040871620178,-0.02876478433609009,-0.01600533723831177,XArbitraryZVertical,-0.05212895683063568,-0.1298717435151953,-0.9858379889561262,-0.09240902203666687,-0.07877877354621887,-0.2656993567943573,-0.9608318209648132,0,0,0,-1,-1,33770.09030075,unknown,2,2022-06-02T10:39:54.392+02:00,2022-06-02T10:32:51.428+02:00,41,0.9590018,0,0,41.84445,0,0,2022-06-02T10:39:54.392+02:00,675851994.3918289,0,7.769531,101.0994,1,0.91
2022-06-02T10:39:55.226+02:00,1654159194.631284,53.22904976599147,10.39859308999677,36.06742,-1,-1,-1,-1,3,48.00000000000001,-9999,33770.920106625,-0.0921478271484375,-0.2480010986328125,-0.985107421875,33770.916356625,2.965011867590162,-0.0814293138886871,0.2676181771418487,-0.132384866476059,0.0299590677022934,-0.05736371129751205,-0.008286997675895691,0.001694053411483765,-0.02353328466415405,XArbitraryZVertical,-0.05193621809990492,-0.1292233872822805,-0.9859038126021634,-0.09272421701742534,-0.07844395935535431,-0.2644351422786713,-0.9612078666687012,0,0,0,-1,-1,33770.09030075,unknown,2,2022-06-02T10:39:54.392+02:00,2022-06-02T10:32:51.428+02:00,41,0.9590018,0,0,41.84445,0,0,2022-06-02T10:39:54.392+02:00,675851994.3918289,0,7.769531,101.0994,1,0.91
2022-06-02T10:39:55.236+02:00,1654159194.631284,53.22904976599147,10.39859308999677,36.06742,-1,-1,-1,-1,3,48.00000000000001,-9999,33770.930079625,-0.093902587890625,-0.2376861572265625,-0.97845458984375,33770.926329625,2.96435595415559,-0.08099134588692265,0.2665386185450683,-0.1042549982666969,0.0326242670416832,-0.05880272760987282,-0.01538354903459549,0.02100798487663269,-0.02101778984069824,XArbitraryZVertical,-0.05171829674844136,-0.1286940395856358,-0.9859580521392394,-0.09300400621685678,-0.07804601639509201,-0.2633938789367676,-0.961526095867157,0,0,0,-1,-1,33770.09030075,unknown,2,2022-06-02T10:39:54.392+02:00,2022-06-02T10:32:51.428+02:00,41,0.9590018,0,0,41.84445,0,0,2022-06-02T10:39:54.392+02:00,675851994.3918289,0,7.769531,101.0994,1,0.91
2022-06-02T10:39:55.246+02:00,1654159194.631284,53.22904976599147,10.39859308999677,36.06742,-1,-1,-1,-1,3,48.00000000000001,-9999,33770.940052625,-0.0986328125,-0.241943359375,-0.9748077392578125,33770.936301625,2.96361318695621,-0.08055086549021113,0.2657254790084656,-0.07728011161088943,0.03061704523861408,-0.0734434574842453,-0.01731576025485992,0.0237787663936615,-0.0161469578742981,XArbitraryZVertical,-0.05151532544667792,-0.1282941339556324,-0.9859899585900478,-0.09333045825503175,-0.07763968408107758,-0.2626093626022339,-0.9617735743522644,0,0,0,-1,-1,33770.09030075,unknown,2,2022-06-02T10:39:54.392+02:00,2022-06-02T10:32:51.428+02:00,41,0.9590018,0,0,41.84445,0,0,2022-06-02T10:39:54.392+02:00,675851994.3918289,0,7.769531,101.0994,1,0.91
2022-06-02T10:39:55.256+02:00,1654159194.631284,53.22904976599147,10.39859308999677,36.06742,-1,-1,-1,-1,3,48.00000000000001,-9999,33770.950024625,-0.1009368896484375,-0.2460174560546875,-0.9749755859375,33770.946274625,2.962801096857076,-0.08005260978410954,0.2652443894159672,-0.04453836381435394,0.04185274243354797,-0.0748755931854248,-0.02303390949964523,0.01910310983657837,-0.01300710439682007,XArbitraryZVertical,-0.05130178541221417,-0.1280591571634443,-0.9859973016445823,-0.09369217672530113,-0.07717055827379227,-0.2621451318264008,-0.9619379639625549,0,0,0,-1,-1,33770.09030075,unknown,2,2022-06-02T10:39:54.392+02:00,2022-06-02T10:32:51.428+02:00,41,0.9590018,0,0,41.84445,0,0,2022-06-02T10:39:54.392+02:00,675851994.3918289,0,7.769531,101.0994,1,0.91
2022-06-02T10:39:55.266+02:00,1654159194.631284,53.22904976599147,10.39859308999677,36.06742,-1,-1,-1,-1,3,48.00000000000001,-9999,33770.959997625,-0.0941619873046875,-0.250396728515625,-0.972869873046875,33770.956247625,2.962030516505562,-0.07954308645125177,0.265263004663976,-0.01380255725234747,0.05181216821074486,-0.08139155060052872,-0.022929348051548,0.01457396149635315,-0.01158422231674194,XArbitraryZVertical,-0.05110071122493192,-0.1280725227685911,-0.9859729683633485,-0.09403970910512585,-0.07668003439903259,-0.2621630728244781,-0.9619722962379456,0,0,0,-1,-1,33770.09030075,unknown,2,2022-06-02T10:39:54.392+02:00,2022-06-02T10:32:51.428+02:00,41,0.9590018,0,0,41.84445,0,0,2022-06-02T10:39:54.392+02:00,675851994.3918289,0,7.769531,101.0994,1,0.91
2022-06-02T10:39:55.276+02:00,1654159194.631284,53.22904976599147,10.39859308999677,36.06742,-1,-1,-1,-1,3,48.00000000000001,-9999,33770.969969625,-0.090362548828125,-0.252777099609375,-0.9751739501953125,33770.966219625,2.961217957111107,-0.07888617231200082,0.2653248579201853,-0.002157130977138877,0.05447603762149811,-0.0831938236951828,-0.01495660841464996,0.01158192753791809,-0.0115044116973877,XArbitraryZVertical,-0.05083149793673038,-0.1281132822139118,-0.9859472680903405,-0.09439905812730412,-0.07604680955410004,-0.2622227668762207,-0.9620062708854675,0,0,0,-1,-1,33770.09030075,unknown,2,2022-06-02T10:39:54.392+02:00,2022-06-02T10:32:51.428+02:00,41,0.9590018,0,0,41.84445,0,0,2022-06-02T10:39:54.392+02:00,675851994.3918289,0,7.769531,101.0994,1,0.91
2022-06-02T10:39:55.286+02:00,1654159194.631284,53.22904976599147,10.39859308999677,36.06742,-1,-1,-1,-1,3,48.00000000000001,-9999,33770.979942625,-0.0964508056640625,-0.255889892578125,-0.97967529296875,33770.976192625,2.96032703797478,-0.07817114554933147,0.2655417389097628,0.001841871533542871,0.04711665958166122,-0.09527312219142914,-0.01780042797327042,0.0080680251121521,-0.01518440246582031,XArbitraryZVertical,-0.05054524949638778,-0.1282315494165432,-0.9859085126382833,-0.09479531339585541,-0.07535448670387268,-0.2624320685863495,-0.9620037078857422,0,0,0,-1,-1,33770.09030075,unknown,2,2022-06-02T10:39:54.392+02:00,2022-06-02T10:32:51.428+02:00,41,0.9590018,0,0,41.84445,0,0,2022-06-02T10:39:54.392+02:00,675851994.3918289,0,7.769531,101.0994,1,0.91
2022-06-02T10:39:55.296+02:00,1654159194.631284,53.22904976599147,10.39859308999677,36.06742,-1,-1,-1,-1,3,48.00000000000001,-9999,33770.989915625,-0.0954132080078125,-0.2564697265625,-0.98297119140625,33770.986164625,2.959365314708171,-0.07742633561591433,0.265777153265511,0.001167736714705825,0.0506981648504734,-0.09254280477762222,-0.0225195437669754,0.006204724311828613,-0.01987463235855103,XArbitraryZVertical,-0.05024976731545504,-0.1283588484998491,-0.9858657045710003,-0.0952247249402816,-0.07463317364454269,-0.2626592218875885,-0.961997926235199,0,0,0,-1,-1,33770.09030075,unknown,2,2022-06-02T10:39:54.392+02:00,2022-06-02T10:32:51.428+02:00,41,0.9590018,0,0,41.84445,0,0,2022-06-02T10:39:54.392+02:00,675851994.3918289,0,7.769531,101.0994,1,0.91
2022-06-02T10:39:55.306+02:00,1654159194.631284,53.22904976599147,10.39859308999677,36.06742,-1,-1,-1,-1,3,48.00000000000001,-9999,33770.999887625,-0.0955047607421875,-0.2554473876953125,-0.983154296875,33770.996137625,2.958415725968097,-0.07670441729609903,0.2657903451824707,-0.009106206707656384,0.05277835950255394,-0.0958765521645546,-0.02110859751701355,0.004950970411300659,-0.02121299505233765,XArbitraryZVertical,-0.04995542375267482,-0.1283760072950038,-0.9858376551422574,-0.09564665600129947,-0.07393840700387955,-0.262671947479248,-0.9620481133460999,0,0,0,-1,-1,33770.09030075,unknown,2,2022-06-02T10:39:54.392+02:00,2022-06-02T10:32:51.428+02:00,41,0.9590018,0,0,41.84445,0,0,2022-06-02T10:39:54.392+02:00,675851994.3918289,0,7.769531,101.0994,1,0.91
2022-06-02T10:39:55.316+02:00,1654159194.631284,53.22904976599147,10.39859308999677,36.06742,-1,-1,-1,-1,3,48.00000000000001,-9999,33771.009860625,-0.0971527099609375,-0.2511138916015625,-0.986419677734375,33771.006110625,2.957475966432493,-0.0760644842631668,0.2656202470771305,-0.0119362585246563,0.05464594811201096,-0.09436231851577759,-0.02355192601680756,0.008067488670349121,-0.0222962498664856,XArbitraryZVertical,-0.04969300051509516,-0.1282993520375714,-0.9858200052197181,-0.0960666255326692,-0.07332613319158554,-0.262507826089859,-0.9621397852897644,0,0,0,-1,-1,33770.09030075,unknown,2,2022-06-02T10:39:54.392+02:00,2022-06-02T10:32:51.428+02:00,41,0.9590018,0,0,41.84445,0,0,2022-06-02T10:39:54.392+02:00,675851994.3918289,0,7.769531,101.0994,1,0.91
2022-06-02T10:39:55.332+02:00,1654159194.631284,53.22904976599147,10.39859308999677,36.06742,-1,-1,-1,-1,3,48.00000000000001,-9999,33771.019833625,-0.0969696044921875,-0.24688720703125,-0.9866790771484375,33771.016082625,2.956527955698984,-0.07557438733408341,0.2652377618163856,-0.01389048621058464,0.05242673680186272,-0.1026657894253731,-0.02447366714477539,0.0126117467880249,-0.02414405345916748,XArbitraryZVertical,-0.04949569566496687,-0.1281107373087384,-0.9858123174008426,-0.09649765602388238,-0.0728621631860733,-0.2621387243270874,-0.9622756242752075,0,0,0,-1,-1,33770.09030075,unknown,2,2022-06-02T10:39:54.392+02:00,2022-06-02T10:32:51.428+02:00,41,0.9590018,0,0,41.84445,0,0,2022-06-02T10:39:54.392+02:00,675851994.3918289,0,7.769531,101.0994,1,0.91
2022-06-02T10:39:55.336+02:00,1654159194.631284,53.22904976599147,10.39859308999677,36.06742,-1,-1,-1,-1,3,48.00000000000001,-9999,33771.029805625,-0.09326171875,-0.2431640625,-0.982086181640625,33771.026055625,2.955607927831805,-0.07529311223199486,0.2648675358394031,-0.005949206184595823,0.04503246769309044,-0.09897584468126297,-0.02301279455423355,0.01626747846603394,-0.02417945861816406,XArbitraryZVertical,-0.0493998762209516,-0.127918932429586,-0.9857997847344637,-0.09692851795936022,-0.07259879261255264,-0.2617814242839813,-0.9623928070068359,0,0,0,-1,-1,33770.09030075,unknown,2,2022-06-02T10:39:54.392+02:00,2022-06-02T10:32:51.428+02:00,41,0.9590018,0,0,41.84445,0,0,2022-06-02T10:39:54.392+02:00,675851994.3918289,0,7.769531,101.0994,1,0.91
2022-06-02T10:39:55.346+02:00,1654159194.631284,53.22904976599147,10.39859308999677,36.06742,-1,-1,-1,-1,3,48.00000000000001,-9999,33771.039778625,-0.0954437255859375,-0.2396392822265625,-0.9797515869140625,33771.036028625,2.954673758947824,-0.07504269495558118,0.2646939321970841,0.007051014341413975,0.03683499246835709,-0.1044494435191154,-0.02033595740795135,0.02023506164550781,-0.01966041326522827,XArbitraryZVertical,-0.04932859652578624,-0.1278223816646568,-0.9857723558825703,-0.09737081739267618,-0.07236119359731674,-0.2616138756275177,-0.9624562859535217,0,0,0,-1,-1,33770.09030075,unknown,2,2022-06-02T10:39:54.392+02:00,2022-06-02T10:32:51.428+02:00,41,0.9590018,0,0,41.84445,0,0,2022-06-02T10:39:54.392+02:00,675851994.3918289,0,7.769531,101.0994,1,0.91
2022-06-02T10:39:55.356+02:00,1654159194.631284,53.22904976599147,10.39859308999677,36.06742,-1,-1,-1,-1,3,48.00000000000001,-9999,33771.049750625,-0.0953216552734375,-0.2379302978515625,-0.9732513427734375,33771.046000625,2.953734799327718,-0.07459424554983227,0.2646927367392476,0.02221225574612617,0.05437430366873741,-0.09954129904508591,-0.02476535737514496,0.02282789349555969,-0.01537054777145386,XArbitraryZVertical,-0.04916752448515736,-0.1278205602982668,-0.9857376083144735,-0.0978049191917973,-0.07192959636449814,-0.2616127133369446,-0.9624888896942139,0,0,0,-1,-1,33770.09030075,unknown,2,2022-06-02T10:39:54.392+02:00,2022-06-02T10:32:51.428+02:00,41,0.9590018,0,0,41.84445,0,0,2022-06-02T10:39:54.392+02:00,675851994.3918289,0,7.769531,101.0994,1,0.91
2022-06-02T10:39:55.366+02:00,1654159194.631284,53.22904976599147,10.39859308999677,36.06742,-1,-1,-1,-1,3,48.00000000000001,-9999,33771.059723625,-0.091705322265625,-0.2477569580078125,-0.968017578125,33771.055973625,2.952815703919987,-0.07412248433716677,0.2648567525686992,0.03087552264332771,0.06220133602619171,-0.09836311638355255,-0.02246076613664627,0.02097204327583313,-0.009092926979064941,XArbitraryZVertical,-0.04900100704596234,-0.1279020271175595,-0.98569315381869,-0.09822975121164895,-0.07147234678268433,-0.261771023273468,-0.9624799489974976,0,0,0,-1,-1,33770.09030075,unknown,2,2022-06-02T10:39:54.392+02:00,2022-06-02T10:32:51.428+02:00,41,0.9590018,0,0,41.84445,0,0,2022-06-02T10:39:54.392+02:00,675851994.3918289,0,7.769531,101.0994,1,0.91
2022-06-02T10:39:55.376+02:00,1654159194.631284,53.22904976599147,10.39859308999677,36.06742,-1,-1,-1,-1,3,48.00000000000001,-9999,33771.069696625,-0.0838775634765625,-0.2520751953125,-0.967620849609375,33771.065945625,2.951944651526013,-0.07373820509477449,0.2650639870397981,0.03003609180450439,0.06125085055828094,-0.1006298661231995,-0.01760086417198181,0.01082658767700195,-0.004480957984924316,XArbitraryZVertical,-0.04887654002745059,-0.1280018562906423,-0.9856456940569063,-0.0986369335046199,-0.07109848409891129,-0.2619710266590118,-0.9624532461166382,0,0,0,-1,-1,33770.09030075,unknown,2,2022-06-02T10:39:54.392+02:00,2022-06-02T10:32:51.428+02:00,41,0.9590018,0,0,41.84445,0,0,2022-06-02T10:39:54.392+02:00,675851994.3918289,0,7.769531,101.0994,1,0.91
2022-06-02T10:39:55.386+02:00,1654159194.631284,53.22904976599147,10.39859308999677,36.06742,-1,-1,-1,-1,3,48.00000000000001,-9999,33771.079668625,-0.084991455078125,-0.2509613037109375,-0.9713592529296875,33771.075918625,2.951059146226292,-0.0733392484228179,0.2652541073222777,0.03092585131525993,0.06014084815979004,-0.09958111494779587,-0.01276999711990356,0.01090326905250549,-0.005387365818023682,XArbitraryZVertical,-0.04874510025409875,-0.1280937470154068,-0.9855988120048217,-0.09905002702451079,-0.07071084529161453,-0.2621544897556305,-0.962431788444519,0,0,0,-1,-1,33770.09030075,unknown,2,2022-06-02T10:39:54.392+02:00,2022-06-02T10:32:51.428+02:00,41,0.9590018,0,0,41.84445,0,0,2022-06-02T10:39:54.392+02:00,675851994.3918289,0,7.769531,101.0994,1,0.91
2022-06-02T10:39:55.396+02:00,1654159194.631284,53.22904976599147,10.39859308999677,36.06742,-1,-1,-1,-1,3,48.00000000000001,-9999,33771.089641625,-0.088409423828125,-0.24859619140625,-0.977294921875,33771.085891625,2.950208253389096,-0.07298736699921246,0.2653825454271508,0.03436914458870888,0.06469689309597015,-0.1021930575370789,-0.01526259630918503,0.01282775402069092,-0.01125550270080566,XArbitraryZVertical,-0.0486319630538883,-0.1281538526182511,-0.9855564394359504,-0.09944829202013412,-0.07036972790956497,-0.2622784376144409,-0.9624230265617371,0,0,0,-1,-1,33770.09030075,unknown,2,2022-06-02T10:39:54.392+02:00,2022-06-02T10:32:51.428+02:00,41,0.9590018,0,0,41.84445,0,0,2022-06-02T10:39:54.392+02:00,675851994.3918289,0,7.769531,101.0994,1,0.91
2022-06-02T10:39:55.406+02:00,1654159194.631284,53.22904976599147,10.39859308999677,36.06742,-1,-1,-1,-1,3,48.00000000000001,-9999,33771.099614625,-0.0882110595703125,-0.2408294677734375,-0.9818115234375,33771.095863625,2.949350425640141,-0.07257085709901502,0.2654245895455421,0.03808505460619926,0.06826446205377579,-0.09696447104215622,-0.01802937686443329,0.01704922318458557,-0.01663893461227417,XArbitraryZVertical,-0.0484835833895776,-0.1281745088812802,-0.9855210147924456,-0.09984481253534598,-0.06996805965900421,-0.2623189985752106,-0.9624412655830383,0,0,0,-1,-1,33770.09030075,unknown,2,2022-06-02T10:39:54.392+02:00,2022-06-02T10:32:51.428+02:00,41,0.9590018,0,0,41.84445,0,0,2022-06-02T10:39:54.392+02:00,675851994.3918289,0,7.769531,101.0994,1,0.91
2022-06-02T10:39:55.416+02:00,1654159194.631284,53.22904976599147,10.39859308999677,36.06742,-1,-1,-1,-1,3,48.00000000000001,-9999,33771.109586625,-0.0901947021484375,-0.2408599853515625,-0.9787139892578125,33771.105836625,2.948493039669555,-0.07209494375948919,0.2654982647315654,0.05436579883098602,0.06674948334693909,-0.09659471362829208,-0.0192822739481926,0.02229303121566772,-0.01920372247695923,XArbitraryZVertical,-0.04830736797613579,-0.1282139122982282,-0.9854846159950049,-0.1002376172265747,-0.0695086196064949,-0.2623901069164276,-0.962455153465271,0,0,0,-1,-1,33770.09030075,unknown,2,2022-06-02T10:39:54.392+02:00,2022-06-02T10:32:51.428+02:00,41,0.9590018,0,0,41.84445,0,0,2022-06-02T10:39:54.392+02:00,675851994.3918289,0,7.769531,101.0994,1,0.91
2022-06-02T10:39:55.426+02:00,1654159194.631284,53.22904976599147,10.39859308999677,36.06742,-1,-1,-1,-1,3,48.00000000000001,-9999,33771.119559625,-0.0883636474609375,-0.24951171875,-0.97650146484375,33771.115808625,2.947658243697897,-0.0715542454989547,0.265652243486084,0.05714693665504456,0.07138365507125854,-0.09533557295799255,-0.02001919597387314,0.02009177207946777,-0.01522403955459595,XArbitraryZVertical,-0.0481014819481026,-0.1282968643900096,-0.9854454596194359,-0.1006160549116754,-0.06898532807826996,-0.2625387012958527,-0.9624523520469666,0,0,0,-1,-1,33770.09030075,unknown,2,2022-06-02T10:39:54.392+02:00,2022-06-02T10:32:51.428+02:00,41,0.9590018,0,0,41.84445,0,0,2022-06-02T10:39:54.392+02:00,675851994.3918289,0,7.769531,101.0994,1,0.91
2022-06-02T10:39:55.436+02:00,1654159194.631284,53.22904976599147,10.39859308999677,36.06742,-1,-1,-1,-1,3,48.00000000000001,-9999,33771.129531625,-0.084075927734375,-0.2559814453125,-0.97381591796875,33771.125781625,2.946855621122311,-0.071099315476104,0.2658069999617777,0.06062839925289154,0.07446794956922531,-0.0956316739320755,-0.01896458119153976,0.01007875800132751,-0.01262408494949341,XArbitraryZVertical,-0.04793590772622683,-0.1283768458018337,-0.9854054548662557,-0.1009840492042181,-0.06854458153247833,-0.262688010931015,-0.9624430537223816,0,0,0,-1,-1,33770.09030075,unknown,2,2022-06-02T10:39:54.392+02:00,2022-06-02T10:32:51.428+02:00,41,0.9590018,0,0,41.84445,0,0,2022-06-02T10:39:54.392+02:00,675851994.3918289,0,7.769531,101.0994,1,0.91
2022-06-02T10:39:55.446+02:00,1654159194.631284,53.22904976599147,10.39859308999677,36.06742,-1,-1,-1,-1,3,48.00000000000001,-9999,33771.139504625,-0.0788421630859375,-0.2615814208984375,-0.9742279052734375,33771.135754625,2.946048423243512,-0.07061983500098187,0.2659754518815562,0.05172252282500267,0.07202929258346558,-0.09984639286994934,-0.01471421867609024,0.006655454635620117,-0.01081967353820801,XArbitraryZVertical,-0.04775923587996844,-0.1284648621329539,-0.9853646921405225,-0.1013528154349028,-0.06807997822761536,-0.2628505527973175,-0.9624316692352295,0,0,0,-1,-1,33770.09030075,unknown,2,2022-06-02T10:39:54.392+02:00,2022-06-02T10:32:51.428+02:00,41,0.9590018,0,0,41.84445,0,0,2022-06-02T10:39:54.392+02:00,675851994.3918289,0,7.769531,101.0994,1,0.91
2022-06-02T10:39:55.456+02:00,1654159194.631284,53.22904976599147,10.39859308999677,36.06742,-1,-1,-1,-1,3,48.00000000000001,-9999,33771.149477625,-0.073822021484375,-0.2637939453125,-0.972015380859375,33771.145726625,2.945252358371754,-0.07016120533760332,0.2662925855066365,0.04821993410587311,0.05793637037277222,-0.08752314746379852,-0.008935883641242981,0.002139657735824585,-0.0117567777633667,XArbitraryZVertical,-0.04759907634389372,-0.1286255634769381,-0.9853136855346127,-0.1017189651805304,-0.06763272732496262,-0.2631565034389496,-0.9623795747756958,0,0,0,-1,-1,33770.09030075,unknown,2,2022-06-02T10:39:54.392+02:00,2022-06-02T10:32:51.428+02:00,41,0.9590018,0,0,41.84445,0,0,2022-06-02T10:39:54.392+02:00,675851994.3918289,0,7.769531,101.0994,1,0.91
2022-06-02T10:39:55.466+02:00,1654159194.631284,53.22904976599147,10.39859308999677,36.06742,-1,-1,-1,-1,3,48.00000000000001,-9999,33771.159449625,-0.0724639892578125,-0.2664031982421875,-0.9662933349609375,33771.155699625,2.944463570048964,-0.069700179587459,0.2665021637939914,0.03772974014282227,0.05780187994241714,-0.08804246783256531,-0.005553461611270905,-0.00426521897315979,-0.007645606994628906,XArbitraryZVertical,-0.04743241488512533,-0.1287336615654613,-0.9852702145430268,-0.1020801327831721,-0.06718519330024719,-0.2633587121963501,-0.9623556137084961,0,0,0,-1,-1,33770.09030075,unknown,2,2022-06-02T10:39:54.392+02:00,2022-06-02T10:32:51.428+02:00,41,0.9590018,0,0,41.84445,0,0,2022-06-02T10:39:54.392+02:00,675851994.3918289,0,7.769531,101.0994,1,0.91
2022-06-02T10:39:55.475+02:00,1654159194.631284,53.22904976599147,10.39859308999677,36.06742,-1,-1,-1,-1,3,48.00000000000001,-9999,33771.169422625,-0.0731658935546875,-0.2655487060546875,-0.962188720703125,33771.165672625,2.943751447626322,-0.06938162784688726,0.2664948175086053,0.028155367821455,0.04664581269025803,-0.08101861923933029,-0.006256617605686188,-0.0009611845016479492,-0.001091539859771729,XArbitraryZVertical,-0.04732098147173624,-0.12872945291356,-0.985241870477054,-0.1024103676118206,-0.06687876582145691,-0.2633516192436218,-0.9623789191246033,0,0,0,-1,-1,33770.09030075,unknown,2,2022-06-02T10:39:54.392+02:00,2022-06-02T10:32:51.428+02:00,41,0.9590018,0,0,41.84445,0,0,2022-06-02T10:39:54.392+02:00,675851994.3918289,0,7.769531,101.0994,1,0.91
2022-06-02T10:39:55.486+02:00,1654159194.631284,53.22904976599147,10.39859308999677,36.06742,-1,-1,-1,-1,3,48.00000000000001,-9999,33771.179395625,-0.075103759765625,-0.2603912353515625,-0.9559478759765625,33771.175644625,2.943088058538417,-0.06919135801505118,0.2663060545631233,0.03139430284500122,0.05685344338417053,-0.07633970677852631,-0.008480973541736603,-0.00359991192817688,0.002770185470581055,XArbitraryZVertical,-0.04726111643325927,-0.1286304443255827,-0.9852251797159167,-0.1027229502154443,-0.06669908761978149,-0.2631694972515106,-0.9624412059783936,0,0,0,-1,-1,33770.09030075,unknown,2,2022-06-02T10:39:54.392+02:00,2022-06-02T10:32:51.428+02:00,41,0.9590018,0,0,41.84445,0,0,2022-06-02T10:39:54.392+02:00,675851994.3918289,0,7.769531,101.0994,1,0.91
2022-06-02T10:39:55.496+02:00,1654159194.631284,53.22904976599147,10.39859308999677,36.06742,-1,-1,-1,-1,3,48.00000000000001,-9999,33771.189367625,-0.0721435546875,-0.2569122314453125,-0.960357666015625,33771.185617625,2.942496451850521,-0.06890517580091633,0.2659760455304355,0.03189866244792938,0.06239299476146698,-0.07231245189905167,-0.008353710174560547,0.004794448614120483,0.005881786346435547,XArbitraryZVertical,-0.04714269743207622,-0.1284684872633786,-0.9852238126685872,-0.1029925347530174,-0.06642962247133255,-0.2628511190414429,-0.9625468254089355,0,0,0,-1,-1,33770.09030075,unknown,2,2022-06-02T10:39:54.392+02:00,2022-06-02T10:32:51.428+02:00,41,0.9590018,0,0,41.84445,0,0,2022-06-02T10:39:54.392+02:00,675851994.3918289,0,7.769531,101.0994,1,0.91
2022-06-02T10:39:55.506+02:00,1654159194.631284,53.22904976599147,10.39859308999677,36.06742,-1,-1,-1,-1,3,48.00000000000001,-9999,33771.199340625,-0.0698394775390625,-0.25286865234375,-0.9601287841796875,33771.195590625,2.941919650047115,-0.06859340927266785,0.2658382844948408,0.04344133287668228,0.06538771837949753,-0.06800532341003418,-0.004149973392486572,0.006675690412521362,0.002078115940093994,XArbitraryZVertical,-0.04701968139754846,-0.1284030632471408,-0.985210698537503,-0.1032552172733359,-0.06613201647996902,-0.2627182006835938,-0.9626036286354065,0,0,0,-1,-1,33770.09030075,unknown,2,2022-06-02T10:39:54.392+02:00,2022-06-02T10:32:51.428+02:00,41,0.9590018,0,0,41.84445,0,0,2022-06-02T10:39:54.392+02:00,675851994.3918289,0,7.769531,101.0994,1,0.91
2022-06-02T10:39:55.516+02:00,1654159194.631284,53.22904976599147,10.39859308999677,36.06742,-1,-1,-1,-1,3,48.00000000000001,-9999,33771.209312625,-0.06146240234375,-0.2524261474609375,-0.963897705078125,33771.205562625,2.941355737478254,-0.06822909934065872,0.2660062528249196,0.0459468811750412,0.06718570739030838,-0.07388733327388763,-0.0009788945317268372,0.01249876618385315,0.0005322098731994629,XArbitraryZVertical,-0.04688436289249497,-0.1284914621588765,-0.9851788247227373,-0.1035113467642107,-0.06577831506729126,-0.262880265712738,-0.962583601474762,0,0,0,-1,-1,33770.09030075,unknown,2,2022-06-02T10:39:54.392+02:00,2022-06-02T10:32:51.428+02:00,41,0.9590018,0,0,41.84445,0,0,2022-06-02T10:39:54.392+02:00,675851994.3918289,0,7.769531,101.0994,1,0.91
2022-06-02T10:39:55.525+02:00,1654159194.631284,53.22904976599147,10.39859308999677,36.06742,-1,-1,-1,-1,3,48.00000000000001,-9999,33771.219285625,-0.0636749267578125,-0.2567291259765625,-0.9652862548828125,33771.215535625,2.940742802438569,-0.06783074512262012,0.2663834129750305,0.06279883533716202,0.05979703366756439,-0.07277306914329529,0.003788396716117859,0.007873028516769409,-0.001692116260528564,XArbitraryZVertical,-0.04674540535216874,-0.1286837228286094,-0.9851307774617616,-0.1037914494448778,-0.06538813561201096,-0.2632441520690918,-0.9625107049942017,0,0,0,-1,-1,33770.09030075,unknown,2,2022-06-02T10:39:54.392+02:00,2022-06-02T10:32:51.428+02:00,41,0.9590018,0,0,41.84445,0,0,2022-06-02T10:39:54.392+02:00,675851994.3918289,0,7.769531,101.0994,1,0.91
2022-06-02T10:39:55.535+02:00,1654159194.631284,53.22904976599147,10.39859308999677,36.06742,-1,-1,-1,-1,3,48.00000000000001,-9999,33771.229258625,-0.0558319091796875,-0.2578125,-0.9627685546875,33771.225507625,2.940074766738351,-0.06729392538323309,0.2669190172350192,0.06311468780040741,0.05663426220417023,-0.07922977209091187,0.00307910144329071,0.007230043411254883,-0.002682983875274658,XArbitraryZVertical,-0.04654946429836146,-0.1289600807593931,-0.9850723765567369,-0.1040912884315595,-0.06486193835735321,-0.2637608051300049,-0.9624049067497253,0,0,0,-1,-1,33770.09030075,unknown,2,2022-06-02T10:39:54.392+02:00,2022-06-02T10:32:51.428+02:00,41,0.9590018,0,0,41.84445,0,0,2022-06-02T10:39:54.392+02:00,675851994.3918289,0,7.769531,101.0994,1,0.91
2022-06-02T10:39:55.546+02:00,1654159194.631284,53.22904976599147,10.39859308999677,36.06742,-1,-1,-1,-1,3,48.00000000000001,-9999,33771.239230625,-0.0560302734375,-0.2718353271484375,-0.9599456787109375,33771.235480625,2.939347585423623,-0.0667555696946162,0.2676063106393571,0.05852259323000908,0.04231524467468262,-0.07576712965965271,0.009705238044261932,0.004154503345489502,0.001000642776489258,XArbitraryZVertical,-0.04636404243589626,-0.1293100731888472,-0.9850002525667382,-0.1044214070847932,-0.06433171033859253,-0.2644236981868744,-0.9622585773468018,0,0,0,-1,-1,33770.09030075,unknown,2,2022-06-02T10:39:54.392+02:00,2022-06-02T10:32:51.428+02:00,41,0.9590018,0,0,41.84445,0,0,2022-06-02T10:39:54.392+02:00,675851994.3918289,0,7.769531,101.0994,1,0.91
2022-06-02T10:39:55.556+02:00,1654159194.631284,53.22904976599147,10.39859308999677,36.06742,-1,-1,-1,-1,3,48.00000000000001,-9999,33771.249203625,-0.0607147216796875,-0.2785797119140625,-0.9537353515625,33771.245453625,2.93864224546126,-0.06639018248890634,0.2682045159755063,0.04903455078601837,0.03380298614501953,-0.07574635744094849,0.005253784358501434,-0.01185488700866699,0.005031764507293701,XArbitraryZVertical,-0.04625839021537603,-0.1296077338228368,-0.9849310336642934,-0.1047508775856778,-0.06396959722042084,-0.265000581741333,-0.9621239900588989,0,0,0,-1,-1,33770.09030075,unknown,2,2022-06-02T10:39:54.392+02:00,2022-06-02T10:32:51.428+02:00,41,0.9590018,0,0,41.84445,0,0,2022-06-02T10:39:54.392+02:00,675851994.3918289,0,7.769531,101.0994,1,0.91
2022-06-02T10:39:55.566+02:00,1654159194.631284,53.22904976599147,10.39859308999677,36.06742,-1,-1,-1,-1,3,48.00000000000001,-9999,33771.259176625,-0.0567169189453125,-0.274261474609375,-0.942779541015625,33771.255425625,2.937960399961097,-0.06607964668253785,0.2686712894631195,0.02664109505712986,0.03650982305407524,-0.07612452656030655,0.00473320484161377,-0.01228985190391541,0.01307624578475952,XArbitraryZVertical,-0.04617211810427574,-0.1298383299570156,-0.9848706829507472,-0.105070982982786,-0.06366264820098877,-0.2654506266117096,-0.9620202779769897,0,0,0,-1,-1,33770.09030075,unknown,2,2022-06-02T10:39:54.392+02:00,2022-06-02T10:32:51.428+02:00,41,0.9590018,0,0,41.84445,0,0,2022-06-02T10:39:54.392+02:00,675851994.3918289,0,7.769531,101.0994,1,0.91
2022-06-02T10:39:55.576+02:00,1654159194.631284,53.22904976599147,10.39859308999677,36.06742,-1,-1,-1,-1,3,48.00000000000001,-9999,33771.269148625,-0.0601654052734375,-0.2767333984375,-0.9386138916015625,33771.265398625,2.937288703568158,-0.06583388643873903,0.2687927754698695,0.01581454649567604,0.03337794542312622,-0.07390398532152176,0.006844505667686462,-0.008586913347244263,0.02294731140136719,XArbitraryZVertical,-0.04610057185028602,-0.1298956343096485,-0.9848327803107443,-0.1053869504558113,-0.06342409551143646,-0.2655677497386932,-0.9620037078857422,0,0,0,-1,-1,33770.09030075,unknown,2,2022-06-02T10:39:54.392+02:00,2022-06-02T10:32:51.428+02:00,41,0.9590018,0,0,41.84445,0,0,2022-06-02T10:39:54.392+02:00,675851994.3918289,0,7.769531,101.0994,1,0.91
2022-06-02T10:39:55.586+02:00,1654159194.631284,53.22904976599147,10.39859308999677,36.06742,-1,-1,-1,-1,3,48.00000000000001,-9999,33771.279121625,-0.0610198974609375,-0.2696990966796875,-0.938995361328125,33771.275370625,2.936613489734319,-0.06543129655382192,0.2687380887289381,0.004901976324617863,0.04944639280438423,-0.06899870932102203,0.0005530044436454773,-0.0112183690071106,0.0232771635055542,XArbitraryZVertical,-0.04594353677390085,-0.1298743963363652,-0.9848100932249252,-0.1056927615439296,-0.06303775310516357,-0.2655150294303894,-0.9620436429977417,0,0,0,-1,-1,33770.09030075,unknown,2,2022-06-02T10:39:54.392+02:00,2022-06-02T10:32:51.428+02:00,41,0.9590018,0,0,41.84445,0,0,2022-06-02T10:39:54.392+02:00,675851994.3918289,0,7.769531,101.0994,1,0.91
2022-06-02T10:39:55.595+02:00,1654159194.631284,53.22904976599147,10.39859308999677,36.06742,-1,-1,-1,-1,3,48.00000000000001,-9999,33771.289093625,-0.0541534423828125,-0.2626495361328125,-0.9388427734375,33771.285343625,2.935938336733563,-0.0648869595374192,0.2684740028382698,0.006082023493945599,0.03522324562072754,-0.06902214139699936,0.005923755466938019,0.0003220438957214355,0.02333551645278931,XArbitraryZVertical,-0.04570649531888898,-0.1297575706946144,-0.9848049041709831,-0.1059874644571971,-0.06251861155033112,-0.2652604281902313,-0.9621477723121643,0,0,0,-1,-1,33770.09030075,unknown,2,2022-06-02T10:39:54.392+02:00,2022-06-02T10:32:51.428+02:00,41,0.9590018,0,0,41.84445,0,0,2022-06-02T10:39:54.392+02:00,675851994.3918289,0,7.769531,101.0994,1,0.91
2022-06-02T10:39:55.605+02:00,1654159194.631284,53.22904976599147,10.39859308999677,36.06742,-1,-1,-1,-1,3,48.00000000000001,-9999,33771.299066625,-0.0570526123046875,-0.2617645263671875,-0.940460205078125,33771.295316625,2.935196091061483,-0.06427961498298625,0.2682976136708418,-0.002705875318497419,0.04084624350070953,-0.07291674613952637,0.006456289440393448,0.003447890281677246,0.02346581220626831,XArbitraryZVertical,-0.0454469799400396,-0.129685971231094,-0.9847912833457619,-0.1063119321105956,-0.06193724647164345,-0.2650903463363647,-0.962232232093811,0,0,0,-1,-1,33770.09030075,unknown,2,2022-06-02T10:39:54.392+02:00,2022-06-02T10:32:51.428+02:00,41,0.9590018,0,0,41.84445,0,0,2022-06-02T10:39:54.392+02:00,675851994.3918289,0,7.769531,101.0994,1,0.91
2022-06-02T10:39:55.617+02:00,1654159194.631284,53.22904976599147,10.39859308999677,36.06742,-1,-1,-1,-1,3,48.00000000000001,-9999,33771.309039625,-0.059844970703125,-0.262481689453125,-0.9427642822265625,33771.305288625,2.934404057524186,-0.06367728634957334,0.2680751930963027,-0.009573901072144508,0.03884727507829666,-0.07501572370529175,0.003423780202865601,0.001585453748703003,0.01997590065002441,XArbitraryZVertical,-0.04519083978552069,-0.1295904727557387,-0.9847779409239489,-0.1066609190445096,-0.0613614059984684,-0.2648758590221405,-0.9623281955718994,0,0,0,-1,-1,33770.09030075,unknown,2,2022-06-02T10:39:54.392+02:00,2022-06-02T10:32:51.428+02:00,41,0.9590018,0,0,41.84445,0,0,2022-06-02T10:39:54.392+02:00,675851994.3918289,0,7.769531,101.0994,1,0.91
2022-06-02T10:39:55.625+02:00,1654159194.631284,53.22904976599147,10.39859308999677,36.06742,-1,-1,-1,-1,3,48.00000000000001,-9999,33771.319011625,-0.05841064453125,-0.265777587890625,-0.9413299560546875,33771.315261625,2.933573571678885,-0.06292299351513156,0.267890423598536,-0.01894290186464787,0.0365082211792469,-0.07785225659608841,0.001373443752527237,0.00227704644203186,0.02072685956954956,XArbitraryZVertical,-0.0448641400127437,-0.129521005669929,-0.9847631653156182,-0.1070193845135274,-0.06063858792185783,-0.2646977007389069,-0.9624230265617371,0,0,0,-1,-1,33770.09030075,unknown,2,2022-06-02T10:39:54.392+02:00,2022-06-02T10:32:51.428+02:00,41,0.9590018,0,0,41.84445,0,0,2022-06-02T10:39:54.392+02:00,675851994.3918289,0,7.769531,101.0994,1,0.91
2022-06-02T10:39:55.635+02:00,1654159194.631284,53.22904976599147,10.39859308999677,36.06742,-1,-1,-1,-1,3,48.00000000000001,-9999,33771.328984625,-0.0648345947265625,-0.266876220703125,-0.93951416015625,33771.325234625,2.932698109873083,-0.06230651980991883,0.2679519520382155,-0.03383747488260269,0.03707458823919296,-0.08412823081016541,-0.0001058988273143768,-0.002546489238739014,0.0237385630607605,XArbitraryZVertical,-0.04462035210129518,-0.1295647830388058,-0.9847258893224123,-0.107411044394591,-0.06004425510764122,-0.2647570371627808,-0.962444007396698,0,0,0,-1,-1,33770.09030075,unknown,2,2022-06-02T10:39:54.392+02:00,2022-06-02T10:32:51.428+02:00,41,0.9590018,0,0,41.84445,0,0,2022-06-02T10:39:54.392+02:00,675851994.3918289,0,7.769531,101.0994,1,0.91
2022-06-02T10:39:55.645+02:00,1654159194.631284,53.22904976599147,10.39859308999677,36.06742,-1,-1,-1,-1,3,48.00000000000001,-9999,33771.338957625,-0.0610198974609375,-0.2553558349609375,-0.939697265625,33771.335206625,2.931733860957085,-0.0616710841610681,0.2679094446680461,-0.04090257361531258,0.03986531496047974,-0.09168814867734909,-0.005004510283470154,0.001364558935165405,0.0233757495880127,XArbitraryZVertical,-0.04436784487555887,-0.129556581644412,-0.9846910110268454,-0.107844275551942,-0.05943336337804794,-0.2647160291671753,-0.9624931812286377,0,0,0,-1,-1,33770.09030075,unknown,2,2022-06-02T10:39:54.392+02:00,2022-06-02T10:32:51.428+02:00,41,0.9590018,0,0,41.84445,0,0,2022-06-02T10:39:54.392+02:00,675851994.3918289,0,7.769531,101.0994,1,0.91
2022-06-02T10:39:55.655+02:00,1654159194.631284,53.22904976599147,10.39859308999677,36.06742,-1,-1,-1,-1,3,48.00000000000001,-9999,33771.348929625,-0.064727783203125,-0.2469940185546875,-0.9375,33771.345179625,2.930685243984831,-0.06095776020681899,0.2677996675754086,-0.03755990415811539,0.04390532895922661,-0.1033227667212486,-0.003446280956268311,0.0139082670211792,0.02501857280731201,XArbitraryZVertical,-0.04407908242886233,-0.1295178593279755,-0.9846574985154929,-0.1083134343756443,-0.05874855071306229,-0.2646101713180542,-0.9625642895698547,0,0,0,-1,-1,33770.09030075,unknown,2,2022-06-02T10:39:54.392+02:00,2022-06-02T10:32:51.428+02:00,41,0.9590018,0,0,41.84445,0,0,2022-06-02T10:39:54.392+02:00,675851994.3918289,0,7.769531,101.0994,1,0.91
2022-06-02T10:39:55.665+02:00,1654159194.631284,53.22904976599147,10.39859308999677,36.06742,-1,-1,-1,-1,3,48.00000000000001,-9999,33771.358902625,-0.07171630859375,-0.248046875,-0.9337158203125,33771.355151625,2.92954954420915,-0.06027957545022629,0.2677750990144798,-0.03498755767941475,0.04905162379145622,-0.1119769737124443,-0.008950993418693542,0.01672270894050598,0.02540034055709839,XArbitraryZVertical,-0.04381751245124277,-0.1295176169858459,-0.9846123891200576,-0.1088284379407202,-0.05809613317251205,-0.264586478471756,-0.9626104235649109,0,0,0,-1,-1,33770.09030075,unknown,2,2022-06-02T10:39:54.392+02:00,2022-06-02T10:32:51.428+02:00,41,0.9590018,0,0,41.84445,0,0,2022-06-02T10:39:54.392+02:00,675851994.3918289,0,7.769531,101.0994,1,0.91
2022-06-02T10:39:55.675+02:00,1654159194.631284,53.22904976599147,10.39859308999677,36.06742,-1,-1,-1,-1,3,48.00000000000001,-9999,33771.368874625,-0.0717620849609375,-0.2566070556640625,-0.92626953125,33771.365124625,2.928316363825497,-0.05936129970290797,0.2675545252683466,-0.03879281878471375,0.06508731096982956,-0.1181623712182045,-0.01520258560776711,0.01397702097892761,0.03027230501174927,XArbitraryZVertical,-0.04343412228275241,-0.1294321256255972,-0.9845801442477093,-0.1093744014402175,-0.05721562728285789,-0.2643737494945526,-0.962721586227417,0,0,0,-1,-1,33770.09030075,unknown,2,2022-06-02T10:39:54.392+02:00,2022-06-02T10:32:51.428+02:00,41,0.9590018,0,0,41.84445,0,0,2022-06-02T10:39:54.392+02:00,675851994.3918289,0,7.769531,101.0994,1,0.91
2022-06-02T10:39:55.685+02:00,1654159194.631284,53.22904976599147,10.39859308999677,36.06742,-1,-1,-1,-1,3,48.00000000000001,-9999,33771.378847625,-0.0709381103515625,-0.2651519775390625,-0.9177398681640625,33771.375097625,2.92703487473561,-0.05831259447060196,0.2671890474564914,-0.05905760824680328,0.07496391236782074,-0.1245068237185478,-0.01501642167568207,0.003965705633163452,0.03991913795471191,XArbitraryZVertical,-0.04298213131223905,-0.1292818563472223,-0.9845573826469211,-0.1099347532931882,-0.05621161311864853,-0.2640212774276733,-0.9628774523735046,0,0,0,-1,-1,33770.09030075,unknown,2,2022-06-02T10:39:54.392+02:00,2022-06-02T10:32:51.428+02:00,41,0.9590018,0,0,41.84445,0,0,2022-06-02T10:39:54.392+02:00,675851994.3918289,0,7.769531,101.0994,1,0.91
2022-06-02T10:39:55.695+02:00,1654159194.631284,53.22904976599147,10.39859308999677,36.06742,-1,-1,-1,-1,3,48.00000000000001,-9999,33771.388819625,-0.078887939453125,-0.2708892822265625,-0.907135009765625,33771.385069625,2.925734541716316,-0.05715342661340014,0.2665960411459645,-0.0875052735209465,0.09416495263576508,-0.1225833222270012,-0.01792420074343681,-0.004357784986495972,0.04905092716217041,XArbitraryZVertical,-0.04246505566422336,-0.1290257861019577,-0.984550629507154,-0.1104958329184237,-0.05510437116026878,-0.2634492516517639,-0.9630981087684631,0,0,0,-1,-1,33770.09030075,unknown,2,2022-06-02T10:39:54.392+02:00,2022-06-02T10:32:51.428+02:00,41,0.9590018,0,0,41.84445,0,0,2022-06-02T10:39:54.392+02:00,675851994.3918289,0,7.769531,101.0994,1,0.91
2022-06-02T10:39:55.705+02:00,1654159194.631284,53.22904976599147,10.39859308999677,36.06742,-1,-1,-1,-1,3,48.00000000000001,-9999,33771.398791625,-0.082794189453125,-0.2787628173828125,-0.8956146240234375,33771.395041625,2.924403761734851,-0.05591607225386615,0.2656061343802884,-0.133966252207756,0.103476956486702,-0.1254608780145645,-0.02650190144777298,-0.01176732778549194,0.06099021434783936,XArbitraryZVertical,-0.041890494073187,-0.1285785534591699,-0.984569708092603,-0.1110645536583643,-0.05392718315124512,-0.2624942064285278,-0.9634254574775696,0,0,0,-1,-1,33770.09030075,unknown,2,2022-06-02T10:39:54.392+02:00,2022-06-02T10:32:51.428+02:00,41,0.9590018,0,0,41.84445,0,0,2022-06-02T10:39:54.392+02:00,675851994.3918289,0,7.769531,101.0994,1,0.91
2022-06-02T10:39:55.715+02:00,1654159194.631284,53.22904976599147,10.39859308999677,36.06742,-1,-1,-1,-1,3,48.00000000000001,-9999,33771.408764625,-0.0885162353515625,-0.283172607421875,-0.890869140625,33771.405014625,2.922987967437656,-0.05455306112100174,0.2641361836127074,-0.1921442896127701,0.1104606539011002,-0.1351205855607986,-0.03195977583527565,-0.02098321914672852,0.07159411907196045,XArbitraryZVertical,-0.04123374663392845,-0.1279007940411608,-0.9846178134071373,-0.1116646951609014,-0.05263495817780495,-0.261075496673584,-0.9638823270797729,0,0,0,-1,-1,33770.09030075,unknown,2,2022-06-02T10:39:54.392+02:00,2022-06-02T10:32:51.428+02:00,41,0.9590018,0,0,41.84445,0,0,2022-06-02T10:39:54.392+02:00,675851994.3918289,0,7.769531,101.0994,1,0.91
2022-06-02T10:39:55.725+02:00,1654159194.631284,53.22904976599147,10.39859308999677,36.06742,-1,-1,-1,-1,3,48.00000000000001,-9999,33771.418737625,-0.0988616943359375,-0.281768798828125,-0.886962890625,33771.414986625,2.921402986915095,-0.05307686157018197,0.2620616784430615,-0.2489692270755768,0.1174099072813988,-0.1519032865762711,-0.04113607481122017,-0.02416127920150757,0.07475775480270386,XArbitraryZVertical,-0.04049904987833661,-0.1269289411717992,-0.9846973964180985,-0.1123383601225117,-0.05124063789844513,-0.2590723931789398,-0.9644977450370789,0,0,0,-1,-1,33770.09030075,unknown,2,2022-06-02T10:39:54.392+02:00,2022-06-02T10:32:51.428+02:00,41,0.9590018,0,0,41.84445,0,0,2022-06-02T10:39:54.392+02:00,675851994.3918289,0,7.769531,101.0994,1,0.91
2022-06-02T10:39:55.735+02:00,1654159194.631284,53.22904976599147,10.39859308999677,36.06742,-1,-1,-1,-1,3,48.00000000000001,-9999,33771.428709625,-0.0975799560546875,-0.2734375,-0.8871002197265625,33771.424959625,2.919699110842968,-0.05136537038433181,0.2594149291447271,-0.300313800573349,0.1471245735883713,-0.1557963341474533,-0.05143409967422485,-0.02194258570671082,0.07863825559616089,XArbitraryZVertical,-0.03962374756664408,-0.1256870703919613,-0.9848103097841707,-0.1130541203960245,-0.04962486773729324,-0.2565151154994965,-0.9652654528617859,0,0,0,-1,-1,33770.09030075,unknown,2,2022-06-02T10:39:54.392+02:00,2022-06-02T10:32:51.428+02:00,41,0.9590018,0,0,41.84445,0,0,2022-06-02T10:39:54.392+02:00,675851994.3918289,0,7.769531,101.0994,1,0.91
2022-06-02T10:39:55.745+02:00,1654159194.631284,53.22904976599147,10.39859308999677,36.06742,-1,-1,-1,-1,3,48.00000000000001,-9999,33771.438682625,-0.0709228515625,-0.263916015625,-0.902557373046875,33771.434931625,2.917839840301572,-0.04944080492371464,0.2562623274072988,-0.3471830487251282,0.1593213081359863,-0.1763242483139038,-0.04171653091907501,-0.01817026734352112,0.07393491268157959,XArbitraryZVertical,-0.03862349834549146,-0.124206252188355,-0.9849482776130021,-0.1138328645731082,-0.04780678823590279,-0.2534667253494263,-0.9661620855331421,0,0,0,-1,-1,33770.09030075,unknown,2,2022-06-02T10:39:54.392+02:00,2022-06-02T10:32:51.428+02:00,41,0.9590018,0,0,41.84445,0,0,2022-06-02T10:39:54.392+02:00,675851994.3918289,0,7.769531,101.0994,1,0.91
2022-06-02T10:39:55.755+02:00,1654159194.631284,53.22904976599147,10.39859308999677,36.06742,-1,-1,-1,-1,3,48.00000000000001,-9999,33771.448654625,-0.0495758056640625,-0.2526092529296875,-0.9084014892578125,33771.444904625,2.915757385341624,-0.04753618759895632,0.2527365212277391,-0.3809785842895508,0.1337482184171677,-0.1982597559690475,-0.01519429311156273,-0.008627802133560181,0.06097960472106934,XArbitraryZVertical,-0.03762323035294031,-0.1225376725042368,-0.9850925903731835,-0.114723968083503,-0.04600871354341507,-0.2500544786453247,-0.9671380519866943,0,0,0,-1,-1,33770.09030075,unknown,2,2022-06-02T10:39:54.392+02:00,2022-06-02T10:32:51.428+02:00,41,0.9590018,0,0,41.84445,0,0,2022-06-02T10:39:54.392+02:00,675851994.3918289,0,7.769531,101.0994,1,0.91
2022-06-02T10:39:55.765+02:00,1654159194.631284,53.22904976599147,10.39859308999677,36.06742,-1,-1,-1,-1,3,48.00000000000001,-9999,33771.458627625,-0.054168701171875,-0.237945556640625,-0.9188690185546875,33771.454877625,2.913463394537339,-0.0458834705600092,0.2490614436308207,-0.3911752998828888,0.114433117210865,-0.2143447250127792,-0.004284478724002838,-0.0005606114864349365,0.05574017763137817,XArbitraryZVertical,-0.0367476064473727,-0.1207787557128834,-0.9852243637352162,-0.1157371434264631,-0.04445209726691246,-0.246494472026825,-0.9681242108345032,0,0,0,-1,-1,33770.09030075,unknown,2,2022-06-02T10:39:54.392+02:00,2022-06-02T10:32:51.428+02:00,41,0.9590018,0,0,41.84445,0,0,2022-06-02T10:39:54.392+02:00,675851994.3918289,0,7.769531,101.0994,1,0.91
2022-06-02T10:39:55.775+02:00,1654159194.631284,53.22904976599147,10.39859308999677,36.06742,-1,-1,-1,-1,3,48.00000000000001,-9999,33771.468600625,-0.0629730224609375,-0.223236083984375,-0.92254638671875,33771.464849625,2.911027407900849,-0.04419855273326998,0.2454821272977482,-0.3651774525642395,0.1149496808648109,-0.2277137041091919,-0.01661922782659531,0.01134981215000153,0.04899853467941284,XArbitraryZVertical,-0.03586538861261523,-0.1190680452802405,-0.9853370631622224,-0.1168216835928648,-0.04285953566431999,-0.2430240213871002,-0.9690729379653931,0,0,0,-1,-1,33770.09030075,unknown,2,2022-06-02T10:39:54.392+02:00,2022-06-02T10:32:51.428+02:00,41,0.9590018,0,0,41.84445,0,0,2022-06-02T10:39:54.392+02:00,675851994.3918289,0,7.769531,101.0994,1,0.91
2022-06-02T10:39:55.785+02:00,1654159194.631284,53.22904976599147,10.39859308999677,36.06742,-1,-1,-1,-1,3,48.00000000000001,-9999,33771.478572625,-0.0623779296875,-0.2319183349609375,-0.915130615234375,33771.474822625,2.908475861731314,-0.0424911197202126,0.2421218357710492,-0.3667537569999695,0.1206488460302353,-0.24614118039608,-0.02133699879050255,0.01832753419876099,0.04876679182052612,XArbitraryZVertical,-0.03498659189397129,-0.1174664582349293,-0.9854246310516647,-0.1179655758070241,-0.04123930260539055,-0.2397631108760834,-0.9699551463127136,0,0,0,-1,-1,33770.09030075,unknown,2,2022-06-02T10:39:54.392+02:00,2022-06-02T10:32:51.428+02:00,41,0.9590018,0,0,41.84445,0,0,2022-06-02T10:39:54.392+02:00,675851994.3918289,0,7.769531,101.0994,1,0.91
2022-06-02T10:39:55.795+02:00,1654159194.631284,53.22904976599147,10.39859308999677,36.06742,-1,-1,-1,-1,3,48.00000000000001,-9999,33771.488545625,-0.070587158203125,-0.244964599609375,-0.9034271240234375,33771.484795625,2.905707899141784,-0.04056318779791631,0.2386547595753963,-0.3643808960914612,0.1303691118955612,-0.2593825459480286,-0.02465371042490005,-0.002038136124610901,0.05919075012207031,XArbitraryZVertical,-0.03400107155556752,-0.1158236794820753,-0.9855043375643076,-0.1192058252039228,-0.03940269351005554,-0.2363957315683365,-0.9708576202392578,0,0,0,-1,-1,33770.09030075,unknown,2,2022-06-02T10:39:54.392+02:00,2022-06-02T10:32:51.428+02:00,41,0.9590018,0,0,41.84445,0,0,2022-06-02T10:39:54.392+02:00,675851994.3918289,0,7.769531,101.0994,1,0.91
2022-06-02T10:39:55.805+02:00,1654159194.631284,53.22904976599147,10.39859308999677,36.06742,-1,-1,-1,-1,3,48.00000000000001,-9999,33771.49851862501,-0.0806121826171875,-0.266204833984375,-0.882843017578125,33771.494767625,2.902803519406845,-0.03851289483902063,0.2349685721115696,-0.4139828085899353,0.1388454139232635,-0.2833288908004761,-0.03706330060958862,-0.01688240468502045,0.07581973075866699,XArbitraryZVertical,-0.03294531531436701,-0.1140804714340095,-0.9855850131417613,-0.1205090219115098,-0.03744536638259888,-0.2328124195337296,-0.9718005061149597,0,0,0,-1,-1,33770.09030075,unknown,2,2022-06-02T10:39:54.392+02:00,2022-06-02T10:32:51.428+02:00,41,0.9590018,0,0,41.84445,0,0,2022-06-02T10:39:54.392+02:00,675851994.3918289,0,7.769531,101.0994,1,0.91
2022-06-02T10:39:55.815+02:00,1654159194.631284,53.22904976599147,10.39859308999677,36.06742,-1,-1,-1,-1,3,48.00000000000001,-9999,33771.508490625,-0.09185791015625,-0.29168701171875,-0.869140625,33771.504740625,2.899617281962742,-0.03642024103007076,0.2305917615929809,-0.4941155016422272,0.1344292759895325,-0.3021188080310822,-0.04966512322425842,-0.04895795881748199,0.09555113315582275,XArbitraryZVertical,-0.03183825676687343,-0.1119975987920028,-0.9856829419253972,-0.1219510334188687,-0.03544840589165688,-0.2285536676645279,-0.9728857278823853,0,0,0,-1,-1,33770.09030075,unknown,2,2022-06-02T10:39:54.392+02:00,2022-06-02T10:32:51.428+02:00,41,0.9590018,0,0,41.84445,0,0,2022-06-02T10:39:54.392+02:00,675851994.3918289,0,7.769531,101.0994,1,0.91
2022-06-02T10:39:55.829+02:00,1654159194.631284,53.22904976599147,10.39859308999677,36.06742,-1,-1,-1,-1,3,48.00000000000001,-9999,33771.51846362501,-0.1063385009765625,-0.3052520751953125,-0.8560791015625,33771.514712625,2.896299005509913,-0.03422607750029281,0.2253384903457029,-0.5919432640075684,0.1577756106853485,-0.3144034445285797,-0.06352377682924271,-0.07513244450092316,0.1116446256637573,XArbitraryZVertical,-0.03062872655322253,-0.1094899097240352,-0.985815655652306,-0.1234555645251183,-0.03335427865386009,-0.2234363108873367,-0.9741476774215698,0,0,0,-1,-1,33770.09030075,unknown,2,2022-06-02T10:39:54.392+02:00,2022-06-02T10:32:51.428+02:00,41,0.9590018,0,0,41.84445,0,0,2022-06-02T10:39:54.392+02:00,675851994.3918289,0,7.769531,101.0994,1,0.91
2022-06-02T10:39:55.846+02:00,1654159194.631284,53.22904976599147,10.39859308999677,36.06742,-1,-1,-1,-1,3,48.00000000000001,-9999,33771.528435625,-0.1303558349609375,-0.30828857421875,-0.852508544921875,33771.524685625,2.892748622046596,-0.03159845914952448,0.2192419242755385,-0.6647107601165771,0.2218114137649536,-0.3381197452545166,-0.08314621448516846,-0.08908987045288086,0.1207780241966248,XArbitraryZVertical,-0.02915751968369128,-0.1065934278170495,-0.9859759554334994,-0.1250559493619164,-0.03083694167435169,-0.2174897491931915,-0.9755753874778748,0,0,0,-1,-1,33770.09030075,unknown,2,2022-06-02T10:39:54.392+02:00,2022-06-02T10:32:51.428+02:00,41,0.9590018,0,0,41.84445,0,0,2022-06-02T10:39:54.392+02:00,675851994.3918289,0,7.769531,101.0994,1,0.91
2022-06-02T10:39:55.848+02:00,1654159194.631284,53.22904976599147,10.39859308999677,36.06742,-1,-1,-1,-1,3,48.00000000000001,-9999,33771.53840862501,-0.156982421875,-0.3310699462890625,-0.8443756103515625,33771.534658625,2.889006018321657,-0.02824083575693207,0.2123369611155847,-0.7586649656295776,0.2870615422725677,-0.3553850650787354,-0.1140902116894722,-0.1035250872373581,0.1264891028404236,XArbitraryZVertical,-0.02727493661233298,-0.1033461793682079,-0.9861630225573101,-0.1267205055431152,-0.0276029072701931,-0.2107449471950531,-0.9771512746810913,0,0,0,-1,-1,33770.09030075,unknown,2,2022-06-02T10:39:54.392+02:00,2022-06-02T10:32:51.428+02:00,41,0.9590018,0,0,41.84445,0,0,2022-06-02T10:39:54.392+02:00,675851994.3918289,0,7.769531,101.0994,1,0.91
2022-06-02T10:39:55.856+02:00,1654159194.631284,53.22904976599147,10.39859308999677,36.06742,-1,-1,-1,-1,3,48.00000000000001,-9999,33771.54838162501,-0.1699981689453125,-0.3554534912109375,-0.8394317626953125,33771.544630625,2.885068564707466,-0.02443175411326323,0.2041624489402552,-0.9085086584091187,0.3124041557312012,-0.3775011897087097,-0.1387367397546768,-0.1390040367841721,0.1362112760543823,XArbitraryZVertical,-0.02508580012229941,-0.09950504342420177,-0.9863898766358717,-0.1284698910948885,-0.02392195351421833,-0.2027470767498016,-0.97893887758255,0,0,0,-1,-1,33770.09030075,unknown,2,2022-06-02T10:39:54.392+02:00,2022-06-02T10:32:51.428+02:00,41,0.9590018,0,0,41.84445,0,0,2022-06-02T10:39:54.392+02:00,675851994.3918289,0,7.769531,101.0994,1,0.91
2022-06-02T10:39:55.865+02:00,1654159194.631284,53.22904976599147,10.39859308999677,36.06742,-1,-1,-1,-1,3,48.00000000000001,-9999,33771.55835362501,-0.189849853515625,-0.3589019775390625,-0.843414306640625,33771.554603625,2.880843711725089,-0.02041712354216141,0.1943340593587589,-1.098715543746948,0.3283575773239136,-0.4087443351745605,-0.155765101313591,-0.1641866564750671,0.1433407664299011,XArbitraryZVertical,-0.02268572175324094,-0.09486497425549711,-0.9866561197941931,-0.1303674132301934,-0.02003140933811665,-0.1931131780147552,-0.9809719920158386,0,0,0,-1,-1,33770.09030075,unknown,2,2022-06-02T10:39:54.392+02:00,2022-06-02T10:32:51.428+02:00,41,0.9590018,0,0,41.84445,0,0,2022-06-02T10:39:54.392+02:00,675851994.3918289,0,7.769531,101.0994,1,0.91
2022-06-02T10:39:55.875+02:00,1654159194.631284,53.22904976599147,10.39859308999677,36.06742,-1,-1,-1,-1,3,48.00000000000001,-9999,33771.56832662501,-0.2121124267578125,-0.3534393310546875,-0.8485260009765625,33771.564576625,2.876257690932209,-0.01609491766071442,0.1826185639840138,-1.269832611083984,0.3694805800914764,-0.4569033086299896,-0.1842619031667709,-0.1786090433597565,0.1363966464996338,XArbitraryZVertical,-0.02000452876208465,-0.08931820549022791,-0.9869543757456033,-0.1324506797508308,-0.01582659967243671,-0.1816052198410034,-0.9832441806793213,0,0,0,-1,-1,33770.09030075,unknown,2,2022-06-02T10:39:54.392+02:00,2022-06-02T10:32:51.428+02:00,41,0.9590018,0,0,41.84445,0,0,2022-06-02T10:39:54.392+02:00,675851994.3918289,0,7.769531,101.0994,1,0.91
2022-06-02T10:39:55.885+02:00,1654159195.631285,53.22902755206121,10.39853781999526,29.18989,0.6552547,0.6189301,-1,-1,3,32,-9999,33771.57829962501,-0.209503173828125,-0.3305206298828125,-0.848114013671875,33771.574548625,2.871146339545156,-0.01127948285096564,0.1692829222357991,-1.423752069473267,0.4207085967063904,-0.5120027661323547,-0.202108308672905,-0.1751981675624847,0.1402146816253662,XArbitraryZVertical,-0.01696505856283193,-0.08300977418686338,-0.9872440689008057,-0.1347991296099051,-0.01111801620572805,-0.1684755682945251,-0.9856431484222412,0,0,0,-1,-1,33770.09030075,unknown,2,2022-06-02T10:39:54.392+02:00,2022-06-02T10:32:51.428+02:00,41,0.9590018,0,0,41.84445,0,0,2022-06-02T10:39:54.392+02:00,675851994.3918289,0,7.769531,101.0994,1,0.91
2022-06-02T10:39:55.895+02:00,1654159195.631285,53.22902755206121,10.39853781999526,29.18989,0.6552547,0.6189301,-1,-1,3,32,-9999,33771.58827162501,-0.197021484375,-0.3405609130859375,-0.849365234375,33771.584521625,2.865653767066745,-0.005893284906323844,0.1545227804107763,-1.552123188972473,0.471912145614624,-0.5471468567848206,-0.1991177648305893,-0.1762916296720505,0.1345980763435364,XArbitraryZVertical,-0.01352524015799587,-0.07604670423509892,-0.9875069204714553,-0.1373465390342151,-0.005823033396154642,-0.1539085805416107,-0.9880679249763489,0,0,0,-1,-1,33770.09030075,unknown,2,2022-06-02T10:39:54.392+02:00,2022-06-02T10:32:51.428+02:00,41,0.9590018,0,0,41.84445,0,0,2022-06-02T10:39:54.392+02:00,675851994.3918289,0,7.769531,101.0994,1,0.91
2022-06-02T10:39:55.905+02:00,1654159195.631285,53.22902755206121,10.39853781999526,29.18989,0.6552547,0.6189301,-1,-1,3,32,-9999,33771.59824462501,-0.1885223388671875,-0.3671875,-0.8321380615234375,33771.594493625,2.859869653324954,-0.0001973601020083982,0.138283164647089,-1.707981824874878,0.5055582523345947,-0.5940105319023132,-0.1938505470752716,-0.2133992165327072,0.1494964361190796,XArbitraryZVertical,-0.009796947992682152,-0.06838840806220013,-0.9877288328064664,-0.140067450256899,-0.0001954761246452108,-0.1378428786993027,-0.9904540777206421,0,0,0,-1,-1,33770.09030075,unknown,2,2022-06-02T10:39:54.392+02:00,2022-06-02T10:32:51.428+02:00,41,0.9590018,0,0,41.84445,0,0,2022-06-02T10:39:54.392+02:00,675851994.3918289,0,7.769531,101.0994,1,0.91
2022-06-02T10:39:55.915+02:00,1654159195.631285,53.22902755206121,10.39853781999526,29.18989,0.6552547,0.6189301,-1,-1,3,32,-9999,33771.60821662501,-0.1709442138671875,-0.3823394775390625,-0.815765380859375,33771.604466625,2.853801170604986,0.005744339595703296,0.1205605357497118,-1.849277257919312,0.5249119997024536,-0.6191049814224243,-0.1886402368545532,-0.2529307901859283,0.1679569482803345,XArbitraryZVertical,-0.005801582303940093,-0.06003201219306702,-0.9878880840754021,-0.1429673907807862,0.005702612455934286,-0.1202686950564384,-0.9927250146865845,0,0,0,-1,-1,33770.09030075,unknown,2,2022-06-02T10:39:54.392+02:00,2022-06-02T10:32:51.428+02:00,41,0.9590018,0,0,41.84445,0,0,2022-06-02T10:39:54.392+02:00,675851994.3918289,0,7.769531,101.0994,1,0.91
2022-06-02T10:39:55.925+02:00,1654159195.631285,53.22902755206121,10.39853781999526,29.18989,0.6552547,0.6189301,-1,-1,3,32,-9999,33771.61818962501,-0.161285400390625,-0.40179443359375,-0.8166961669921875,33771.614439625,2.847696910843017,0.01174074443931206,0.1013555122425916,-2.003681898117065,0.5400653481483459,-0.6327446103096008,-0.1768260896205902,-0.2877187132835388,0.1804683208465576,XArbitraryZVertical,-0.001617296019711343,-0.05096769223346446,-0.9879790563417228,-0.1459349075317561,0.01168022211641073,-0.1011820659041405,-0.9947993755340576,0,0,0,-1,-1,33770.09030075,unknown,2,2022-06-02T10:39:54.392+02:00,2022-06-02T10:32:51.428+02:00,41,0.9590018,0,0,41.84445,0,0,2022-06-02T10:39:54.392+02:00,675851994.3918289,0,7.769531,101.0994,1,0.91
2022-06-02T10:39:55.935+02:00,1654159195.631285,53.22902755206121,10.39853781999526,29.18989,0.6552547,0.6189301,-1,-1,3,32,-9999,33771.62816262501,-0.1499481201171875,-0.4138946533203125,-0.85296630859375,33771.624411625,2.841594488944563,0.01774989517426104,0.08037904501107214,-2.202832221984863,0.5434980988502502,-0.6494686603546143,-0.1769476383924484,-0.3286277949810028,0.1687334775924683,XArbitraryZVertical,0.002764133452642182,-0.04105113949581736,-0.9879872051957694,-0.1489581169300229,0.01769165694713593,-0.08029252290725708,-0.9966143369674683,0,0,0,-1,-1,33770.09030075,unknown,2,2022-06-02T10:39:54.392+02:00,2022-06-02T10:32:51.428+02:00,41,0.9590018,0,0,41.84445,0,0,2022-06-02T10:39:54.392+02:00,675851994.3918289,0,7.769531,101.0994,1,0.91
2022-06-02T10:39:55.945+02:00,1654159195.631285,53.22902755206121,10.39853781999526,29.18989,0.6552547,0.6189301,-1,-1,3,32,-9999,33771.63813462501,-0.1395111083984375,-0.3957977294921875,-0.9062042236328125,33771.634384625,2.835493670077163,0.02351227584980446,0.05721995959271658,-2.414908170700073,0.5271961092948914,-0.6665997505187988,-0.1684759110212326,-0.3531658947467804,0.125162661075592,XArbitraryZVertical,0.007252923961995663,-0.0300612209381645,-0.9878892976026398,-0.1520473941289594,0.02347163297235966,-0.0571887418627739,-0.998087465763092,0,0,0,-1,-1,33770.09030075,unknown,2,2022-06-02T10:39:54.392+02:00,2022-06-02T10:32:51.428+02:00,41,0.9590018,0,0,41.84445,0,0,2022-06-02T10:39:54.392+02:00,675851994.3918289,0,7.769531,101.0994,1,0.91
2022-06-02T10:39:55.955+02:00,1654159195.631285,53.22902755206121,10.39853781999526,29.18989,0.6552547,0.6189301,-1,-1,3,32,-9999,33771.64810762501,-0.144287109375,-0.3601531982421875,-0.9782257080078125,33771.644357625,2.829340128418129,0.02889929742157564,0.03202207071434501,-2.608735799789429,0.5012885332107544,-0.7043652534484863,-0.1679795831441879,-0.3511773943901062,0.06893998384475708,XArbitraryZVertical,0.01178233806416917,-0.01806041645568712,-0.987643276137308,-0.1552280786668541,0.02888046205043793,-0.03201659768819809,-0.9990699887275696,0,0,0,-1,-1,33770.09030075,unknown,2,2022-06-02T10:39:54.392+02:00,2022-06-02T10:32:51.428+02:00,41,0.9590018,0,0,41.84445,0,0,2022-06-02T10:39:54.392+02:00,675851994.3918289,0,7.769531,101.0994,1,0.91
2022-06-02T10:39:55.965+02:00,1654159195.631285,53.22902755206121,10.39853781999526,29.18989,0.6552547,0.6189301,-1,-1,3,32,-9999,33771.658080625,-0.1636199951171875,-0.31304931640625,-1.079498291015625,33771.654329625,2.822876654119145,0.03410252912454929,0.00488765067062732,-2.799893856048584,0.5335098505020142,-0.7560873031616211,-0.184425100684166,-0.3381604850292206,-0.01173228025436401,XArbitraryZVertical,0.01644660754167427,-0.005118137397884082,-0.9871895219367384,-0.1586197031352048,0.03409551084041595,-0.00488763116300106,-0.999406635761261,0,0,0,-1,-1,33770.09030075,unknown,2,2022-06-02T10:39:54.392+02:00,2022-06-02T10:32:51.428+02:00,41,0.9590018,0,0,41.84445,0,0,2022-06-02T10:39:54.392+02:00,675851994.3918289,0,7.769531,101.0994,1,0.91
2022-06-02T10:39:55.975+02:00,1654159195.631285,53.22902755206121,10.39853781999526,29.18989,0.6552547,0.6189301,-1,-1,3,32,-9999,33771.66805262501,-0.175262451171875,-0.245941162109375,-1.181198120117188,33771.664302625,2.816333842502559,0.03986449673979812,-0.02438581314563571,-3.030306816101074,0.6280916929244995,-0.7791619300842285,-0.2108320891857147,-0.3154753446578979,-0.1245046257972717,XArbitraryZVertical,0.02164023184790072,0.008802486446916075,-0.9864962619088038,-0.1621090847376522,0.03984208777546883,0.02438339591026306,-0.9989084601402283,0,0,0,-1,-1,33770.09030075,unknown,2,2022-06-02T10:39:54.392+02:00,2022-06-02T10:32:51.428+02:00,41,0.9590018,0,0,41.84445,0,0,2022-06-02T10:39:54.392+02:00,675851994.3918289,0,7.769531,101.0994,1,0.91
2022-06-02T10:39:55.984+02:00,1654159195.631285,53.22902755206121,10.39853781999526,29.18989,0.6552547,0.6189301,-1,-1,3,32,-9999,33771.678025625,-0.1632843017578125,-0.1217803955078125,-1.27606201171875,33771.674274625,2.809700825352302,0.0459940913622512,-0.05581199304064228,-3.190665721893311,0.6611465811729431,-0.8242718577384949,-0.2176592200994492,-0.2626159191131592,-0.2182502150535583,XArbitraryZVertical,0.02727813957855457,0.02371482960389534,-0.9855118808948046,-0.1657101530713294,0.04590628668665886,0.05578302219510078,-0.9973869919776917,0,0,0,-1,-1,33770.09030075,unknown,2,2022-06-02T10:39:54.392+02:00,2022-06-02T10:32:51.428+02:00,41,0.9590018,0,0,41.84445,0,0,2022-06-02T10:39:54.392+02:00,675851994.3918289,0,7.769531,101.0994,1,0.91
2022-06-02T10:39:55.994+02:00,1654159195.631285,53.22902755206121,10.39853781999526,29.18989,0.6552547,0.6189301,-1,-1,3,32,-9999,33771.68799762501,-0.1363525390625,0.0195159912109375,-1.38287353515625,33771.684247625,2.802805668341191,0.05249002045833181,-0.08786739068682595,-3.146028280258179,0.7535207867622375,-0.8721675276756287,-0.2067434936761856,-0.1544658094644547,-0.3197439908981323,XArbitraryZVertical,0.03324305166290592,0.03885631605298332,-0.9842026565515984,-0.1694999228305387,0.05226351320743561,0.08775436878204346,-0.9947701692581177,0,0,0,-1,-1,33770.09030075,unknown,2,2022-06-02T10:39:54.392+02:00,2022-06-02T10:32:51.428+02:00,41,0.9590018,0,0,41.84445,0,0,2022-06-02T10:39:54.392+02:00,675851994.3918289,0,7.769531,101.0994,1,0.91
2022-06-02T10:39:56.004+02:00,1654159195.631285,53.22902755206121,10.39853781999526,29.18989,0.6552547,0.6189301,-1,-1,3,32,-9999,33771.697970625,-0.090240478515625,0.1153564453125,-1.445785522460938,33771.694220625,2.795550574067643,0.05984503717401642,-0.1187519552560331,-2.940234899520874,0.8596133589744568,-0.9279114603996277,-0.1813363432884216,-0.05469131469726562,-0.4230048656463623,XArbitraryZVertical,0.0396309499359425,0.05328732617323576,-0.9825874437725851,-0.173527629040045,0.05938810110092163,0.118473045527935,-0.9911797046661377,0,0,0,-1,-1,33770.09030075,unknown,2,2022-06-02T10:39:54.392+02:00,2022-06-02T10:32:51.428+02:00,41,0.9590018,0,0,41.84445,0,0,2022-06-02T10:39:54.392+02:00,675851994.3918289,0,7.769531,101.0994,1,0.91
2022-06-02T10:39:56.014+02:00,1654159195.631285,53.22902755206121,10.39853781999526,29.18989,0.6552547,0.6189301,-1,-1,3,32,-9999,33771.707943625,-0.032958984375,0.166107177734375,-1.47711181640625,33771.704192625,2.78775660908091,0.06768161537209323,-0.1467714348328452,-2.564692497253418,0.9240157008171082,-0.9709726572036743,-0.1352164149284363,-0.008137747645378113,-0.4746406674385071,XArbitraryZVertical,0.04611323118057121,0.06619537364035136,-0.980742601205279,-0.1778643681216364,0.06690282374620438,0.1462450474500656,-0.9869834780693054,0,0,0,-1,-1,33770.09030075,unknown,2,2022-06-02T10:39:54.392+02:00,2022-06-02T10:32:51.428+02:00,41,0.9590018,0,0,41.84445,0,0,2022-06-02T10:39:54.392+02:00,675851994.3918289,0,7.769531,101.0994,1,0.91
2022-06-02T10:39:56.024+02:00,1654159195.631285,53.22902755206121,10.39853781999526,29.18989,0.6552547,0.6189301,-1,-1,3,32,-9999,33771.717915625,0.0230712890625,0.19525146484375,-1.504852294921875,33771.714165625,2.779765739739693,0.07603164964921459,-0.1706329190090085,-2.113518714904785,1.007398366928101,-0.944394588470459,-0.08651302754878998,0.008279204368591309,-0.5035298466682434,XArbitraryZVertical,0.05257154972471295,0.07694813637565939,-0.9788110049375514,-0.182330035787039,0.07485531270503998,0.169806107878685,-0.9826304316520691,0,0,0,-1,-1,33770.09030075,unknown,2,2022-06-02T10:39:54.392+02:00,2022-06-02T10:32:51.428+02:00,41,0.9590018,0,0,41.84445,0,0,2022-06-02T10:39:54.392+02:00,675851994.3918289,0,7.769531,101.0994,1,0.91
2022-06-02T10:39:56.034+02:00,1654159195.631285,53.22902755206121,10.39853781999526,29.18989,0.6552547,0.6189301,-1,-1,3,32,-9999,33771.727888625,0.065582275390625,0.2088165283203125,-1.518768310546875,33771.724138625,2.771863144558517,0.08493538221601987,-0.1901374681733478,-1.679572463035583,1.059630274772644,-0.9289389848709106,-0.04161743819713593,0.011476069688797,-0.5318002700805664,XArbitraryZVertical,0.05897598057974739,0.0854554835410295,-0.9768994103297429,-0.186779976713371,0.08330445736646652,0.1889938861131668,-0.9784383773803711,0,0,0,-1,-1,33770.09030075,unknown,2,2022-06-02T10:39:54.392+02:00,2022-06-02T10:32:51.428+02:00,41,0.9590018,0,0,41.84445,0,0,2022-06-02T10:39:54.392+02:00,675851994.3918289,0,7.769531,101.0994,1,0.91
2022-06-02T10:39:56.044+02:00,1654159195.631285,53.22902755206121,10.39853781999526,29.18989,0.6552547,0.6189301,-1,-1,3,32,-9999,33771.737861625,0.0974578857421875,0.2280731201171875,-1.534988403320312,33771.734110625,2.763980489253153,0.09430818155115014,-0.2054664641878632,-1.28882360458374,1.145791292190552,-0.876392126083374,-0.01362019032239914,0.01143026351928711,-0.5490659475326538,XArbitraryZVertical,0.06528117587185746,0.09181793531219395,-0.9750569904118443,-0.1912373280055082,0.09218770265579224,0.2040238380432129,-0.9746156930923462,0,0,0,-1,-1,33770.09030075,unknown,2,2022-06-02T10:39:54.392+02:00,2022-06-02T10:32:51.428+02:00,41,0.9590018,0,0,41.84445,0,0,2022-06-02T10:39:54.392+02:00,675851994.3918289,0,7.769531,101.0994,1,0.91
2022-06-02T10:39:56.055+02:00,1654159195.631285,53.22902755206121,10.39853781999526,29.18989,0.6552547,0.6189301,-1,-1,3,32,-9999,33771.747833625,0.11810302734375,0.2285308837890625,-1.576370239257812,33771.744083625,2.75654818236072,0.1045867409118864,-0.2172279647063642,-1.058266878128052,1.230986595153809,-0.8271453380584717,0.004990875720977783,0.01529613137245178,-0.5754985213279724,XArbitraryZVertical,0.07171401004709323,0.09631030953622174,-0.9733230582790695,-0.1955090494453671,0.1019427254796028,0.2155235707759857,-0.9711628556251526,0,0,0,-1,-1,33770.09030075,unknown,2,2022-06-02T10:39:54.392+02:00,2022-06-02T10:32:51.428+02:00,41,0.9590018,0,0,41.84445,0,0,2022-06-02T10:39:54.392+02:00,675851994.3918289,0,7.769531,101.0994,1,0.91
2022-06-02T10:39:56.064+02:00,1654159195.631285,53.22902755206121,10.39853781999526,29.18989,0.6552547,0.6189301,-1,-1,3,32,-9999,33771.757806625,0.1234283447265625,0.26043701171875,-1.6427001953125,33771.754055625,2.749244219260812,0.1158575650239369,-0.2273037918561238,-0.8527390956878662,1.364879965782166,-0.8193225860595703,0.009567312896251678,0.007329776883125305,-0.6310698986053467,XArbitraryZVertical,0.07848765798777195,0.09983332552790487,-0.9715773567460823,-0.1997759555317309,0.1126250699162483,0.2253514975309372,-0.9677459597587585,0,0,0,-1,-1,33770.09030075,unknown,2,2022-06-02T10:39:54.392+02:00,2022-06-02T10:32:51.428+02:00,41,0.9590018,0,0,41.84445,0,0,2022-06-02T10:39:54.392+02:00,675851994.3918289,0,7.769531,101.0994,1,0.91
2022-06-02T10:39:56.074+02:00,1654159195.631285,53.22902755206121,10.39853781999526,29.18989,0.6552547,0.6189301,-1,-1,3,32,-9999,33771.767778625,0.12158203125,0.2947998046875,-1.702529907226562,33771.764028625,2.742230343659388,0.128559891100925,-0.236373503982362,-0.8129826188087463,1.504675626754761,-0.7636517286300659,-0.001609489321708679,0.04482842981815338,-0.702714741230011,XArbitraryZVertical,0.08586042498461174,0.1026774974925423,-0.9697800997644819,-0.2039899654876892,0.1246411055326462,0.2341785132884979,-0.9641706347465515,0,0,0,-1,-1,33770.09030075,unknown,2,2022-06-02T10:39:54.392+02:00,2022-06-02T10:32:51.428+02:00,41,0.9590018,0,0,41.84445,0,0,2022-06-02T10:39:54.392+02:00,675851994.3918289,0,7.769531,101.0994,1,0.91
2022-06-02T10:39:56.084+02:00,1654159195.631285,53.22902755206121,10.39853781999526,29.18989,0.6552547,0.6189301,-1,-1,3,32,-9999,33771.777751625,0.1333160400390625,0.3055419921875,-1.747406005859375,33771.774001625,2.735874874025483,0.1428086664991729,-0.2453335375433704,-0.8103461265563965,1.661345958709717,-0.7070217132568359,-0.01524406671524048,0.05649754405021667,-0.7636498212814331,XArbitraryZVertical,0.09394462060702786,0.1052792973007603,-0.9678986379828892,-0.2079976018205456,0.138062059879303,0.2428798824548721,-0.9601813554763794,0,0,0,-1,-1,33770.09030075,unknown,2,2022-06-02T10:39:54.392+02:00,2022-06-02T10:32:51.428+02:00,41,0.9590018,0,0,41.84445,0,0,2022-06-02T10:39:54.392+02:00,675851994.3918289,0,7.769531,101.0994,1,0.91
2022-06-02T10:39:56.094+02:00,1654159195.631285,53.22902755206121,10.39853781999526,29.18989,0.6552547,0.6189301,-1,-1,3,32,-9999,33771.787724625,0.1474609375,0.362457275390625,-1.789993286132812,33771.783973625,2.730187440440494,0.1588761095401047,-0.2542639814485183,-0.8285509943962097,1.852436065673828,-0.6595810651779175,-0.01080322265625,0.06366768479347229,-0.8086839318275452,XArbitraryZVertical,0.1028704208063838,0.1076476261117979,-0.965900244821819,-0.2118168909221137,0.1531219631433487,0.2515331208705902,-0.9556593298912048,0,0,0,-1,-1,33770.09030075,unknown,2,2022-06-02T10:39:54.392+02:00,2022-06-02T10:32:51.428+02:00,41,0.9590018,0,0,41.84445,0,0,2022-06-02T10:39:54.392+02:00,675851994.3918289,0,7.769531,101.0994,1,0.91
2022-06-02T10:39:56.104+02:00,1654159195.631285,53.22902755206121,10.39853781999526,29.18989,0.6552547,0.6189301,-1,-1,3,32,-9999,33771.797696625,0.1782379150390625,0.355224609375,-1.801177978515625,33771.793946625,2.725422147706166,0.1774960724787552,-0.2632530660044061,-0.6838305592536926,2.019937753677368,-0.5722370743751526,-0.01140971481800079,0.1070103645324707,-0.8629147410392761,XArbitraryZVertical,0.1129766492034248,0.1097584506629898,-0.9637441057004486,-0.215375464985612,0.1704826056957245,0.2602229118347168,-0.9503787159919739,0,0,0,-1,-1,33770.09030075,unknown,2,2022-06-02T10:39:54.392+02:00,2022-06-02T10:32:51.428+02:00,41,0.9590018,0,0,41.84445,0,0,2022-06-02T10:39:54.392+02:00,675851994.3918289,0,7.769531,101.0994,1,0.91
2022-06-02T10:39:56.114+02:00,1654159195.631285,53.22902755206121,10.39853781999526,29.18989,0.6552547,0.6189301,-1,-1,3,32,-9999,33771.807669625,0.1912841796875,0.4099884033203125,-1.776702880859375,33771.803919625,2.720795765541247,0.1979140307802709,-0.2700367661809492,-0.5081770420074463,2.292155027389526,-0.5628798007965088,-0.004928752779960632,0.1023432016372681,-0.8567340970039368,XArbitraryZVertical,0.1237129998792163,0.1105504647247841,-0.9615290753386889,-0.2189418189132766,0.1894990503787994,0.2667668759822845,-0.944947361946106,0,0,0,-1,-1,33770.09030075,unknown,2,2022-06-02T10:39:54.392+02:00,2022-06-02T10:32:51.428+02:00,41,0.9590018,0,0,41.84445,0,0,2022-06-02T10:39:54.392+02:00,675851994.3918289,0,7.769531,101.0994,1,0.91
2022-06-02T10:39:56.124+02:00,1654159195.631285,53.22902755206121,10.39853781999526,29.18989,0.6552547,0.6189301,-1,-1,3,32,-9999,33771.817642625,0.1911468505859375,0.489501953125,-1.749588012695312,33771.813891625,2.716038736088164,0.2206574062515175,-0.2749240514871369,-0.2424572110176086,2.536500692367554,-0.5486952662467957,-0.01768895983695984,0.1667585670948029,-0.8300396203994751,XArbitraryZVertical,0.1353680260518642,0.110092814804555,-0.9591549628030568,-0.2226585693505143,0.2106516063213348,0.2714738547801971,-0.9391101598739624,0,0,0,-1,-1,33770.09030075,unknown,2,2022-06-02T10:39:54.392+02:00,2022-06-02T10:32:51.428+02:00,41,0.9590018,0,0,41.84445,0,0,2022-06-02T10:39:54.392+02:00,675851994.3918289,0,7.769531,101.0994,1,0.91
2022-06-02T10:39:56.134+02:00,1654159195.631285,53.22902755206121,10.39853781999526,29.18989,0.6552547,0.6189301,-1,-1,3,32,-9999,33771.827614625,0.18621826171875,0.546356201171875,-1.694869995117188,33771.823864625,2.710566155823014,0.2458243257981858,-0.2769695514437285,0.0784890204668045,2.815719604492188,-0.5784820318222046,-0.04459764063358307,0.2442887425422668,-0.7984129786491394,XArbitraryZVertical,0.1479176312786274,0.1078643656691567,-0.956596193449288,-0.2267365667946928,0.2340812981128693,0.2734419405460358,-0.9329712986946106,0,0,0,-1,-1,33770.09030075,unknown,2,2022-06-02T10:39:54.392+02:00,2022-06-02T10:32:51.428+02:00,41,0.9590018,0,0,41.84445,0,0,2022-06-02T10:39:54.392+02:00,675851994.3918289,0,7.769531,101.0994,1,0.91
2022-06-02T10:39:56.144+02:00,1654159195.631285,53.22902755206121,10.39853781999526,29.18989,0.6552547,0.6189301,-1,-1,3,32,-9999,33771.837587625,0.1761627197265625,0.541015625,-1.6324462890625,33771.833836625,2.70398669017985,0.2736626241784521,-0.2760604360874949,0.4331019520759583,3.144258737564087,-0.6062947511672974,-0.07869121432304382,0.2777255773544312,-0.7481358051300049,XArbitraryZVertical,0.1614729657404773,0.1037298829083057,-0.9537626515896653,-0.2313080638896096,0.2600266635417938,0.2725673615932465,-0.9263331890106201,0,0,0,-1,-1,33770.09030075,unknown,2,2022-06-02T10:39:54.392+02:00,2022-06-02T10:32:51.428+02:00,41,0.9590018,0,0,41.84445,0,0,2022-06-02T10:39:54.392+02:00,675851994.3918289,0,7.769531,101.0994,1,0.91
2022-06-02T10:39:56.154+02:00,1654159195.631285,53.22902755206121,10.39853781999526,29.18989,0.6552547,0.6189301,-1,-1,3,32,-9999,33771.847559625,0.18316650390625,0.5566253662109375,-1.556106567382812,33771.843809625,2.696030462326153,0.3046853988264225,-0.2717781642567692,0.8120066523551941,3.510315179824829,-0.6094053983688354,-0.1124071478843689,0.2730133533477783,-0.6870909929275513,XArbitraryZVertical,0.1762241169504312,0.09737320978527206,-0.9505622794705161,-0.2364209791398651,0.2889818549156189,0.2684447467327118,-0.918927013874054,0,0,0,-1,-1,33770.09030075,unknown,2,2022-06-02T10:39:54.392+02:00,2022-06-02T10:32:51.428+02:00,41,0.9590018,0,0,41.84445,0,0,2022-06-02T10:39:54.392+02:00,675851994.3918289,0,7.769531,101.0994,1,0.91
2022-06-02T10:39:56.164+02:00,1654159195.631285,53.22902755206121,10.39853781999526,29.18989,0.6552547,0.6189301,-1,-1,3,32,-9999,33771.857532625,0.189178466796875,0.5659942626953125,-1.456771850585938,33771.853782625,2.686899311321381,0.3390459081432021,-0.2646395053666049,1.082725405693054,3.85400390625,-0.6162688732147217,-0.1342414617538452,0.3030748963356018,-0.6091985702514648,XArbitraryZVertical,0.1922447433454459,0.08900228429489408,-0.9468906550726631,-0.241906426919382,0.3210090398788452,0.2615613341331482,-0.9102411270141602,0,0,0,-1,-1,33770.09030075,unknown,2,2022-06-02T10:39:54.392+02:00,2022-06-02T10:32:51.428+02:00,41,0.9590018,0,0,41.84445,0,0,2022-06-02T10:39:54.392+02:00,675851994.3918289,0,7.769531,101.0994,1,0.91
2022-06-02T10:39:56.174+02:00,1654159195.631285,53.22902755206121,10.39853781999526,29.18989,0.6552547,0.6189301,-1,-1,3,32,-9999,33771.867505625,0.183807373046875,0.538330078125,-1.3681640625,33771.863754625,2.676668760243739,0.3765660103298235,-0.2562000754151044,1.172426342964172,4.198523998260498,-0.649884045124054,-0.1685774922370911,0.3054008781909943,-0.5225241184234619,XArbitraryZVertical,0.2095557646319872,0.07935042022008665,-0.9425637945040524,-0.247716471731155,0.3557265400886536,0.2534064948558807,-0.8995797634124756,0,0,0,-1,-1,33770.09030075,unknown,2,2022-06-02T10:39:54.392+02:00,2022-06-02T10:32:51.428+02:00,41,0.9590018,0,0,41.84445,0,0,2022-06-02T10:39:54.392+02:00,675851994.3918289,0,7.769531,101.0994,1,0.91
2022-06-02T10:39:56.184+02:00,1654159195.631285,53.22902755206121,10.39853781999526,29.18989,0.6552547,0.6189301,-1,-1,3,32,-9999,33771.877477625,0.17596435546875,0.4940643310546875,-1.28570556640625,33771.873727625,2.665780959886617,0.4173186591824254,-0.2481918371886731,1.103989839553833,4.517150402069092,-0.6853480339050293,-0.2116473317146301,0.2779384851455688,-0.4538599848747253,XArbitraryZVertical,0.2283034793460836,0.0692392618980833,-0.9374001317081267,-0.2537013852124912,0.3928912281990051,0.2456516027450562,-0.8861668705940247,0,0,0,-1,-1,33770.09030075,unknown,2,2022-06-02T10:39:54.392+02:00,2022-06-02T10:32:51.428+02:00,41,0.9590018,0,0,41.84445,0,0,2022-06-02T10:39:54.392+02:00,675851994.3918289,0,7.769531,101.0994,1,0.91
2022-06-02T10:39:56.194+02:00,1654159195.631285,53.22902755206121,10.39853781999526,29.18989,0.6552547,0.6189301,-1,-1,3,32,-9999,33771.887450625,0.1611480712890625,0.4640045166015625,-1.189804077148438,33771.883700625,2.655034758328071,0.4614351048454258,-0.2417623466614611,0.9322859644889832,4.848361492156982,-0.6448764801025391,-0.262439489364624,0.2408562898635864,-0.3832356333732605,XArbitraryZVertical,0.248600885600293,0.05925198736377829,-0.9312988774627668,-0.2595555355560138,0.4322851002216339,0.2394140958786011,-0.869373619556427,0,0,0,-1,-1,33770.09030075,unknown,2,2022-06-02T10:39:54.392+02:00,2022-06-02T10:32:51.428+02:00,41,0.9590018,0,0,41.84445,0,0,2022-06-02T10:39:54.392+02:00,675851994.3918289,0,7.769531,101.0994,1,0.91
2022-06-02T10:39:56.204+02:00,1654159195.631285,53.22902755206121,10.39853781999526,29.18989,0.6552547,0.6189301,-1,-1,3,32,-9999,33771.897423625,0.152801513671875,0.4606475830078125,-1.078643798828125,33771.893672625,2.645771255373107,0.5091032008272757,-0.2375360179283146,0.6479740738868713,5.149402141571045,-0.5599674582481384,-0.3176417946815491,0.2232333123683929,-0.3019406199455261,XArbitraryZVertical,0.2705310352205205,0.04981103605560001,-0.9242581590061263,-0.2647238510732244,0.4737086892127991,0.2353085428476334,-0.8486636281013489,0,0,0,-1,-1,33770.09030075,unknown,2,2022-06-02T10:39:54.392+02:00,2022-06-02T10:32:51.428+02:00,41,0.9590018,0,0,41.84445,0,0,2022-06-02T10:39:54.392+02:00,675851994.3918289,0,7.769531,101.0994,1,0.91
2022-06-02T10:39:56.214+02:00,1654159195.631285,53.22902755206121,10.39853781999526,29.18989,0.6552547,0.6189301,-1,-1,3,32,-9999,33771.907395625,0.1522064208984375,0.485260009765625,-0.964447021484375,33771.903645625,2.638803214908482,0.5600938925001602,-0.2360849404122044,0.289819598197937,5.402274131774902,-0.4679863750934601,-0.3645515441894531,0.2342263907194138,-0.2083081603050232,XArbitraryZVertical,0.2940037339180835,0.04134524900165296,-0.9162586082380733,-0.2689287065408377,0.5165290832519531,0.2338979691267014,-0.8237047791481018,0,0,0,-1,-1,33770.09030075,unknown,2,2022-06-02T10:39:54.392+02:00,2022-06-02T10:32:51.428+02:00,41,0.9590018,0,0,41.84445,0,0,2022-06-02T10:39:54.392+02:00,675851994.3918289,0,7.769531,101.0994,1,0.91
2022-06-02T10:39:56.224+02:00,1654159195.631285,53.22902755206121,10.39853781999526,29.18989,0.6552547,0.6189301,-1,-1,3,32,-9999,33771.917368625,0.1466064453125,0.5272216796875,-0.8518524169921875,33771.913617625,2.634413853784527,0.6141126414477525,-0.2373122404897904,-0.002956345910206437,5.629754066467285,-0.3836555182933807,-0.4100439548492432,0.2639476358890533,-0.1270989179611206,XArbitraryZVertical,0.3188395908945174,0.03393583581350102,-0.9072768181885437,-0.2721002328126753,0.5600836277008057,0.235091045498848,-0.7943793535232544,0,0,0,-1,-1,33770.09030075,unknown,2,2022-06-02T10:39:54.392+02:00,2022-06-02T10:32:51.428+02:00,41,0.9590018,0,0,41.84445,0,0,2022-06-02T10:39:54.392+02:00,675851994.3918289,0,7.769531,101.0994,1,0.91
2022-06-02T10:39:56.234+02:00,1654159195.631285,53.22902755206121,10.39853781999526,29.18989,0.6552547,0.6189301,-1,-1,3,32,-9999,33771.927340625,0.145782470703125,0.5773773193359375,-0.7338409423828125,33771.923590625,2.632247236176332,0.6707593956297647,-0.2400407456063841,-0.1666479855775833,5.82296085357666,-0.2802434265613556,-0.4585108160972595,0.3087360560894012,-0.04997742176055908,XArbitraryZVertical,0.3447041318768925,0.02709464768659363,-0.8973265143527686,-0.2743174435165774,0.603759229183197,0.2377422004938126,-0.7608898878097534,0,0,0,-1,-1,33770.09030075,unknown,2,2022-06-02T10:39:54.392+02:00,2022-06-02T10:32:51.428+02:00,41,0.9590018,0,0,41.84445,0,0,2022-06-02T10:39:54.392+02:00,675851994.3918289,0,7.769531,101.0994,1,0.91
2022-06-02T10:39:56.244+02:00,1654159195.631285,53.22902755206121,10.39853781999526,29.18989,0.6552547,0.6189301,-1,-1,3,32,-9999,33771.937313625,0.14837646484375,0.6166839599609375,-0.5908050537109375,33771.933563625,2.631661077487248,0.7294155328037063,-0.2427214861551411,-0.1525707840919495,5.972867965698242,-0.1509056687355042,-0.4981411695480347,0.3528096675872803,0.04115349054336548,XArbitraryZVertical,0.371132380889187,0.0201476952396667,-0.8864863033578204,-0.2756751021100842,0.6468991041183472,0.240345224738121,-0.7237096428871155,0,0,0,-1,-1,33770.09030075,unknown,2,2022-06-02T10:39:54.392+02:00,2022-06-02T10:32:51.428+02:00,41,0.9590018,0,0,41.84445,0,0,2022-06-02T10:39:54.392+02:00,675851994.3918289,0,7.769531,101.0994,1,0.91
2022-06-02T10:39:56.254+02:00,1654159195.631285,53.22902755206121,10.39853781999526,29.18989,0.6552547,0.6189301,-1,-1,3,32,-9999,33771.947286625,0.14654541015625,0.6334991455078125,-0.503936767578125,33771.943535625,2.631509315164862,0.7896702115299543,-0.2438891500071989,0.01555510889738798,6.115166187286377,-0.03849497064948082,-0.5436591506004333,0.3850321173667908,0.1372073888778687,XArbitraryZVertical,0.3977768553790872,0.01232875842635638,-0.8747640937524778,-0.2764225531932694,0.6891059279441833,0.2414785027503967,-0.6832431554794312,0,0,0,-1,-1,33770.09030075,unknown,2,2022-06-02T10:39:54.392+02:00,2022-06-02T10:32:51.428+02:00,41,0.9590018,0,0,41.84445,0,0,2022-06-02T10:39:54.392+02:00,675851994.3918289,0,7.769531,101.0994,1,0.91
2022-06-02T10:39:56.264+02:00,1654159195.631285,53.22902755206121,10.39853781999526,29.18989,0.6552547,0.6189301,-1,-1,3,32,-9999,33771.957258625,0.1651458740234375,0.6259765625,-0.4979248046875,33771.953508625,2.630359201183725,0.8508257911723968,-0.2427982531521925,0.3112368285655975,6.209304809570312,0.04386142268776894,-0.5759037733078003,0.394940972328186,0.1457600593566895,XArbitraryZVertical,0.4242389997176855,0.003143868379623639,-0.8621494912622432,-0.2769650750010675,0.7297734022140503,0.2404197454452515,-0.6400227546691895,0,0,0,-1,-1,33770.09030075,unknown,2,2022-06-02T10:39:54.392+02:00,2022-06-02T10:32:51.428+02:00,41,0.9590018,0,0,41.84445,0,0,2022-06-02T10:39:54.392+02:00,675851994.3918289,0,7.769531,101.0994,1,0.91
2022-06-02T10:39:56.274+02:00,1654159195.631285,53.22902755206121,10.39853781999526,29.18989,0.6552547,0.6189301,-1,-1,3,32,-9999,33771.967231625,0.152435302734375,0.5694580078125,-0.4534912109375,33771.963481625,2.62719650572875,0.9128079533614494,-0.2391614462603855,0.6268832683563232,6.377731323242188,0.1240238547325134,-0.6053732633590698,0.3718613386154175,0.09737074375152588,XArbitraryZVertical,0.4504217414712451,-0.007744153336290652,-0.8485431667887092,-0.2775515673753332,0.7687034010887146,0.2368880212306976,-0.5941205620765686,0,0,0,-1,-1,33770.09030075,unknown,2,2022-06-02T10:39:54.392+02:00,2022-06-02T10:32:51.428+02:00,41,0.9590018,0,0,41.84445,0,0,2022-06-02T10:39:54.392+02:00,675851994.3918289,0,7.769531,101.0994,1,0.91
2022-06-02T10:39:56.284+02:00,1654159195.631285,53.22902755206121,10.39853781999526,29.18989,0.6552547,0.6189301,-1,-1,3,32,-9999,33771.977204625,0.14727783203125,0.4928741455078125,-0.3510894775390625,33771.973453625,2.62194998762706,0.9759171156284724,-0.2336776245941427,0.8257452845573425,6.528943061828613,0.1559503674507141,-0.6598781943321228,0.3119460344314575,0.1305047869682312,XArbitraryZVertical,0.4764522537885916,-0.02011123389748353,-0.8337841846642545,-0.2781953581545192,0.8057064414024353,0.2315567582845688,-0.5451775789260864,0,0,0,-1,-1,33770.09030075,unknown,2,2022-06-02T10:39:54.392+02:00,2022-06-02T10:32:51.428+02:00,41,0.9590018,0,0,41.84445,0,0,2022-06-02T10:39:54.392+02:00,675851994.3918289,0,7.769531,101.0994,1,0.91
2022-06-02T10:39:56.294+02:00,1654159195.631285,53.22902755206121,10.39853781999526,29.18989,0.6552547,0.6189301,-1,-1,3,32,-9999,33771.987176625,0.18841552734375,0.4041595458984375,-0.2583770751953125,33771.983426625,2.61534991477701,1.039850454739629,-0.2278349989208732,0.8682001829147339,6.586560726165771,0.1364427506923676,-0.6814441084861755,0.2350226938724518,0.1730277836322784,XArbitraryZVertical,0.5022654896451914,-0.0331269167274778,-0.8178671074638225,-0.2787926295899761,0.8400439023971558,0.2258689999580383,-0.4932639598846436,0,0,0,-1,-1,33770.09030075,unknown,2,2022-06-02T10:39:54.392+02:00,2022-06-02T10:32:51.428+02:00,41,0.9590018,0,0,41.84445,0,0,2022-06-02T10:39:54.392+02:00,675851994.3918289,0,7.769531,101.0994,1,0.91
2022-06-02T10:39:56.304+02:00,1654159195.631285,53.22902755206121,10.39853781999526,29.18989,0.6552547,0.6189301,-1,-1,3,32,-9999,33771.997149625,0.220184326171875,0.3304290771484375,-0.169921875,33771.993398625,2.608376122677994,1.10393474147409,-0.2224663844228909,0.7872723340988159,6.607001304626465,0.1456618160009384,-0.6710733771324158,0.1550354659557343,0.2299792766571045,XArbitraryZVertical,0.5276137384437162,-0.04611569275737242,-0.8009998770971892,-0.2790992748670296,0.8709787726402283,0.2206358909606934,-0.4389941692352295,0,0,0,-1,-1,33770.09030075,unknown,2,2022-06-02T10:39:54.392+02:00,2022-06-02T10:32:51.428+02:00,41,0.9590018,0,0,41.84445,0,0,2022-06-02T10:39:54.392+02:00,675851994.3918289,0,7.769531,101.0994,1,0.91
2022-06-02T10:39:56.313+02:00,1654159195.631285,53.22902755206121,10.39853781999526,29.18989,0.6552547,0.6189301,-1,-1,3,32,-9999,33772.007121625,0.2621002197265625,0.247894287109375,-0.1294708251953125,33772.003371625,2.603154293789452,1.168343406052651,-0.2185951050177004,0.4566846489906311,6.511707782745361,0.1280778497457504,-0.6620623469352722,0.08692887425422668,0.2382365465164185,XArbitraryZVertical,0.5526720523872913,-0.0581007172965196,-0.7833224704481764,-0.2785391157595863,0.8982075452804565,0.216858372092247,-0.382355809211731,0,0,0,-1,-1,33770.09030075,unknown,2,2022-06-02T10:39:54.392+02:00,2022-06-02T10:32:51.428+02:00,41,0.9590018,0,0,41.84445,0,0,2022-06-02T10:39:54.392+02:00,675851994.3918289,0,7.769531,101.0994,1,0.91
2022-06-02T10:39:56.326+02:00,1654159195.631285,53.22902755206121,10.39853781999526,29.18989,0.6552547,0.6189301,-1,-1,3,32,-9999,33772.017094625,0.27008056640625,0.1585540771484375,-0.0556640625,33772.013344625,2.600896109643912,1.232500361093277,-0.2161524696452364,0.1404020488262177,6.440395355224609,0.1671126037836075,-0.6537922620773315,-0.006770595908164978,0.2176051139831543,XArbitraryZVertical,0.5772443723031092,-0.06863165308089586,-0.765172464878523,-0.2767487563766592,0.9213704466819763,0.2144732177257538,-0.3241572678089142,0,0,0,-1,-1,33770.09030075,unknown,2,2022-06-02T10:39:54.392+02:00,2022-06-02T10:32:51.428+02:00,41,0.9590018,0,0,41.84445,0,0,2022-06-02T10:39:54.392+02:00,675851994.3918289,0,7.769531,101.0994,1,0.91
2022-06-02T10:39:56.339+02:00,1654159195.631285,53.22902755206121,10.39853781999526,29.18989,0.6552547,0.6189301,-1,-1,3,32,-9999,33772.027067625,0.2838134765625,0.1422271728515625,0.0118865966796875,33772.023316625,2.601905354452212,1.296341871861232,-0.2142698726265284,-0.2249952256679535,6.317763328552246,0.2422534972429276,-0.6661469340324402,-0.06543253362178802,0.2320482730865479,XArbitraryZVertical,0.6012699862309336,-0.07786106300609802,-0.7467263685132671,-0.2735176205994568,0.940561056137085,0.2126340568065643,-0.2648241221904755,0,0,0,-1,-1,33770.09030075,unknown,2,2022-06-02T10:39:54.392+02:00,2022-06-02T10:32:51.428+02:00,41,0.9590018,0,0,41.84445,0,0,2022-06-02T10:39:54.392+02:00,675851994.3918289,0,7.769531,101.0994,1,0.91
2022-06-02T10:39:56.344+02:00,1654159195.631285,53.22902755206121,10.39853781999526,29.18989,0.6552547,0.6189301,-1,-1,3,32,-9999,33772.037039625,0.2966766357421875,0.1649627685546875,0.1055145263671875,33772.033289625,2.606287782971755,1.359672624990497,-0.2126158466453539,-0.5010268092155457,6.202370643615723,0.2888162136077881,-0.667829692363739,-0.06653207540512085,0.2523406445980072,XArbitraryZVertical,0.6246822634098768,-0.08574413832207803,-0.7281104939834379,-0.2688406539614441,0.9557784199714661,0.2110175639390945,-0.2048400193452835,0,0,0,-1,-1,33770.09030075,unknown,2,2022-06-02T10:39:54.392+02:00,2022-06-02T10:32:51.428+02:00,41,0.9590018,0,0,41.84445,0,0,2022-06-02T10:39:54.392+02:00,675851994.3918289,0,7.769531,101.0994,1,0.91
2022-06-02T10:39:56.354+02:00,1654159195.631285,53.22902755206121,10.39853781999526,29.18989,0.6552547,0.6189301,-1,-1,3,32,-9999,33772.047012625,0.3199920654296875,0.2510223388671875,0.2080078125,33772.043262625,2.61237695626674,1.422028264951687,-0.2104859320683468,-0.580116868019104,6.049649238586426,0.3357226252555847,-0.6621350049972534,-0.01746782660484314,0.2859094142913818,XArbitraryZVertical,0.6472203080947755,-0.09290613076485908,-0.7093532150766708,-0.263234676551401,0.9671278595924377,0.2089351266622543,-0.1449486464262009,0,0,0,-1,-1,33770.09030075,unknown,2,2022-06-02T10:39:54.392+02:00,2022-06-02T10:32:51.428+02:00,41,0.9590018,0,0,41.84445,0,0,2022-06-02T10:39:54.392+02:00,675851994.3918289,0,7.769531,101.0994,1,0.91
2022-06-02T10:39:56.363+02:00,1654159195.631285,53.22902755206121,10.39853781999526,29.18989,0.6552547,0.6189301,-1,-1,3,32,-9999,33772.056984625,0.3328704833984375,0.305328369140625,0.3125152587890625,33772.053234625,2.618754033563132,1.483031906750997,-0.2077231051889208,-0.6045263409614563,5.929888248443604,0.3388377130031586,-0.6497095227241516,0.07584147155284882,0.3339975476264954,XArbitraryZVertical,0.6687029758422206,-0.09976248227377063,-0.6904538261075446,-0.257210806220866,0.9747370481491089,0.206232488155365,-0.08576755225658417,0,0,0,-1,-1,33770.09030075,unknown,2,2022-06-02T10:39:54.392+02:00,2022-06-02T10:32:51.428+02:00,41,0.9590018,0,0,41.84445,0,0,2022-06-02T10:39:54.392+02:00,675851994.3918289,0,7.769531,101.0994,1,0.91
2022-06-02T10:39:56.373+02:00,1654159195.631285,53.22902755206121,10.39853781999526,29.18989,0.6552547,0.6189301,-1,-1,3,32,-9999,33772.066957625,0.358428955078125,0.2917327880859375,0.43731689453125,33772.063207625,2.624979881609842,1.542984030555857,-0.204867749583565,-0.5818331241607666,5.833830833435059,0.2983425557613373,-0.6401472687721252,0.1015244424343109,0.3800714015960693,XArbitraryZVertical,0.6892666684925167,-0.1062914579547009,-0.6712440307914084,-0.251087645810194,0.9787092208862305,0.2034376710653305,-0.02722717076539993,0,0,0,-1,-1,33770.09030075,unknown,2,2022-06-02T10:39:54.392+02:00,2022-06-02T10:32:51.428+02:00,41,0.9590018,0,0,41.84445,0,0,2022-06-02T10:39:54.392+02:00,675851994.3918289,0,7.769531,101.0994,1,0.91
2022-06-02T10:39:56.383+02:00,1654159195.631285,53.22902755206121,10.39853781999526,29.18989,0.6552547,0.6189301,-1,-1,3,32,-9999,33772.076930625,0.416351318359375,0.262359619140625,0.5211334228515625,33772.073179625,2.630863985829023,1.601054419997632,-0.2018437521034085,-0.5943960547447205,5.537141799926758,0.3127473294734955,-0.6008017063140869,0.08330696821212769,0.4510887861251831,XArbitraryZVertical,0.7086360762026774,-0.1124924767875107,-0.6520536144881238,-0.2449622985254632,0.9792502522468567,0.2004759907722473,0.02963929250836372,0,0,0,-1,-1,33770.09030075,unknown,2,2022-06-02T10:39:54.392+02:00,2022-06-02T10:32:51.428+02:00,41,0.9590018,0,0,41.84445,0,0,2022-06-02T10:39:54.392+02:00,675851994.3918289,0,7.769531,101.0994,1,0.91
2022-06-02T10:39:56.393+02:00,1654159195.631285,53.22902755206121,10.39853781999526,29.18989,0.6552547,0.6189301,-1,-1,3,32,-9999,33772.086902625,0.4662933349609375,0.2007904052734375,0.6105499267578125,33772.083152625,2.636923283261029,1.656901539349335,-0.1983967573010553,-0.6368542909622192,5.393113613128662,0.2866320908069611,-0.5381988883018494,0.0381927490234375,0.4591299295425415,XArbitraryZVertical,0.7267565959689664,-0.1182404340341243,-0.63317203062308,-0.2386155591268904,0.9767519235610962,0.1970977932214737,0.08431190252304077,0,0,0,-1,-1,33770.09030075,unknown,2,2022-06-02T10:39:54.392+02:00,2022-06-02T10:32:51.428+02:00,41,0.9590018,0,0,41.84445,0,0,2022-06-02T10:39:54.392+02:00,675851994.3918289,0,7.769531,101.0994,1,0.91
2022-06-02T10:39:56.403+02:00,1654159195.631285,53.22902755206121,10.39853781999526,29.18989,0.6552547,0.6189301,-1,-1,3,32,-9999,33772.096875625,0.4882659912109375,0.1831817626953125,0.720245361328125,33772.093125625,2.643522037226071,1.711050342546127,-0.1945387265320754,-0.7411428689956665,5.21334171295166,0.3098399639129639,-0.4954742789268494,-0.004837393760681152,0.513934850692749,XArbitraryZVertical,0.743866262971275,-0.1234578504595198,-0.6145164306335911,-0.2319286110123382,0.9715029001235962,0.1933139860630035,0.1371577233076096,0,0,0,-1,-1,33770.09030075,unknown,2,2022-06-02T10:39:54.392+02:00,2022-06-02T10:32:51.428+02:00,41,0.9590018,0,0,41.84445,0,0,2022-06-02T10:39:54.392+02:00,675851994.3918289,0,7.769531,101.0994,1,0.91
2022-06-02T10:39:56.413+02:00,1654159195.631285,53.22902755206121,10.39853781999526,29.18989,0.6552547,0.6189301,-1,-1,3,32,-9999,33772.106848625,0.495758056640625,0.2470550537109375,0.837310791015625,33772.103097625,2.651163527790262,1.763224728759907,-0.1895931841949245,-0.9151750802993774,4.981123924255371,0.3248004913330078,-0.4686236977577209,0.009065628051757812,0.5736891031265259,XArbitraryZVertical,0.7599289944249886,-0.1281249785567303,-0.596380717882698,-0.2245485567733911,0.9639545679092407,0.1884593814611435,0.1878161728382111,0,0,0,-1,-1,33770.09030075,unknown,2,2022-06-02T10:39:54.392+02:00,2022-06-02T10:32:51.428+02:00,41,0.9590018,0,0,41.84445,0,0,2022-06-02T10:39:54.392+02:00,675851994.3918289,0,7.769531,101.0994,1,0.91
2022-06-02T10:39:56.423+02:00,1654159195.631285,53.22902755206121,10.39853781999526,29.18989,0.6552547,0.6189301,-1,-1,3,32,-9999,33772.116820625,0.495391845703125,0.3320465087890625,0.9578704833984375,33772.113070625,2.660695554141242,1.813531254125598,-0.1840713408293674,-1.161455154418945,4.754025459289551,0.2937770783901215,-0.4590164422988892,0.09791117906570435,0.6490935087203979,XArbitraryZVertical,0.7751100593528406,-0.1317319861895864,-0.5787969933236095,-0.2164375191568188,0.9542862176895142,0.1830336451530457,0.2362978458404541,0,0,0,-1,-1,33770.09030075,unknown,2,2022-06-02T10:39:54.392+02:00,2022-06-02T10:32:51.428+02:00,41,0.9590018,0,0,41.84445,0,0,2022-06-02T10:39:54.392+02:00,675851994.3918289,0,7.769531,101.0994,1,0.91
2022-06-02T10:39:56.433+02:00,1654159195.631285,53.22902755206121,10.39853781999526,29.18989,0.6552547,0.6189301,-1,-1,3,32,-9999,33772.126793625,0.5058441162109375,0.3643798828125,1.0626220703125,33772.123043625,2.672501214953995,1.861621548926474,-0.1778614155273121,-1.394507169723511,4.453170776367188,0.2631040513515472,-0.4447101354598999,0.1739507019519806,0.7194133996963501,XArbitraryZVertical,0.7893859606291052,-0.1340875197065207,-0.5619819268355417,-0.207525009630586,0.9428943395614624,0.1769251376390457,0.2822193205356598,0,0,0,-1,-1,33770.09030075,unknown,2,2022-06-02T10:39:54.392+02:00,2022-06-02T10:32:51.428+02:00,41,0.9590018,0,0,41.84445,0,0,2022-06-02T10:39:54.392+02:00,675851994.3918289,0,7.769531,101.0994,1,0.91
2022-06-02T10:39:56.443+02:00,1654159195.631285,53.22902755206121,10.39853781999526,29.18989,0.6552547,0.6189301,-1,-1,3,32,-9999,33772.136766625,0.505096435546875,0.362335205078125,1.135147094726562,33772.133015625,2.685806884668072,1.906604094130083,-0.1709563892711138,-1.524820566177368,4.107959747314453,0.2220130860805511,-0.4235605001449585,0.1976882219314575,0.76310133934021,XArbitraryZVertical,0.8025189972937279,-0.1353785792531221,-0.5462383592054785,-0.1981403688412923,0.9303812384605408,0.1701248735189438,0.3247281908988953,0,0,0,-1,-1,33770.09030075,unknown,2,2022-06-02T10:39:54.392+02:00,2022-06-02T10:32:51.428+02:00,41,0.9590018,0,0,41.84445,0,0,2022-06-02T10:39:54.392+02:00,675851994.3918289,0,7.769531,101.0994,1,0.91
2022-06-02T10:39:56.453+02:00,1654159195.631285,53.22902755206121,10.39853781999526,29.18989,0.6552547,0.6189301,-1,-1,3,32,-9999,33772.146738625,0.5048828125,0.3526763916015625,1.219207763671875,33772.142988625,2.699837629242015,1.948012382099633,-0.1635502185806814,-1.56261146068573,3.720400333404541,0.2016747146844864,-0.410848081111908,0.195988342165947,0.8063660860061646,XArbitraryZVertical,0.8144091335491845,-0.1358195829010086,-0.5317022658338085,-0.1886356716538504,0.9172871708869934,0.1628220677375793,0.3634184002876282,0,0,0,-1,-1,33770.09030075,unknown,2,2022-06-02T10:39:54.392+02:00,2022-06-02T10:32:51.428+02:00,41,0.9590018,0,0,41.84445,0,0,2022-06-02T10:39:54.392+02:00,675851994.3918289,0,7.769531,101.0994,1,0.91
2022-06-02T10:39:56.463+02:00,1654159195.631285,53.22902755206121,10.39853781999526,29.18989,0.6552547,0.6189301,-1,-1,3,32,-9999,33772.156711625,0.503326416015625,0.3576812744140625,1.31719970703125,33772.152960625,2.713910318562271,1.985485576167473,-0.1557348039957363,-1.620242476463318,3.32161283493042,0.1559040248394012,-0.3984736800193787,0.1967921257019043,0.8553122282028198,XArbitraryZVertical,0.8249912270838108,-0.1356622611168944,-0.5185057527715636,-0.1792681960149311,0.9041652679443359,0.1551060527563095,0.3980295360088348,0,0,0,-1,-1,33770.09030075,unknown,2,2022-06-02T10:39:54.392+02:00,2022-06-02T10:32:51.428+02:00,41,0.9590018,0,0,41.84445,0,0,2022-06-02T10:39:54.392+02:00,675851994.3918289,0,7.769531,101.0994,1,0.91
2022-06-02T10:39:56.473+02:00,1654159195.631285,53.22902755206121,10.39853781999526,29.18989,0.6552547,0.6189301,-1,-1,3,32,-9999,33772.166683625,0.498565673828125,0.3518829345703125,1.38726806640625,33772.162933625,2.728186343040323,2.018659089974593,-0.1475222824907682,-1.647984623908997,2.88997745513916,0.1418206691741943,-0.3925455808639526,0.2091370970010757,0.9112021327018738,XArbitraryZVertical,0.8342561449693908,-0.1348517313405526,-0.5068750566112724,-0.170027958731198,0.8915843963623047,0.1469877809286118,0.4283366203308105,0,0,0,-1,-1,33770.09030075,unknown,2,2022-06-02T10:39:54.392+02:00,2022-06-02T10:32:51.428+02:00,41,0.9590018,0,0,41.84445,0,0,2022-06-02T10:39:54.392+02:00,675851994.3918289,0,7.769531,101.0994,1,0.91
2022-06-02T10:39:56.483+02:00,1654159195.631285,53.22902755206121,10.39853781999526,29.18989,0.6552547,0.6189301,-1,-1,3,32,-9999,33772.176656625,0.4953765869140625,0.3504486083984375,1.441543579101562,33772.172906625,2.742564146297529,2.047058004044182,-0.1389719997735269,-1.642675042152405,2.390304565429688,0.1170950904488564,-0.37987220287323,0.2135409414768219,0.9582066535949707,XArbitraryZVertical,0.8421503810699947,-0.1334269729319955,-0.4970516608567766,-0.1609957686387459,0.880146861076355,0.1385250985622406,0.4540400505065918,0,0,0,-1,-1,33770.09030075,unknown,2,2022-06-02T10:39:54.392+02:00,2022-06-02T10:32:51.428+02:00,41,0.9590018,0,0,41.84445,0,0,2022-06-02T10:39:54.392+02:00,675851994.3918289,0,7.769531,101.0994,1,0.91
2022-06-02T10:39:56.496+02:00,1654159195.631285,53.22902755206121,10.39853781999526,29.18989,0.6552547,0.6189301,-1,-1,3,32,-9999,33772.186629625,0.464599609375,0.33917236328125,1.474945068359375,33772.182878625,2.757170807352935,2.070366375088427,-0.1303059202988608,-1.731221914291382,1.881863713264465,0.03422508388757706,-0.3816079497337341,0.2183748930692673,0.9828379154205322,XArbitraryZVertical,0.8486758222500591,-0.1313118926692908,-0.4892111643051149,-0.152246568409569,0.8703469634056091,0.129937469959259,0.4749869406223297,0,0,0,-1,-1,33770.09030075,unknown,2,2022-06-02T10:39:54.392+02:00,2022-06-02T10:32:51.428+02:00,41,0.9590018,0,0,41.84445,0,0,2022-06-02T10:39:54.392+02:00,675851994.3918289,0,7.769531,101.0994,1,0.91
2022-06-02T10:39:56.517+02:00,1654159195.631285,53.22902755206121,10.39853781999526,29.18989,0.6552547,0.6189301,-1,-1,3,32,-9999,33772.196601625,0.4342193603515625,0.3267822265625,1.49249267578125,33772.192851625,2.772523412288031,2.08841866286115,-0.1217284316291572,-1.77524721622467,1.326076626777649,-0.02909956127405167,-0.4155615568161011,0.2133192718029022,0.9909323453903198,XArbitraryZVertical,0.8538850212556194,-0.1282860572496523,-0.4834888237692131,-0.143741705970007,0.8625678420066833,0.1214280277490616,0.49115389585495,0,0,0,-1,-1,33770.09030075,unknown,2,2022-06-02T10:39:54.392+02:00,2022-06-02T10:32:51.428+02:00,41,0.9590018,0,0,41.84445,0,0,2022-06-02T10:39:54.392+02:00,675851994.3918289,0,7.769531,101.0994,1,0.91
2022-06-02T10:39:56.524+02:00,1654159195.631285,53.22902755206121,10.39853781999526,29.18989,0.6552547,0.6189301,-1,-1,3,32,-9999,33772.206574625,0.4064178466796875,0.3177032470703125,1.49267578125,33772.202824625,2.788839815705323,2.10080277280903,-0.113175937305258,-1.879453659057617,0.7528178095817566,-0.1269022226333618,-0.4322503805160522,0.2140460759401321,0.9940484166145325,XArbitraryZVertical,0.8577296399697547,-0.1243068070760993,-0.4801151875070224,-0.1354142641742757,0.857283890247345,0.112934485077858,0.5023046135902405,0,0,0,-1,-1,33770.09030075,unknown,2,2022-06-02T10:39:54.392+02:00,2022-06-02T10:32:51.428+02:00,41,0.9590018,0,0,41.84445,0,0,2022-06-02T10:39:54.392+02:00,675851994.3918289,0,7.769531,101.0994,1,0.91
2022-06-02T10:39:56.529+02:00,1654159195.631285,53.22902755206121,10.39853781999526,29.18989,0.6552547,0.6189301,-1,-1,3,32,-9999,33772.216546625,0.388946533203125,0.2816009521484375,1.467864990234375,33772.212796625,2.806232152704118,2.107569265258546,-0.1046145316774736,-1.946353554725647,0.1854071468114853,-0.1824158132076263,-0.4590657353401184,0.2040325999259949,0.9770106673240662,XArbitraryZVertical,0.8602486354732271,-0.1194035104225247,-0.4791001631724757,-0.1271936329228999,0.8546652793884277,0.104423813521862,0.5085698366165161,0,0,0,-1,-1,33770.09030075,unknown,2,2022-06-02T10:39:54.392+02:00,2022-06-02T10:32:51.428+02:00,41,0.9590018,0,0,41.84445,0,0,2022-06-02T10:39:54.392+02:00,675851994.3918289,0,7.769531,101.0994,1,0.91
2022-06-02T10:39:56.533+02:00,1654159195.631285,53.22902755206121,10.39853781999526,29.18989,0.6552547,0.6189301,-1,-1,3,32,-9999,33772.226519625,0.3858489990234375,0.242431640625,1.422683715820312,33772.222769625,2.82462985314201,2.10898288363426,-0.09624201237820521,-2.013861179351807,-0.3299159407615662,-0.2911580502986908,-0.4656738638877869,0.1676241159439087,0.9416508078575134,XArbitraryZVertical,0.8615045071025889,-0.1136390060707724,-0.4803172049295109,-0.1191282488984782,0.8546661138534546,0.09609350562095642,0.5102076530456543,0,0,0,-1,-1,33770.09030075,unknown,2,2022-06-02T10:39:54.392+02:00,2022-06-02T10:32:51.428+02:00,41,0.9590018,0,0,41.84445,0,0,2022-06-02T10:39:54.392+02:00,675851994.3918289,0,7.769531,101.0994,1,0.91
2022-06-02T10:39:56.543+02:00,1654159195.631285,53.22902755206121,10.39853781999526,29.18989,0.6552547,0.6189301,-1,-1,3,32,-9999,33772.236492625,0.374176025390625,0.2304840087890625,1.371734619140625,33772.232741625,2.843756391947105,2.105606922964101,-0.08847548323459337,-2.038819074630737,-0.7616902589797974,-0.3666839599609375,-0.4764763712882996,0.1470982730388641,0.8977110385894775,XArbitraryZVertical,0.8616070481097615,-0.1071242254160971,-0.4834776376819565,-0.1113874555738232,0.8570000529289246,0.08836010098457336,0.507684588432312,0,0,0,-1,-1,33770.09030075,unknown,2,2022-06-02T10:39:54.392+02:00,2022-06-02T10:32:51.428+02:00,41,0.9590018,0,0,41.84445,0,0,2022-06-02T10:39:54.392+02:00,675851994.3918289,0,7.769531,101.0994,1,0.91
2022-06-02T10:39:56.553+02:00,1654159195.631285,53.22902755206121,10.39853781999526,29.18989,0.6552547,0.6189301,-1,-1,3,32,-9999,33772.246464625,0.3638153076171875,0.2253570556640625,1.328857421875,33772.242714625,2.863686443063509,2.098213704865337,-0.08121629964687815,-2.100601673126221,-1.115753054618835,-0.4346838891506195,-0.4899082779884338,0.1478463262319565,0.8537175059318542,XArbitraryZVertical,0.8607164528898277,-0.09994672276993775,-0.4882604335359252,-0.103824612566399,0.8612614274024963,0.08112704753875732,0.5016443133354187,0,0,0,-1,-1,33770.09030075,unknown,2,2022-06-02T10:39:54.392+02:00,2022-06-02T10:32:51.428+02:00,41,0.9590018,0,0,41.84445,0,0,2022-06-02T10:39:54.392+02:00,675851994.3918289,0,7.769531,101.0994,1,0.91
2022-06-02T10:39:56.563+02:00,1654159195.631285,53.22902755206121,10.39853781999526,29.18989,0.6552547,0.6189301,-1,-1,3,32,-9999,33772.256437625,0.3530120849609375,0.210418701171875,1.291595458984375,33772.252687625,2.88484618400813,2.087587078120566,-0.0742994661549477,-2.230302572250366,-1.410656094551086,-0.5101115703582764,-0.5077120065689087,0.1455869674682617,0.8234480023384094,XArbitraryZVertical,0.8590062820291426,-0.09204822651455434,-0.4943526668361666,-0.09618072672692501,0.8670106530189514,0.07423112541437149,0.4927293360233307,0,0,0,-1,-1,33770.09030075,unknown,2,2022-06-02T10:39:54.392+02:00,2022-06-02T10:32:51.428+02:00,41,0.9590018,0,0,41.84445,0,0,2022-06-02T10:39:54.392+02:00,675851994.3918289,0,7.769531,101.0994,1,0.91
2022-06-02T10:39:56.573+02:00,1654159195.631285,53.22902755206121,10.39853781999526,29.18989,0.6552547,0.6189301,-1,-1,3,32,-9999,33772.266410625,0.3470458984375,0.2290496826171875,1.262771606445312,33772.262659625,2.907536949390955,2.074425214514083,-0.06776463714256026,-2.351889133453369,-1.621821999549866,-0.5956560969352722,-0.5236071348190308,0.1425990760326385,0.798575758934021,XArbitraryZVertical,0.8566217225345655,-0.08336010853854096,-0.5014477308466488,-0.08832034990036475,0.873826801776886,0.06771278381347656,0.4814993739128113,0,0,0,-1,-1,33770.09030075,unknown,2,2022-06-02T10:39:54.392+02:00,2022-06-02T10:32:51.428+02:00,41,0.9590018,0,0,41.84445,0,0,2022-06-02T10:39:54.392+02:00,675851994.3918289,0,7.769531,101.0994,1,0.91
2022-06-02T10:39:56.583+02:00,1654159195.631285,53.22902755206121,10.39853781999526,29.18989,0.6552547,0.6189301,-1,-1,3,32,-9999,33772.276382625,0.3443756103515625,0.267852783203125,1.2294921875,33772.272632625,2.931922901447004,2.059318805763231,-0.06176541095126873,-2.495357513427734,-1.797117352485657,-0.6940410137176514,-0.5359455347061157,0.1842455267906189,0.7825345993041992,XArbitraryZVertical,0.8536758095770388,-0.07383101905936465,-0.5092690524659251,-0.0801978051775981,0.8813434839248657,0.06172614544630051,0.4684268236160278,0,0,0,-1,-1,33770.09030075,unknown,2,2022-06-02T10:39:54.392+02:00,2022-06-02T10:32:51.428+02:00,41,0.9590018,0,0,41.84445,0,0,2022-06-02T10:39:54.392+02:00,675851994.3918289,0,7.769531,101.0994,1,0.91
2022-06-02T10:39:56.593+02:00,1654159195.631285,53.22902755206121,10.39853781999526,29.18989,0.6552547,0.6189301,-1,-1,3,32,-9999,33772.286355625,0.3569793701171875,0.2791900634765625,1.186309814453125,33772.28260562501,2.958047921758286,2.042554478760633,-0.0564651339082009,-2.620204210281372,-1.949501872062683,-0.8141164779663086,-0.5419694185256958,0.217490628361702,0.7587955594062805,XArbitraryZVertical,0.8501998941755853,-0.06343906396544319,-0.5176659203077101,-0.07181582687320437,0.8893508911132812,0.05643513426184654,0.4537287354469299,0,0,0,-1,-1,33770.09030075,unknown,2,2022-06-02T10:39:54.392+02:00,2022-06-02T10:32:51.428+02:00,41,0.9590018,0,0,41.84445,0,0,2022-06-02T10:39:54.392+02:00,675851994.3918289,0,7.769531,101.0994,1,0.91
2022-06-02T10:39:56.603+02:00,1654159195.631285,53.22902755206121,10.39853781999526,29.18989,0.6552547,0.6189301,-1,-1,3,32,-9999,33772.296328625,0.3692779541015625,0.27001953125,1.1195068359375,33772.292577625,2.985816748852558,2.024261431686787,-0.05220697782687153,-2.705877304077148,-2.089427709579468,-0.9335845708847046,-0.5365036725997925,0.2238787412643433,0.7262711524963379,XArbitraryZVertical,0.8461808312749629,-0.05216410466179303,-0.526546048667852,-0.06329431480096157,0.8977097272872925,0.05218326672911644,0.4374861717224121,0,0,0,-1,-1,33770.09030075,unknown,2,2022-06-02T10:39:54.392+02:00,2022-06-02T10:32:51.428+02:00,41,0.9590018,0,0,41.84445,0,0,2022-06-02T10:39:54.392+02:00,675851994.3918289,0,7.769531,101.0994,1,0.91
2022-06-02T10:39:56.613+02:00,1654159195.631285,53.22902755206121,10.39853781999526,29.18989,0.6552547,0.6189301,-1,-1,3,32,-9999,33772.306300625,0.393768310546875,0.259033203125,1.060592651367188,33772.30255062501,3.014856459806117,2.004476017136381,-0.04936719714972453,-2.791614532470703,-2.212881088256836,-1.057510495185852,-0.5283599495887756,0.2171323150396347,0.6709822416305542,XArbitraryZVertical,0.8415720697184265,-0.04008484918895384,-0.5358562853462928,-0.05484175829145246,0.9063200354576111,0.04934714734554291,0.4197006821632385,0,0,0,-1,-1,33770.09030075,unknown,2,2022-06-02T10:39:54.392+02:00,2022-06-02T10:32:51.428+02:00,41,0.9590018,0,0,41.84445,0,0,2022-06-02T10:39:54.392+02:00,675851994.3918289,0,7.769531,101.0994,1,0.91
