,loggingTime(txt),accelerometerTimestamp_sinceReboot(s),accelerometerAccelerationX(G),accelerometerAccelerationY(G),accelerometerAccelerationZ(G),motionTimestamp_sinceReboot(s),motionYaw(rad),motionRoll(rad),motionPitch(rad),motionRotationRateX(rad/s),motionRotationRateY(rad/s),motionRotationRateZ(rad/s),motionUserAccelerationX(G),motionUserAccelerationY(G),motionUserAccelerationZ(G),motionAttitudeReferenceFrame(txt),motionQuaternionX(R),motionQuaternionY(R),motionQuaternionZ(R),motionQuaternionW(R),motionGravityX(G),motionGravityY(G),motionGravityZ(G),motionMagneticFieldX(µT),motionMagneticFieldY(µT),motionMagneticFieldZ(µT),motionHeading(°),motionMagneticFieldCalibrationAccuracy(Z),activityTimestamp_sinceReboot(s),activity(txt),activityActivityConfidence(Z),activityActivityStartDate(txt),pedometerStartDate(txt),pedometerNumberofSteps(N),pedometerAverageActivePace(s/m),pedometerCurrentPace(s/m),pedometerCurrentCadence(steps/s),pedometerDistance(m),pedometerFloorAscended(N),pedometerFloorDescended(N),pedometerEndDate(txt)
161,2022-06-30T09:23:35.800+02:00,3410.21826275,0.5119354248046876,-2.005828857421875,3.929628295898438,3410.20831175,0.8496726787310641,1.402142355743745,0.6922896891824372,-4.064733982086182,7.46466064453125,-2.150511264801025,-0.7373191714286804,0.4272266626358032,0.3695995807647705,XArbitraryZVertical,0.0138863023402603,-0.6596974196580434,-0.4956707111677637,-0.5647274620931579,0.7588645815849304,-0.638301432132721,-0.1292129755020142,0,0,0,-1,-1,3409.33244275,unknown,2,2022-06-30T09:23:34.913+02:00,2022-06-30T08:20:05.567+02:00,1062,1.422309,0.5991362,0.7218989,829.9735,0,0,2022-06-30T09:23:34.913+02:00
162,2022-06-30T09:23:35.809+02:00,3410.22821475,1.0612930297851564,-2.388732604980469,4.816683654785156,3410.21826275,0.8996108298198793,1.449066104478171,0.6645914315117123,-4.697471141815186,8.029258728027344,-2.38139271736145,-0.7433494329452515,0.4429553151130676,0.4316754341125488,XArbitraryZVertical,0.0524339546180947,-0.6704161376135088,-0.5024686162921491,-0.5434318906023463,0.7813438773155212,-0.6167375445365906,-0.0955857634544372,0,0,0,-1,-1,3409.33244275,unknown,2,2022-06-30T09:23:34.913+02:00,2022-06-30T08:20:05.567+02:00,1062,1.422309,0.5991362,0.7218989,829.9735,0,0,2022-06-30T09:23:34.913+02:00
163,2022-06-30T09:23:35.819+02:00,3410.23816575,1.6063096618652344,-2.142195281982422,6.42389144897461,3410.22821475,0.9582665982374048,1.497234746527055,0.6355509200572583,-5.289265155792236,8.706991195678711,-2.580640554428101,-0.7503832578659058,0.3891533613204956,0.4597182869911194,XArbitraryZVertical,0.094929279079549,-0.6792760657857826,-0.5095574738677149,-0.519541698713247,0.8025683164596558,-0.5936209559440613,-0.0591449178755283,0,0,0,-1,-1,3409.33244275,unknown,2,2022-06-30T09:23:34.913+02:00,2022-06-30T08:20:05.567+02:00,1062,1.422309,0.5991362,0.7218989,829.9735,0,0,2022-06-30T09:23:34.913+02:00
164,2022-06-30T09:23:35.829+02:00,3410.24811775,1.8609301757812502,-2.4303460693359376,8.266260223388672,3410.23816575,1.024728809637176,1.549201232488239,0.6066092440048267,-5.886484622955322,9.459620475769045,-2.76154637336731,-0.713209331035614,0.3265852928161621,0.5087378025054932,XArbitraryZVertical,0.1411849417583851,-0.6864374624243217,-0.5164585784641719,-0.4920782788891798,0.8213942646980286,-0.5700849294662476,-0.0177408456802368,0,0,0,-1,-1,3409.33244275,unknown,2,2022-06-30T09:23:34.913+02:00,2022-06-30T08:20:05.567+02:00,1062,1.422309,0.5991362,0.7218989,829.9735,0,0,2022-06-30T09:23:34.913+02:00
165,2022-06-30T09:23:35.839+02:00,3410.25806875,2.4962091064453125,-3.502416687011719,10.817105712890626,3410.24811775,1.098669204804142,1.606268567656247,0.5792895340430778,-6.438452243804932,10.27966690063477,-2.835929870605469,-0.6725832223892212,0.3290611505508423,0.6251518726348877,XArbitraryZVertical,0.1908726262656447,-0.691669743845537,-0.5227572747010655,-0.4603102700360991,0.836325466632843,-0.5474295020103455,0.029678788036108,0,0,0,-1,-1,3409.33244275,unknown,2,2022-06-30T09:23:34.913+02:00,2022-06-30T08:20:05.567+02:00,1062,1.422309,0.5991362,0.7218989,829.9735,0,0,2022-06-30T09:23:34.913+02:00
166,2022-06-30T09:23:35.849+02:00,3410.26802075,2.3903791809082033,-4.885390777587891,13.500126342773438,3410.25806875,1.180575836178763,1.669041091741532,0.5562957239093934,-7.15349292755127,11.17071437835693,-2.725856781005859,-0.6554244756698608,0.2803026437759399,0.7593388557434082,XArbitraryZVertical,0.2433907849502956,-0.6945569879814144,-0.5284345925402225,-0.4232119635266968,0.8451218605041504,-0.5280441045761108,0.0832969695329666,0,0,0,-1,-1,3409.33244275,unknown,2,2022-06-30T09:23:34.913+02:00,2022-06-30T08:20:05.567+02:00,1062,1.422309,0.5991362,0.7218989,829.9735,0,0,2022-06-30T09:23:34.913+02:00
167,2022-06-30T09:23:35.859+02:00,3410.2779725,1.5539186096191406,-6.361321563720703,16.746275939941405,3410.26802075,1.272021167536202,1.737433190137444,0.5405710103449749,-8.043042182922363,12.13421535491943,-2.504101991653442,-0.5910824537277222,0.1576007604598999,0.9604442119598388,XArbitraryZVertical,0.2983286545723461,-0.6943402076546097,-0.5336759640210657,-0.3795808541140459,0.8455381393432617,-0.5146256685256958,0.1422166228294373,0,0,0,-1,-1,3409.33244275,unknown,2,2022-06-30T09:23:34.913+02:00,2022-06-30T08:20:05.567+02:00,1062,1.422309,0.5991362,0.7218989,829.9735,0,0,2022-06-30T09:23:34.913+02:00
168,2022-06-30T09:23:35.869+02:00,3410.2879235,0.4140390014648438,-8.405171356201173,19.453396453857426,3410.2779725,1.373977326101818,1.812020608083695,0.5350989774560964,-8.97709846496582,13.35548496246338,-2.156792640686035,-0.5916438102722168,0.0119252800941467,1.170660495758057,XArbitraryZVertical,0.3553044361244131,-0.690295764256595,-0.5381919701107911,-0.3280244584892508,0.835311770439148,-0.5099261999130249,0.2054989635944366,0,0,0,-1,-1,3409.33244275,unknown,2,2022-06-30T09:23:34.913+02:00,2022-06-30T08:20:05.567+02:00,1062,1.422309,0.5991362,0.7218989,829.9735,0,0,2022-06-30T09:23:34.913+02:00
169,2022-06-30T09:23:35.879+02:00,3410.2978755,-2.169738006591797,-11.88648193359375,20.95806747436524,3410.2879235,1.484604161916804,1.895309686509475,0.5429839121773334,-9.739745140075684,14.74299907684326,-1.672706365585327,-0.6530821323394775,-0.1317595243453979,1.434073686599731,XArbitraryZVertical,0.413500010194817,-0.6822842201013583,-0.5405236350131998,-0.2670960842870273,0.8114839196205139,-0.5166930556297302,0.2729880213737488,0,0,0,-1,-1,3409.33244275,unknown,2,2022-06-30T09:23:34.913+02:00,2022-06-30T08:20:05.567+02:00,1062,1.422309,0.5991362,0.7218989,829.9735,0,0,2022-06-30T09:23:34.913+02:00
170,2022-06-30T09:23:35.889+02:00,3410.3078265,-7.958350524902344,-16.125965881347657,23.743774566650387,3410.2978755,1.596401925842029,1.990070940349016,0.5649209575179487,-9.536314964294434,16.1086311340332,-1.205210566520691,-0.7292668223381042,-0.3214470148086548,1.639169216156006,XArbitraryZVertical,0.4709235339264795,-0.6709358129995551,-0.5376276469374939,-0.1975673494879321,0.7714730501174927,-0.5353490710258484,0.3438476920127869,0,0,0,-1,-1,3409.33244275,unknown,2,2022-06-30T09:23:34.913+02:00,2022-06-30T08:20:05.567+02:00,1062,1.422309,0.5991362,0.7218989,829.9735,0,0,2022-06-30T09:23:34.913+02:00
171,2022-06-30T09:23:35.899+02:00,3410.3177785,-18.280136260986325,-21.496647491455075,30.496981201171877,3410.3078265,1.69641549354148,2.103323080195418,0.5966197256456104,-8.230698585510254,17.70144081115723,-0.8544099926948547,-0.9338650703430176,-0.6498202085494995,1.716398954391479,XArbitraryZVertical,0.5260750360923003,-0.6582132921081371,-0.5244683868678758,-0.1222018972665105,0.7126892805099487,-0.5618494153022766,0.419999361038208,0,0,0,-1,-1,3409.33244275,unknown,2,2022-06-30T09:23:34.913+02:00,2022-06-30T08:20:05.567+02:00,1062,1.422309,0.5991362,0.7218989,829.9735,0,0,2022-06-30T09:23:34.913+02:00
172,2022-06-30T09:23:35.909+02:00,3410.3277295,-30.913714599609378,-30.493688049316408,38.62777313232422,3410.3177785,1.77524049339676,2.243959995366267,0.6308950620729374,-6.293543815612793,19.69425964355469,-0.8669002652168274,-1.442594766616821,-1.053961277008057,1.916918516159058,XArbitraryZVertical,0.5793054003726311,-0.6450800232082219,-0.4963625149190855,-0.0436033641540091,0.6313462853431702,-0.5898677706718445,0.5034459829330444,0,0,0,-1,-1,3409.33244275,unknown,2,2022-06-30T09:23:34.913+02:00,2022-06-30T08:20:05.567+02:00,1062,1.422309,0.5991362,0.7218989,829.9735,0,0,2022-06-30T09:23:34.913+02:00
173,2022-06-30T09:23:35.919+02:00,3410.3376815,-44.74165924072266,-41.658221282959,48.211443786621096,3410.3277295,1.833021338711355,2.41537315054376,0.6586591323377777,-4.254065036773682,21.69279098510742,-1.551689147949219,-2.388556480407715,-1.57924222946167,2.517481088638306,XArbitraryZVertical,0.6319748320322576,-0.6294836571990775,-0.4506763765315145,0.035341754446692,0.5251381397247314,-0.6120570302009583,0.5912837386131287,0,0,0,-1,-1,3409.33244275,unknown,2,2022-06-30T09:23:34.913+02:00,2022-06-30T08:20:05.567+02:00,1062,1.422309,0.5991362,0.7218989,829.9735,0,0,2022-06-30T09:23:34.913+02:00
174,2022-06-30T09:23:35.929+02:00,3410.3476325,-62.045375976562504,-48.761849212646496,63.04005752563476,3410.3376815,1.879498839777089,2.611720670054965,0.6707921744303891,-1.901183247566223,23.50929069519043,-3.069696187973022,-3.547157526016235,-2.486822128295898,3.261678695678711,XArbitraryZVertical,0.6849714417604601,-0.6072649514502952,-0.3870540229080415,0.110601713815427,0.3959128260612488,-0.621606707572937,0.6759132146835327,0,0,0,-1,-1,3409.33244275,unknown,2,2022-06-30T09:23:34.913+02:00,2022-06-30T08:20:05.567+02:00,1062,1.422309,0.5991362,0.7218989,829.9735,0,0,2022-06-30T09:23:34.913+02:00
175,2022-06-30T09:23:35.939+02:00,3410.3575835,-83.45625183105469,-47.32199340820313,84.33402648925782,3410.3476325,1.933942429355604,2.818677749891048,0.6616481860640913,0.1760596185922623,24.70456886291504,-5.667107582092285,-4.811190128326416,-3.632087230682373,4.166318893432617,XArbitraryZVertical,0.7387589631080066,-0.5730061872881543,-0.3071885962940192,0.1775789893729575,0.2503689527511597,-0.614418089389801,0.7482017874717712,0,0,0,-1,-1,3409.33244275,unknown,2,2022-06-30T09:23:34.913+02:00,2022-06-30T08:20:05.567+02:00,1062,1.422309,0.5991362,0.7218989,829.9735,0,0,2022-06-30T09:23:34.913+02:00
176,2022-06-30T09:23:35.949+02:00,3410.3675355,-110.31100708007813,-40.822808532714845,112.98863891601563,3410.3575835,2.025545485529823,3.006567171228501,0.6381695803600224,1.143854022026062,23.86949729919434,-10.06041526794434,-6.432828426361084,-4.374900341033936,5.63022518157959,XArbitraryZVertical,0.7924426740103774,-0.5195893452362533,-0.2200669462224557,0.231586082481104,0.1081215590238571,-0.5957262516021729,0.7958769798278809,0,0,0,-1,-1,3409.33244275,unknown,2,2022-06-30T09:23:34.913+02:00,2022-06-30T08:20:05.567+02:00,1062,1.422309,0.5991362,0.7218989,829.9735,0,0,2022-06-30T09:23:34.913+02:00
177,2022-06-30T09:23:35.959+02:00,3410.3774865,-113.57467025756839,-29.23121337890625,133.93398284912115,3410.3675355,2.187048597143759,3.131904961407056,0.6179770159543763,1.35865044593811,19.96745109558105,-16.54691314697266,-8.515158653259277,-4.244464874267578,7.781726837158203,XArbitraryZVertical,0.8454986947356774,-0.438906647309303,-0.1437856335380221,0.2679901055564541,0.007895853370428,-0.5793874859809875,0.8150141835212708,0,0,0,-1,-1,3409.33244275,unknown,2,2022-06-30T09:23:34.913+02:00,2022-06-30T08:20:05.567+02:00,1062,1.422309,0.5991362,0.7218989,829.9735,0,0,2022-06-30T09:23:34.913+02:00
178,2022-06-30T09:23:35.969+02:00,3410.3874385,-115.50804977416995,-21.87535995483399,135.00216156005865,3410.3774865,2.420614057012208,-3.11684163508298,0.6097914539885956,0.55607008934021,13.83273696899414,-21.71174240112305,-11.22446346282959,-3.58864951133728,10.6981840133667,XArbitraryZVertical,0.8938091582945672,-0.3329615842804934,-0.0948341679622099,0.2850408495894272,-0.0202880091965198,-0.5726965069770813,0.8195164799690247,0,0,0,-1,-1,3409.33244275,unknown,2,2022-06-30T09:23:34.913+02:00,2022-06-30T08:20:05.567+02:00,1062,1.422309,0.5991362,0.7218989,829.9735,0,0,2022-06-30T09:23:34.913+02:00
179,2022-06-30T09:23:35.979+02:00,3410.3973895,-121.72956207275386,-12.111164703369138,124.54161437988282,3410.3874385,2.71488999516572,3.097976398619088,0.6031867240198544,1.192491054534912,5.847700595855713,-26.78690719604492,-11.61334609985352,-2.412466287612915,12.83005332946777,XArbitraryZVertical,0.931621244290762,-0.2084621083807219,-0.0832297218630082,0.2858292655989009,0.0359080098569393,-0.5672697424888611,0.8227491974830627,0,0,0,-1,-1,3409.33244275,unknown,2,2022-06-30T09:23:34.913+02:00,2022-06-30T08:20:05.567+02:00,1062,1.422309,0.5991362,0.7218989,829.9735,0,0,2022-06-30T09:23:34.913+02:00
180,2022-06-30T09:23:35.988+02:00,3410.4073415,-138.0769175720215,8.590785369873048,112.89358657836912,3410.3973895,3.044353134957568,2.92840150680905,0.5347659592308055,5.958189964294434,-3.964950561523438,-29.86587905883789,-11.95656204223633,-1.720264434814453,12.92077922821045,XArbitraryZVertical,0.9564920744314894,-0.0746844947359325,-0.1152597591412355,0.2574111521407625,0.1820408552885056,-0.5096396803855896,0.8409097194671631,0,0,0,-1,-1,3409.33244275,unknown,2,2022-06-30T09:23:34.913+02:00,2022-06-30T08:20:05.567+02:00,1062,1.422309,0.5991362,0.7218989,829.9735,0,0,2022-06-30T09:23:34.913+02:00
181,2022-06-30T09:23:35.999+02:00,3410.4172925,-159.27658264160158,33.56080993652344,97.8076579284668,3410.4073415,-2.950310148764786,2.706654101572026,0.3540301413927134,11.68667030334473,-15.53871059417725,-31.09664535522461,-12.80394554138184,-0.887892484664917,11.8447208404541,XArbitraryZVertical,0.9604238757083344,0.0539693432833451,-0.1949971660831242,0.1914407610412648,0.3952237367630005,-0.3466808199882507,0.8506534099578857,0,0,0,-1,-1,3409.33244275,unknown,2,2022-06-30T09:23:34.913+02:00,2022-06-30T08:20:05.567+02:00,1062,1.422309,0.5991362,0.7218989,829.9735,0,0,2022-06-30T09:23:34.913+02:00
182,2022-06-30T09:23:36.009+02:00,3410.4272435,-219.14383804321287,44.26265533447266,48.87441513061525,3410.4172925,-2.756842749156186,2.44588904457607,0.0737073209042055,15.60315036773682,-27.46470069885254,-31.54506492614746,-14.71430492401123,0.9493578672409058,10.74249267578125,XArbitraryZVertical,0.9245396641395828,0.1672894627526586,-0.3277410661990582,0.0991281719811125,0.6391854286193848,-0.0736405998468399,0.7655187249183655,0,0,0,-1,-1,3409.33244275,unknown,2,2022-06-30T09:23:34.913+02:00,2022-06-30T08:20:05.567+02:00,1062,1.422309,0.5991362,0.7218989,829.9735,0,0,2022-06-30T09:23:34.913+02:00
183,2022-06-30T09:23:36.019+02:00,3410.4371955,-313.5872419738769,95.70108856201175,-21.294418029785156,3410.4272435,-2.686901316760876,2.135491591135795,-0.290786452731578,23.71918106079102,-34.63358688354492,-32.27545928955078,-17.04543304443359,3.134375810623169,9.457508087158203,XArbitraryZVertical,0.8288227589760497,0.2634364410946735,-0.4933490688252171,-0.0161515257643371,0.8092880845069885,0.2867057621479034,0.512691855430603,0,0,0,-1,-1,3409.33244275,unknown,2,2022-06-30T09:23:34.913+02:00,2022-06-30T08:20:05.567+02:00,1062,1.422309,0.5991362,0.7218989,829.9735,0,0,2022-06-30T09:23:34.913+02:00
184,2022-06-30T09:23:36.028+02:00,3410.4471465,-251.999913482666,297.4889685058594,14.3461669921875,3410.4371955,-2.908225582307753,1.67788347535631,-0.6579166617399128,34.87717819213867,-34.78755950927734,-24.07587051391602,-23.12555694580078,3.900523900985718,4.897529125213623,XArbitraryZVertical,0.6741257465398779,0.296379596113925,-0.6560976825577627,-0.1650743725300939,0.7867353558540344,0.6114696860313416,0.0845727771520614,0,0,0,-1,-1,3409.33244275,unknown,2,2022-06-30T09:23:34.913+02:00,2022-06-30T08:20:05.567+02:00,1062,1.422309,0.5991362,0.7218989,829.9735,0,0,2022-06-30T09:23:34.913+02:00
185,2022-06-30T09:23:36.038+02:00,3410.4570985,-127.55395019531251,289.37209762573247,313.9792767333985,3410.4471465,2.858586849849738,0.9786557683702508,-0.7871597205161538,34.94141387939453,-34.81095504760742,-16.61074256896973,-32.55176544189453,9.047111511230469,-1.776716709136963,XArbitraryZVertical,0.4774944024063462,0.2738891049646784,-0.7815944676654282,-0.2934179674363059,0.5856859683990479,0.7083513140678406,-0.3939677178859711,0,0,0,-1,-1,3409.33244275,unknown,2,2022-06-30T09:23:34.913+02:00,2022-06-30T08:20:05.567+02:00,1062,1.422309,0.5991362,0.7218989,829.9735,0,0,2022-06-30T09:23:34.913+02:00
186,2022-06-30T09:23:36.048+02:00,3410.4670495,-293.31864074707033,-260.69263687133787,264.4924850463868,3410.4570985,2.510781855651643,0.4242687339233727,-0.5637588831184956,34.87002944946289,-27.44931793212891,-5.321052074432373,-26.0360164642334,29.79070663452148,2.232715129852295,XArbitraryZVertical,0.2766132764095763,0.195777681774728,-0.8745151456810448,-0.346957451637371,0.3479519486427307,0.5343671441078186,-0.7703123688697815,0,0,0,-1,-1,3409.33244275,unknown,2,2022-06-30T09:23:34.913+02:00,2022-06-30T08:20:05.567+02:00,1062,1.422309,0.5991362,0.7218989,829.9735,0,0,2022-06-30T09:23:34.913+02:00
187,2022-06-30T09:23:36.058+02:00,3410.4770015,-63.479693298339846,-294.6019221496582,6.600973205566406,3410.4670495,2.449253731133437,0.3717627787669769,-0.228509971232906,29.77640724182129,11.04357051849365,18.79583358764648,-13.35625648498535,29.27113914489746,32.91351318359375,XArbitraryZVertical,0.2107318222894392,0.0430986208934195,-0.9112983961673756,-0.3510980692325127,0.3538154661655426,0.2265264838933945,-0.9074692130088806,0,0,0,-1,-1,3409.33244275,unknown,2,2022-06-30T09:23:34.913+02:00,2022-06-30T08:20:05.567+02:00,1062,1.422309,0.5991362,0.7218989,829.9735,0,0,2022-06-30T09:23:34.913+02:00
188,2022-06-30T09:23:36.068+02:00,3410.4869525,-3.0454170227050783,-78.19439392089843,34.05014236450195,3410.4770015,2.548171670776983,0.5178204373391615,-0.0788616986154581,-7.538634300231934,12.90026473999023,8.569305419921875,-30.39341163635254,-26.65295219421387,27.82771682739258,XArbitraryZVertical,0.2557908878664462,-0.038356462779868,-0.9207600896160888,-0.2920631441120534,0.4934490919113159,0.0787799805402755,-0.8661996126174927,0,0,0,-1,-1,3409.33244275,unknown,2,2022-06-30T09:23:34.913+02:00,2022-06-30T08:20:05.567+02:00,1062,1.422309,0.5991362,0.7218989,829.9735,0,0,2022-06-30T09:23:34.913+02:00
189,2022-06-30T09:23:36.078+02:00,3410.4969035,-22.523362426757814,-75.07233627319337,42.95796844482422,3410.4869525,2.641784529175629,0.6140344144833217,-0.1752974313651303,-16.35173797607422,4.72626256942749,-0.2910244166851044,-7.038256168365479,-30.20517730712891,1.477686643600464,XArbitraryZVertical,0.3123409889154573,0.0063965782656979,-0.9135399495285124,-0.2604748730541902,0.5673396587371826,0.1744010150432587,-0.8048043847084045,0,0,0,-1,-1,3409.33244275,unknown,2,2022-06-30T09:23:34.913+02:00,2022-06-30T08:20:05.567+02:00,1062,1.422309,0.5991362,0.7218989,829.9735,0,0,2022-06-30T09:23:34.913+02:00
190,2022-06-30T09:23:36.088+02:00,3410.5068555,-42.660087890625,-66.10044342041016,73.37292022705078,3410.4969035,2.765443303573063,0.7176443426480944,-0.2858086913731325,-15.04663848876953,8.367696762084961,5.865050315856934,-0.9413750767707824,-8.252819061279297,4.193758964538574,XArbitraryZVertical,0.3663943481745509,0.066007970222307,-0.9010734641237044,-0.2224070450464495,0.6309351921081543,0.2819334268569946,-0.7227962613105774,0,0,0,-1,-1,3409.33244275,unknown,2,2022-06-30T09:23:34.913+02:00,2022-06-30T08:20:05.567+02:00,1062,1.422309,0.5991362,0.7218989,829.9735,0,0,2022-06-30T09:23:34.913+02:00
191,2022-06-30T09:23:36.098+02:00,3410.5168065,-36.31672897338868,-34.95875289916993,78.50409988403321,3410.5068555,2.929144667520274,0.8475625293133385,-0.356053986251627,-17.8179817199707,8.929956436157227,7.296022415161133,-2.998609304428101,-8.001212120056152,4.999301433563232,XArbitraryZVertical,0.4195446056550884,0.1176039079942248,-0.8843563001345104,-0.167527984735212,0.7026499509811401,0.3485784530639648,-0.6203032732009888,0,0,0,-1,-1,3409.33244275,unknown,2,2022-06-30T09:23:34.913+02:00,2022-06-30T08:20:05.567+02:00,1062,1.422309,0.5991362,0.7218989,829.9735,0,0,2022-06-30T09:23:34.913+02:00
192,2022-06-30T09:23:36.108+02:00,3410.5267585,-19.39322158813476,13.877790985107428,21.021086425781252,3410.5168065,-3.12334241324171,1.012703982927522,-0.4176047017181207,-24.64054679870605,5.362200736999512,8.851609230041504,-5.124001979827881,-7.14363956451416,7.963460445404053,XArbitraryZVertical,0.4727822579583423,0.185599633274401,-0.8564066800737483,-0.0927220004997264,0.77536940574646,0.4055721759796143,-0.4840594232082367,0,0,0,-1,-1,3409.33244275,unknown,2,2022-06-30T09:23:34.913+02:00,2022-06-30T08:20:05.567+02:00,1062,1.422309,0.5991362,0.7218989,829.9735,0,0,2022-06-30T09:23:34.913+02:00
193,2022-06-30T09:23:36.118+02:00,3410.5367095,-18.8345832824707,64.75174804687501,8.64646957397461,3410.5267585,-2.843941561395712,1.147905449394566,-0.4620723325847403,-23.23126792907715,-3.306201457977295,5.91190242767334,-4.518286228179932,-4.009387493133545,8.369816780090332,XArbitraryZVertical,0.4941739996359652,0.2685367863724395,-0.8268475802264359,-0.0017464365964245,0.8162751793861389,0.4458040595054626,-0.3673601150512695,0,0,0,-1,-1,3409.33244275,unknown,2,2022-06-30T09:23:34.913+02:00,2022-06-30T08:20:05.567+02:00,1062,1.422309,0.5991362,0.7218989,829.9735,0,0,2022-06-30T09:23:34.913+02:00
194,2022-06-30T09:23:36.128+02:00,3410.5466605,-45.94785095214844,66.3326106262207,-17.239949340820313,3410.5367095,-2.615527998425425,1.178281188434686,-0.4965106841554933,-15.40853881835938,-10.69580841064453,4.043770790100098,-2.789265871047974,0.9382972121238708,2.479147672653198,XArbitraryZVertical,0.4669694511058037,0.3373084929807747,-0.8137093046799937,0.0777156352500135,0.8123830556869507,0.4763604700565338,-0.3363250195980072,0,0,0,-1,-1,3409.33244275,unknown,2,2022-06-30T09:23:34.913+02:00,2022-06-30T08:20:05.567+02:00,1062,1.422309,0.5991362,0.7218989,829.9735,0,0,2022-06-30T09:23:34.913+02:00
195,2022-06-30T09:23:36.138+02:00,3410.5566125,-51.73945724487306,48.501690216064446,2.5231530761718752,3410.5466605,-2.546983759591912,1.090586587249558,-0.4926706823175454,4.709891796112061,-12.63433742523193,1.734039545059204,-2.701358795166016,6.127605438232422,1.288418889045715,XArbitraryZVertical,0.4198692342612427,0.3466948570431084,-0.8298409425425393,0.1219695654912004,0.7814217805862427,0.4729806482791901,-0.407025009393692,0,0,0,-1,-1,3409.33244275,unknown,2,2022-06-30T09:23:34.913+02:00,2022-06-30T08:20:05.567+02:00,1062,1.422309,0.5991362,0.7218989,829.9735,0,0,2022-06-30T09:23:34.913+02:00
196,2022-06-30T09:23:36.148+02:00,3410.5665635,-46.71575408935547,-14.53537353515625,10.40800643920899,3410.5566125,-2.624931302687047,0.9402403534006316,-0.4228122606817897,13.89697074890137,-10.84092426300049,2.257968664169312,-5.42034912109375,6.351407527923584,-1.219711303710938,XArbitraryZVertical,0.3804212718959634,0.2940117857137451,-0.8670252498150597,0.1307821222331552,0.7365726828575134,0.4103266894817352,-0.5376734733581543,0,0,0,-1,-1,3409.33244275,unknown,2,2022-06-30T09:23:34.913+02:00,2022-06-30T08:20:05.567+02:00,1062,1.422309,0.5991362,0.7218989,829.9735,0,0,2022-06-30T09:23:34.913+02:00
197,2022-06-30T09:23:36.158+02:00,3410.5765155,-51.17722640991212,-24.645798797607426,13.957425384521489,3410.5665635,-2.725195823557102,0.8054379468031496,-0.2927545963448517,15.4594898223877,-9.066856384277344,5.943827629089355,-5.964606285095215,4.655516624450684,0.9205213785171508,XArbitraryZVertical,0.3516208999691715,0.2114316203070504,-0.9023208957765412,0.1321986635321436,0.6904517412185669,0.2885906994342804,-0.6633188128471375,0,0,0,-1,-1,3409.33244275,unknown,2,2022-06-30T09:23:34.913+02:00,2022-06-30T08:20:05.567+02:00,1062,1.422309,0.5991362,0.7218989,829.9735,0,0,2022-06-30T09:23:34.913+02:00
198,2022-06-30T09:23:36.168+02:00,3410.5864665,-43.14552841186524,-35.9398127746582,6.051465911865234,3410.5765155,-2.774163821463276,0.7164529283855101,-0.1521799727003011,11.55923748016357,-6.12621545791626,6.225997924804688,-5.411178112030029,-1.633282661437988,1.806383371353149,XArbitraryZVertical,0.3307108985620194,0.133858817008594,-0.9229650151560156,0.1443870475938638,0.6491241455078125,0.1515932679176331,-0.745424211025238,0,0,0,-1,-1,3409.33244275,unknown,2,2022-06-30T09:23:34.913+02:00,2022-06-30T08:20:05.567+02:00,1062,1.422309,0.5991362,0.7218989,829.9735,0,0,2022-06-30T09:23:34.913+02:00
199,2022-06-30T09:23:36.178+02:00,3410.5964185,-32.97028793334962,-39.07489334106445,-0.1993853759765625,3410.5864665,-2.783229719300641,0.6658829047312361,-0.0414985740507584,6.796222686767578,-4.07137393951416,6.664793968200684,-5.83406400680542,-2.553800344467163,2.208470344543457,XArbitraryZVertical,0.3180279417062723,0.0775299767688939,-0.9309625570464268,0.161728472998457,0.6172218322753906,0.0414866656064987,-0.7856946587562561,0,0,0,-1,-1,3409.33244275,unknown,2,2022-06-30T09:23:34.913+02:00,2022-06-30T08:20:05.567+02:00,1062,1.422309,0.5991362,0.7218989,829.9735,0,0,2022-06-30T09:23:34.913+02:00
200,2022-06-30T09:23:36.188+02:00,3410.6063695,-29.095445709228514,-32.48364990234375,-0.6709048461914063,3410.5964185,-2.754993217820093,0.6272534792111985,0.0374188338399136,2.369785070419312,-3.722978353500366,7.257258892059326,-4.984629154205322,-3.626179218292236,1.42594313621521,XArbitraryZVertical,0.3061302353594039,0.0417896211707875,-0.9322330389612792,0.1883600835474642,0.5865124464035034,-0.0374101027846336,-0.8090758323669434,0,0,0,-1,-1,3409.33244275,unknown,2,2022-06-30T09:23:34.913+02:00,2022-06-30T08:20:05.567+02:00,1062,1.422309,0.5991362,0.7218989,829.9735,0,0,2022-06-30T09:23:34.913+02:00
201,2022-06-30T09:23:36.200+02:00,3410.6163205,-27.470724334716802,-26.504633331298827,-0.34563125610351564,3410.6063695,-2.696838933570186,0.583404213719444,0.0786883387283542,-2.096611022949219,-4.350827693939209,7.02794075012207,-3.910048961639404,-3.90456223487854,0.8116852641105652,XArbitraryZVertical,0.2885929051595736,0.0266321682092616,-0.9309542896072166,0.2221014785630561,0.5491636991500854,-0.0786071568727493,-0.8320097327232361,0,0,0,-1,-1,3409.33244275,unknown,2,2022-06-30T09:23:34.913+02:00,2022-06-30T08:20:05.567+02:00,1062,1.422309,0.5991362,0.7218989,829.9735,0,0,2022-06-30T09:23:34.913+02:00
202,2022-06-30T09:23:36.210+02:00,3410.6262725,-28.02352478027344,-17.004339294433596,0.8915460205078125,3410.6163205,-2.616553911027185,0.5293828103002288,0.0817215676394318,-5.833309173583984,-5.211841583251953,6.943908214569092,-3.469211578369141,-3.229648590087891,0.7918487191200256,XArbitraryZVertical,0.2626693458932801,0.0297593054750739,-0.9285543775530262,0.2605878933735416,0.5033153891563416,-0.081630639731884,-0.8602383732795715,0,0,0,-1,-1,3409.33244275,unknown,2,2022-06-30T09:23:34.913+02:00,2022-06-30T08:20:05.567+02:00,1062,1.422309,0.5991362,0.7218989,829.9735,0,0,2022-06-30T09:23:34.913+02:00
203,2022-06-30T09:23:36.218+02:00,3410.6362235,-31.035112152099614,-3.9240898132324222,3.3883538818359376,3410.6262725,-2.520850743491493,0.4654942545222018,0.048855930690797,-9.00474739074707,-6.317707538604736,6.774590015411377,-3.248606204986572,-2.652961015701294,0.8573012351989746,XArbitraryZVertical,0.2268241734544026,0.047791317601112,-0.924548043537489,0.3024528505351199,0.4483289420604706,-0.0488364957273006,-0.892533540725708,0,0,0,-1,-1,3409.33244275,unknown,2,2022-06-30T09:23:34.913+02:00,2022-06-30T08:20:05.567+02:00,1062,1.422309,0.5991362,0.7218989,829.9735,0,0,2022-06-30T09:23:34.913+02:00
204,2022-06-30T09:23:36.227+02:00,3410.6461755,-38.301152343750005,9.799072723388674,3.1906150817871097,3410.6362235,-2.419031961008504,0.3963429839659403,-0.0154420940541574,-11.18275547027588,-7.155418395996094,6.320010662078857,-3.242629289627075,-1.748809456825256,1.013250470161438,XArbitraryZVertical,0.1814863253574045,0.076669640278258,-0.9176466740402422,0.3451218713312845,0.3860013782978058,0.0154414800927043,-0.9223689436912536,0,0,0,-1,-1,3409.33244275,unknown,2,2022-06-30T09:23:34.913+02:00,2022-06-30T08:20:05.567+02:00,1062,1.422309,0.5991362,0.7218989,829.9735,0,0,2022-06-30T09:23:34.913+02:00
205,2022-06-30T09:23:36.237+02:00,3410.6561265,-42.66293197631837,15.142361297607428,-2.5128245544433594,3410.6461755,-2.3249319312129,0.3285642853619588,-0.1055011739938419,-12.18421745300293,-7.497072696685791,4.808897495269775,-3.484509944915771,-0.505314826965332,1.286642074584961,XArbitraryZVertical,0.1292351362474208,0.1125890977989726,-0.9075926577063834,0.3832723453610983,0.3208903074264526,0.1053055673837662,-0.9412439465522766,0,0,0,-1,-1,3409.33244275,unknown,2,2022-06-30T09:23:34.913+02:00,2022-06-30T08:20:05.567+02:00,1062,1.422309,0.5991362,0.7218989,829.9735,0,0,2022-06-30T09:23:34.913+02:00
206,2022-06-30T09:23:36.247+02:00,3410.6660785,-40.37149703979493,17.81176025390625,-6.865323486328125,3410.6561265,-2.251714073628466,0.2666974435189513,-0.2046985595373716,-10.90443992614746,-7.126200199127197,3.378539562225342,-4.162341117858887,0.7956140041351318,1.269748091697693,XArbitraryZVertical,0.0757968413686843,0.1483285735668186,-0.895788363923058,0.4120884016039128,0.2580448389053345,0.2032720148563385,-0.9445069432258606,0,0,0,-1,-1,3409.33244275,unknown,2,2022-06-30T09:23:34.913+02:00,2022-06-30T08:20:05.567+02:00,1062,1.422309,0.5991362,0.7218989,829.9735,0,0,2022-06-30T09:23:34.913+02:00
207,2022-06-30T09:23:36.257+02:00,3410.6760295,-36.90350875854493,16.82216812133789,-8.698112182617187,3410.6660785,-2.198033129766463,0.2120563248112567,-0.2904227133227205,-8.185291290283203,-6.488265991210938,2.729487180709839,-4.550579071044922,1.257206439971924,0.6805118918418884,XArbitraryZVertical,0.0278831594633405,0.1757610720990267,-0.8833959819415094,0.4335231052698851,0.2016567140817642,0.2863572537899017,-0.9366611242294312,0,0,0,-1,-1,3409.33244275,unknown,2,2022-06-30T09:23:34.913+02:00,2022-06-30T08:20:05.567+02:00,1062,1.422309,0.5991362,0.7218989,829.9735,0,0,2022-06-30T09:23:34.913+02:00
208,2022-06-30T09:23:36.267+02:00,3410.6859805,-32.595167999267574,12.164304199218751,-7.441924438476563,3410.6760295,-2.159926517324166,0.1629502335979518,-0.3511042824511609,-5.238412380218506,-5.818346500396729,2.114500045776367,-4.267673492431641,1.471738815307617,0.2267255187034607,XArbitraryZVertical,-0.0113773977172993,0.1912936151811907,-0.8722046146923114,0.4500406588998155,0.1523329764604568,0.3439349234104156,-0.9265546202659608,0,0,0,-1,-1,3409.33244275,unknown,2,2022-06-30T09:23:34.913+02:00,2022-06-30T08:20:05.567+02:00,1062,1.422309,0.5991362,0.7218989,829.9735,0,0,2022-06-30T09:23:34.913+02:00
209,2022-06-30T09:23:36.277+02:00,3410.6959325,-29.223130187988282,8.403225402832032,-6.611152038574219,3410.6859805,-2.134157094423141,0.1159511714223461,-0.3897518906374143,-3.27332067489624,-5.581160068511963,1.606730699539185,-3.868840217590332,1.3348388671875,0.0321344137191772,XArbitraryZVertical,-0.0435267023396886,0.1967469224539797,-0.8631891661634477,0.4629261899431885,0.1070150509476662,0.3799589276313782,-0.9187921285629272,0,0,0,-1,-1,3409.33244275,unknown,2,2022-06-30T09:23:34.913+02:00,2022-06-30T08:20:05.567+02:00,1062,1.422309,0.5991362,0.7218989,829.9735,0,0,2022-06-30T09:23:34.913+02:00
210,2022-06-30T09:23:36.287+02:00,3410.7058835,-28.391010589599617,6.4656546020507815,-8.013585662841797,3410.6959325,-2.11607894457014,0.0667437453174746,-0.4156419158401536,-2.302435636520386,-5.759560108184814,1.24509072303772,-3.383662462234497,0.8362128138542175,0.1542143821716309,XArbitraryZVertical,-0.0727153552086528,0.1957097159567541,-0.8555479941861501,0.4737593929219283,0.0610156804323196,0.4037772715091705,-0.9128203392028807,0,0,0,-1,-1,3409.33244275,unknown,2,2022-06-30T09:23:34.913+02:00,2022-06-30T08:20:05.567+02:00,1062,1.422309,0.5991362,0.7218989,829.9735,0,0,2022-06-30T09:23:34.913+02:00
211,2022-06-30T09:23:36.297+02:00,3410.7158355,-28.91207702636719,5.988896026611329,-7.10841796875,3410.7058835,-2.103732838639948,0.0132356649602499,-0.4351170512631479,-1.739218711853027,-6.016448020935059,0.8478823304176331,-2.990913867950439,0.4350812137126923,0.232821524143219,XArbitraryZVertical,-0.1014358224447052,0.1906308652517444,-0.8485709568328508,0.4830094287440616,0.0120020247995853,0.4215165376663208,-0.9067413210868835,0,0,0,-1,-1,3409.33244275,unknown,2,2022-06-30T09:23:34.913+02:00,2022-06-30T08:20:05.567+02:00,1062,1.422309,0.5991362,0.7218989,829.9735,0,0,2022-06-30T09:23:34.913+02:00
212,2022-06-30T09:23:36.307+02:00,3410.7257865,-29.706924133300785,4.94137435913086,-5.429958343505859,3410.7158355,-2.096659556797625,-0.044121881514905,-0.4506568423412118,-1.379479646682739,-6.082173824310303,0.4857739508152008,-2.854384422302246,0.2235310971736908,0.0824058055877685,XArbitraryZVertical,-0.1300999832127169,0.1828426055067742,-0.8420192061698246,0.4905570230781992,-0.0397039204835891,0.4355568885803223,-0.8992851376533508,0,0,0,-1,-1,3409.33244275,unknown,2,2022-06-30T09:23:34.913+02:00,2022-06-30T08:20:05.567+02:00,1062,1.422309,0.5991362,0.7218989,829.9735,0,0,2022-06-30T09:23:34.913+02:00
213,2022-06-30T09:23:36.317+02:00,3410.7357385,-29.617410278320314,3.958817596435547,-5.310656433105469,3410.7257865,-2.093906053386686,-0.1023270308845103,-0.4634711824287089,-1.187464714050293,-5.827222347259521,0.2218887209892273,-2.855831623077393,0.1634329259395599,0.1652175784111023,XArbitraryZVertical,-0.1578314295131002,0.1737115978234565,-0.8357788345468686,0.496373994547413,-0.0913724973797798,0.4470557868480682,-0.8898270130157471,0,0,0,-1,-1,3409.33244275,unknown,2,2022-06-30T09:23:34.913+02:00,2022-06-30T08:20:05.567+02:00,1062,1.422309,0.5991362,0.7218989,829.9735,0,0,2022-06-30T09:23:34.913+02:00
214,2022-06-30T09:23:36.327+02:00,3410.7456895,-28.58545623779297,3.607947235107422,-6.055956573486329,3410.7357385,-2.093592750639735,-0.1580684517372275,-0.4753473306349695,-1.188780307769775,-5.395652294158936,0.1725877523422241,-2.888268947601318,0.0460604429244995,0.3245364427566528,XArbitraryZVertical,-0.1838721210748746,0.1648225638343965,-0.8295574017373035,0.5008582636429246,-0.1399594694375992,0.457647293806076,-0.8780491352081299,0,0,0,-1,-1,3409.33244275,unknown,2,2022-06-30T09:23:34.913+02:00,2022-06-30T08:20:05.567+02:00,1062,1.422309,0.5991362,0.7218989,829.9735,0,0,2022-06-30T09:23:34.913+02:00
215,2022-06-30T09:23:36.337+02:00,3410.7556405,-27.3321125793457,3.6458184814453127,-5.418282623291016,3410.7456895,-2.093815264433252,-0.2096154924862916,-0.4881025384141022,-1.355387568473816,-4.941757678985596,0.2588172852993011,-2.835319042205811,-0.0654017925262451,0.3225399255752563,XArbitraryZVertical,-0.2081158933554858,0.1572961941435128,-0.8229653963403842,0.5046519906779172,-0.1837846785783768,0.4689508378505707,-0.8638913631439209,0,0,0,-1,-1,3409.33244275,unknown,2,2022-06-30T09:23:34.913+02:00,2022-06-30T08:20:05.567+02:00,1062,1.422309,0.5991362,0.7218989,829.9735,0,0,2022-06-30T09:23:34.913+02:00
216,2022-06-30T09:23:36.347+02:00,3410.7655925,-25.932822418212886,3.06802001953125,-4.648882598876954,3410.7556405,-2.094332314571,-0.2563772087589996,-0.5027996420453347,-1.522614359855652,-4.396559238433838,0.3286131322383881,-2.691715240478516,-0.1140981316566467,0.2302720546722412,XArbitraryZVertical,-0.2305948708027755,0.1517480291548263,-0.8160033072108356,0.5078751002683327,-0.2221942692995071,0.4818805754184723,-0.847597062587738,0,0,0,-1,-1,3409.33244275,unknown,2,2022-06-30T09:23:34.913+02:00,2022-06-30T08:20:05.567+02:00,1062,1.422309,0.5991362,0.7218989,829.9735,0,0,2022-06-30T09:23:34.913+02:00
217,2022-06-30T09:23:36.357+02:00,3410.7755435,-23.735691375732426,2.9352461242675782,-4.0236328125,3410.7655925,-2.095518669396612,-0.2979366148037649,-0.5188501766380426,-1.644769906997681,-3.856142997741699,0.3588380515575409,-2.531233310699463,-0.124239057302475,0.2778097987174988,XArbitraryZVertical,-0.2509914119706326,0.1481118906544927,-0.8090260705585817,0.5104342157081432,-0.2549144327640533,0.495881974697113,-0.8301323652267456,0,0,0,-1,-1,3409.33244275,unknown,2,2022-06-30T09:23:34.913+02:00,2022-06-30T08:20:05.567+02:00,1062,1.422309,0.5991362,0.7218989,829.9735,0,0,2022-06-30T09:23:34.913+02:00
218,2022-06-30T09:23:36.367+02:00,3410.7854955,-21.591400451660157,3.2016920471191406,-3.7350329589843754,3410.7755435,-2.097407824390662,-0.3355906475782493,-0.536443343115153,-1.826808929443359,-3.558613061904907,0.4364180564880371,-2.3604416847229,-0.1983381509780884,0.3376913070678711,XArbitraryZVertical,-0.2698901256601128,0.1461761367330728,-0.8019742156310128,0.5124737054809373,-0.283066987991333,0.5110821723937988,-0.8115836977958679,0,0,0,-1,-1,3409.33244275,unknown,2,2022-06-30T09:23:34.913+02:00,2022-06-30T08:20:05.567+02:00,1062,1.422309,0.5991362,0.7218989,829.9735,0,0,2022-06-30T09:23:34.913+02:00
219,2022-06-30T09:23:36.377+02:00,3410.7954465,-20.35197784423828,3.278632049560547,-3.826193389892578,3410.7854955,-2.100271471508497,-0.3720556854286782,-0.5564874481746438,-2.136221647262573,-3.486505270004272,0.4920336902141571,-2.110859870910645,-0.2289974689483643,0.3808645009994507,XArbitraryZVertical,-0.2885540892954325,0.1456917174085203,-0.7944636053196118,0.5141382092929433,-0.3086800873279572,0.5282068848609924,-0.791020929813385,0,0,0,-1,-1,3409.33244275,unknown,2,2022-06-30T09:23:34.913+02:00,2022-06-30T08:20:05.567+02:00,1062,1.422309,0.5991362,0.7218989,829.9735,0,0,2022-06-30T09:23:34.913+02:00
220,2022-06-30T09:23:36.387+02:00,3410.8053985,-19.561471710205076,3.9210960388183596,-4.224515075683594,3410.7954465,-2.105260745871311,-0.4095344406221998,-0.5792507640131723,-2.402862071990967,-3.507333755493164,0.4576560258865356,-1.867729902267456,-0.2210269570350647,0.3869314193725586,XArbitraryZVertical,-0.3077851900139228,0.1464029201991897,-0.7863915172523408,0.5151921799877993,-0.3332280516624451,0.5473970770835876,-0.7676689028739929,0,0,0,-1,-1,3409.33244275,unknown,2,2022-06-30T09:23:34.913+02:00,2022-06-30T08:20:05.567+02:00,1062,1.422309,0.5991362,0.7218989,829.9735,0,0,2022-06-30T09:23:34.913+02:00
