,loggingTime(txt),accelerometerTimestamp_sinceReboot(s),accelerometerAccelerationX(G),accelerometerAccelerationY(G),accelerometerAccelerationZ(G),motionTimestamp_sinceReboot(s),motionYaw(rad),motionRoll(rad),motionPitch(rad),motionRotationRateX(rad/s),motionRotationRateY(rad/s),motionRotationRateZ(rad/s),motionUserAccelerationX(G),motionUserAccelerationY(G),motionUserAccelerationZ(G),motionAttitudeReferenceFrame(txt),motionQuaternionX(R),motionQuaternionY(R),motionQuaternionZ(R),motionQuaternionW(R),motionGravityX(G),motionGravityY(G),motionGravityZ(G),motionMagneticFieldX(µT),motionMagneticFieldY(µT),motionMagneticFieldZ(µT),motionHeading(°),motionMagneticFieldCalibrationAccuracy(Z),activityTimestamp_sinceReboot(s),activity(txt),activityActivityConfidence(Z),activityActivityStartDate(txt),pedometerStartDate(txt),pedometerNumberofSteps(N),pedometerAverageActivePace(s/m),pedometerCurrentPace(s/m),pedometerCurrentCadence(steps/s),pedometerDistance(m),pedometerFloorAscended(N),pedometerFloorDescended(N),pedometerEndDate(txt)
171,2022-06-30T09:23:20.484+02:00,3394.903008,-0.14474899291992188,-0.43724075317382816,-1.7792001342773438,3394.893056,0.1090380111900337,0.8682990858777301,0.6895117689354017,-2.512769222259521,7.14802074432373,-2.45104193687439,-0.5017944574356079,0.4742493629455566,0.0255762338638305,XArbitraryZVertical,-0.2845848272478477,-0.4120075102830131,-0.1884785807118307,-0.8448296123111987,0.5888760089874268,-0.6361605525016785,-0.4985225796699524,0,0,0,-1,-1,3394.051207,running,2,2022-06-30T09:23:19.632+02:00,2022-06-30T08:20:05.567+02:00,1052,1.411193,0.0,0,819.8695,0,0,2022-06-30T09:23:19.631+02:00
172,2022-06-30T09:23:20.494+02:00,3394.912959,-0.17109420776367187,-0.1239422607421875,-0.052241363525390626,3394.903008,0.1176023388073654,0.9370942172674764,0.6518280092560477,-3.258729457855225,7.74606990814209,-2.668580532073975,-0.6144405603408813,0.4833189249038696,0.1016358733177185,XArbitraryZVertical,-0.2600326504957542,-0.4438665837395146,-0.194011463035989,-0.8352993958469199,0.6406243443489075,-0.606640636920929,-0.4707309603691101,0,0,0,-1,-1,3394.051207,running,2,2022-06-30T09:23:19.632+02:00,2022-06-30T08:20:05.567+02:00,1052,1.411193,0.0,0,819.8695,0,0,2022-06-30T09:23:19.631+02:00
173,2022-06-30T09:23:20.504+02:00,3394.922911,0.06930587768554688,-0.1742376708984375,0.9888436889648438,3394.912959,0.1354680449125349,1.006922533781624,0.6085118097150669,-4.063586235046387,8.401278495788574,-2.892693758010864,-0.7082344889640808,0.527076005935669,0.257161557674408,XArbitraryZVertical,-0.2306544886031713,-0.477005915197788,-0.200766806861426,-0.8239881377797609,0.6934788823127747,-0.571647047996521,-0.4385277330875397,0,0,0,-1,-1,3394.051207,running,2,2022-06-30T09:23:19.632+02:00,2022-06-30T08:20:05.567+02:00,1052,1.411193,0.0,0,819.8695,0,0,2022-06-30T09:23:19.631+02:00
174,2022-06-30T09:23:20.514+02:00,3394.932862,0.22947280883789065,0.5586383056640625,2.2601499938964844,3394.922911,0.1635382778252475,1.078630566042352,0.5603432784615184,-4.878431797027588,9.11727809906006,-3.106143712997437,-0.763975977897644,0.5188425779342651,0.3949465155601501,XArbitraryZVertical,-0.1961685284267963,-0.511255183084119,-0.2088842565023392,-0.8102489629581829,0.7465349435806274,-0.5314770340919495,-0.4002721011638641,0,0,0,-1,-1,3394.051207,running,2,2022-06-30T09:23:19.632+02:00,2022-06-30T08:20:05.567+02:00,1052,1.411193,0.0,0,819.8695,0,0,2022-06-30T09:23:19.631+02:00
175,2022-06-30T09:23:20.524+02:00,3394.942813,0.6177653503417969,1.004710693359375,3.730242919921875,3394.932862,0.2021042819086112,1.153539103088473,0.5086474964766605,-5.689456462860107,9.881582260131836,-3.306850671768188,-0.7914047241210938,0.4692350029945374,0.4547502398490906,XArbitraryZVertical,-0.1565725388876664,-0.5463602931616941,-0.218338098152631,-0.7932868619651968,0.7984693646430969,-0.4869964122772217,-0.3539509475231171,0,0,0,-1,-1,3394.051207,running,2,2022-06-30T09:23:19.632+02:00,2022-06-30T08:20:05.567+02:00,1052,1.411193,0.0,0,819.8695,0,0,2022-06-30T09:23:19.631+02:00
176,2022-06-30T09:23:20.534+02:00,3394.952765,1.8420693969726563,1.0350975036621095,6.139482879638672,3394.942813,0.2512689290848703,1.233378688799179,0.4548040465759123,-6.452669620513916,10.74905872344971,-3.530994176864624,-0.8243002891540527,0.4962319135665894,0.5277912616729736,XArbitraryZVertical,-0.1118672379628661,-0.5820533822628926,-0.2289480894980812,-0.7721933225569608,0.8476918935775757,-0.4392862915992737,-0.2973991632461548,0,0,0,-1,-1,3394.051207,running,2,2022-06-30T09:23:19.632+02:00,2022-06-30T08:20:05.567+02:00,1052,1.411193,0.0,0,819.8695,0,0,2022-06-30T09:23:19.631+02:00
177,2022-06-30T09:23:20.544+02:00,3394.962716,2.9030630493164065,1.0219248962402345,9.180558929443361,3394.952765,0.311841997586793,1.320322086245604,0.4007644233730968,-7.32587718963623,11.77587795257568,-3.646765470504761,-0.8290577530860901,0.4925391972064972,0.6084721684455872,XArbitraryZVertical,-0.0619910449713413,-0.6180981839883656,-0.2407898880434194,-0.7457425827628387,0.892030656337738,-0.3901222944259644,-0.2282234877347946,0,0,0,-1,-1,3394.051207,running,2,2022-06-30T09:23:19.632+02:00,2022-06-30T08:20:05.567+02:00,1052,1.411193,0.0,0,819.8695,0,0,2022-06-30T09:23:19.631+02:00
178,2022-06-30T09:23:20.554+02:00,3394.972668,3.8586758422851566,1.2184661865234376,13.798156585693365,3394.962716,0.3853038424813454,1.416855823518778,0.3492331491567185,-8.229774475097656,13.05960083007812,-3.7496337890625,-0.7407492399215698,0.447691798210144,0.7699161767959595,XArbitraryZVertical,-0.0068089187479293,-0.6541521046934201,-0.2541278499727498,-0.7123606892761695,0.92852383852005,-0.3421773612499237,-0.144077330827713,0,0,0,-1,-1,3394.051207,running,2,2022-06-30T09:23:19.632+02:00,2022-06-30T08:20:05.567+02:00,1052,1.411193,0.0,0,819.8695,0,0,2022-06-30T09:23:19.631+02:00
179,2022-06-30T09:23:20.564+02:00,3394.982619,4.278852081298829,0.5780978393554688,18.84970184326172,3394.972668,0.4725079863991812,1.526029359868893,0.3035744595959096,-9.243442535400392,14.45208835601807,-3.706231594085693,-0.6573891043663025,0.4031048119068146,0.9785420894622804,XArbitraryZVertical,0.0536528359798143,-0.6897597625890343,-0.2688204127148071,-0.6701405770667596,0.953317940235138,-0.2989331185817719,-0.0427056849002838,0,0,0,-1,-1,3394.051207,running,2,2022-06-30T09:23:19.632+02:00,2022-06-30T08:20:05.567+02:00,1052,1.411193,0.0,0,819.8695,0,0,2022-06-30T09:23:19.631+02:00
180,2022-06-30T09:23:20.574+02:00,3394.992571,1.858235778808594,-0.9500743103027344,24.945475616455074,3394.982619,0.574935923087583,1.648385553190604,0.2693572749411953,-10.44977569580078,15.95602798461914,-3.513135194778442,-0.5677010416984558,0.3903184533119202,1.331822991371155,XArbitraryZVertical,0.1187740991550088,-0.7233608841738287,-0.285323508645465,-0.6174401241075551,0.9610421657562256,-0.2661119401454926,0.0747165083885192,0,0,0,-1,-1,3394.051207,running,2,2022-06-30T09:23:19.632+02:00,2022-06-30T08:20:05.567+02:00,1052,1.411193,0.0,0,819.8695,0,0,2022-06-30T09:23:19.631+02:00
181,2022-06-30T09:23:20.584+02:00,3395.002522,-2.8125013732910156,-3.792513427734375,31.21937896728516,3394.992571,0.6921804869525062,1.78653658900662,0.2510926874994737,-11.44816970825195,17.86433029174805,-3.470186710357666,-0.5100140571594238,0.3073920011520386,1.714120149612427,XArbitraryZVertical,0.1883761506349645,-0.7537859491854311,-0.3027492001919973,-0.5519638657111379,0.946186661720276,-0.2484625279903412,0.2073576599359512,0,0,0,-1,-1,3394.051207,running,2,2022-06-30T09:23:19.632+02:00,2022-06-30T08:20:05.567+02:00,1052,1.411193,0.0,0,819.8695,0,0,2022-06-30T09:23:19.631+02:00
182,2022-06-30T09:23:20.594+02:00,3395.012474,-13.262720031738281,-9.073681182861327,39.94578231811524,3395.002522,0.8161884355524509,1.944152489061515,0.2513144175688022,-11.63607597351074,19.96083641052246,-3.49177885055542,-0.7124362587928772,0.1518298983573914,2.189577102661133,XArbitraryZVertical,0.2604131445273672,-0.7802738392869147,-0.3169269302412943,-0.4721387720912247,0.901858925819397,-0.2486772984266281,0.3532845377922058,0,0,0,-1,-1,3394.051207,running,2,2022-06-30T09:23:19.632+02:00,2022-06-30T08:20:05.567+02:00,1052,1.411193,0.0,0,819.8695,0,0,2022-06-30T09:23:19.631+02:00
183,2022-06-30T09:23:20.604+02:00,3395.022425,-27.345434875488284,-21.637803955078127,50.79701705932618,3395.012474,0.9373992586412364,2.123448744754992,0.2687318220458669,-10.86588478088379,22.33832740783691,-3.984926223754883,-1.107283711433411,-0.1210875511169434,2.676297903060913,XArbitraryZVertical,0.332643296407215,-0.8014993178562123,-0.3225324460003783,-0.378047722746876,0.8205865025520325,-0.2655089795589447,0.5061054229736328,0,0,0,-1,-1,3394.051207,running,2,2022-06-30T09:23:19.632+02:00,2022-06-30T08:20:05.567+02:00,1052,1.411193,0.0,0,819.8695,0,0,2022-06-30T09:23:19.631+02:00
184,2022-06-30T09:23:20.614+02:00,3395.032376,-45.49878479003907,-38.598434143066406,58.49416076660157,3395.022425,1.050140689359199,2.3259669031826,0.2917515065479099,-9.16454029083252,24.63768768310547,-5.70294189453125,-2.049343109130859,-0.6373116970062256,3.415496587753296,XArbitraryZVertical,0.4053935224484932,-0.8147885537771713,-0.3121574562707555,-0.2726418608089825,0.6973841786384583,-0.287630170583725,0.6564486026763916,0,0,0,-1,-1,3394.051207,running,2,2022-06-30T09:23:19.632+02:00,2022-06-30T08:20:05.567+02:00,1052,1.411193,0.0,0,819.8695,0,0,2022-06-30T09:23:19.631+02:00
185,2022-06-30T09:23:20.624+02:00,3395.042328,-71.85193313598633,-45.71209121704101,75.85535797119141,3395.032376,1.158308410703981,2.551113394532093,0.3052661604087864,-6.138949871063232,26.98156929016113,-8.366975784301758,-3.318524360656738,-1.905141234397888,4.385815620422363,XArbitraryZVertical,0.4805225410396528,-0.8156180396320727,-0.279142171149738,-0.1610743791791396,0.5310185551643372,-0.3005470335483551,0.7922694087028503,0,0,0,-1,-1,3394.051207,running,2,2022-06-30T09:23:19.632+02:00,2022-06-30T08:20:05.567+02:00,1052,1.411193,0.0,0,819.8695,0,0,2022-06-30T09:23:19.631+02:00
186,2022-06-30T09:23:20.633+02:00,3395.052279,-105.25242645263678,-36.356396484375004,113.07201553344726,3395.042328,1.271465550116258,2.793767136559143,0.3030503559482424,-3.351518630981445,28.41988945007324,-11.21084690093994,-4.963322162628174,-3.636167764663696,5.065431594848633,XArbitraryZVertical,0.5570931309790667,-0.7989275436508974,-0.2211912941764005,-0.0493622053315797,0.3253219425678253,-0.2984329462051392,0.8972759246826172,0,0,0,-1,-1,3394.051207,running,2,2022-06-30T09:23:19.632+02:00,2022-06-30T08:20:05.567+02:00,1052,1.411193,0.0,0,819.8695,0,0,2022-06-30T09:23:19.631+02:00
187,2022-06-30T09:23:20.643+02:00,3395.062231,-142.51922973632813,-19.759210510253908,153.24382781982428,3395.052279,1.41241153502818,3.030952520956399,0.2988696448840375,-2.093879461288452,26.85979270935059,-15.82149219512939,-7.42987585067749,-4.365303993225098,6.782625675201416,XArbitraryZVertical,0.6344746656268703,-0.7565417454538818,-0.1485803439024171,0.0548687654131562,0.1055199056863785,-0.2944401502609253,0.9498270153999328,0,0,0,-1,-1,3394.051207,running,2,2022-06-30T09:23:19.632+02:00,2022-06-30T08:20:05.567+02:00,1052,1.411193,0.0,0,819.8695,0,0,2022-06-30T09:23:19.631+02:00
188,2022-06-30T09:23:20.653+02:00,3395.072182,-131.8402867126465,2.4138803100585937,179.53261001586912,3395.062231,1.619351857877423,-3.089820837207431,0.3130047568992023,-1.781274318695068,17.33352661132812,-23.82956314086914,-10.67986106872559,-3.398135662078857,10.5760612487793,XArbitraryZVertical,0.7177574694038145,-0.6781543749338783,-0.0889568339703795,0.1304520409681642,-0.0492343790829181,-0.3079187870025635,0.95013827085495,0,0,0,-1,-1,3394.051207,running,2,2022-06-30T09:23:19.632+02:00,2022-06-30T08:20:05.567+02:00,1052,1.411193,0.0,0,819.8695,0,0,2022-06-30T09:23:19.631+02:00
189,2022-06-30T09:23:20.663+02:00,3395.082134,-128.30329193115242,-1.3121713256835938,159.60574813842777,3395.072182,1.890459683578475,-3.054699154160752,0.3664883483026124,-4.604047298431396,8.074605941772461,-27.93987083435059,-14.44693279266357,-1.655851125717163,14.69111633300781,XArbitraryZVertical,0.800941892115611,-0.5687940840427472,-0.0719808949395209,0.1725809253045986,-0.0810209885239601,-0.3583391904830933,0.9300692677497864,0,0,0,-1,-1,3394.051207,running,2,2022-06-30T09:23:19.632+02:00,2022-06-30T08:20:05.567+02:00,1052,1.411193,0.0,0,819.8695,0,0,2022-06-30T09:23:19.631+02:00
190,2022-06-30T09:23:20.674+02:00,3395.092085,-148.93443923950196,10.088720397949219,132.07889053344726,3395.082134,2.20886456966607,3.134279256883443,0.4085880453680398,0.1234450116753578,-2.839865922927856,-31.43117904663086,-13.44608783721924,0.6433776021003723,17.38332176208496,XArbitraryZVertical,0.8742949040921234,-0.44095079059114,-0.0944191091387729,0.1795993748624045,0.0067113190889358,-0.3973140120506287,0.9176583290100098,0,0,0,-1,-1,3394.051207,running,2,2022-06-30T09:23:19.632+02:00,2022-06-30T08:20:05.567+02:00,1052,1.411193,0.0,0,819.8695,0,0,2022-06-30T09:23:19.631+02:00
191,2022-06-30T09:23:20.684+02:00,3395.102037,-166.93076568603513,46.120442047119134,117.66057357788088,3395.092085,2.540182344772786,2.916536794836617,0.3245435851550652,10.08908653259277,-16.68435478210449,-31.82402610778809,-13.29033851623535,0.1851181089878082,15.34580516815186,XArbitraryZVertical,0.9312452525188156,-0.3077816123125319,-0.15339347396295,0.1205122112988883,0.2115110009908676,-0.3188762366771698,0.923894464969635,0,0,0,-1,-1,3394.051207,running,2,2022-06-30T09:23:19.632+02:00,2022-06-30T08:20:05.567+02:00,1052,1.411193,0.0,0,819.8695,0,0,2022-06-30T09:23:19.631+02:00
192,2022-06-30T09:23:20.693+02:00,3395.111988,-229.4575405883789,69.34120422363281,59.80453582763672,3395.102037,2.77894836890049,2.628147012611125,0.0778038621827127,18.95767974853516,-30.67574691772461,-30.2497673034668,-15.67159557342529,1.106137633323669,12.59527778625488,XArbitraryZVertical,0.948870070802036,-0.1840015927906787,-0.2563441298729282,-0.0087525509651825,0.4896955192089081,-0.0777253881096839,0.8684219717979431,0,0,0,-1,-1,3394.051207,running,2,2022-06-30T09:23:19.632+02:00,2022-06-30T08:20:05.567+02:00,1052,1.411193,0.0,0,819.8695,0,0,2022-06-30T09:23:19.631+02:00
193,2022-06-30T09:23:20.703+02:00,3395.121939,-314.489266204834,148.6590119934082,-25.95093475341797,3395.111988,2.852606467854355,2.29430638249043,-0.285681913817231,30.50662803649902,-34.80060195922852,-26.61817932128906,-17.73549842834473,4.419558525085449,11.35875511169434,XArbitraryZVertical,0.9013366406635138,-0.0720144782435036,-0.3839714744991649,-0.1870082652803871,0.7191097140312195,0.2818118035793304,0.6351876258850098,0,0,0,-1,-1,3394.051207,running,2,2022-06-30T09:23:19.632+02:00,2022-06-30T08:20:05.567+02:00,1052,1.411193,0.0,0,819.8695,0,0,2022-06-30T09:23:19.631+02:00
194,2022-06-30T09:23:20.713+02:00,3395.131891,-265.50213546752934,312.86409576416014,98.22843292236324,3395.121939,2.636107962492984,1.844195571307161,-0.6216820035432864,34.93185043334961,-34.813232421875,-16.02175140380859,-24.17287445068359,6.48601770401001,5.876795291900635,XArbitraryZVertical,0.7807863293795897,-0.0108018013234255,-0.4959760067160669,-0.3798210410964512,0.7827080488204956,0.582403302192688,0.2194879353046417,0,0,0,-1,-1,3394.051207,running,2,2022-06-30T09:23:19.632+02:00,2022-06-30T08:20:05.567+02:00,1052,1.411193,0.0,0,819.8695,0,0,2022-06-30T09:23:19.631+02:00
195,2022-06-30T09:23:20.723+02:00,3395.141842,-287.1339518737793,261.3952757263184,313.97298980712884,3395.131891,2.194592813491887,1.214939452942601,-0.7091182104375012,34.90322494506836,-34.86130142211914,-1.060879111289978,-32.76941680908203,14.50265979766846,-2.380946397781372,XArbitraryZVertical,0.6063854877414053,0.0096081391673033,-0.5949386001362486,-0.5274963775554328,0.7113877534866333,0.6511648297309875,-0.2644086480140686,0,0,0,-1,-1,3394.051207,running,2,2022-06-30T09:23:19.632+02:00,2022-06-30T08:20:05.567+02:00,1052,1.411193,0.0,0,819.8695,0,0,2022-06-30T09:23:19.631+02:00
196,2022-06-30T09:23:20.733+02:00,3395.151794,-282.85839294433595,-284.88248382568366,274.75349716186525,3395.141842,1.867462718814977,0.7365603273833711,-0.4911073618083227,34.76691818237305,-13.72717952728271,2.864139795303345,-27.65678977966309,31.42076301574707,10.6663236618042,XArbitraryZVertical,0.415618034557372,-0.0254180277421578,-0.6753911882312814,-0.6086560771913743,0.5923511981964111,0.4716026484966278,-0.653231143951416,0,0,0,-1,-1,3394.051207,running,2,2022-06-30T09:23:19.632+02:00,2022-06-30T08:20:05.567+02:00,1052,1.411193,0.0,0,819.8695,0,0,2022-06-30T09:23:19.631+02:00
197,2022-06-30T09:23:20.743+02:00,3395.161745,-73.99921783447266,-253.940627746582,42.4011264038086,3395.151794,1.7494626722542,0.7018495619365636,-0.1386192229091635,33.00852203369141,6.028530120849609,23.18690299987793,-29.90895462036133,26.50762176513672,32.76172637939453,XArbitraryZVertical,0.3048627107518275,-0.1699900213627628,-0.7036085784157469,-0.6189484245460427,0.6394381523132324,0.1381757110357285,-0.7563242316246033,0,0,0,-1,-1,3394.051207,running,2,2022-06-30T09:23:19.632+02:00,2022-06-30T08:20:05.567+02:00,1052,1.411193,0.0,0,819.8695,0,0,2022-06-30T09:23:19.631+02:00
198,2022-06-30T09:23:20.753+02:00,3395.171697,-57.810233001708994,-77.40897720336913,-14.765594787597657,3395.161745,1.781859786758439,0.7593511479367508,0.1343326403476389,6.683819770812988,7.337750434875488,17.21878242492676,-29.51592826843262,-28.90607833862305,28.72624015808105,XArbitraryZVertical,0.2483745410895902,-0.2809550131426042,-0.7362854900999259,-0.563256613078539,0.6822486519813538,-0.1339289993047714,-0.7187487483024597,0,0,0,-1,-1,3394.051207,running,2,2022-06-30T09:23:19.632+02:00,2022-06-30T08:20:05.567+02:00,1052,1.411193,0.0,0,819.8695,0,0,2022-06-30T09:23:19.631+02:00
199,2022-06-30T09:23:20.763+02:00,3395.181648,-30.886171875000002,-51.65667938232422,-0.4260140991210938,3395.171697,1.889472354976801,0.8307190425505289,0.2101313069585651,-6.831609725952148,8.462905883789062,8.931741714477539,-8.265417098999023,-25.67730522155762,4.981746673583984,XArbitraryZVertical,0.2689597177981202,-0.3128974088839234,-0.7621479979379036,-0.4988850177364965,0.7221738696098328,-0.2085883170366287,-0.6595117449760437,0,0,0,-1,-1,3394.051207,running,2,2022-06-30T09:23:19.632+02:00,2022-06-30T08:20:05.567+02:00,1052,1.411193,0.0,0,819.8695,0,0,2022-06-30T09:23:19.631+02:00
200,2022-06-30T09:23:20.773+02:00,3395.1916,-62.82495483398438,-35.10260375976563,24.831412811279304,3395.181648,1.996529902390972,0.8689180152260311,0.216763849301827,-7.966249942779541,4.033652305603027,7.525030612945557,-6.638751029968262,-7.675752639770508,-0.8746135830879211,XArbitraryZVertical,0.2985626613616609,-0.3091736483970756,-0.7826382340095825,-0.4502771721062449,0.7457607984542847,-0.2150703370571136,-0.6305440068244934,0,0,0,-1,-1,3394.051207,running,2,2022-06-30T09:23:19.632+02:00,2022-06-30T08:20:05.567+02:00,1052,1.411193,0.0,0,819.8695,0,0,2022-06-30T09:23:19.631+02:00
201,2022-06-30T09:23:20.783+02:00,3395.201551,-89.82670440673827,-28.090136260986323,52.315758819580076,3395.1916,2.104859420153509,0.8904507327313563,0.2285403179932432,-7.195724487304688,5.765788078308105,7.610519409179688,-3.905580043792725,-5.039160251617432,0.569278359413147,XArbitraryZVertical,0.3206593769715466,-0.301371994636881,-0.8031669238047142,-0.4015912465888944,0.7571427226066589,-0.2265560328960419,-0.6127049922943115,0,0,0,-1,-1,3394.051207,running,2,2022-06-30T09:23:19.632+02:00,2022-06-30T08:20:05.567+02:00,1052,1.411193,0.0,0,819.8695,0,0,2022-06-30T09:23:19.631+02:00
202,2022-06-30T09:23:20.793+02:00,3395.211502,-64.37632873535156,-20.53355026245118,46.53687606811525,3395.201551,2.214112688085078,0.9455958826611488,0.2356269011788398,-9.431255340576172,9.892756462097168,7.114342212677002,-7.192615509033203,-3.344794034957886,3.100322723388672,XArbitraryZVertical,0.35765326623223,-0.295871779300971,-0.814691851410971,-0.3475937013409293,0.7884407639503479,-0.2334526032209396,-0.5690880417823792,0,0,0,-1,-1,3394.051207,running,2,2022-06-30T09:23:19.632+02:00,2022-06-30T08:20:05.567+02:00,1052,1.411193,0.0,0,819.8695,0,0,2022-06-30T09:23:19.631+02:00
203,2022-06-30T09:23:20.803+02:00,3395.221454,-46.93145553588868,-1.4632072448730469,32.97807174682618,3395.211502,2.345198868622914,1.013707926975781,0.2443380306427074,-10.98802280426025,9.198254585266112,8.790069580078125,-9.980233192443848,-2.621504068374634,5.845913887023926,XArbitraryZVertical,0.4028017888755294,-0.2850337194863123,-0.8228062402922979,-0.2819512995445529,0.8235868811607361,-0.2419140636920929,-0.5130130052566528,0,0,0,-1,-1,3394.051207,running,2,2022-06-30T09:23:19.632+02:00,2022-06-30T08:20:05.567+02:00,1052,1.411193,0.0,0,819.8695,0,0,2022-06-30T09:23:19.631+02:00
204,2022-06-30T09:23:20.813+02:00,3395.231405,-34.329162139892574,11.454779663085938,20.677251434326177,3395.221454,2.494848101570393,1.049353539157013,0.2609550822540138,-12.15188884735107,5.613999366760254,9.074343681335447,-7.40006160736084,-1.835120558738708,5.22508716583252,XArbitraryZVertical,0.4351497818229483,-0.2645962932648268,-0.8343620934913292,-0.2108869469838932,0.8377447724342346,-0.2580034136772156,-0.4812669456005096,0,0,0,-1,-1,3394.051207,running,2,2022-06-30T09:23:19.632+02:00,2022-06-30T08:20:05.567+02:00,1052,1.411193,0.0,0,819.8695,0,0,2022-06-30T09:23:19.631+02:00
205,2022-06-30T09:23:20.823+02:00,3395.241357,-35.946698455810555,18.04647216796875,12.92681854248047,3395.231405,2.652918111786084,1.042668607468099,0.283105755133494,-12.15565013885498,1.336339950561523,9.944158554077148,-5.613410472869873,0.1301848292350769,3.845536708831787,XArbitraryZVertical,0.4488160964937242,-0.2379820016794041,-0.8499811112158333,-0.1395017910988022,0.8293682336807251,-0.2793391048908234,-0.4838573634624481,0,0,0,-1,-1,3394.051207,running,2,2022-06-30T09:23:19.632+02:00,2022-06-30T08:20:05.567+02:00,1052,1.411193,0.0,0,819.8695,0,0,2022-06-30T09:23:19.631+02:00
206,2022-06-30T09:23:20.833+02:00,3395.251308,-43.69728103637695,17.64425857543945,6.073619842529297,3395.241357,2.811840207619845,0.9856310396380676,0.3017167420247349,-11.61320877075195,-3.206377744674683,9.42279815673828,-4.295369148254395,1.464823722839355,2.635159969329834,XArbitraryZVertical,0.4396603733268886,-0.207377201603046,-0.870856430761574,-0.0728195061778433,0.7959643602371216,-0.2971598505973816,-0.5273869037628174,0,0,0,-1,-1,3394.051207,running,2,2022-06-30T09:23:19.632+02:00,2022-06-30T08:20:05.567+02:00,1052,1.411193,0.0,0,819.8695,0,0,2022-06-30T09:23:19.631+02:00
207,2022-06-30T09:23:20.842+02:00,3395.261259875,-56.831867523193374,18.109491119384764,2.169438629150391,3395.251308,2.95872631319218,0.893769262904265,0.3156572115243928,-9.405162811279297,-6.041016578674316,9.353873252868652,-4.405219554901123,2.150041103363037,1.913244605064392,XArbitraryZVertical,0.4120624857568502,-0.1801153898881772,-0.8930711450814816,-0.0136756399416163,0.740928590297699,-0.3104412853717804,-0.5955259203910828,0,0,0,-1,-1,3394.051207,running,2,2022-06-30T09:23:19.632+02:00,2022-06-30T08:20:05.567+02:00,1052,1.411193,0.0,0,819.8695,0,0,2022-06-30T09:23:19.631+02:00
208,2022-06-30T09:23:20.853+02:00,3395.271210875,-71.15707809448243,16.74283309936524,-0.9744735717773438,3395.261259875,3.087917611934924,0.7903029143199122,0.3283149824820525,-7.232667922973633,-6.213767528533936,8.781655311584473,-5.126973628997803,2.121047973632812,1.285172700881958,XArbitraryZVertical,0.3755887664345613,-0.160964308825341,-0.9118909086276196,0.0384525498647749,0.6726129651069641,-0.3224484622478485,-0.6660471558570862,0,0,0,-1,-1,3394.051207,running,2,2022-06-30T09:23:19.632+02:00,2022-06-30T08:20:05.567+02:00,1052,1.411193,0.0,0,819.8695,0,0,2022-06-30T09:23:19.631+02:00
209,2022-06-30T09:23:20.862+02:00,3395.281162875,-60.87900146484375,8.979976043701173,-0.3680845642089844,3395.271210875,-3.088029559219642,0.6968039739032535,0.3468142134420549,-3.559175729751587,-5.550232410430908,8.968660354614258,-6.396817684173584,2.185927152633667,0.942382276058197,XArbitraryZVertical,0.3404983136316587,-0.1531100119801105,-0.9239138554196312,0.0836751699746721,0.6035591959953308,-0.3399034440517426,-0.7212364673614502,0,0,0,-1,-1,3394.051207,running,2,2022-06-30T09:23:19.632+02:00,2022-06-30T08:20:05.567+02:00,1052,1.411193,0.0,0,819.8695,0,0,2022-06-30T09:23:19.631+02:00
210,2022-06-30T09:23:20.872+02:00,3395.291113875,-48.378646087646494,-0.8711883544921876,3.4310151672363283,3395.281162875,-2.994223107913034,0.6056466930388718,0.3890367873304142,-0.7072944641113281,-6.108101844787598,9.941197395324709,-7.780277729034424,2.086008310317993,0.6613655090332031,XArbitraryZVertical,0.3053806742071805,-0.1624581055291824,-0.92971257879985,0.1264301784886032,0.526753306388855,-0.3792973458766937,-0.760699987411499,0,0,0,-1,-1,3394.051207,running,2,2022-06-30T09:23:19.632+02:00,2022-06-30T08:20:05.567+02:00,1052,1.411193,0.0,0,819.8695,0,0,2022-06-30T09:23:19.631+02:00
211,2022-06-30T09:23:20.882+02:00,3395.301064875,-48.169231567382816,-2.2841001892089845,6.853947143554688,3395.291113875,-2.90349567102993,0.5046327654293802,0.4364158811219032,-0.2247419357299805,-6.830744743347168,9.10647678375244,-6.643980026245117,1.33808422088623,0.7557862997055054,XArbitraryZVertical,0.2668994245987968,-0.1791952863253431,-0.932264609616295,0.1659410685066476,0.4381700754165649,-0.4226939976215363,-0.7933074831962585,0,0,0,-1,-1,3394.051207,running,2,2022-06-30T09:23:19.632+02:00,2022-06-30T08:20:05.567+02:00,1052,1.411193,0.0,0,819.8695,0,0,2022-06-30T09:23:19.631+02:00
212,2022-06-30T09:23:20.892+02:00,3395.311016875,-51.39322723388672,0.8819659423828126,4.837191009521485,3395.301064875,-2.814704638240388,0.3949095980774133,0.4671807564059904,-1.447345495223999,-7.36146068572998,8.107170104980469,-5.275062084197998,0.3615648448467255,1.173867583274841,XArbitraryZVertical,0.2252356070526509,-0.1928952141944989,-0.9338361336857546,0.2000258747797692,0.3434982299804688,-0.4503709375858307,-0.8241207003593445,0,0,0,-1,-1,3394.051207,running,2,2022-06-30T09:23:19.632+02:00,2022-06-30T08:20:05.567+02:00,1052,1.411193,0.0,0,819.8695,0,0,2022-06-30T09:23:19.631+02:00
213,2022-06-30T09:23:20.902+02:00,3395.320967875,-51.64560241699219,2.1573138427734375,1.834435272216797,3395.311016875,-2.725912752398242,0.2810568466711516,0.473529894041073,-2.387835264205933,-7.324477672576904,7.320257663726807,-5.15706729888916,0.2231967747211456,1.553714036941528,XArbitraryZVertical,0.1811518604034677,-0.1991526613731192,-0.9350253132916748,0.2307595393868808,0.2468504011631012,-0.4560306072235107,-0.855044424533844,0,0,0,-1,-1,3394.051207,running,2,2022-06-30T09:23:19.632+02:00,2022-06-30T08:20:05.567+02:00,1052,1.411193,0.0,0,819.8695,0,0,2022-06-30T09:23:19.631+02:00
214,2022-06-30T09:23:20.913+02:00,3395.330919875,-48.455137023925786,1.8438656616210938,0.5742059326171876,3395.320967875,-2.644111457307763,0.1726087638325486,0.4660671592506747,-2.33601975440979,-7.020147800445557,6.67793607711792,-5.392294883728027,0.5392811894416809,1.373155355453491,XArbitraryZVertical,0.1379258350226185,-0.2023430586463576,-0.9346151790020066,0.257930676705933,0.1534341871738434,-0.4493764042854309,-0.8800675272941589,0,0,0,-1,-1,3394.051207,running,2,2022-06-30T09:23:19.632+02:00,2022-06-30T08:20:05.567+02:00,1052,1.411193,0.0,0,819.8695,0,0,2022-06-30T09:23:19.631+02:00
215,2022-06-30T09:23:20.922+02:00,3395.340870875,-46.60947509765625,0.906514892578125,-1.7562977600097658,3395.330919875,-2.570076873803782,0.0705277402257612,0.452595678646369,-1.968560099601746,-6.901270866394043,6.236701011657715,-5.327960968017578,0.6572109460830688,1.084075808525085,XArbitraryZVertical,0.0961719026821039,-0.2054539275053374,-0.9321747880768676,0.2821166750667528,0.0633740872144699,-0.4373013377189636,-0.8970792889595032,0,0,0,-1,-1,3394.051207,running,2,2022-06-30T09:23:19.632+02:00,2022-06-30T08:20:05.567+02:00,1052,1.411193,0.0,0,819.8695,0,0,2022-06-30T09:23:19.631+02:00
216,2022-06-30T09:23:20.932+02:00,3395.350822875,-45.548631134033194,0.568817138671875,-3.274889831542969,3395.340870875,-2.503134279532008,-0.0265405501548058,0.4352888456225241,-1.812648415565491,-6.821927070617676,5.839476108551025,-4.915298461914062,0.6096300482749939,0.9649616479873656,XArbitraryZVertical,0.0554582248196857,-0.2090691562870096,-0.9278959257027736,0.3036834727153727,-0.0240627732127904,-0.4216723144054413,-0.9064289331436156,0,0,0,-1,-1,3394.051207,running,2,2022-06-30T09:23:19.632+02:00,2022-06-30T08:20:05.567+02:00,1052,1.411193,0.0,0,819.8695,0,0,2022-06-30T09:23:19.631+02:00
217,2022-06-30T09:23:20.942+02:00,3395.360773875,-45.19985641479493,-0.47331573486328127,-7.453151092529297,3395.350822875,-2.442976055789608,-0.1190340298617512,0.4129581987507129,-1.890169024467468,-6.790796756744385,5.479854583740234,-4.642449855804443,0.4937278032302856,0.7304249405860901,XArbitraryZVertical,0.0153391730389503,-0.2122181725109209,-0.92219656944642,0.3229269350206359,-0.1087704598903656,-0.401320606470108,-0.9094563126564026,0,0,0,-1,-1,3394.051207,running,2,2022-06-30T09:23:19.632+02:00,2022-06-30T08:20:05.567+02:00,1052,1.411193,0.0,0,819.8695,0,0,2022-06-30T09:23:19.631+02:00
218,2022-06-30T09:23:20.952+02:00,3395.370725875,-45.88064071655275,-1.7489630126953126,-11.07382186889649,3395.360773875,-2.389585377529601,-0.2074186351229196,0.3849675953286345,-2.029595375061035,-6.789183139801025,5.212429046630859,-4.452219009399414,0.433512419462204,0.5731132626533508,XArbitraryZVertical,-0.0246448405844517,-0.2142896842063656,-0.91532857120556,0.34006787198064,-0.1908623278141022,-0.3755291104316711,-0.9069451093673706,0,0,0,-1,-1,3394.051207,running,2,2022-06-30T09:23:19.632+02:00,2022-06-30T08:20:05.567+02:00,1052,1.411193,0.0,0,819.8695,0,0,2022-06-30T09:23:19.631+02:00
219,2022-06-30T09:23:20.962+02:00,3395.380676875,-45.17291244506837,-1.804497528076172,-9.432634735107424,3395.370725875,-2.34200353111861,-0.291754258897889,0.352245102628548,-2.171974420547485,-6.695309162139893,5.085029602050781,-4.337555885314941,0.2967575192451477,0.1391855478286743,XArbitraryZVertical,-0.0643521636885969,-0.2153852571875127,-0.907172421598812,0.3556772485176142,-0.2699722945690155,-0.3450059294700623,-0.8989359736442566,0,0,0,-1,-1,3394.051207,running,2,2022-06-30T09:23:19.632+02:00,2022-06-30T08:20:05.567+02:00,1052,1.411193,0.0,0,819.8695,0,0,2022-06-30T09:23:19.631+02:00
220,2022-06-30T09:23:20.972+02:00,3395.390627875,-43.4832261657715,-2.462978210449219,-5.966592407226563,3395.380676875,-2.299414989258833,-0.3708989145652818,0.3135795018798181,-2.544878482818604,-6.352413177490234,5.105828762054443,-4.332146644592285,0.1301817893981934,-0.2422767281532288,XArbitraryZVertical,-0.103484910061226,-0.2145092408960733,-0.8977616974825744,0.3705410082636422,-0.3447785079479218,-0.3084655404090881,-0.8865533471107483,0,0,0,-1,-1,3394.051207,running,2,2022-06-30T09:23:19.632+02:00,2022-06-30T08:20:05.567+02:00,1052,1.411193,0.0,0,819.8695,0,0,2022-06-30T09:23:19.631+02:00
221,2022-06-30T09:23:20.982+02:00,3395.400579875,-40.65366027832032,-0.8675958251953125,-2.6024880981445313,3395.390627875,-2.262852896013625,-0.441754659165452,0.2687840849178332,-2.995018243789673,-5.758552074432373,4.880733013153076,-4.192605972290039,0.0816145539283752,-0.0899884700775146,XArbitraryZVertical,-0.1408793681945218,-0.2106677109927971,-0.8875573280128753,0.3847261898227226,-0.4121758043766022,-0.2655593752861023,-0.8715442419052124,0,0,0,-1,-1,3394.051207,running,2,2022-06-30T09:23:19.632+02:00,2022-06-30T08:20:05.567+02:00,1052,1.411193,0.0,0,819.8695,0,0,2022-06-30T09:23:19.631+02:00
222,2022-06-30T09:23:20.992+02:00,3395.410530875,-37.333564453125,0.4984634399414063,-1.210532684326172,3395.400579875,-2.235992325650497,-0.502397942121967,0.2173191345295793,-3.832064390182495,-5.114084720611572,4.509298324584961,-3.962337970733643,-0.0354556590318679,0.2476003766059875,XArbitraryZVertical,-0.1762437613079396,-0.2025591247594509,-0.8776594325187127,0.3970162112663224,-0.4702025055885315,-0.2156125903129578,-0.8558158874511719,0,0,0,-1,-1,3394.051207,running,2,2022-06-30T09:23:19.632+02:00,2022-06-30T08:20:05.567+02:00,1052,1.411193,0.0,0,819.8695,0,0,2022-06-30T09:23:19.631+02:00
223,2022-06-30T09:23:21.002+02:00,3395.420482875,-34.74484771728516,0.5129832458496094,-3.5416351318359376,3395.410530875,-2.220726312578279,-0.5528576598877021,0.1590775545217156,-4.714390754699707,-4.467879772186279,3.956506013870239,-3.625612497329712,0.0699674040079116,0.5749927163124084,XArbitraryZVertical,-0.2097623415695389,-0.1893638697100902,-0.8687605441828077,0.4066893993024266,-0.5184910297393799,-0.1584074795246124,-0.840282142162323,0,0,0,-1,-1,3394.051207,running,2,2022-06-30T09:23:19.632+02:00,2022-06-30T08:20:05.567+02:00,1052,1.411193,0.0,0,819.8695,0,0,2022-06-30T09:23:19.631+02:00
224,2022-06-30T09:23:21.012+02:00,3395.430433875,-32.72120590209961,1.0942245483398438,-7.097490692138672,3395.420482875,-2.217149199843898,-0.5957860490695215,0.0990620709544348,-4.93753719329834,-4.0973219871521,3.19434666633606,-3.247255325317383,0.1497117578983307,0.7002516984939575,XArbitraryZVertical,-0.241278729940487,-0.1730887455534592,-0.86107359165363,0.4127677688412266,-0.5584083795547485,-0.098900131881237,-0.8236497044563293,0,0,0,-1,-1,3394.051207,running,2,2022-06-30T09:23:19.632+02:00,2022-06-30T08:20:05.567+02:00,1052,1.411193,0.0,0,819.8695,0,0,2022-06-30T09:23:19.631+02:00
225,2022-06-30T09:23:21.022+02:00,3395.440385875,-31.597342987060554,2.344574432373047,-9.404193878173828,3395.430433875,-2.221523311215277,-0.6350121947525988,0.0433462250391264,-4.679993629455566,-3.84581732749939,2.594353675842285,-2.949148178100586,0.0956243723630905,0.4432851076126099,XArbitraryZVertical,-0.2705347975594017,-0.1570247894138108,-0.8540544226715401,0.4156263469362055,-0.59263014793396,-0.0433326512575149,-0.804308295249939,0,0,0,-1,-1,3394.051207,running,2,2022-06-30T09:23:19.632+02:00,2022-06-30T08:20:05.567+02:00,1052,1.411193,0.0,0,819.8695,0,0,2022-06-30T09:23:19.631+02:00
226,2022-06-30T09:23:21.032+02:00,3395.450336875,-30.982721099853514,2.525697784423828,-10.397378540039062,3395.440385875,-2.229646499818383,-0.6715768016161012,-0.0068259937147884,-4.327139854431152,-3.526160001754761,2.257041692733765,-2.713288068771362,0.1047156751155853,0.0593276023864746,XArbitraryZVertical,-0.297265392658021,-0.142202786410806,-0.8471896334710306,0.4167511587653999,-0.6222066879272461,0.006825940683484,-0.7828233242034912,0,0,0,-1,-1,3394.051207,running,2,2022-06-30T09:23:19.632+02:00,2022-06-30T08:20:05.567+02:00,1052,1.411193,0.0,0,819.8695,0,0,2022-06-30T09:23:19.631+02:00
227,2022-06-30T09:23:21.042+02:00,3395.460287875,-29.911847991943365,2.49800537109375,-10.623707885742188,3395.450336875,-2.239849337109845,-0.7051814958039914,-0.0520556375862703,-4.002626895904541,-3.147536277770996,1.929363131523132,-2.573637723922729,0.1869661509990692,-0.1981712579727173,XArbitraryZVertical,-0.3213580529264376,-0.1284436956563371,-0.8404943201669164,0.4168940558405054,-0.6472940444946289,0.0520321317017078,-0.7604624629020691,0,0,0,-1,-1,3394.051207,running,2,2022-06-30T09:23:19.632+02:00,2022-06-30T08:20:05.567+02:00,1052,1.411193,0.0,0,819.8695,0,0,2022-06-30T09:23:19.631+02:00
228,2022-06-30T09:23:21.051+02:00,3395.470239875,-27.944788513183596,2.9937744140625,-10.300829315185553,3395.460287875,-2.252221320972323,-0.7347671558999643,-0.0927788964101056,-3.813884258270264,-2.601575374603271,1.619967937469482,-2.490748167037964,0.1648155897855759,-0.3210800886154175,XArbitraryZVertical,-0.3425120249166738,-0.1152721407485512,-0.8344346523947642,0.4160729620215909,-0.6675310730934143,0.0926458463072776,-0.7387956976890564,0,0,0,-1,-1,3394.051207,running,2,2022-06-30T09:23:19.632+02:00,2022-06-30T08:20:05.567+02:00,1052,1.411193,0.0,0,819.8695,0,0,2022-06-30T09:23:19.631+02:00
229,2022-06-30T09:23:21.061+02:00,3395.480190875,-25.583448944091803,3.4316139221191406,-9.546996917724611,3395.470239875,-2.266725802941421,-0.759181275980557,-0.1308270036640233,-3.772091865539551,-1.98002564907074,1.470237374305725,-2.366672277450562,0.1241844296455383,-0.3637462854385376,XArbitraryZVertical,-0.3606523984495554,-0.1016339465670871,-0.8293009321059106,0.4145603606736636,-0.6824455261230469,0.1304541230201721,-0.7192007899284363,0,0,0,-1,-1,3394.051207,running,2,2022-06-30T09:23:19.632+02:00,2022-06-30T08:20:05.567+02:00,1052,1.411193,0.0,0,819.8695,0,0,2022-06-30T09:23:19.631+02:00
230,2022-06-30T09:23:21.071+02:00,3395.490142875,-23.269560699462886,3.579356689453125,-8.785979461669923,3395.480190875,-2.282975093245788,-0.7781924048751334,-0.1676884192417795,-3.795812845230103,-1.349958419799805,1.352865815162659,-2.156455516815186,0.1382720321416855,-0.347839891910553,XArbitraryZVertical,-0.3759688607801975,-0.0868932316728842,-0.8251099986477048,0.4126626181230817,-0.6921464800834656,0.1669036448001862,-0.7021939754486084,0,0,0,-1,-1,3394.051207,running,2,2022-06-30T09:23:19.632+02:00,2022-06-30T08:20:05.567+02:00,1052,1.411193,0.0,0,819.8695,0,0,2022-06-30T09:23:19.631+02:00
