,loggingTime(txt),accelerometerTimestamp_sinceReboot(s),accelerometerAccelerationX(G),accelerometerAccelerationY(G),accelerometerAccelerationZ(G),motionTimestamp_sinceReboot(s),motionYaw(rad),motionRoll(rad),motionPitch(rad),motionRotationRateX(rad/s),motionRotationRateY(rad/s),motionRotationRateZ(rad/s),motionUserAccelerationX(G),motionUserAccelerationY(G),motionUserAccelerationZ(G),motionAttitudeReferenceFrame(txt),motionQuaternionX(R),motionQuaternionY(R),motionQuaternionZ(R),motionQuaternionW(R),motionGravityX(G),motionGravityY(G),motionGravityZ(G),motionMagneticFieldX(µT),motionMagneticFieldY(µT),motionMagneticFieldZ(µT),motionHeading(°),motionMagneticFieldCalibrationAccuracy(Z),activityTimestamp_sinceReboot(s),activity(txt),activityActivityConfidence(Z),activityActivityStartDate(txt),pedometerStartDate(txt),pedometerNumberofSteps(N),pedometerAverageActivePace(s/m),pedometerCurrentPace(s/m),pedometerCurrentCadence(steps/s),pedometerDistance(m),pedometerFloorAscended(N),pedometerFloorDescended(N),pedometerEndDate(txt)
222,2022-06-30T09:51:58.165+02:00,4996.10116775,5.535638580322266,-18.377134552001948,13.796060943603512,4996.09121675,-1.875287547037917,2.133445420490753,0.921003569881484,-3.175974607467651,-0.5785727500915527,-0.4350424706935883,-0.0367942452430725,-0.8139745593070984,1.554568409919739,XArbitraryZVertical,0.7593651568018285,0.2910883417094536,-0.1185732325625933,0.5697125853592566,0.5117541551589966,-0.7962092161178589,0.3227357268333435,0,0,0,-1,-1,4995.253127291667,unknown,2,2022-06-30T09:51:57.314+02:00,2022-06-30T08:20:05.567+02:00,1418,1.388076,0,0,1121.329,0,0,2022-06-30T09:50:28.075+02:00
223,2022-06-30T09:51:58.175+02:00,4996.11111975,7.102729797363281,-20.192259979248053,10.402318267822261,4996.10116775,-1.827024025771857,2.091784561843332,0.9323656738183292,-2.942278146743774,-0.005273550748825,-0.6327248811721802,0.0024758577346801,-0.9718552827835084,1.291912078857422,XArbitraryZVertical,0.749590942819576,0.2939783916251165,-0.116740819775871,0.5814308069531523,0.5168719291687012,-0.8030319809913635,0.2966197431087494,0,0,0,-1,-1,4995.253127291667,unknown,2,2022-06-30T09:51:57.314+02:00,2022-06-30T08:20:05.567+02:00,1418,1.388076,0,0,1121.329,0,0,2022-06-30T09:50:28.075+02:00
224,2022-06-30T09:51:58.185+02:00,4996.12107075,9.270970916748048,-20.829035797119136,8.883426818847656,4996.11111975,-1.781898828993089,2.059222083705677,0.9386798107970376,-2.341967105865479,0.782071590423584,-0.8590582013130188,0.1113963723182678,-1.167617082595825,0.947374939918518,XArbitraryZVertical,0.740946607786644,0.2993711867229112,-0.1135838174732622,0.5903166303537956,0.5217666625976562,-0.8067787885665894,0.2772499620914459,0,0,0,-1,-1,4995.253127291667,unknown,2,2022-06-30T09:51:57.314+02:00,2022-06-30T08:20:05.567+02:00,1418,1.388076,0,0,1121.329,0,0,2022-06-30T09:50:28.075+02:00
225,2022-06-30T09:51:58.195+02:00,4996.131022750001,11.606114959716802,-19.747235412597657,10.20532791137695,4996.12107075,-1.745365061469767,2.041977760358852,0.93944219128615,-1.576430916786194,1.682759881019592,-1.002968072891235,0.3061547875404358,-1.302482128143311,0.6724058389663696,XArbitraryZVertical,0.7344427128450043,0.3075063850252831,-0.108863421333093,0.5951324486639349,0.5259219408035278,-0.8072289824485779,0.2679325640201569,0,0,0,-1,-1,4995.253127291667,unknown,2,2022-06-30T09:51:57.314+02:00,2022-06-30T08:20:05.567+02:00,1418,1.388076,0,0,1121.329,0,0,2022-06-30T09:50:28.075+02:00
226,2022-06-30T09:51:58.205+02:00,4996.140973750001,13.823304290771489,-17.028139801025386,13.0721662902832,4996.131022750001,-1.718823748548256,2.041903543586573,0.9359217895144069,-0.9391396045684814,2.605849027633667,-1.07262659072876,0.5351732969284058,-1.288100719451904,0.684950590133667,XArbitraryZVertical,0.730271530779888,0.3182677082521709,-0.1021722846571949,0.5957937239051752,0.5284708142280579,-0.8051460981369019,0.2691816985607147,0,0,0,-1,-1,4995.253127291667,unknown,2,2022-06-30T09:51:57.314+02:00,2022-06-30T08:20:05.567+02:00,1418,1.388076,0,0,1121.329,0,0,2022-06-30T09:50:28.075+02:00
227,2022-06-30T09:51:58.215+02:00,4996.15092575,16.145874481201176,-14.221027221679687,16.482075347900388,4996.140973750001,-1.699336335824294,2.056609540165935,0.929528107702144,-0.571176290512085,3.477205991744995,-1.152418851852417,0.7677714228630066,-1.084450364112854,0.8860074281692505,XArbitraryZVertical,0.727775981189837,0.3316670241886199,-0.0931849404139752,0.5930056119403273,0.5289963483810425,-0.801337718963623,0.2793217897415161,0,0,0,-1,-1,4995.253127291667,unknown,2,2022-06-30T09:51:57.314+02:00,2022-06-30T08:20:05.567+02:00,1418,1.388076,0,0,1121.329,0,0,2022-06-30T09:50:28.075+02:00
228,2022-06-30T09:51:58.225+02:00,4996.16087675,18.472336578369138,-12.118499450683595,19.83031265258789,4996.15092575,-1.682066395976943,2.081329820050964,0.92177272512312,-0.5674540996551514,4.251304149627686,-1.227763772010803,0.9974578619003296,-0.7895534634590149,1.207727074623108,XArbitraryZVertical,0.7258615886974638,0.3475558485444107,-0.0817431054306463,0.5879184985171085,0.527337372303009,-0.7966743111610413,0.2953402400016785,0,0,0,-1,-1,4995.253127291667,unknown,2,2022-06-30T09:51:57.314+02:00,2022-06-30T08:20:05.567+02:00,1418,1.388076,0,0,1121.329,0,0,2022-06-30T09:50:28.075+02:00
229,2022-06-30T09:51:58.234+02:00,4996.170828750001,20.164866943359375,-10.438842315673824,22.999073181152344,4996.16087675,-1.661055951663815,2.110759350170324,0.914466169964264,-0.9379032254219056,5.032970428466797,-1.365418553352356,1.246789932250977,-0.5410304069519043,1.550681829452515,XArbitraryZVertical,0.7231551809185757,0.3659279715429583,-0.0674390868483562,0.5818893842901155,0.5233970284461975,-0.7922369241714478,0.313713401556015,0,0,0,-1,-1,4995.253127291667,unknown,2,2022-06-30T09:51:57.314+02:00,2022-06-30T08:20:05.567+02:00,1418,1.388076,0,0,1121.329,0,0,2022-06-30T09:50:28.075+02:00
230,2022-06-30T09:51:58.244+02:00,4996.180779750001,22.398072967529302,-9.542506256103515,26.244324645996095,4996.170828750001,-1.631059224245265,2.141366947709435,0.9089682080566752,-1.661787152290344,5.86408805847168,-1.513698577880859,1.451097726821899,-0.3586521744728088,1.823387861251831,XArbitraryZVertical,0.7183619482402288,0.3871974777278177,-0.0496235088861324,0.5758227162589294,0.5172094702720642,-0.7888700366020203,0.3319315612316132,0,0,0,-1,-1,4995.253127291667,unknown,2,2022-06-30T09:51:57.314+02:00,2022-06-30T08:20:05.567+02:00,1418,1.388076,0,0,1121.329,0,0,2022-06-30T09:50:28.075+02:00
231,2022-06-30T09:51:58.254+02:00,4996.19073175,24.343427581787115,-9.678872680664062,29.180917968750002,4996.180779750001,-1.589773699626623,2.170577902953989,0.9084117818880904,-2.541911602020264,6.513278007507324,-1.392887473106384,1.660754442214966,-0.2130135297775269,2.172372341156006,XArbitraryZVertical,0.7106872717637229,0.4104820299356225,-0.0275460568429965,0.5706745689240535,0.5076565742492676,-0.7885279655456543,0.3471437990665436,0,0,0,-1,-1,4995.253127291667,unknown,2,2022-06-30T09:51:57.314+02:00,2022-06-30T08:20:05.567+02:00,1418,1.388076,0,0,1121.329,0,0,2022-06-30T09:50:28.075+02:00
232,2022-06-30T09:51:58.264+02:00,4996.20068275,26.224416046142576,-10.590626678466801,30.561047973632814,4996.19073175,-1.537480868870593,2.196851887203457,0.9158025438029248,-3.583990812301636,7.068395614624023,-1.109949827194214,1.891552090644836,-0.175790011882782,2.478345632553101,XArbitraryZVertical,0.6998958018806181,0.4342968105704972,-0.0007858137616406,0.5670374546627109,0.4936251044273376,-0.7930517196655273,0.3569357097148895,0,0,0,-1,-1,4995.253127291667,unknown,2,2022-06-30T09:51:57.314+02:00,2022-06-30T08:20:05.567+02:00,1418,1.388076,0,0,1121.329,0,0,2022-06-30T09:50:28.075+02:00
233,2022-06-30T09:51:58.274+02:00,4996.21063475,28.23338836669922,-11.689491577148438,31.559172363281252,4996.20068275,-1.473644088559098,2.21895062517255,0.9324046619648744,-4.569725513458252,7.605942726135254,-0.83760666847229,2.10343599319458,-0.2233427166938782,2.709304094314575,XArbitraryZVertical,0.6856695395748742,0.4579693324174798,0.0309202002208019,0.5649472222934068,0.475054919719696,-0.8030552268028259,0.3597572445869446,0,0,0,-1,-1,4995.253127291667,unknown,2,2022-06-30T09:51:57.314+02:00,2022-06-30T08:20:05.567+02:00,1418,1.388076,0,0,1121.329,0,0,2022-06-30T09:50:28.075+02:00
234,2022-06-30T09:51:58.284+02:00,4996.22058575,30.036838073730472,-12.784015502929687,31.431637573242188,4996.21063475,-1.399774571353104,2.236819818939529,0.9570418622593456,-5.297411441802979,7.97370719909668,-0.591312050819397,2.316341638565063,-0.3177322149276733,2.804348945617676,XArbitraryZVertical,0.6682223006569384,0.4810463404316958,0.0668541499747591,0.5635636122480163,0.4528535604476929,-0.8174914121627808,0.355853259563446,0,0,0,-1,-1,4995.253127291667,unknown,2,2022-06-30T09:51:57.314+02:00,2022-06-30T08:20:05.567+02:00,1418,1.388076,0,0,1121.329,0,0,2022-06-30T09:50:28.075+02:00
235,2022-06-30T09:51:58.294+02:00,4996.230537750001,30.66044128417969,-14.270125122070313,30.670021362304688,4996.22058575,-1.318283659654,2.249208505392164,0.9871565588853528,-5.619994640350342,8.020495414733887,-0.4612421691417694,2.552631139755249,-0.41596519947052,2.894973754882812,XArbitraryZVertical,0.6481598925965616,0.5027935042697269,0.1051205768840064,0.5621718927496698,0.4290428757667542,-0.8344624042510986,0.3458251059055328,0,0,0,-1,-1,4995.253127291667,unknown,2,2022-06-30T09:51:57.314+02:00,2022-06-30T08:20:05.567+02:00,1418,1.388076,0,0,1121.329,0,0,2022-06-30T09:50:28.075+02:00
236,2022-06-30T09:51:58.304+02:00,4996.240488750001,31.7102082824707,-17.242943115234375,30.6755598449707,4996.230537750001,-1.232744603534951,2.256355152282186,1.018192305431207,-5.426033496856689,7.886947631835938,-0.5564164519309998,2.694396257400513,-0.5127314329147339,2.805694818496704,XArbitraryZVertical,0.6264644765875553,0.5231660517461427,0.143177654652874,0.5597677075719028,0.4063114821910858,-0.8511605262756348,0.3323209285736084,0,0,0,-1,-1,4995.253127291667,unknown,2,2022-06-30T09:51:57.314+02:00,2022-06-30T08:20:05.567+02:00,1418,1.388076,0,0,1121.329,0,0,2022-06-30T09:50:28.075+02:00
237,2022-06-30T09:51:58.314+02:00,4996.25044075,31.22102554321289,-21.377046203613283,30.292057342529304,4996.240488750001,-1.146037359300126,2.258498371090589,1.04612645968275,-4.988839626312256,7.490959167480469,-0.8477164506912231,2.799499034881592,-0.7207229137420654,2.822792053222656,XArbitraryZVertical,0.6040058244650539,0.5423670877864267,0.1787752912377937,0.5559265043535895,0.3870698511600494,-0.8654893636703491,0.3179701864719391,0,0,0,-1,-1,4995.253127291667,unknown,2,2022-06-30T09:51:57.314+02:00,2022-06-30T08:20:05.567+02:00,1418,1.388076,0,0,1121.329,0,0,2022-06-30T09:50:28.075+02:00
238,2022-06-30T09:51:58.324+02:00,4996.26039175,32.803983764648436,-22.126238250732428,32.87104431152344,4996.25044075,-1.05870024401945,2.254892027941716,1.067023915615201,-4.260529041290283,7.079174041748047,-1.401910305023193,2.840394258499146,-1.090419054031372,2.797846555709839,XArbitraryZVertical,0.581056884450287,0.561168286453088,0.2100048132793826,0.5507822608668269,0.3741135895252228,-0.875767707824707,0.3050738871097565,0,0,0,-1,-1,4995.253127291667,unknown,2,2022-06-30T09:51:57.314+02:00,2022-06-30T08:20:05.567+02:00,1418,1.388076,0,0,1121.329,0,0,2022-06-30T09:50:28.075+02:00
239,2022-06-30T09:51:58.334+02:00,4996.27034375,34.09938995361328,-19.478544158935552,35.78338806152344,4996.26039175,-0.9748089618110268,2.248440998350147,1.078497865015577,-3.413921356201172,6.394650936126709,-1.918131589889526,2.85202431678772,-1.413093447685242,2.866919279098511,XArbitraryZVertical,0.558405848050166,0.579956939047796,0.2356411363446101,0.5443400988043361,0.3682208657264709,-0.8812488317489624,0.29633429646492,0,0,0,-1,-1,4995.253127291667,unknown,2,2022-06-30T09:51:57.314+02:00,2022-06-30T08:20:05.567+02:00,1418,1.388076,0,0,1121.329,0,0,2022-06-30T09:50:28.075+02:00
240,2022-06-30T09:51:58.344+02:00,4996.28029475,33.74911834716797,-15.372133483886719,38.773569946289065,4996.27034375,-0.8922867628565431,2.234367049986139,1.080787211301559,-2.719462156295776,5.495219230651855,-2.861485958099365,3.085763216018677,-1.250514507293701,3.234092235565186,XArbitraryZVertical,0.5359692609448394,0.5980606536917044,0.2550376532526363,0.5385314414562925,0.3707642555236816,-0.8823285698890686,0.2898792028427124,0,0,0,-1,-1,4995.253127291667,unknown,2,2022-06-30T09:51:57.314+02:00,2022-06-30T08:20:05.567+02:00,1418,1.388076,0,0,1121.329,0,0,2022-06-30T09:50:28.075+02:00
241,2022-06-30T09:51:58.354+02:00,4996.290246750001,33.70690612792969,-11.278446350097656,42.627755126953126,4996.28029475,-0.8062163453227811,2.208037178838092,1.068519779976331,-2.314847707748413,4.413658142089844,-4.156041622161865,3.055367946624756,-0.9108800888061525,3.492112398147583,XArbitraryZVertical,0.5122770769722017,0.6170822283052495,0.2663528236741793,0.534638080413536,0.3869384229183197,-0.8764888644218445,0.2864365577697754,0,0,0,-1,-1,4995.253127291667,unknown,2,2022-06-30T09:51:57.314+02:00,2022-06-30T08:20:05.567+02:00,1418,1.388076,0,0,1121.329,0,0,2022-06-30T09:50:28.075+02:00
242,2022-06-30T09:51:58.364+02:00,4996.300197750001,29.614416503906252,-6.909481658935547,42.49318496704101,4996.290246750001,-0.7071197716933538,2.158472109258786,1.041290614727792,-2.60962986946106,2.916995048522949,-6.047906875610352,3.042921304702759,-0.4871782064437866,3.895537137985229,XArbitraryZVertical,0.4850685569432723,0.636184862106069,0.2696447702262111,0.535974755282796,0.4203656613826752,-0.8630568385124207,0.280045360326767,0,0,0,-1,-1,4995.253127291667,unknown,2,2022-06-30T09:51:57.314+02:00,2022-06-30T08:20:05.567+02:00,1418,1.388076,0,0,1121.329,0,0,2022-06-30T09:50:28.075+02:00
243,2022-06-30T09:51:58.374+02:00,4996.31014975,22.283411407470698,3.037633209228516,37.29135223388672,4996.300197750001,-0.5901768080945896,2.080625371530953,0.9954560021899972,-3.09502649307251,1.464172840118408,-8.260478019714355,2.828436374664307,-0.1332525610923767,4.129488468170166,XArbitraryZVertical,0.4515332648295998,0.6548974843952472,0.2647236307265248,0.5451132088863927,0.4749234914779663,-0.8390071988105774,0.2655459940433502,0,0,0,-1,-1,4995.253127291667,unknown,2,2022-06-30T09:51:57.314+02:00,2022-06-30T08:20:05.567+02:00,1418,1.388076,0,0,1121.329,0,0,2022-06-30T09:50:28.075+02:00
244,2022-06-30T09:51:58.384+02:00,4996.32010075,14.092444610595699,15.174244995117188,26.870023498535158,4996.31014975,-0.4640981476845247,1.984548388028632,0.92802241518396,-3.818011522293091,0.014352093450725,-10.27659893035889,2.103092908859253,0.5450494289398193,3.936525821685791,XArbitraryZVertical,0.410339460417743,0.6723978640241729,0.2522181160147679,0.5620398551506935,0.54883873462677,-0.8004360795021057,0.2409947216510773,0,0,0,-1,-1,4995.253127291667,unknown,2,2022-06-30T09:51:57.314+02:00,2022-06-30T08:20:05.567+02:00,1418,1.388076,0,0,1121.329,0,0,2022-06-30T09:50:28.075+02:00
245,2022-06-30T09:51:58.394+02:00,4996.330052750001,7.2459819030761725,27.503955230712887,22.53967849731445,4996.32010075,-0.3441330280346067,1.885309282362134,0.8380078953821358,-4.011301040649414,-1.275706768035889,-12.02223014831543,1.233909368515015,1.652186274528503,3.042113304138184,XArbitraryZVertical,0.3621046248444312,0.6872775407894942,0.2324187422719744,0.585244698904599,0.6361312866210938,-0.7433120012283325,0.2069403529167175,0,0,0,-1,-1,4995.253127291667,unknown,2,2022-06-30T09:51:57.314+02:00,2022-06-30T08:20:05.567+02:00,1418,1.388076,0,0,1121.329,0,0,2022-06-30T09:50:28.075+02:00
246,2022-06-30T09:51:58.404+02:00,4996.340003750001,3.2657588195800784,29.75018417358399,26.617199249267575,4996.330052750001,-0.2369518205314676,1.789868126730925,0.7259268707054054,-4.884613990783691,-2.775308132171631,-13.72663593292236,0.2992563843727112,2.889109373092651,2.260348796844482,XArbitraryZVertical,0.3067564190633033,0.6979735094857512,0.2059294624926231,0.6134546454956789,0.7300097942352295,-0.6638289093971252,0.1625330448150635,0,0,0,-1,-1,4995.253127291667,unknown,2,2022-06-30T09:51:57.314+02:00,2022-06-30T08:20:05.567+02:00,1418,1.388076,0,0,1121.329,0,0,2022-06-30T09:50:28.075+02:00
247,2022-06-30T09:51:58.414+02:00,4996.34995575,-7.071744232177735,22.84085220336914,24.415427856445312,4996.340003750001,-0.1324505123476197,1.68632744693674,0.590917751401644,-7.185426235198975,-5.254609107971191,-15.86427402496338,-0.2830238938331604,3.666864395141602,2.294027805328369,XArbitraryZVertical,0.2405159044091779,0.7000112122249667,0.1748542204222659,0.64927838481735,0.8248938322067261,-0.5571233630180359,0.0957271978259086,0,0,0,-1,-1,4995.253127291667,unknown,2,2022-06-30T09:51:57.314+02:00,2022-06-30T08:20:05.567+02:00,1418,1.388076,0,0,1121.329,0,0,2022-06-30T09:50:28.075+02:00
248,2022-06-30T09:51:58.424+02:00,4996.35990675,-35.27279983520508,12.85900955200195,36.16808807373047,4996.34995575,-0.017586323178053,1.561607544651885,0.4239115762971983,-11.53977108001709,-8.953373908996582,-18.85722160339355,-0.9611007571220398,3.072614192962646,2.817060470581055,XArbitraryZVertical,0.15548227826208,0.6867587586280051,0.1419586192617737,0.6957265281085081,0.9114484786987304,-0.4113289415836334,-0.0083753373473882,0,0,0,-1,-1,4995.253127291667,unknown,2,2022-06-30T09:51:57.314+02:00,2022-06-30T08:20:05.567+02:00,1418,1.388076,0,0,1121.329,0,0,2022-06-30T09:50:28.075+02:00
249,2022-06-30T09:51:58.433+02:00,4996.36985875,-102.16569534301756,-24.73905487060547,125.20608261108401,4996.35990675,0.1146155553816371,1.384013715913813,0.1847485557440059,-18.24682426452637,-20.13093185424805,-28.25730895996094,-2.805225610733032,2.23538064956665,2.580441474914551,XArbitraryZVertical,0.0345161202053353,0.6383881841007256,0.1026750210531279,0.7620545594827156,0.96588534116745,-0.183699369430542,-0.1825383305549622,0,0,0,-1,-1,4995.253127291667,unknown,2,2022-06-30T09:51:57.314+02:00,2022-06-30T08:20:05.567+02:00,1418,1.388076,0,0,1121.329,0,0,2022-06-30T09:50:28.075+02:00
250,2022-06-30T09:51:58.443+02:00,4996.37980975,-312.6678538513184,-1.5260765075683596,159.6542472839356,4996.36985875,0.1753659550358168,1.100609746945913,-0.1807022553425411,-12.31317806243896,-32.07074737548828,-34.6478157043457,-7.262939453125,-0.3813197314739227,8.34850788116455,XArbitraryZVertical,-0.122219987531872,0.5120784245266248,0.0273343935598202,0.8497593122320578,0.8769684433937073,0.1797204315662384,-0.4456759095191956,0,0,0,-1,-1,4995.253127291667,unknown,2,2022-06-30T09:51:57.314+02:00,2022-06-30T08:20:05.567+02:00,1418,1.388076,0,0,1121.329,0,0,2022-06-30T09:50:28.075+02:00
251,2022-06-30T09:51:58.453+02:00,4996.389761750001,-268.9738659667969,177.72122680664063,-53.98927871704101,4996.37980975,0.0846508219550701,0.8332168445873419,-0.3473835533942677,6.306590557098389,-18.72982978820801,-11.51495456695557,-22.6432933807373,-4.372161865234375,15.52165603637695,XArbitraryZVertical,-0.1747610709774231,0.3915285816330074,-0.0317594205339997,0.9028594712066128,0.695889949798584,0.3404388129711151,-0.6323278546333313,0,0,0,-1,-1,4995.253127291667,unknown,2,2022-06-30T09:51:57.314+02:00,2022-06-30T08:20:05.567+02:00,1418,1.388076,0,0,1121.329,0,0,2022-06-30T09:50:28.075+02:00
252,2022-06-30T09:51:58.463+02:00,4996.39971375,-179.3342724609375,83.72045242309571,-20.79760116577149,4996.389761750001,-0.1053829159689044,0.527891949269353,-0.3301729945266964,16.25094223022461,-24.0311107635498,-12.8433780670166,-31.4102668762207,8.83907699584961,7.148462772369385,XArbitraryZVertical,-0.1448725363155895,0.2653431269237388,-0.0929667213132181,0.948663320243458,0.4765059351921082,0.324206680059433,-0.8172099590301514,0,0,0,-1,-1,4995.253127291667,unknown,2,2022-06-30T09:51:57.314+02:00,2022-06-30T08:20:05.567+02:00,1418,1.388076,0,0,1121.329,0,0,2022-06-30T09:50:28.075+02:00
253,2022-06-30T09:51:58.474+02:00,4996.40966475,-61.11760528564454,-41.49027053833007,13.708493041992188,4996.39971375,-0.2771622885283175,0.3476016495769863,-0.245976191623389,11.87157821655273,-4.979701042175293,-9.110291481018066,-25.15547943115234,17.72788619995117,-7.17116117477417,XArbitraryZVertical,-0.0959643055301752,0.1866668331707987,-0.1560402077482372,0.965193178429785,0.3303905129432678,0.2435032427310944,-0.9118927121162416,0,0,0,-1,-1,4995.253127291667,unknown,2,2022-06-30T09:51:57.314+02:00,2022-06-30T08:20:05.567+02:00,1418,1.388076,0,0,1121.329,0,0,2022-06-30T09:50:28.075+02:00
254,2022-06-30T09:51:58.483+02:00,4996.41961675,-30.205836639404303,-10.397827606201178,9.254954223632813,4996.40966475,-0.3368130912014873,0.3213609819909193,-0.15695367322984,9.613630294799805,2.315291881561279,5.399335861206055,-10.85964393615723,-0.2226403653621674,4.152079105377197,XArbitraryZVertical,-0.0495580315408988,0.1702120200907581,-0.1773085306768256,0.9680566980241876,0.3119756579399109,0.1563100516796112,-0.9371437430381776,0,0,0,-1,-1,4995.253127291667,unknown,2,2022-06-30T09:51:57.314+02:00,2022-06-30T08:20:05.567+02:00,1418,1.388076,0,0,1121.329,0,0,2022-06-30T09:50:28.075+02:00
255,2022-06-30T09:51:58.493+02:00,4996.42956775,-10.811716918945313,-46.944029388427744,12.150981903076177,4996.41961675,-0.2473454121380239,0.3821848676500144,-0.0740936869579084,0.2949769198894501,7.330424785614014,15.12897682189941,-4.373588562011719,-3.21278977394104,0.6370524168014526,XArbitraryZVertical,-0.012672996154449,0.1928373631614519,-0.128010156032166,0.9727624468866573,0.3719253540039062,0.0740259140729904,-0.9253063201904296,0,0,0,-1,-1,4995.253127291667,unknown,2,2022-06-30T09:51:57.314+02:00,2022-06-30T08:20:05.567+02:00,1418,1.388076,0,0,1121.329,0,0,2022-06-30T09:50:28.075+02:00
256,2022-06-30T09:51:58.503+02:00,4996.439519750001,20.860171051025386,-75.7776695251465,-17.917590179443366,4996.42956775,-0.1127573458683536,0.456419445161469,-0.0153049425564666,0.4230714440345764,5.529161930084229,13.92866897583008,-2.773845911026001,-1.966873288154602,2.755242824554443,XArbitraryZVertical,0.0053054929122735,0.2262879646729475,-0.0566147235546038,0.9723993833108318,0.4406853020191193,0.0153043447062373,-0.8975312113761902,0,0,0,-1,-1,4995.253127291667,unknown,2,2022-06-30T09:51:57.314+02:00,2022-06-30T08:20:05.567+02:00,1418,1.388076,0,0,1121.329,0,0,2022-06-30T09:50:28.075+02:00
257,2022-06-30T09:51:58.513+02:00,4996.449470750001,18.015636291503906,-41.417372131347655,-39.58862503051757,4996.439519750001,-0.0062224453440044,0.4651150256885569,0.038916712403758,-1.77827513217926,-4.845858573913574,9.732715606689451,0.1793771684169769,-7.062686443328857,0.7225303649902344,XArbitraryZVertical,0.0196501496105692,0.2303632755341123,0.0014573113850786,0.9729052593015642,0.4481860101222992,-0.0389068908989429,-0.8930932879447937,0,0,0,-1,-1,4995.253127291667,unknown,2,2022-06-30T09:51:57.314+02:00,2022-06-30T08:20:05.567+02:00,1418,1.388076,0,0,1121.329,0,0,2022-06-30T09:50:28.075+02:00
258,2022-06-30T09:51:58.523+02:00,4996.45942275,-27.819499053955074,-35.76542541503906,-42.20757888793945,4996.449470750001,0.0892599859097598,0.383834368492656,0.0146047136209441,-12.16192531585693,-9.722063064575195,5.841077327728271,2.392116785049438,-6.4793381690979,-2.330386161804199,XArbitraryZVertical,-0.0013486386274144,0.1908660117769985,0.0451863485585192,0.9805747009940292,0.3744386434555054,-0.0146041940897703,-0.9271367192268372,0,0,0,-1,-1,4995.253127291667,unknown,2,2022-06-30T09:51:57.314+02:00,2022-06-30T08:20:05.567+02:00,1418,1.388076,0,0,1121.329,0,0,2022-06-30T09:50:28.075+02:00
259,2022-06-30T09:51:58.533+02:00,4996.46937375,-31.10127456665039,-16.594790954589843,-26.3595849609375,4996.45942275,0.1603485404644956,0.2732237527172193,-0.1238804260411865,-17.1401424407959,-13.50050258636475,-1.278775215148926,-0.8676230311393738,-3.164610147476196,-3.206857204437256,XArbitraryZVertical,-0.0720130127418831,0.1305782171889728,0.0707870737294511,0.9862822785580704,0.2677691578865051,0.1235638186335564,-0.955526888370514,0,0,0,-1,-1,4995.253127291667,unknown,2,2022-06-30T09:51:57.314+02:00,2022-06-30T08:20:05.567+02:00,1418,1.388076,0,0,1121.329,0,0,2022-06-30T09:50:28.075+02:00
260,2022-06-30T09:51:58.543+02:00,4996.47932575,-55.5933430480957,9.102571105957031,-40.693776855468755,4996.46937375,0.1749847536934716,0.1309446634465119,-0.2851149828073875,-13.35038280487061,-14.48069953918457,-1.346232771873474,-3.630640506744385,-3.575701475143433,-2.534151315689087,XArbitraryZVertical,-0.1468873833599844,0.0521261259573069,0.0770492819621073,0.9847692448553198,0.1252995431423187,0.2812677919864655,-0.9514139294624328,0,0,0,-1,-1,4995.253127291667,unknown,2,2022-06-30T09:51:57.314+02:00,2022-06-30T08:20:05.567+02:00,1418,1.388076,0,0,1121.329,0,0,2022-06-30T09:50:28.075+02:00
261,2022-06-30T09:51:58.553+02:00,4996.48927675,-51.70502883911132,29.159961547851562,-25.53899139404297,4996.47932575,0.1766737239463119,0.038381106563148,-0.3434252947905212,1.084956645965576,-3.280813694000244,-0.1029027253389359,-3.840315341949463,-0.692457914352417,-2.42015552520752,XArbitraryZVertical,-0.1718404853614057,0.0037617220408002,0.0836424722922247,0.9815603723525708,0.0361310392618179,0.3367143273353577,-0.9409133791923524,0,0,0,-1,-1,4995.253127291667,unknown,2,2022-06-30T09:51:57.314+02:00,2022-06-30T08:20:05.567+02:00,1418,1.388076,0,0,1121.329,0,0,2022-06-30T09:50:28.075+02:00
262,2022-06-30T09:51:58.563+02:00,4996.49922875,-12.701387329101562,-2.7141558837890627,-26.048531799316407,4996.48927675,0.1766281090738728,0.0475759422861707,-0.32026668333157,2.177411317825317,3.777198791503906,0.5932822227478027,-6.734578132629395,2.223235607147217,-2.637219190597534,XArbitraryZVertical,-0.1608545489027054,0.0093305177393189,0.0832683955315117,0.983415052083773,0.0451397448778152,0.3148196935653687,-0.9480774998664856,0,0,0,-1,-1,4995.253127291667,unknown,2,2022-06-30T09:51:57.314+02:00,2022-06-30T08:20:05.567+02:00,1418,1.388076,0,0,1121.329,0,0,2022-06-30T09:50:28.075+02:00
263,2022-06-30T09:51:58.573+02:00,4996.50917975,5.785618743896484,-29.18241485595703,-30.467642211914065,4996.49922875,0.1903208621598882,0.0935592045770716,-0.2987746370933126,2.461663961410522,4.377250671386719,2.217740058898926,-2.968709468841553,1.317863583564758,-1.455586433410645,XArbitraryZVertical,-0.1523905895741097,0.0319063992102593,0.0869275399667071,0.9839729658388248,0.0892839431762695,0.29434934258461,-0.951518177986145,0,0,0,-1,-1,4995.253127291667,unknown,2,2022-06-30T09:51:57.314+02:00,2022-06-30T08:20:05.567+02:00,1418,1.388076,0,0,1121.329,0,0,2022-06-30T09:50:28.075+02:00
264,2022-06-30T09:51:58.583+02:00,4996.51913175,15.807877349853513,-24.39312423706055,-23.665487365722658,4996.50917975,0.2150467224022565,0.1301886003275844,-0.2622750522201933,3.84295392036438,1.161187291145325,3.084880590438843,-0.506043016910553,-2.067887544631958,-1.976712107658386,XArbitraryZVertical,-0.1366522799964364,0.0501142134883067,0.0977127875202657,0.9845136552058906,0.1253816038370132,0.2592784762382507,-0.9576294422149658,0,0,0,-1,-1,4995.253127291667,unknown,2,2022-06-30T09:51:57.314+02:00,2022-06-30T08:20:05.567+02:00,1418,1.388076,0,0,1121.329,0,0,2022-06-30T09:50:28.075+02:00
265,2022-06-30T09:51:58.593+02:00,4996.52908275,4.565206604003906,-9.215735778808595,-24.192691040039065,4996.51913175,0.2352518959992362,0.1255386397473097,-0.245055227468419,-1.402801394462585,-2.900507211685181,0.9940655827522278,1.281607389450073,-3.482813835144043,-1.865010023117065,XArbitraryZVertical,-0.1284439412629937,0.0475126141797138,0.1086319560574569,0.9846033864716,0.1214683949947357,0.242609903216362,-0.9624894261360168,0,0,0,-1,-1,4995.253127291667,unknown,2,2022-06-30T09:51:57.314+02:00,2022-06-30T08:20:05.567+02:00,1418,1.388076,0,0,1121.329,0,0,2022-06-30T09:50:28.075+02:00
266,2022-06-30T09:51:58.603+02:00,4996.539034750001,-6.1787013244628906,-5.386548614501954,-28.790380096435552,4996.52908275,0.244583294880542,0.0942756632282408,-0.2858540991245553,-6.37027645111084,-3.417488813400269,0.270350307226181,1.083557367324829,-1.800669193267822,-1.346414089202881,XArbitraryZVertical,-0.146909546606132,0.0289349357506719,0.1139473239952335,0.9821387325975732,0.0903161391615867,0.2819769978523254,-0.9551607370376588,0,0,0,-1,-1,4995.253127291667,unknown,2,2022-06-30T09:51:57.314+02:00,2022-06-30T08:20:05.567+02:00,1418,1.388076,0,0,1121.329,0,0,2022-06-30T09:50:28.075+02:00
267,2022-06-30T09:51:58.613+02:00,4996.548985750001,-9.983040161132813,1.392703857421875,-27.528204803466803,4996.539034750001,0.2573708005301513,0.0711736466703401,-0.3461629339408865,-5.187085628509521,-1.931010246276855,1.124687790870667,-0.2504893839359283,-1.056179404258728,-1.788720369338989,XArbitraryZVertical,-0.1751841453591075,0.0126710110187583,0.1202563153581185,0.9770815572006196,0.0668952241539955,0.3392908573150635,-0.9382998943328856,0,0,0,-1,-1,4995.253127291667,unknown,2,2022-06-30T09:51:57.314+02:00,2022-06-30T08:20:05.567+02:00,1418,1.388076,0,0,1121.329,0,0,2022-06-30T09:50:28.075+02:00
268,2022-06-30T09:51:58.623+02:00,4996.55893775,-9.632918243408202,7.958200836181641,-25.357119598388678,4996.548985750001,0.271315602116442,0.064673804601684,-0.377985525705955,-1.353559613227844,-0.5088805556297302,0.8849442601203918,-0.9697807431221008,-0.626678466796875,-2.036797046661377,XArbitraryZVertical,-0.1903410224328847,0.0060692169241844,0.1267462645615438,0.9734828662684613,0.0600665844976902,0.3690489530563354,-0.9274669289588928,0,0,0,-1,-1,4995.253127291667,unknown,2,2022-06-30T09:51:57.314+02:00,2022-06-30T08:20:05.567+02:00,1418,1.388076,0,0,1121.329,0,0,2022-06-30T09:50:28.075+02:00
269,2022-06-30T09:51:58.633+02:00,4996.56888875,-8.299042053222657,6.122717742919922,-20.55181228637695,4996.55893775,0.2749692676391791,0.0623368686187532,-0.3759745066390784,1.500088810920715,-0.3464379012584686,-0.2150102257728577,-1.083214044570923,0.1708303987979889,-1.764741182327271,XArbitraryZVertical,-0.18922439070636,0.0047253862753058,0.1288030764681204,0.9734380120986496,0.0579451099038124,0.3671791553497314,-0.9283435940742492,0,0,0,-1,-1,4995.253127291667,unknown,2,2022-06-30T09:51:57.314+02:00,2022-06-30T08:20:05.567+02:00,1418,1.388076,0,0,1121.329,0,0,2022-06-30T09:50:28.075+02:00
270,2022-06-30T09:51:58.642+02:00,4996.57884075,-6.586752777099609,-2.8277696228027347,-14.8588508605957,4996.56888875,0.266032412150086,0.0540063982495796,-0.3520424249527814,3.319982767105103,-0.6812641620635986,-1.106068849563599,-0.9721787571907043,0.510881781578064,-1.445602178573608,XArbitraryZVertical,-0.1770290075719487,0.0031320399127821,0.1258411275027318,0.9761224242275172,0.0506695695221424,0.3448157012462616,-0.9373018145561218,0,0,0,-1,-1,4995.253127291667,unknown,2,2022-06-30T09:51:57.314+02:00,2022-06-30T08:20:05.567+02:00,1418,1.388076,0,0,1121.329,0,0,2022-06-30T09:50:28.075+02:00
271,2022-06-30T09:51:58.652+02:00,4996.58879175,-4.875211944580078,-10.765612792968751,-10.396929473876948,4996.57884075,0.2505708347797405,0.0419756873632997,-0.3130525515829956,4.55115270614624,-0.6701925992965698,-1.395561933517456,-0.8040996789932251,-0.1136284470558167,-0.8358170986175537,XArbitraryZVertical,-0.1572223192951123,0.0010921283581165,0.1201572129996501,0.9802256879892084,0.0399238541722297,0.3079642653465271,-0.9505599141120912,0,0,0,-1,-1,4995.253127291667,unknown,2,2022-06-30T09:51:57.314+02:00,2022-06-30T08:20:05.567+02:00,1418,1.388076,0,0,1121.329,0,0,2022-06-30T09:50:28.075+02:00
272,2022-06-30T09:51:58.662+02:00,4996.598743750001,-3.464246063232422,-15.300582275390626,-7.691605224609376,4996.58879175,0.2338224968082742,0.0317499453613617,-0.2682436573594748,4.308616161346436,-0.4017099142074585,-1.501500010490417,-0.6115424036979675,-0.9959344863891602,-0.3118829131126404,XArbitraryZVertical,-0.1346255432097569,2.852696632693106e-05,0.1134747301039912,0.984377786340176,0.030609356239438,0.2650383114814758,-0.9637519121170044,0,0,0,-1,-1,4995.253127291667,unknown,2,2022-06-30T09:51:57.314+02:00,2022-06-30T08:20:05.567+02:00,1418,1.388076,0,0,1121.329,0,0,2022-06-30T09:50:28.075+02:00
273,2022-06-30T09:51:58.672+02:00,4996.608694750001,-2.542013854980469,-12.387190704345699,-7.884703674316406,4996.598743750001,0.2172904526779103,0.0247536202583836,-0.2355976865314161,2.121820449829102,-0.2152505367994308,-1.475732803344727,-0.4480637311935425,-1.617549061775208,0.096634566783905,XArbitraryZVertical,-0.1181573995914137,-0.0005243677141778,0.1062259177116306,0.9872966083188895,0.0240673441439867,0.2334242016077042,-0.9720771312713624,0,0,0,-1,-1,4995.253127291667,unknown,2,2022-06-30T09:51:57.314+02:00,2022-06-30T08:20:05.567+02:00,1418,1.388076,0,0,1121.329,0,0,2022-06-30T09:50:28.075+02:00
274,2022-06-30T09:51:58.682+02:00,4996.61864675,-2.4468118286132814,-5.585484924316407,-8.11477523803711,4996.608694750001,0.2042693499894263,0.0195112788390016,-0.2313328934644859,-1.214023113250732,-0.2300508320331573,-1.020595788955688,-0.3123867213726044,-1.748959064483643,0.1900647878646851,XArbitraryZVertical,-0.1157898174168626,-0.0021263865948021,0.1001511065848673,0.9882094962095916,0.0189903266727924,0.229275107383728,-0.9731764197349548,0,0,0,-1,-1,4995.253127291667,unknown,2,2022-06-30T09:51:57.314+02:00,2022-06-30T08:20:05.567+02:00,1418,1.388076,0,0,1121.329,0,0,2022-06-30T09:50:28.075+02:00
275,2022-06-30T09:51:58.692+02:00,4996.62859775,-1.841470642089844,0.6956034851074219,-8.062683563232422,4996.61864675,0.197359552083229,0.016416233928073,-0.2577617017686169,-3.831135034561157,-0.0439267568290233,-0.4309482872486115,-0.2677504122257233,-1.178455233573914,0.1548209190368652,XArbitraryZVertical,-0.1286967259469461,-0.0045614022690161,0.0966495172402124,0.9869525592510402,0.0158731769770383,0.2549168467521667,-0.96683269739151,0,0,0,-1,-1,4995.253127291667,unknown,2,2022-06-30T09:51:57.314+02:00,2022-06-30T08:20:05.567+02:00,1418,1.388076,0,0,1121.329,0,0,2022-06-30T09:50:28.075+02:00
276,2022-06-30T09:51:58.702+02:00,4996.63854975,-0.6438111877441407,6.253695373535156,-6.058351593017578,4996.62859775,0.1956716076759064,0.015916875996287,-0.2993303669031772,-4.251883506774902,0.004128654487431,-0.0774578601121902,-0.2467610090970993,-0.5299269556999207,0.0868980884552002,XArbitraryZVertical,-0.1491579982704781,-0.0067325305917769,0.0954038100222852,0.9841771838780504,0.0152084762230515,0.2948804199695587,-0.9554131031036376,0,0,0,-1,-1,4995.253127291667,unknown,2,2022-06-30T09:51:57.314+02:00,2022-06-30T08:20:05.567+02:00,1418,1.388076,0,0,1121.329,0,0,2022-06-30T09:50:28.075+02:00
277,2022-06-30T09:51:58.712+02:00,4996.64850075,-0.40894958496093753,9.269923095703126,-6.502178649902344,4996.63854975,0.1958335457897314,0.0147381010957845,-0.337691361663133,-3.39900016784668,-0.2879753708839417,-0.0470421612262725,-0.1379900872707367,0.0340465605258941,0.2331076264381409,XArbitraryZVertical,-0.1679452294866423,-0.0091982569941262,0.0951351676305692,0.9811519248423208,0.013905219733715,0.3313097357749939,-0.9434195756912231,0,0,0,-1,-1,4995.253127291667,unknown,2,2022-06-30T09:51:57.314+02:00,2022-06-30T08:20:05.567+02:00,1418,1.388076,0,0,1121.329,0,0,2022-06-30T09:50:28.075+02:00
278,2022-06-30T09:51:58.722+02:00,4996.65845275,-1.0306068420410157,7.781119079589844,-5.6275474548339846,4996.64850075,0.1948164820450804,0.0090805412460548,-0.3643809829678032,-1.86333954334259,-0.7746092081069946,-0.2087723016738892,-0.0457923784852027,0.4890115559101105,0.3117778897285461,XArbitraryZVertical,-0.1807577538947738,-0.0131768194589881,0.0948249304255957,0.9788570559367488,0.0084842378273606,0.3563709855079651,-0.934306025505066,0,0,0,-1,-1,4995.253127291667,unknown,2,2022-06-30T09:51:57.314+02:00,2022-06-30T08:20:05.567+02:00,1418,1.388076,0,0,1121.329,0,0,2022-06-30T09:50:28.075+02:00
279,2022-06-30T09:51:58.732+02:00,4996.66840375,-2.5147705078125,3.1992970275878907,-4.925058288574219,4996.65845275,0.1921711715279046,-0.0019253245095006,-0.3743804512004555,-0.1982233226299286,-1.222906589508057,-0.2992039322853088,-0.0602049008011817,0.5577810406684875,0.2827528715133667,XArbitraryZVertical,-0.1851497075411577,-0.0187953997305125,0.0944401500048985,0.9779812456016072,-0.0017919645179063,0.3656959533691406,-0.9307326078414916,0,0,0,-1,-1,4995.253127291667,unknown,2,2022-06-30T09:51:57.314+02:00,2022-06-30T08:20:05.567+02:00,1418,1.388076,0,0,1121.329,0,0,2022-06-30T09:50:28.075+02:00
280,2022-06-30T09:51:58.742+02:00,4996.67835575,-3.6386334228515627,-1.6630416870117188,-4.634662170410157,4996.66840375,0.1879699353917434,-0.0170715693211988,-0.3695064606258786,1.116896271705627,-1.488137245178223,-0.5245464444160461,-0.1602140367031097,0.2210742235183716,0.4157834649085999,XArbitraryZVertical,-0.1820991561644573,-0.0255927678364919,0.0938073086686827,0.978460520765934,-0.0159185621887445,0.361155241727829,-0.932369828224182,0,0,0,-1,-1,4995.253127291667,unknown,2,2022-06-30T09:51:57.314+02:00,2022-06-30T08:20:05.567+02:00,1418,1.388076,0,0,1121.329,0,0,2022-06-30T09:50:28.075+02:00
281,2022-06-30T09:51:58.752+02:00,4996.688307750001,-4.452490997314453,-4.4116259765625,-5.2259326171875005,4996.67835575,0.1808076490058891,-0.0348858923017138,-0.3539528165761739,1.895472168922424,-1.570546865463257,-0.9110690951347352,-0.2908005714416504,-0.281422883272171,0.4494326114654541,XArbitraryZVertical,-0.1737583056005979,-0.0329913741717,0.0919152719579463,0.9799343505812428,-0.0327166765928268,0.3466082811355591,-0.937439262866974,0,0,0,-1,-1,4995.253127291667,unknown,2,2022-06-30T09:51:57.314+02:00,2022-06-30T08:20:05.567+02:00,1418,1.388076,0,0,1121.329,0,0,2022-06-30T09:50:28.075+02:00
