,loggingTime(txt),accelerometerTimestamp_sinceReboot(s),accelerometerAccelerationX(G),accelerometerAccelerationY(G),accelerometerAccelerationZ(G),motionTimestamp_sinceReboot(s),motionYaw(rad),motionRoll(rad),motionPitch(rad),motionRotationRateX(rad/s),motionRotationRateY(rad/s),motionRotationRateZ(rad/s),motionUserAccelerationX(G),motionUserAccelerationY(G),motionUserAccelerationZ(G),motionAttitudeReferenceFrame(txt),motionQuaternionX(R),motionQuaternionY(R),motionQuaternionZ(R),motionQuaternionW(R),motionGravityX(G),motionGravityY(G),motionGravityZ(G),motionMagneticFieldX(µT),motionMagneticFieldY(µT),motionMagneticFieldZ(µT),motionHeading(°),motionMagneticFieldCalibrationAccuracy(Z),activityTimestamp_sinceReboot(s),activity(txt),activityActivityConfidence(Z),activityActivityStartDate(txt),pedometerStartDate(txt),pedometerNumberofSteps(N),pedometerAverageActivePace(s/m),pedometerCurrentPace(s/m),pedometerCurrentCadence(steps/s),pedometerDistance(m),pedometerFloorAscended(N),pedometerFloorDescended(N),pedometerEndDate(txt)
202,2022-06-30T09:58:38.774+02:00,5365.885333875,1.9857705688476563,2.7978318786621097,14.250216522216801,5365.875382875,2.197531468990063,2.202950709961779,0.2737933805696813,3.988502264022827,2.789297103881836,0.8510020971298218,-0.585681676864624,0.619430661201477,0.7622560858726501,XArbitraryZVertical,0.7588495169579743,-0.4567110147082935,-0.4543965279057562,-0.0953221533578604,0.7767065167427063,-0.2703854441642761,0.5688750743865967,0,0,0,-1,-1,5364.459466750001,unknown,2,2022-06-30T09:58:37.347+02:00,2022-06-30T08:20:05.567+02:00,1483,1.408551,0,0,1171.106,0,0,2022-06-30T09:57:51.488+02:00
203,2022-06-30T09:58:38.784+02:00,5365.895285875,1.9450552368164062,2.624791717529297,15.128440246582032,5365.885333875,2.160859115020144,2.239586055228492,0.2571357048797672,3.711471080780029,2.642929077148438,0.7878433465957642,-0.5576974153518677,0.5596555471420288,0.8120917081832886,XArbitraryZVertical,0.76108159360058,-0.4696601119603668,-0.4356772472362608,-0.1017821057052654,0.7587778568267822,-0.2543114721775055,0.5996516346931458,0,0,0,-1,-1,5364.459466750001,unknown,2,2022-06-30T09:58:37.347+02:00,2022-06-30T08:20:05.567+02:00,1483,1.408551,0,0,1171.106,0,0,2022-06-30T09:57:51.488+02:00
204,2022-06-30T09:58:38.794+02:00,5365.905236875,1.8356327819824219,2.2933808898925783,15.774796142578126,5365.895285875,2.127399799170828,2.27349540684496,0.2402906149172959,3.489131450653076,2.524105787277222,0.7202701568603516,-0.5392105579376221,0.5102936029434204,0.8713579773902893,XArbitraryZVertical,0.7629019147673531,-0.4814939647603119,-0.4177846774847652,-0.1077049989552391,0.7411760687828064,-0.2379848957061768,0.6277115345001221,0,0,0,-1,-1,5364.459466750001,unknown,2,2022-06-30T09:58:37.347+02:00,2022-06-30T08:20:05.567+02:00,1483,1.408551,0,0,1171.106,0,0,2022-06-30T09:57:51.488+02:00
205,2022-06-30T09:58:38.804+02:00,5365.915188875,1.9353254699707032,1.7497114562988283,16.62323181152344,5365.905236875,2.096604806286654,2.305158762810418,0.2231748738000471,3.328424215316772,2.420364618301392,0.6542938351631165,-0.5323520302772522,0.4794601798057556,0.9251182675361632,XArbitraryZVertical,0.7643965318766536,-0.4923875810215339,-0.4005376656174378,-0.1132348644202685,0.7238500714302063,-0.2213268727064133,0.653495192527771,0,0,0,-1,-1,5364.459466750001,unknown,2,2022-06-30T09:58:37.347+02:00,2022-06-30T08:20:05.567+02:00,1483,1.408551,0,0,1171.106,0,0,2022-06-30T09:57:51.488+02:00
206,2022-06-30T09:58:38.814+02:00,5365.925139875,2.1459375,1.4180012512207032,18.210680694580073,5365.915188875,2.068053626057354,2.334845546656329,0.2056690706364424,3.146871089935303,2.325954914093018,0.5885140299797058,-0.5181024670600891,0.406065821647644,0.9610665440559388,XArbitraryZVertical,0.7656139506513069,-0.5024641684251431,-0.3838190432767823,-0.1185247848535541,0.7068233489990234,-0.204222172498703,0.6772699356079102,0,0,0,-1,-1,5364.459466750001,unknown,2,2022-06-30T09:58:37.347+02:00,2022-06-30T08:20:05.567+02:00,1483,1.408551,0,0,1171.106,0,0,2022-06-30T09:57:51.488+02:00
207,2022-06-30T09:58:38.824+02:00,5365.935091875001,2.192191314697266,1.3656101989746094,19.987635498046878,5365.925139875,2.04253846621504,2.362512744022716,0.1889669815189477,2.772820472717285,2.242600917816162,0.5454053282737732,-0.479423999786377,0.3516173958778381,1.07512378692627,XArbitraryZVertical,0.7666542644762332,-0.5115545791263479,-0.3679889664430138,-0.1230336310509673,0.6901174783706665,-0.1878443658351898,0.6988937258720398,0,0,0,-1,-1,5364.459466750001,unknown,2,2022-06-30T09:58:37.347+02:00,2022-06-30T08:20:05.567+02:00,1483,1.408551,0,0,1171.106,0,0,2022-06-30T09:57:51.488+02:00
208,2022-06-30T09:58:38.834+02:00,5365.945042875001,2.3444247436523438,2.150577850341797,22.12204696655274,5365.935091875001,2.021135603217722,2.388476942995162,0.1746518034072911,2.224936723709106,2.202622652053833,0.5030314922332764,-0.4529602527618408,0.3046250343322754,1.224072694778442,XArbitraryZVertical,0.7677364239943755,-0.5194345430106123,-0.3534196585352041,-0.1259491558429697,0.6735109686851501,-0.173765242099762,0.7184629440307617,0,0,0,-1,-1,5364.459466750001,unknown,2,2022-06-30T09:58:37.347+02:00,2022-06-30T08:20:05.567+02:00,1483,1.408551,0,0,1171.106,0,0,2022-06-30T09:57:51.488+02:00
209,2022-06-30T09:58:38.844+02:00,5365.954994875,2.6464965820312503,2.885848846435547,24.367677154541013,5365.945042875001,2.004382917319473,2.413184248924333,0.1634661200295957,1.668877482414246,2.211121320724487,0.4243947267532349,-0.4286745190620422,0.3334701657295227,1.404765367507935,XArbitraryZVertical,0.7690937359692891,-0.5259641319408377,-0.3402331400790111,-0.1268777498959036,0.6568086743354797,-0.162739098072052,0.7362868785858154,0,0,0,-1,-1,5364.459466750001,unknown,2,2022-06-30T09:58:37.347+02:00,2022-06-30T08:20:05.567+02:00,1483,1.408551,0,0,1171.106,0,0,2022-06-30T09:57:51.488+02:00
210,2022-06-30T09:58:38.854+02:00,5365.964945875,3.080743560791016,2.767145690917969,26.46661239624024,5365.954994875,1.992284315807215,2.437345412902506,0.155814157078306,1.065699934959412,2.271498918533325,0.366320788860321,-0.3861376047134399,0.4219084978103638,1.619524002075195,XArbitraryZVertical,0.7708981563859152,-0.5311773975606803,-0.3283249188030176,-0.125576320053712,0.6396167278289795,-0.1551844477653503,0.752866804599762,0,0,0,-1,-1,5364.459466750001,unknown,2,2022-06-30T09:58:37.347+02:00,2022-06-30T08:20:05.567+02:00,1483,1.408551,0,0,1171.106,0,0,2022-06-30T09:57:51.488+02:00
211,2022-06-30T09:58:38.864+02:00,5365.974897875,3.782783660888672,2.818488922119141,28.610454254150387,5365.964945875,1.985079504622272,2.461327131844994,0.1519183234509647,0.4868994355201721,2.331937313079834,0.2169069200754166,-0.3337453007698059,0.4486373364925385,1.825099587440491,XArbitraryZVertical,0.7733280331724853,-0.5349670695117683,-0.3176674413831355,-0.1219072587640073,0.6217550039291382,-0.1513346433639526,0.7684520483016968,0,0,0,-1,-1,5364.459466750001,unknown,2,2022-06-30T09:58:37.347+02:00,2022-06-30T08:20:05.567+02:00,1483,1.408551,0,0,1171.106,0,0,2022-06-30T09:57:51.488+02:00
212,2022-06-30T09:58:38.874+02:00,5365.984848875,4.374503173828125,2.7430458068847656,30.568981475830075,5365.974897875,1.982518769199976,2.485291375522452,0.1508261582225448,0.000654689501971,2.401538848876953,0.0591428615152835,-0.2553629279136658,0.4252035021781921,2.019504547119141,XArbitraryZVertical,0.7765201664092894,-0.5372584769165827,-0.3079595098030898,-0.1163219961656359,0.6032634973526001,-0.1502549648284912,0.7832604646682739,0,0,0,-1,-1,5364.459466750001,unknown,2,2022-06-30T09:58:37.347+02:00,2022-06-30T08:20:05.567+02:00,1483,1.408551,0,0,1171.106,0,0,2022-06-30T09:57:51.488+02:00
213,2022-06-30T09:58:38.884+02:00,5365.994800875001,4.664150848388672,2.389031982421875,32.12544479370118,5365.984848875,1.983807393801089,2.509193250445636,0.1529768100137539,-0.5039994120597839,2.444982290267944,-0.0074115293100476,-0.1639825105667114,0.4449380338191986,2.227451086044312,XArbitraryZVertical,0.7802445718992117,-0.5383440765843384,-0.2992646017630035,-0.1088336964074141,0.5841791033744812,-0.1523808538913727,0.797191858291626,0,0,0,-1,-1,5364.459466750001,unknown,2,2022-06-30T09:58:37.347+02:00,2022-06-30T08:20:05.567+02:00,1483,1.408551,0,0,1171.106,0,0,2022-06-30T09:57:51.488+02:00
214,2022-06-30T09:58:38.894+02:00,5366.004752875,5.071902923583985,2.764750671386719,33.5635043334961,5365.994800875001,1.988790393816152,2.53295138634435,0.1592953478595356,-1.094730377197266,2.48988938331604,-0.0611613094806671,-0.1029817461967468,0.4167406260967255,2.385319709777832,XArbitraryZVertical,0.7843749390265043,-0.5383076599419975,-0.2918052212448432,-0.0991486651188914,0.5645143985748291,-0.1586225181818008,0.8100383877754211,0,0,0,-1,-1,5364.459466750001,unknown,2,2022-06-30T09:58:37.347+02:00,2022-06-30T08:20:05.567+02:00,1483,1.408551,0,0,1171.106,0,0,2022-06-30T09:57:51.488+02:00
215,2022-06-30T09:58:38.904+02:00,5366.014703875,5.0428633117675785,3.112178192138672,34.66820709228516,5366.004752875,1.997344147480079,2.556993670579146,0.1702982700595031,-1.683598279953003,2.61328387260437,-0.0897999107837677,-0.0527013540267944,0.4205448627471924,2.526381492614746,XArbitraryZVertical,0.7889060791227627,-0.5371798037153512,-0.2854819172841461,-0.0869773552578695,0.5438817739486694,-0.1694763153791428,0.8218699097633362,0,0,0,-1,-1,5364.459466750001,unknown,2,2022-06-30T09:58:37.347+02:00,2022-06-30T08:20:05.567+02:00,1483,1.408551,0,0,1171.106,0,0,2022-06-30T09:57:51.488+02:00
216,2022-06-30T09:58:38.914+02:00,5366.024655875,4.436174926757813,2.808310089111328,35.48505844116212,5366.014703875,2.008928564134269,2.58166118229026,0.1863129634810398,-2.263020753860474,2.76716947555542,-0.1085661426186562,0.0083676576614379,0.4966539740562439,2.651655197143555,XArbitraryZVertical,0.7937105428503123,-0.5351052747908708,-0.2801373782444807,-0.0721730639419787,0.5219363570213318,-0.185236930847168,0.8326281905174255,0,0,0,-1,-1,5364.459466750001,unknown,2,2022-06-30T09:58:37.347+02:00,2022-06-30T08:20:05.567+02:00,1483,1.408551,0,0,1171.106,0,0,2022-06-30T09:57:51.488+02:00
217,2022-06-30T09:58:38.923+02:00,5366.034606875,4.099674682617188,3.024310913085938,36.334691619873055,5366.024655875,2.023520795355798,2.607262765588608,0.2070639613366179,-2.753680944442749,2.957318305969238,-0.1947686672210693,-0.0187715888023376,0.5091309547424316,2.736844539642334,XArbitraryZVertical,0.7988420480400308,-0.5319441865093006,-0.2754779294931586,-0.0547606986442316,0.4983859658241272,-0.2055874615907669,0.8422264456748962,0,0,0,-1,-1,5364.459466750001,unknown,2,2022-06-30T09:58:37.347+02:00,2022-06-30T08:20:05.567+02:00,1483,1.408551,0,0,1171.106,0,0,2022-06-30T09:57:51.488+02:00
218,2022-06-30T09:58:38.934+02:00,5366.044558875,3.898942108154297,2.6385630798339843,37.00963806152344,5366.034606875,2.040571153274908,2.63390169170937,0.2308801516224256,-3.03191876411438,3.153116226196289,-0.3276436328887939,-0.0411621630191803,0.5174853205680847,2.80636191368103,XArbitraryZVertical,0.8043234287104023,-0.5276406319519344,-0.2709255702064652,-0.0354759459539542,0.4732606709003448,-0.22883440554142,0.8506816029548645,0,0,0,-1,-1,5364.459466750001,unknown,2,2022-06-30T09:58:37.347+02:00,2022-06-30T08:20:05.567+02:00,1483,1.408551,0,0,1171.106,0,0,2022-06-30T09:57:51.488+02:00
219,2022-06-30T09:58:38.944+02:00,5366.054509875,3.8716987609863285,1.172362060546875,37.81092178344726,5366.044558875,2.059469057671621,2.661573277407042,0.2562944142667985,-3.198385238647461,3.331366539001465,-0.5121309161186218,-0.0442463457584381,0.5625649690628052,2.883319616317749,XArbitraryZVertical,0.8101188596960799,-0.5222204162482759,-0.2660216011307304,-0.0150262323332347,0.4467122554779053,-0.2534977495670319,0.8580134510993958,0,0,0,-1,-1,5364.459466750001,unknown,2,2022-06-30T09:58:37.347+02:00,2022-06-30T08:20:05.567+02:00,1483,1.408551,0,0,1171.106,0,0,2022-06-30T09:57:51.488+02:00
220,2022-06-30T09:58:38.953+02:00,5366.064461875,3.557352447509766,0.2656974792480469,38.25459915161132,5366.054509875,2.080734137801761,2.689900154126921,0.2830868135959559,-3.457013368606567,3.516518115997314,-0.771701991558075,-0.0200068056583404,0.4748169779777527,2.946586608886719,XArbitraryZVertical,0.8162955465347089,-0.5153748536777638,-0.260785170319259,0.0064417160468137,0.4191157519817352,-0.2793209254741669,0.863899290561676,0,0,0,-1,-1,5364.459466750001,unknown,2,2022-06-30T09:58:37.347+02:00,2022-06-30T08:20:05.567+02:00,1483,1.408551,0,0,1171.106,0,0,2022-06-30T09:57:51.488+02:00
221,2022-06-30T09:58:38.963+02:00,5366.074412875,3.4085618591308595,0.2471360778808594,38.998552093505864,5366.064461875,2.105894367887833,2.718074882958554,0.3122442954033662,-3.713940620422363,3.702550888061523,-1.199225306510925,-0.0111237466335296,0.3703058958053589,3.019914150238037,XArbitraryZVertical,0.8229684715177221,-0.5064649940317032,-0.2556507742396704,0.0293078351141725,0.3910982608795166,-0.3071951866149902,0.867567777633667,0,0,0,-1,-1,5364.459466750001,unknown,2,2022-06-30T09:58:37.347+02:00,2022-06-30T08:20:05.567+02:00,1483,1.408551,0,0,1171.106,0,0,2022-06-30T09:57:51.488+02:00
222,2022-06-30T09:58:38.973+02:00,5366.084364875001,2.680924987792969,0.5023553466796875,38.62627624511719,5366.074412875,2.135836683974579,2.746193473872721,0.3413405407325103,-3.894225358963013,3.909811973571777,-1.717353463172913,-0.0093625485897064,0.3510169088840485,3.064130067825317,XArbitraryZVertical,0.8305718516561246,-0.4949251732998923,-0.2498588056722326,0.052631068327112,0.3629544973373413,-0.3347505927085876,0.8696010708808899,0,0,0,-1,-1,5364.459466750001,unknown,2,2022-06-30T09:58:37.347+02:00,2022-06-30T08:20:05.567+02:00,1483,1.408551,0,0,1171.106,0,0,2022-06-30T09:57:51.488+02:00
223,2022-06-30T09:58:38.983+02:00,5366.094315875001,1.4367123413085938,0.04176315307617188,39.121745910644535,5366.084364875001,2.171835040296381,2.773692567518626,0.3703316069729174,-3.989553928375244,4.13407564163208,-2.437377214431763,-0.0094385743141174,0.4090288579463959,3.116164207458496,XArbitraryZVertical,0.8392397939040938,-0.4801987571882498,-0.2434296421271732,0.0763401330776823,0.3352748155593872,-0.3619245886802673,0.8698285818099976,0,0,0,-1,-1,5364.459466750001,unknown,2,2022-06-30T09:58:37.347+02:00,2022-06-30T08:20:05.567+02:00,1483,1.408551,0,0,1171.106,0,0,2022-06-30T09:57:51.488+02:00
224,2022-06-30T09:58:38.993+02:00,5366.104267875,-0.4358935546875,-3.2885115051269533,43.59624114990235,5366.094315875001,2.214773646671207,2.798977709764589,0.397912993180918,-3.97955584526062,4.133815765380859,-3.148839473724365,-0.1005821824073792,0.4203783571720123,3.037546157836914,XArbitraryZVertical,0.8489914693020312,-0.4619084500261221,-0.2365386670167452,0.0995162042601927,0.3097038567066193,-0.3874952495098114,0.8682918548583984,0,0,0,-1,-1,5364.459466750001,unknown,2,2022-06-30T09:58:37.347+02:00,2022-06-30T08:20:05.567+02:00,1483,1.408551,0,0,1171.106,0,0,2022-06-30T09:57:51.488+02:00
225,2022-06-30T09:58:39.003+02:00,5366.114218875,-3.459306335449219,-11.938124542236324,49.67809387207031,5366.104267875,2.265895586501812,2.818639375409398,0.4240864379080778,-4.134054183959961,3.909512758255005,-4.060441017150879,-0.2333615124225616,0.3122303485870361,3.30850887298584,XArbitraryZVertical,0.8595173223094097,-0.4397481504726117,-0.2304195390716794,0.1214839897046957,0.2892544567584991,-0.4114883244037628,0.8642969131469727,0,0,0,-1,-1,5364.459466750001,unknown,2,2022-06-30T09:58:37.347+02:00,2022-06-30T08:20:05.567+02:00,1483,1.408551,0,0,1171.106,0,0,2022-06-30T09:57:51.488+02:00
226,2022-06-30T09:58:39.013+02:00,5366.124170875,-9.263636169433594,-13.902938690185552,56.990986633300786,5366.114218875,2.329921589324849,2.828165943623671,0.4487286642285956,-4.137866973876953,3.367240905761719,-5.550032138824463,-0.441080629825592,-0.3060167729854584,3.902279376983643,XArbitraryZVertical,0.8710590364294385,-0.4120784270177367,-0.2265596213990596,0.1418386912562893,0.2777962684631348,-0.4338204264640808,0.8571049571037292,0,0,0,-1,-1,5364.459466750001,unknown,2,2022-06-30T09:58:37.347+02:00,2022-06-30T08:20:05.567+02:00,1483,1.408551,0,0,1171.106,0,0,2022-06-30T09:57:51.488+02:00
227,2022-06-30T09:58:39.023+02:00,5366.134121875,-13.506113891601563,-4.020489349365235,62.018581695556634,5366.124170875,2.412553121653251,2.818902194239898,0.4667524226975822,-3.975992441177368,2.039218664169312,-7.504009246826172,-0.8986159563064575,-1.042412281036377,4.57618522644043,XArbitraryZVertical,0.8839172659411498,-0.3770422369337642,-0.227396899659278,0.1575441529350166,0.2831985056400299,-0.449988454580307,0.8469411730766296,0,0,0,-1,-1,5364.459466750001,unknown,2,2022-06-30T09:58:37.347+02:00,2022-06-30T08:20:05.567+02:00,1483,1.408551,0,0,1171.106,0,0,2022-06-30T09:57:51.488+02:00
228,2022-06-30T09:58:39.033+02:00,5366.144073875001,-16.91317886352539,9.407786407470702,60.5510334777832,5366.134121875,2.515978064283987,2.782338694714498,0.4773075283701878,-4.229987144470215,-0.0659432783722877,-9.16787052154541,-1.550426125526428,-0.5682135820388794,5.313825607299805,XArbitraryZVertical,0.8966340480031872,-0.3343834306940597,-0.2367501565607624,0.167882670463513,0.3122821450233459,-0.4593892991542816,0.8315297961235046,0,0,0,-1,-1,5364.459466750001,unknown,2,2022-06-30T09:58:37.347+02:00,2022-06-30T08:20:05.567+02:00,1483,1.408551,0,0,1171.106,0,0,2022-06-30T09:57:51.488+02:00
229,2022-06-30T09:58:39.043+02:00,5366.154024875001,-18.957028656005864,19.3948681640625,57.712486267089844,5366.144073875001,2.637892283388614,2.710094014416235,0.4806546384031359,-4.733853816986084,-3.246142387390137,-10.66327857971191,-1.856668472290039,0.764468789100647,5.485536575317383,XArbitraryZVertical,0.9061148996651556,-0.2857709538181167,-0.2593061118209011,0.1733529753213559,0.370843768119812,-0.4623597264289856,0.8054184913635254,0,0,0,-1,-1,5364.459466750001,unknown,2,2022-06-30T09:58:37.347+02:00,2022-06-30T08:20:05.567+02:00,1483,1.408551,0,0,1171.106,0,0,2022-06-30T09:57:51.488+02:00
230,2022-06-30T09:58:39.053+02:00,5366.163976875,-23.126757659912116,22.213656463623053,52.274893798828124,5366.154024875001,2.776717832304797,2.596596747550467,0.4715721853145682,-5.147587776184082,-6.782207489013672,-12.0094108581543,-2.351831912994385,2.002047538757324,5.268828392028809,XArbitraryZVertical,0.9095058387046367,-0.2317273254641407,-0.2981673039413022,0.1737759112908062,0.4618325531482697,-0.4542874395847321,0.7617968320846558,0,0,0,-1,-1,5364.459466750001,unknown,2,2022-06-30T09:58:37.347+02:00,2022-06-30T08:20:05.567+02:00,1483,1.408551,0,0,1171.106,0,0,2022-06-30T09:57:51.488+02:00
231,2022-06-30T09:58:39.063+02:00,5366.173927875,-29.28001190185547,25.117767333984375,43.37455215454101,5366.163976875,2.923782717383137,2.447077778260063,0.4421243257579039,-5.453526020050049,-10.1186466217041,-12.95470142364502,-2.635891199111938,2.581867694854736,4.979132652282715,XArbitraryZVertical,0.90388172067589,-0.1738936435963118,-0.3524810307342402,0.1688672651262386,0.5784724354743958,-0.4278604984283447,0.6944823265075684,0,0,0,-1,-1,5364.459466750001,unknown,2,2022-06-30T09:58:37.347+02:00,2022-06-30T08:20:05.567+02:00,1483,1.408551,0,0,1171.106,0,0,2022-06-30T09:57:51.488+02:00
232,2022-06-30T09:58:39.073+02:00,5366.183879875,-34.608930358886724,21.58421539306641,31.587613220214845,5366.173927875,3.06912582029335,2.274143487487795,0.3901301977802823,-5.810799598693848,-12.78990650177002,-13.38026332855225,-3.401403188705444,2.822264671325684,4.300338745117188,XArbitraryZVertical,0.8866627166953163,-0.1136522756903528,-0.4183841803544533,0.1608324108008906,0.7053733468055725,-0.3803088366985321,0.5981752276420593,0,0,0,-1,-1,5364.459466750001,unknown,2,2022-06-30T09:58:37.347+02:00,2022-06-30T08:20:05.567+02:00,1483,1.408551,0,0,1171.106,0,0,2022-06-30T09:57:51.488+02:00
233,2022-06-30T09:58:39.083+02:00,5366.193830875,-47.241011810302744,32.70249481201172,21.123772888183595,5366.183879875,-3.090609466010568,2.087182269241668,0.3103557550177529,-3.598349332809448,-16.3531379699707,-13.03327465057373,-4.039459228515625,2.738320112228394,3.365114450454712,XArbitraryZVertical,0.855536797271346,-0.0559716838696968,-0.4935084897398268,0.1461961735756886,0.8280636668205261,-0.3053974211215973,0.4701520800590515,0,0,0,-1,-1,5364.459466750001,unknown,2,2022-06-30T09:58:37.347+02:00,2022-06-30T08:20:05.567+02:00,1483,1.408551,0,0,1171.106,0,0,2022-06-30T09:57:51.488+02:00
234,2022-06-30T09:58:39.093+02:00,5366.203782875,-64.16975830078125,45.19820983886719,9.927655334472657,5366.193830875,-3.022409150849028,1.885240983496181,0.2087908538939897,-0.5023566484451294,-20.6379222869873,-11.08586502075195,-4.955339908599854,2.582857131958008,2.521770000457764,XArbitraryZVertical,0.8069146956315921,-0.0132050953595542,-0.5784115850003972,0.1189724305678529,0.9303155541419984,-0.2072771638631821,0.3025714159011841,0,0,0,-1,-1,5364.459466750001,unknown,2,2022-06-30T09:58:37.347+02:00,2022-06-30T08:20:05.567+02:00,1483,1.408551,0,0,1171.106,0,0,2022-06-30T09:57:51.488+02:00
235,2022-06-30T09:58:39.103+02:00,5366.213734875,-69.35377807617188,67.7266616821289,46.81829086303712,5366.203782875,-3.021548720166631,1.653922604735862,0.0910448661806887,5.705220699310303,-26.16863059997559,-12.6471471786499,-6.88905668258667,4.298622131347656,1.304307222366333,XArbitraryZVertical,0.7356394640027718,0.0133387628766196,-0.6731866755331235,0.0740023459015863,0.9924195408821106,-0.0909191370010376,0.0826866850256919,0,0,0,-1,-1,5364.459466750001,unknown,2,2022-06-30T09:58:37.347+02:00,2022-06-30T08:20:05.567+02:00,1483,1.408551,0,0,1171.106,0,0,2022-06-30T09:57:51.488+02:00
236,2022-06-30T09:58:39.112+02:00,5366.223685875,-144.22119049072262,63.056523284912124,47.938710937500005,5366.213734875,-3.099443987446275,1.355123220446712,-0.0147798948972216,7.77186393737793,-33.87933731079102,-8.2410306930542,-7.465388298034668,5.479361534118652,2.423363208770752,XArbitraryZVertical,0.6266174812732332,0.0189662630307439,-0.7790070431160602,0.0117857772908898,0.976725935935974,0.014779357239604,-0.2139816284179688,0,0,0,-1,-1,5364.459466750001,unknown,2,2022-06-30T09:58:37.347+02:00,2022-06-30T08:20:05.567+02:00,1483,1.408551,0,0,1171.106,0,0,2022-06-30T09:57:51.488+02:00
237,2022-06-30T09:58:39.123+02:00,5366.233637875001,-183.2634516906738,47.21721130371094,21.53212371826172,5366.223685875,3.06884404262032,1.006544827569311,-0.0325150888509781,13.98071384429932,-34.85636520385742,-5.663002490997314,-10.74217128753662,7.464591979980469,6.670823097229004,XArbitraryZVertical,0.4824299675803523,-0.0033052428296678,-0.8750286649969948,-0.0396883763882864,0.8445424437522888,0.0325093604624271,-0.534500777721405,0,0,0,-1,-1,5364.459466750001,unknown,2,2022-06-30T09:58:37.347+02:00,2022-06-30T08:20:05.567+02:00,1483,1.408551,0,0,1171.106,0,0,2022-06-30T09:57:51.488+02:00
238,2022-06-30T09:58:39.133+02:00,5366.243588875001,-194.50731994628907,3.118165740966797,-1.8735040283203126,5366.233637875001,2.917139946542311,0.6971005768887291,0.0542964177405679,18.41430473327637,-26.63829040527344,-0.3244644105434418,-18.85053825378418,5.179224491119385,3.688291549682617,XArbitraryZVertical,0.3364048484876572,-0.0635869248935504,-0.9346504976771992,-0.0960053922621808,0.6410512924194336,-0.0542697422206401,-0.765576958656311,0,0,0,-1,-1,5364.459466750001,unknown,2,2022-06-30T09:58:37.347+02:00,2022-06-30T08:20:05.567+02:00,1483,1.408551,0,0,1171.106,0,0,2022-06-30T09:57:51.488+02:00
239,2022-06-30T09:58:39.143+02:00,5366.253540875,-184.57143173217779,-66.10852661132813,-2.7364595031738284,5366.243588875001,2.832567410148653,0.5191010473836266,0.1859560518212153,12.5218334197998,-9.211307525634766,0.6123872995376587,-19.18145561218262,4.064311504364014,2.176966190338135,XArbitraryZVertical,0.2386833031834987,-0.1279921737939352,-0.9545333649438328,-0.124557127734318,0.4875470399856567,-0.1848861873149872,-0.8532965779304504,0,0,0,-1,-1,5364.459466750001,unknown,2,2022-06-30T09:58:37.347+02:00,2022-06-30T08:20:05.567+02:00,1483,1.408551,0,0,1171.106,0,0,2022-06-30T09:57:51.488+02:00
240,2022-06-30T09:58:39.152+02:00,5366.263491875,3.8311331176757815,-66.70758087158204,-10.00324813842774,5366.253540875,2.809013449003145,0.5328894602401261,0.2716995724186708,3.991942882537842,10.84776401519775,4.270261287689209,-20.83840179443359,-4.152300357818604,-0.1368682980537415,XArbitraryZVertical,0.2356524370718001,-0.1720325954425467,-0.948542541203879,-0.1230443913966587,0.4893880188465118,-0.268369048833847,-0.8297454118728638,0,0,0,-1,-1,5364.459466750001,unknown,2,2022-06-30T09:58:37.347+02:00,2022-06-30T08:20:05.567+02:00,1483,1.408551,0,0,1171.106,0,0,2022-06-30T09:57:51.488+02:00
241,2022-06-30T09:58:39.162+02:00,5366.273443875,83.68961654663086,-105.40585739135744,-32.741264190673824,5366.263491875,2.840516852034676,0.6623902128038739,0.3074988720322704,-0.20013627409935,15.45772266387939,2.241559982299805,-12.08102893829346,-6.033749580383301,0.9736599922180176,XArbitraryZVertical,0.2959845469408868,-0.1913748197418901,-0.9313989452620304,-0.0909115601446451,0.5861557722091675,-0.3026757836341858,-0.7515376806259155,0,0,0,-1,-1,5364.459466750001,unknown,2,2022-06-30T09:58:37.347+02:00,2022-06-30T08:20:05.567+02:00,1483,1.408551,0,0,1171.106,0,0,2022-06-30T09:57:51.488+02:00
242,2022-06-30T09:58:39.172+02:00,5366.283394875,-53.09144577026368,-47.063031921386724,50.83892990112306,5366.273443875,2.863452263457019,0.6546973290189402,0.2741600265847298,-8.910604476928711,-10.72036075592041,1.92521870136261,8.87692642211914,-9.33881950378418,-3.283450603485107,XArbitraryZVertical,0.2975051973888224,-0.172299042597321,-0.9350501106722467,-0.0865162163135645,0.5861778855323792,-0.270738422870636,-0.763607382774353,0,0,0,-1,-1,5364.459466750001,unknown,2,2022-06-30T09:58:37.347+02:00,2022-06-30T08:20:05.567+02:00,1483,1.408551,0,0,1171.106,0,0,2022-06-30T09:57:51.488+02:00
243,2022-06-30T09:58:39.182+02:00,5366.293346875001,7.556286621093751,21.1574528503418,-31.69718536376953,5366.283394875,2.966272177931733,0.6029927066174062,0.2019058357308626,-16.46436882019043,4.83052396774292,4.378649711608887,0.1144391894340515,-8.691095352172852,2.634593486785889,XArbitraryZVertical,0.2858778882330827,-0.1217310508348731,-0.94900361806599,-0.0533612459017857,0.5555897355079651,-0.2005368173122406,-0.8069107532501221,0,0,0,-1,-1,5364.459466750001,unknown,2,2022-06-30T09:58:37.347+02:00,2022-06-30T08:20:05.567+02:00,1483,1.408551,0,0,1171.106,0,0,2022-06-30T09:57:51.488+02:00
244,2022-06-30T09:58:39.192+02:00,5366.303297875001,39.08611999511719,30.04731628417969,-67.35633178710938,5366.293346875001,3.104178535037322,0.6161623345097702,0.0599997226047539,-19.09512138366699,-1.644275665283203,2.355194091796875,-5.111672401428223,-0.3114959597587585,3.690167903900146,XArbitraryZVertical,0.3025065446242441,-0.034247764727337,-0.9524919356492744,-0.008723298626154,0.5768675804138184,-0.0599637292325496,-0.8146337866783142,0,0,0,-1,-1,5364.459466750001,unknown,2,2022-06-30T09:58:37.347+02:00,2022-06-30T08:20:05.567+02:00,1483,1.408551,0,0,1171.106,0,0,2022-06-30T09:57:51.488+02:00
245,2022-06-30T09:58:39.202+02:00,5366.313249875,-38.831349792480474,26.257048187255865,-11.052865447998052,5366.303297875001,-3.10638712381505,0.5300753874379047,-0.0446605529040928,-6.732096672058105,-13.76974868774414,-1.35442590713501,4.313951969146729,2.883622884750366,-6.493590354919434,XArbitraryZVertical,0.2614604440758513,0.0261550109501491,-0.9647956211522348,0.0111350917795284,0.5050942897796631,0.0446457080543041,-0.8619086742401123,0,0,0,-1,-1,5364.459466750001,unknown,2,2022-06-30T09:58:37.347+02:00,2022-06-30T08:20:05.567+02:00,1483,1.408551,0,0,1171.106,0,0,2022-06-30T09:57:51.488+02:00
246,2022-06-30T09:58:39.212+02:00,5366.323200875,-32.65773788452149,11.113190002441407,-18.2693586730957,5366.313249875,-3.102512126928777,0.4255811476781423,-0.0690855368268935,1.635970115661621,-5.443017959594727,-0.2126160711050034,-0.3478238582611084,2.937866687774658,-2.764408111572266,XArbitraryZVertical,0.2103624894457156,0.0378744616743747,-0.9768183699636304,0.0117947483842239,0.4118653237819672,0.0690305978059768,-0.9086263179779052,0,0,0,-1,-1,5364.459466750001,unknown,2,2022-06-30T09:58:37.347+02:00,2022-06-30T08:20:05.567+02:00,1483,1.408551,0,0,1171.106,0,0,2022-06-30T09:57:51.488+02:00
247,2022-06-30T09:58:39.222+02:00,5366.333152875,1.0192304992675782,-15.592774658203126,-33.3862728881836,5366.323200875,-3.115716779220426,0.4021210276597639,-0.035095625744715,5.222827911376953,-0.3492584228515625,0.3559293150901794,-5.727860450744629,2.097174882888794,0.15350741147995,XArbitraryZVertical,0.1994386948648016,0.0197753441580937,-0.9796678078957894,0.0091710249654543,0.3911300599575043,0.0350884199142456,-0.9196662902832032,0,0,0,-1,-1,5364.459466750001,unknown,2,2022-06-30T09:58:37.347+02:00,2022-06-30T08:20:05.567+02:00,1483,1.408551,0,0,1171.106,0,0,2022-06-30T09:57:51.488+02:00
248,2022-06-30T09:58:39.232+02:00,5366.343103875,-0.3192860412597656,-19.322718200683596,-32.65249877929688,5366.333152875,-3.133440007738129,0.4012813960938967,0.018920574122979,5.566386222839355,0.3497593104839325,0.9303742051124572,-1.170465707778931,-0.3511212170124054,-2.089430093765259,XArbitraryZVertical,0.1993244176952,-0.0084579278615755,-0.9798794933993332,0.0058797239789489,0.3905283510684967,-0.0189194455742836,-0.9203965067863464,0,0,0,-1,-1,5364.459466750001,unknown,2,2022-06-30T09:58:37.347+02:00,2022-06-30T08:20:05.567+02:00,1483,1.408551,0,0,1171.106,0,0,2022-06-30T09:57:51.488+02:00
249,2022-06-30T09:58:39.242+02:00,5366.353056041667,4.9740065002441405,-20.536244659423826,-34.15058349609375,5366.343103875,-3.138726867397727,0.406391472152333,0.0666358899824432,3.567318439483643,0.3127114176750183,1.61962103843689,-0.3933210074901581,-1.927996277809143,-2.371342182159424,XArbitraryZVertical,0.2017348813508647,-0.0323374143141926,-0.9788725229332458,0.0081249555932885,0.3944199979305267,-0.0665865838527679,-0.9165146350860596,0,0,0,-1,-1,5364.459466750001,unknown,2,2022-06-30T09:58:37.347+02:00,2022-06-30T08:20:05.567+02:00,1483,1.408551,0,0,1171.106,0,0,2022-06-30T09:57:51.488+02:00
250,2022-06-30T09:58:39.252+02:00,5366.363007041667,0.4421804809570313,-21.34366561889649,-25.328079986572263,5366.353056041667,-3.13539024870349,0.4007192958893582,0.0946288095852736,1.426315307617188,-1.359086632728577,1.056659698486328,-0.1220388114452362,-1.846979379653931,-2.58014965057373,XArbitraryZVertical,0.1989418435877927,-0.0457338441775674,-0.978864497092194,0.0124487955364795,0.3883355557918549,-0.0944876447319984,-0.9166611433029176,0,0,0,-1,-1,5364.459466750001,unknown,2,2022-06-30T09:58:37.347+02:00,2022-06-30T08:20:05.567+02:00,1483,1.408551,0,0,1171.106,0,0,2022-06-30T09:57:51.488+02:00
251,2022-06-30T09:58:39.262+02:00,5366.372959041667,-4.7276188659667975,-12.03033279418945,-16.900605010986325,5366.363007041667,-3.12994245735871,0.3826582638247402,0.1020762546260559,-0.4713485836982727,-2.001732587814331,0.6466498374938965,0.0043953955173492,-2.165129423141479,-2.223469734191895,XArbitraryZVertical,0.190204832016687,-0.04897792276354,-0.980400869183542,0.0154125576690154,0.3714442253112793,-0.101899079978466,-0.9228465557098388,0,0,0,-1,-1,5364.459466750001,unknown,2,2022-06-30T09:58:37.347+02:00,2022-06-30T08:20:05.567+02:00,1483,1.408551,0,0,1171.106,0,0,2022-06-30T09:57:51.488+02:00
252,2022-06-30T09:58:39.272+02:00,5366.382910041667,-3.514541473388672,-2.866688690185547,-17.587077484130866,5366.372959041667,-3.119007631097801,0.3636861989762687,0.0946673174646493,-1.477864980697632,-1.512658357620239,0.8555976748466492,-0.6500270366668701,-1.683122754096985,-1.106396913528442,XArbitraryZVertical,0.1811540064143802,-0.0444930353574899,-0.982251306415229,0.0196498462430609,0.3541289567947388,-0.0945259779691696,-0.930407166481018,0,0,0,-1,-1,5364.459466750001,unknown,2,2022-06-30T09:58:37.347+02:00,2022-06-30T08:20:05.567+02:00,1483,1.408551,0,0,1171.106,0,0,2022-06-30T09:57:51.488+02:00
253,2022-06-30T09:58:39.282+02:00,5366.392862041667,0.279019775390625,0.647852783203125,-18.78204254150391,5366.382910041667,-3.106483065573742,0.350893216888523,0.0858999437753371,-0.9651370644569396,-0.9059556722640992,0.8475858569145203,-0.8354651927947998,-0.6148127317428589,-0.7462657690048218,XArbitraryZVertical,0.1751021945611408,-0.0392099456640152,-0.9834575645461778,0.02476184742226,0.342469334602356,-0.0857943445444107,-0.9356036186218262,0,0,0,-1,-1,5364.459466750001,unknown,2,2022-06-30T09:58:37.347+02:00,2022-06-30T08:20:05.567+02:00,1483,1.408551,0,0,1171.106,0,0,2022-06-30T09:57:51.488+02:00
254,2022-06-30T09:58:39.292+02:00,5366.402814041667,1.7717156982421876,0.30835876464843753,-17.431401214599614,5366.392862041667,-3.095995321784208,0.3411079714070622,0.0821752352709551,-0.5182451009750366,-0.9538305401802064,0.9144967198371888,-0.4928870499134064,0.0440428480505943,-0.9510846734046936,XArbitraryZVertical,0.1704638157740745,-0.0366035823315935,-0.9842443387967348,0.0294169293355876,0.3334025740623474,-0.0820827782154083,-0.9392045140266418,0,0,0,-1,-1,5364.459466750001,unknown,2,2022-06-30T09:58:37.347+02:00,2022-06-30T08:20:05.567+02:00,1483,1.408551,0,0,1171.106,0,0,2022-06-30T09:57:51.488+02:00
255,2022-06-30T09:58:39.302+02:00,5366.412765041667,0.9071136474609376,-0.7092251586914062,-15.852185211181638,5366.402814041667,-3.084562805105205,0.3296171701554308,0.0812658409412516,-0.4101926982402802,-1.147778153419495,1.170071125030518,-0.1751818358898163,0.1539305597543716,-0.9167125821113586,XArbitraryZVertical,0.1650039157301594,-0.0353812493449894,-0.9850449517299,0.0347633565526201,0.3226126134395599,-0.0811764225363731,-0.9430437684059144,0,0,0,-1,-1,5364.459466750001,unknown,2,2022-06-30T09:58:37.347+02:00,2022-06-30T08:20:05.567+02:00,1483,1.408551,0,0,1171.106,0,0,2022-06-30T09:57:51.488+02:00
256,2022-06-30T09:58:39.312+02:00,5366.422717041667,0.0820294189453125,-2.0589683532714846,-15.627053375244136,5366.412765041667,-3.072043231963073,0.3174649676831423,0.082073520662933,-0.2189769297838211,-1.055370450019836,1.240347862243652,-0.1686214804649353,0.0595206916332244,-0.7441622614860535,XArbitraryZVertical,0.1592466087007456,-0.0349940072172361,-0.9857752395455908,0.0407825260405418,0.3111084401607513,-0.0819814130663871,-0.9468318819999696,0,0,0,-1,-1,5364.459466750001,unknown,2,2022-06-30T09:58:37.347+02:00,2022-06-30T08:20:05.567+02:00,1483,1.408551,0,0,1171.106,0,0,2022-06-30T09:57:51.488+02:00
257,2022-06-30T09:58:39.322+02:00,5366.432668041667,-0.5288502502441407,-4.081861724853516,-15.923886108398438,5366.422717041667,-3.060716660381196,0.3076818147667116,0.0847140367117578,0.0264326240867376,-0.7095627188682556,1.052079081535339,-0.2490903735160828,-0.0393799543380737,-0.6286417245864868,XArbitraryZVertical,0.15466382813324,-0.0356207845611864,-0.9862341065265876,0.046397025631729,0.3017641007900238,-0.0846127495169639,-0.9496205449104308,0,0,0,-1,-1,5364.459466750001,unknown,2,2022-06-30T09:58:37.347+02:00,2022-06-30T08:20:05.567+02:00,1483,1.408551,0,0,1171.106,0,0,2022-06-30T09:57:51.488+02:00
258,2022-06-30T09:58:39.332+02:00,5366.442620041667,0.4454736328125,-4.214635620117187,-15.092514953613282,5366.432668041667,-3.051557637042737,0.3015905946689633,0.0879759890866778,-0.0090795634314417,-0.3663830459117889,0.9263193011283876,-0.3323434889316559,-0.2342502772808075,-0.6720574498176575,XArbitraryZVertical,0.1518835380480257,-0.0366768335847676,-0.9863977734879104,0.0510478406698695,0.2958906292915344,-0.0878625437617301,-0.951172411441803,0,0,0,-1,-1,5364.459466750001,unknown,2,2022-06-30T09:58:37.347+02:00,2022-06-30T08:20:05.567+02:00,1483,1.408551,0,0,1171.106,0,0,2022-06-30T09:57:51.488+02:00
259,2022-06-30T09:58:39.341+02:00,5366.452571041667,1.414109344482422,-2.441572723388672,-14.085259552001949,5366.442620041667,-3.042357982663639,0.2983805683232247,0.0898114676023711,-0.1595520228147507,-0.1392470300197601,0.9541338086128236,-0.3178119361400604,-0.3655244708061218,-0.6328161954879761,XArbitraryZVertical,0.1505065818327496,-0.0369728152426619,-0.9863481708599204,0.0556608244928351,0.2927879095077515,-0.0896907746791839,-0.9519615769386292,0,0,0,-1,-1,5364.459466750001,unknown,2,2022-06-30T09:58:37.347+02:00,2022-06-30T08:20:05.567+02:00,1483,1.408551,0,0,1171.106,0,0,2022-06-30T09:57:51.488+02:00
260,2022-06-30T09:58:39.352+02:00,5366.462523041667,1.8732046508789064,-0.5508544921875,-12.542417907714844,5366.452571041667,-3.032638461613233,0.2964899729027678,0.0912688703423365,-0.1185982003808022,-0.0827597826719284,0.9810993671417236,-0.174707293510437,-0.2601149082183838,-0.5417073369026184,XArbitraryZVertical,0.1497866282991824,-0.0370172533473977,-0.9861696089320064,0.06052486487524,0.2909491062164307,-0.09114221483469,-0.9523873925209044,0,0,0,-1,-1,5364.459466750001,unknown,2,2022-06-30T09:58:37.347+02:00,2022-06-30T08:20:05.567+02:00,1483,1.408551,0,0,1171.106,0,0,2022-06-30T09:57:51.488+02:00
261,2022-06-30T09:58:39.361+02:00,5366.472474041667,2.6014402770996097,0.20073257446289064,-11.615395660400386,5366.462523041667,-3.022916951184365,0.2942651566705569,0.0931978142569596,-0.0722975507378578,-0.2174841016530991,0.988044023513794,-0.133412629365921,-0.0521242171525955,-0.4055970311164856,XArbitraryZVertical,0.1489180252351101,-0.0373131261279455,-0.985977698316319,0.0654156392601198,0.2887779772281647,-0.0930629596114158,-0.9528623223304749,0,0,0,-1,-1,5364.459466750001,unknown,2,2022-06-30T09:58:37.347+02:00,2022-06-30T08:20:05.567+02:00,1483,1.408551,0,0,1171.106,0,0,2022-06-30T09:57:51.488+02:00
