,loggingTime(txt),accelerometerTimestamp_sinceReboot(s),accelerometerAccelerationX(G),accelerometerAccelerationY(G),accelerometerAccelerationZ(G),motionTimestamp_sinceReboot(s),motionYaw(rad),motionRoll(rad),motionPitch(rad),motionRotationRateX(rad/s),motionRotationRateY(rad/s),motionRotationRateZ(rad/s),motionUserAccelerationX(G),motionUserAccelerationY(G),motionUserAccelerationZ(G),motionAttitudeReferenceFrame(txt),motionQuaternionX(R),motionQuaternionY(R),motionQuaternionZ(R),motionQuaternionW(R),motionGravityX(G),motionGravityY(G),motionGravityZ(G),motionMagneticFieldX(µT),motionMagneticFieldY(µT),motionMagneticFieldZ(µT),motionHeading(°),motionMagneticFieldCalibrationAccuracy(Z),activityTimestamp_sinceReboot(s),activity(txt),activityActivityConfidence(Z),activityActivityStartDate(txt),pedometerStartDate(txt),pedometerNumberofSteps(N),pedometerAverageActivePace(s/m),pedometerCurrentPace(s/m),pedometerCurrentCadence(steps/s),pedometerDistance(m),pedometerFloorAscended(N),pedometerFloorDescended(N),pedometerEndDate(txt)
258,2022-06-30T09:54:38.615+02:00,5148.028551625001,1.9428099060058595,-9.450597381591798,18.109940185546876,5148.018600625001,2.997967532995659,2.655261071729237,0.6803134702852619,0.11480662971735,-0.813099205493927,1.54863429069519,-0.1924819946289062,-0.2660741209983826,1.202346324920654,XArbitraryZVertical,0.9068465469176183,-0.1457741619681745,-0.2496298762874637,0.3066988394659348,0.363334447145462,-0.6290367245674133,0.6872415542602539,0,0,0,-1,-1,5147.278148625001,unknown,2,2022-06-30T09:54:37.864+02:00,2022-06-30T08:20:05.567+02:00,1418,1.388076,0,0,1121.329,0,0,2022-06-30T09:50:28.075+02:00
259,2022-06-30T09:54:38.625+02:00,5148.038503625,2.2173390197753906,-9.921218719482427,17.881814575195314,5148.028551625001,2.982420778074323,2.65794792535252,0.6866523582182745,-0.1070559918880463,-0.631046712398529,1.161932110786438,-0.1760316491127014,-0.3037310838699341,1.175863742828369,XArbitraryZVertical,0.9049388833826892,-0.1530402530294213,-0.2507663874285045,0.3078644715055215,0.3596251904964447,-0.6339517831802368,0.6846714019775391,0,0,0,-1,-1,5147.278148625001,unknown,2,2022-06-30T09:54:37.864+02:00,2022-06-30T08:20:05.567+02:00,1418,1.388076,0,0,1121.329,0,0,2022-06-30T09:50:28.075+02:00
260,2022-06-30T09:54:38.635+02:00,5148.048454625,2.568808135986328,-9.532776489257813,18.008002166748053,5148.038503625,2.972441998098966,2.659520121642687,0.6927101471297028,-0.2268388420343399,-0.3387088775634766,0.7596637606620789,-0.1464495658874512,-0.3555457592010498,1.151904582977295,XArbitraryZVertical,0.9033138089788172,-0.1579063617974608,-0.25157872733711,0.309512189203454,0.3567611873149872,-0.6386250257492065,0.6818205118179321,0,0,0,-1,-1,5147.278148625001,unknown,2,2022-06-30T09:54:37.864+02:00,2022-06-30T08:20:05.567+02:00,1418,1.388076,0,0,1121.329,0,0,2022-06-30T09:50:28.075+02:00
261,2022-06-30T09:54:38.645+02:00,5148.058406625,2.9991632080078126,-9.272018737792969,18.905386047363283,5148.048454625,2.967347790742034,2.661272437392138,0.6970890210375607,-0.1709727942943573,0.0280838496983051,0.3260024189949036,-0.1092755794525146,-0.3578588366508484,1.141178369522095,XArbitraryZVertical,0.9023656094506892,-0.1603608454536755,-0.2515725316979593,0.3110179220878563,0.3542706072330475,-0.6419885158538818,0.6799585819244385,0,0,0,-1,-1,5147.278148625001,unknown,2,2022-06-30T09:54:37.864+02:00,2022-06-30T08:20:05.567+02:00,1418,1.388076,0,0,1121.329,0,0,2022-06-30T09:50:28.075+02:00
262,2022-06-30T09:54:38.654+02:00,5148.068357625,3.616030426025391,-9.208251342773439,19.933897247314448,5148.058406625,2.966869476880644,2.664154648770391,0.6986629262410321,-0.076894499361515,0.4916056990623474,-0.1298711001873016,-0.0689009428024292,-0.3054444193840027,1.196127414703369,XArbitraryZVertical,0.9024132416267852,-0.1602797435467957,-0.25034560036231,0.3119102081246617,0.3518445789813995,-0.6431944370269775,0.6800785064697266,0,0,0,-1,-1,5147.278148625001,unknown,2,2022-06-30T09:54:37.864+02:00,2022-06-30T08:20:05.567+02:00,1418,1.388076,0,0,1121.329,0,0,2022-06-30T09:50:28.075+02:00
263,2022-06-30T09:54:38.665+02:00,5148.078309625001,4.524341583251953,-8.824898529052735,21.337827758789064,5148.068357625,2.971498738027249,2.668741596743418,0.6978216337106996,-0.1193243116140366,1.024955749511719,-0.6013919711112976,-0.0146324038505554,-0.3026553988456726,1.294915199279785,XArbitraryZVertical,0.90349911159759,-0.1573930662956254,-0.2475526862982358,0.3124651112778834,0.348967581987381,-0.6425500512123108,0.6821664571762085,0,0,0,-1,-1,5147.278148625001,unknown,2,2022-06-30T09:54:37.864+02:00,2022-06-30T08:20:05.567+02:00,1418,1.388076,0,0,1121.329,0,0,2022-06-30T09:50:28.075+02:00
264,2022-06-30T09:54:38.674+02:00,5148.088260625001,5.6326368713378905,-8.012388153076172,23.00101913452149,5148.078309625001,2.982498312357872,2.674954150687982,0.6958475542905488,-0.3035783171653748,1.64703631401062,-1.106692671775818,0.0645732283592224,-0.2839056253433228,1.413805961608887,XArbitraryZVertical,0.9054542252422694,-0.1512583515213241,-0.2430260883887651,0.3133878609319497,0.3452929258346558,-0.6410361528396606,0.6854528784751892,0,0,0,-1,-1,5147.278148625001,unknown,2,2022-06-30T09:54:37.864+02:00,2022-06-30T08:20:05.567+02:00,1418,1.388076,0,0,1121.329,0,0,2022-06-30T09:50:28.075+02:00
265,2022-06-30T09:54:38.684+02:00,5148.098212625,6.284680938720704,-6.995103607177735,24.894282073974615,5148.088260625001,3.000718033994808,2.683321029105105,0.6934659208863958,-0.5278619527816772,2.375704765319824,-1.63410747051239,0.1808061897754669,-0.2239220142364502,1.568310976028442,XArbitraryZVertical,0.9082029865193458,-0.1414562134316251,-0.2363805934478753,0.315090036285823,0.3402202427387238,-0.6392064094543457,0.689685046672821,0,0,0,-1,-1,5147.278148625001,unknown,2,2022-06-30T09:54:37.864+02:00,2022-06-30T08:20:05.567+02:00,1418,1.388076,0,0,1121.329,0,0,2022-06-30T09:50:28.075+02:00
266,2022-06-30T09:54:38.695+02:00,5148.108163625,6.761738891601563,-5.879922637939454,26.906846923828127,5148.098212625,3.026374615000955,2.694328718791964,0.691032220905651,-0.761677086353302,3.116973161697388,-2.153205871582031,0.281893402338028,-0.126659095287323,1.74481725692749,XArbitraryZVertical,0.9116241772235262,-0.1278112233880993,-0.2273346257855766,0.3176863451097384,0.3332797288894653,-0.6373329162597656,0.6947886943817139,0,0,0,-1,-1,5147.278148625001,unknown,2,2022-06-30T09:54:37.864+02:00,2022-06-30T08:20:05.567+02:00,1418,1.388076,0,0,1121.329,0,0,2022-06-30T09:50:28.075+02:00
267,2022-06-30T09:54:38.704+02:00,5148.118115625,7.432344360351563,-4.62762680053711,29.156668395996096,5148.108163625,3.058882199647239,2.708411327062484,0.6887578832343986,-0.9789809584617616,3.869453907012939,-2.579270839691162,0.3343615233898163,-0.024714708328247,1.939776301383972,XArbitraryZVertical,0.9155073753149408,-0.1104979645428898,-0.2157423528445578,0.3210790802796492,0.3240702748298645,-0.6355786919593811,0.700727105140686,0,0,0,-1,-1,5147.278148625001,unknown,2,2022-06-30T09:54:37.864+02:00,2022-06-30T08:20:05.567+02:00,1418,1.388076,0,0,1121.329,0,0,2022-06-30T09:50:28.075+02:00
268,2022-06-30T09:54:38.714+02:00,5148.12806625,8.452173614501953,-4.511168975830079,31.423404693603512,5148.118115625,3.097680767501632,2.725498084856721,0.6877934985490948,-1.335216641426086,4.508293151855469,-3.003143787384033,0.4136539399623871,0.1112744808197021,2.144016742706299,XArbitraryZVertical,0.9193958567952096,-0.089846168511194,-0.2016513665635493,0.3255391401150288,0.3122979700565338,-0.6348338723182678,0.7067221403121948,0,0,0,-1,-1,5147.278148625001,unknown,2,2022-06-30T09:54:37.864+02:00,2022-06-30T08:20:05.567+02:00,1418,1.388076,0,0,1121.329,0,0,2022-06-30T09:50:28.075+02:00
269,2022-06-30T09:54:38.724+02:00,5148.138018250001,9.989177398681637,-4.330045623779297,33.05965209960938,5148.12806625,-3.139587651337548,2.744294380718709,0.6897013605738892,-1.845807909965515,5.119626522064209,-3.396608591079712,0.5002151727676392,0.1797182559967041,2.378220558166504,XArbitraryZVertical,0.9226842837537768,-0.0657888085087035,-0.185394403546036,0.3315939624855898,0.2984906733036041,-0.6363068222999573,0.7113488912582397,0,0,0,-1,-1,5147.278148625001,unknown,2,2022-06-30T09:54:37.864+02:00,2022-06-30T08:20:05.567+02:00,1418,1.388076,0,0,1121.329,0,0,2022-06-30T09:50:28.075+02:00
270,2022-06-30T09:54:38.734+02:00,5148.147969250001,11.639495544433593,-3.659440155029297,33.80704788208008,5148.138018250001,-3.086337179556751,2.76378610272307,0.6956020965751634,-2.354279279708862,5.614259243011475,-3.786908626556396,0.652000904083252,0.1865174174308777,2.58508563041687,XArbitraryZVertical,0.9248160536244856,-0.0384692782067107,-0.1672232168164742,0.3395171669914389,0.2831794619560242,-0.6408477425575256,0.7135292291641235,0,0,0,-1,-1,5147.278148625001,unknown,2,2022-06-30T09:54:37.864+02:00,2022-06-30T08:20:05.567+02:00,1418,1.388076,0,0,1121.329,0,0,2022-06-30T09:50:28.075+02:00
271,2022-06-30T09:54:38.744+02:00,5148.15792125,13.233830108642575,-2.8165429687500003,34.61237319946289,5148.147969250001,-3.026449385387239,2.78341007336032,0.7055167738303364,-2.819311141967773,6.063038349151611,-4.08292818069458,0.8335044384002686,0.2339683771133423,2.697545051574707,XArbitraryZVertical,0.9254253898589512,-0.008308548767854,-0.1473281394677766,0.3490174167048145,0.2668827474117279,-0.6484273076057434,0.7129623889923096,0,0,0,-1,-1,5147.278148625001,unknown,2,2022-06-30T09:54:37.864+02:00,2022-06-30T08:20:05.567+02:00,1418,1.388076,0,0,1121.329,0,0,2022-06-30T09:50:28.075+02:00
272,2022-06-30T09:54:38.754+02:00,5148.16787225,14.423556060791013,-2.155816955566406,35.10709442138672,5148.15792125,-2.960250033063073,2.802201923518838,0.7198580916442507,-3.302630662918091,6.396237373352051,-4.411953449249268,1.024203777313232,0.3369820117950439,2.780630350112915,XArbitraryZVertical,0.9240749922009824,0.0242905170087184,-0.1259778335251468,0.3600346924488757,0.2503167986869812,-0.6592779755592346,0.7090092301368713,0,0,0,-1,-1,5147.278148625001,unknown,2,2022-06-30T09:54:37.864+02:00,2022-06-30T08:20:05.567+02:00,1418,1.388076,0,0,1121.329,0,0,2022-06-30T09:50:28.075+02:00
273,2022-06-30T09:54:38.764+02:00,5148.17782425,16.18479354858399,-1.0120454406738282,36.222125701904304,5148.16787225,-2.888054322772748,2.819240051948351,0.7373743746965385,-3.522981643676758,6.676032543182373,-4.66537618637085,1.17104160785675,0.4052263498306274,2.847329616546631,XArbitraryZVertical,0.920635369719044,0.0590342174246048,-0.103520490647288,0.3717916846919816,0.2345061153173447,-0.6723466515541077,0.7021090388298035,0,0,0,-1,-1,5147.278148625001,unknown,2,2022-06-30T09:54:37.864+02:00,2022-06-30T08:20:05.567+02:00,1418,1.388076,0,0,1121.329,0,0,2022-06-30T09:50:28.075+02:00
274,2022-06-30T09:54:38.774+02:00,5148.18777525,18.343753967285156,-1.3301339721679688,37.222046356201176,5148.17782425,-2.811746902107016,2.834710098046026,0.7566510090432385,-3.630898952484131,6.841622352600098,-4.84707498550415,1.330708503723145,0.5381745100021362,2.938485622406006,XArbitraryZVertical,0.9151734336721762,0.0950863206706432,-0.0801760733137333,0.3833903972951535,0.2196603864431381,-0.6864901185035706,0.6931676268577576,0,0,0,-1,-1,5147.278148625001,unknown,2,2022-06-30T09:54:37.864+02:00,2022-06-30T08:20:05.567+02:00,1418,1.388076,0,0,1121.329,0,0,2022-06-30T09:50:28.075+02:00
275,2022-06-30T09:54:38.784+02:00,5148.197727250001,20.92453720092774,-1.6546591186523438,38.27331024169922,5148.18777525,-2.73129909819259,2.847696616322033,0.7777458651838044,-3.900771379470825,6.97805118560791,-5.005196571350098,1.550253868103027,0.5930173397064209,3.061675071716309,XArbitraryZVertical,0.9074789255063612,0.1321193018238277,-0.0562428731938384,0.3947952161831607,0.2063985764980316,-0.7016751170158386,0.6819469928741455,0,0,0,-1,-1,5147.278148625001,unknown,2,2022-06-30T09:54:37.864+02:00,2022-06-30T08:20:05.567+02:00,1418,1.388076,0,0,1121.329,0,0,2022-06-30T09:50:28.075+02:00
276,2022-06-30T09:54:38.794+02:00,5148.207678250001,23.73793670654297,-2.0642074584960937,38.92056427001953,5148.197727250001,-2.646150125949721,2.856962532519507,0.8024336347900846,-4.272218704223633,7.036601543426514,-5.127225875854492,1.797285079956055,0.5625553727149963,3.186136722564697,XArbitraryZVertical,0.8970434973151339,0.1697403875649273,-0.0317954134248234,0.4068049255102647,0.1951461881399155,-0.7190495133399963,0.6669976711273193,0,0,0,-1,-1,5147.278148625001,unknown,2,2022-06-30T09:54:37.864+02:00,2022-06-30T08:20:05.567+02:00,1418,1.388076,0,0,1121.329,0,0,2022-06-30T09:50:28.075+02:00
277,2022-06-30T09:54:38.804+02:00,5148.21763025,25.15908142089844,-3.709436187744141,39.492674560546874,5148.207678250001,-2.556127887932536,2.861136067177255,0.8305811662570184,-4.59211540222168,6.958205223083496,-5.210472583770752,2.09626030921936,0.5597346425056458,3.290564298629761,XArbitraryZVertical,0.8837472941872191,0.2074572183837079,-0.0071659406053339,0.419405365410224,0.1866831034421921,-0.738323450088501,0.6480955481529236,0,0,0,-1,-1,5147.278148625001,unknown,2,2022-06-30T09:54:37.864+02:00,2022-06-30T08:20:05.567+02:00,1418,1.388076,0,0,1121.329,0,0,2022-06-30T09:50:28.075+02:00
278,2022-06-30T09:54:38.814+02:00,5148.22758125,26.645340728759763,-7.840844879150391,41.266336212158194,5148.21763025,-2.460661740630257,2.858098181167707,0.8600243996231463,-4.599384784698486,6.733188629150391,-5.373570919036865,2.326649904251099,0.4738008379936218,3.358761072158813,XArbitraryZVertical,0.8678590430987335,0.2449677357830329,0.0167707556352904,0.4318915034581589,0.1824896633625031,-0.7578584551811218,0.6263770461082458,0,0,0,-1,-1,5147.278148625001,unknown,2,2022-06-30T09:54:37.864+02:00,2022-06-30T08:20:05.567+02:00,1418,1.388076,0,0,1121.329,0,0,2022-06-30T09:50:28.075+02:00
279,2022-06-30T09:54:38.824+02:00,5148.237533250001,27.973828125,-15.18217849731445,40.948846435546876,5148.22758125,-2.360262863574396,2.846303003509778,0.8889197603958355,-4.572731018066406,6.295618534088135,-5.37421703338623,2.448192834854126,0.2549527883529663,3.511620998382568,XArbitraryZVertical,0.8498234441067686,0.2815782758502449,0.0391433092125581,0.4438260515546839,0.1834137439727783,-0.7763913869857788,0.6029724478721619,0,0,0,-1,-1,5147.278148625001,unknown,2,2022-06-30T09:54:37.864+02:00,2022-06-30T08:20:05.567+02:00,1418,1.388076,0,0,1121.329,0,0,2022-06-30T09:50:28.075+02:00
280,2022-06-30T09:54:38.834+02:00,5148.247484250001,27.27074020385743,-13.833632812500001,39.81615188598632,5148.237533250001,-2.257396583185933,2.82434935751981,0.9103193885868512,-3.241596221923828,5.441764354705811,-5.631629943847656,2.598202466964722,-0.4149969816207886,3.646841526031494,XArbitraryZVertical,0.8313519250563122,0.3166919795549984,0.0574830169510705,0.453051757772066,0.1913784891366959,-0.7896997332572937,0.5828796625137329,0,0,0,-1,-1,5147.278148625001,unknown,2,2022-06-30T09:54:37.864+02:00,2022-06-30T08:20:05.567+02:00,1418,1.388076,0,0,1121.329,0,0,2022-06-30T09:50:28.075+02:00
281,2022-06-30T09:54:38.844+02:00,5148.257435250001,25.57641357421875,-8.511150970458985,39.54566436767578,5148.247484250001,-2.153433347660481,2.790977317527932,0.91395407603214,-1.70604395866394,4.391376495361328,-6.220061302185059,2.64382791519165,-0.8192512392997742,3.518143653869629,XArbitraryZVertical,0.8144526057020375,0.3512861914457198,0.0682406261463933,0.4567364475034857,0.2097329050302505,-0.7919243574142456,0.5734700560569763,0,0,0,-1,-1,5147.278148625001,unknown,2,2022-06-30T09:54:37.864+02:00,2022-06-30T08:20:05.567+02:00,1418,1.388076,0,0,1121.329,0,0,2022-06-30T09:50:28.075+02:00
282,2022-06-30T09:54:38.854+02:00,5148.26738725,24.82048553466797,-2.251168670654297,37.35047927856445,5148.257435250001,-2.048626345828895,2.745498214277769,0.9004398762397012,-0.4487170279026031,3.016971588134766,-6.837392330169678,2.434177875518799,-0.3465269804000854,3.490007400512695,XArbitraryZVertical,0.7986815754471217,0.3856030999666088,0.0703793698628676,0.4565794938344143,0.2396955192089081,-0.7836002707481384,0.5731640458106995,0,0,0,-1,-1,5147.278148625001,unknown,2,2022-06-30T09:54:37.864+02:00,2022-06-30T08:20:05.567+02:00,1418,1.388076,0,0,1121.329,0,0,2022-06-30T09:50:28.075+02:00
283,2022-06-30T09:54:38.864+02:00,5148.27733925,21.577329711914064,4.058659973144532,37.06741790771485,5148.26738725,-1.945076228645582,2.685611715341722,0.8691348395721784,0.6184024214744568,1.036103248596191,-7.862361907958984,2.297168970108032,0.186515212059021,3.35921311378479,XArbitraryZVertical,0.7837117795312347,0.4190047001096713,0.0615776319612198,0.4543558976692781,0.2842362821102142,-0.7637707591056824,0.5795381665229797,0,0,0,-1,-1,5147.278148625001,unknown,2,2022-06-30T09:54:37.864+02:00,2022-06-30T08:20:05.567+02:00,1418,1.388076,0,0,1121.329,0,0,2022-06-30T09:50:28.075+02:00
284,2022-06-30T09:54:38.874+02:00,5148.28729025,14.702725524902345,9.612560577392578,37.13837036132813,5148.27733925,-1.833988948404175,2.602862508124345,0.8234389526092153,0.1920774430036545,-0.9778451919555664,-9.594922065734863,2.042683601379395,0.8472720980644226,3.15465235710144,XArbitraryZVertical,0.765985424884372,0.4527489780336342,0.0410323551668135,0.4545340496961031,0.3487192690372467,-0.733487606048584,0.5834305882453918,0,0,0,-1,-1,5147.278148625001,unknown,2,2022-06-30T09:54:37.864+02:00,2022-06-30T08:20:05.567+02:00,1418,1.388076,0,0,1121.329,0,0,2022-06-30T09:50:28.075+02:00
285,2022-06-30T09:54:38.883+02:00,5148.29724125,6.676566009521485,17.131275329589844,41.499551239013684,5148.28729025,-1.700475981616086,2.486026124607308,0.765801094624009,-1.228938817977905,-3.464568376541138,-12.60988616943359,1.477523446083069,1.395064473152161,3.21958327293396,XArbitraryZVertical,0.7392744674428646,0.4890544493627176,0.0089836443375546,0.4628373624946227,0.4394225776195526,-0.693114697933197,0.5714020133018494,0,0,0,-1,-1,5147.278148625001,unknown,2,2022-06-30T09:54:37.864+02:00,2022-06-30T08:20:05.567+02:00,1418,1.388076,0,0,1121.329,0,0,2022-06-30T09:50:28.075+02:00
286,2022-06-30T09:54:38.894+02:00,5148.307193250001,-1.342258758544922,27.46294052124024,45.14072937011719,5148.29724125,-1.53802859625212,2.324951215429461,0.6881340546161024,-4.14659309387207,-7.504952430725098,-15.79782104492188,0.4812318086624146,1.934977531433105,3.390936136245728,XArbitraryZVertical,0.6970954523248589,0.5277213465235223,-0.0374801729388122,0.4839044239894884,0.5629879236221313,-0.6350969672203064,0.528863787651062,0,0,0,-1,-1,5147.278148625001,unknown,2,2022-06-30T09:54:37.864+02:00,2022-06-30T08:20:05.567+02:00,1418,1.388076,0,0,1121.329,0,0,2022-06-30T09:50:28.075+02:00
287,2022-06-30T09:54:38.903+02:00,5148.317144250001,-15.54143142700195,25.15174667358399,37.09091903686524,5148.307193250001,-1.33420282956683,2.100586929890657,0.5968372849857124,-11.34589672088623,-12.97126865386963,-18.34625816345215,-0.3640754818916321,2.888505935668945,4.155073165893555,XArbitraryZVertical,0.6279205362520239,0.5609891411811271,-0.0937058559559507,0.5312497754171377,0.7137303948402405,-0.5620293617248535,0.4179860353469849,0,0,0,-1,-1,5147.278148625001,unknown,2,2022-06-30T09:54:37.864+02:00,2022-06-30T08:20:05.567+02:00,1418,1.388076,0,0,1121.329,0,0,2022-06-30T09:50:28.075+02:00
288,2022-06-30T09:54:38.913+02:00,5148.32709625,-45.16467956542969,20.8606201171875,39.07040267944337,5148.317144250001,-1.095049826270992,1.837432484357093,0.4754307911478885,-16.54361724853516,-14.13106155395508,-20.25024604797363,-1.616298794746399,3.330889940261841,4.081423282623291,XArbitraryZVertical,0.5241406315297507,0.5851577767632233,-0.147216536436765,0.6009945314221232,0.8576775789260864,-0.4577215015888214,0.2342660576105118,0,0,0,-1,-1,5147.278148625001,unknown,2,2022-06-30T09:54:37.864+02:00,2022-06-30T08:20:05.567+02:00,1418,1.388076,0,0,1121.329,0,0,2022-06-30T09:50:28.075+02:00
289,2022-06-30T09:54:38.923+02:00,5148.33704725,-112.06760421752932,27.812912750244138,74.28242889404298,5148.32709625,-0.885585346037892,1.613490219924785,0.2825971056796506,-16.14547348022461,-15.11033535003662,-24.94826316833496,-3.765901803970337,2.518687963485718,3.136517524719238,XArbitraryZVertical,0.3943211101684838,0.6041563090791704,-0.201602457548781,0.662467030204341,0.9594594836235046,-0.2788506746292114,0.0409879684448242,0,0,0,-1,-1,5147.278148625001,unknown,2,2022-06-30T09:54:37.864+02:00,2022-06-30T08:20:05.567+02:00,1418,1.388076,0,0,1121.329,0,0,2022-06-30T09:50:28.075+02:00
290,2022-06-30T09:54:38.933+02:00,5148.34699925,-122.16186309814448,26.823769683837888,91.44439041137696,5148.33704725,-0.7581144361987424,1.432851054751378,0.0117300332585064,-12.11551475524902,-18.88998031616211,-25.59076690673828,-8.641952514648438,2.35267162322998,6.17027473449707,XArbitraryZVertical,0.2471108072645782,0.6084298422867471,-0.2754892930981559,0.7020364313634798,0.9904326200485228,-0.0117297638207674,-0.137498751282692,0,0,0,-1,-1,5147.278148625001,unknown,2,2022-06-30T09:54:37.864+02:00,2022-06-30T08:20:05.567+02:00,1418,1.388076,0,0,1121.329,0,0,2022-06-30T09:50:28.075+02:00
291,2022-06-30T09:54:38.943+02:00,5148.35695025,-216.42519149780279,92.20974884033203,109.30674545288088,5148.34699925,-0.7411511775061815,1.194162870082475,-0.2221741469264172,-0.988219439983368,-29.69497108459473,-20.23855400085449,-14.06754302978516,2.652375221252441,9.028704643249512,XArbitraryZVertical,0.1169033370104851,0.5540375765725116,-0.3557438008594265,0.7435203347918601,0.907051682472229,0.2203508466482162,-0.3587519526481628,0,0,0,-1,-1,5147.278148625001,unknown,2,2022-06-30T09:54:37.864+02:00,2022-06-30T08:20:05.567+02:00,1418,1.388076,0,0,1121.329,0,0,2022-06-30T09:50:28.075+02:00
292,2022-06-30T09:54:38.953+02:00,5148.366902250001,-314.53132873535156,83.59157043457031,-5.676046600341797,5148.35695025,-0.9424568446160336,0.8049828925833123,-0.3119333474977771,26.31204414367676,-34.84270095825195,-17.3837833404541,-14.62527275085449,4.512360095977783,10.80737972259521,XArbitraryZVertical,0.0483262138424687,0.4096671402094436,-0.4668474574855173,0.7822345549228041,0.6860335469245911,0.3068992495536804,-0.6596748232841492,0,0,0,-1,-1,5147.278148625001,unknown,2,2022-06-30T09:54:37.864+02:00,2022-06-30T08:20:05.567+02:00,1418,1.388076,0,0,1121.329,0,0,2022-06-30T09:50:28.075+02:00
293,2022-06-30T09:54:38.963+02:00,5148.376853250001,-186.19750030517577,-44.238106384277344,20.969144439697263,5148.366902250001,-1.232613253317397,0.3907500960121535,-0.1171459852103108,34.89479064941406,-34.8321418762207,-6.390458583831787,-31.24303245544434,11.9445686340332,9.643078804016112,XArbitraryZVertical,0.0651616471489448,0.1913392662118175,-0.5753295450936897,0.7925523482118724,0.378271609544754,0.1168782338500023,-0.9182865023612976,0,0,0,-1,-1,5147.278148625001,unknown,2,2022-06-30T09:54:37.864+02:00,2022-06-30T08:20:05.567+02:00,1418,1.388076,0,0,1121.329,0,0,2022-06-30T09:50:28.075+02:00
294,2022-06-30T09:54:38.973+02:00,5148.38680525,-134.63886703491212,-136.97161605834964,63.129421691894535,5148.376853250001,-1.35228895769806,0.0501403964353197,0.1361996508054715,14.14740085601807,-32.25344467163086,-7.187191009521484,-26.62991714477539,1.924352765083313,-4.722953796386719,XArbitraryZVertical,0.0687102266229362,-0.0230627341508171,-0.6228132012713018,0.779006300387486,0.0496552437543869,-0.1357789486646652,-0.9894940257072448,0,0,0,-1,-1,5147.278148625001,unknown,2,2022-06-30T09:54:37.864+02:00,2022-06-30T08:20:05.567+02:00,1418,1.388076,0,0,1121.329,0,0,2022-06-30T09:50:28.075+02:00
295,2022-06-30T09:54:38.983+02:00,5148.39675625,-70.33274230957032,34.08187637329101,-14.7774201965332,5148.38680525,-1.414185752086815,-0.0965960218061908,0.2031339425688321,2.575632810592651,-4.868796348571777,-2.112205266952515,-16.4587287902832,-11.2102632522583,13.21970081329346,XArbitraryZVertical,0.0457922481885004,-0.102305691600378,-0.6492464332247952,0.7522737417019759,-0.094462864100933,-0.2017398178577423,-0.9748732447624208,0,0,0,-1,-1,5147.278148625001,unknown,2,2022-06-30T09:54:37.864+02:00,2022-06-30T08:20:05.567+02:00,1418,1.388076,0,0,1121.329,0,0,2022-06-30T09:50:28.075+02:00
296,2022-06-30T09:54:38.993+02:00,5148.406708250001,-2.1656964111328127,87.22451568603516,13.1679670715332,5148.39675625,-1.407769300892268,-0.0615713368269015,0.2220706435759402,3.196749210357666,10.41491508483887,0.6298044919967651,-9.243903160095217,-6.883922100067139,-0.0274423956871032,XArbitraryZVertical,0.0646339684753627,-0.0949994660744711,-0.6454938832933345,0.7550730935485949,-0.0600214190781116,-0.2202498912811279,-0.9735950827598572,0,0,0,-1,-1,5147.278148625001,unknown,2,2022-06-30T09:54:37.864+02:00,2022-06-30T08:20:05.567+02:00,1418,1.388076,0,0,1121.329,0,0,2022-06-30T09:50:28.075+02:00
297,2022-06-30T09:54:39.003+02:00,5148.416659250001,24.48428466796875,-28.137138519287117,53.57164718627931,5148.406708250001,-1.368255022417616,0.0604268817134248,0.3173954549416752,16.14446830749512,14.24807357788086,7.710286140441895,-5.060486316680908,10.40118885040283,1.094527363777161,XArbitraryZVertical,0.1412666047902045,-0.0767136508590191,-0.6200708575938748,0.7679004241897177,0.057373721152544,-0.3120931684970856,-0.948317527770996,0,0,0,-1,-1,5147.278148625001,unknown,2,2022-06-30T09:54:37.864+02:00,2022-06-30T08:20:05.567+02:00,1418,1.388076,0,0,1121.329,0,0,2022-06-30T09:50:28.075+02:00
298,2022-06-30T09:54:39.013+02:00,5148.42661125,7.6914555358886725,-81.61014083862305,15.466587066650387,5148.416659250001,-1.304886386322079,0.1450696322321853,0.5021301542500968,19.72322273254395,6.811071872711182,5.931151390075684,2.48157525062561,3.593750715255737,4.77781343460083,XArbitraryZVertical,0.2395086546270832,-0.0946556344427117,-0.5722422906712178,0.7785980054214425,0.1267165839672089,-0.4812938272953033,-0.8673518300056458,0,0,0,-1,-1,5147.278148625001,unknown,2,2022-06-30T09:54:37.864+02:00,2022-06-30T08:20:05.567+02:00,1418,1.388076,0,0,1121.329,0,0,2022-06-30T09:50:28.075+02:00
299,2022-06-30T09:54:39.023+02:00,5148.43656225,-14.836547241210939,-91.92129867553712,21.23693756103516,5148.42661125,-1.29924346730786,0.1652892007209881,0.670068731310004,10.54633331298828,-2.474441528320312,3.138968467712402,1.142874360084534,-6.683709144592285,4.29157543182373,XArbitraryZVertical,0.3080924889979974,-0.1361273405526718,-0.5476891329729208,0.7658884024600789,0.1289611160755157,-0.621039867401123,-0.7730967402458191,0,0,0,-1,-1,5147.278148625001,unknown,2,2022-06-30T09:54:37.864+02:00,2022-06-30T08:20:05.567+02:00,1418,1.388076,0,0,1121.329,0,0,2022-06-30T09:50:28.075+02:00
300,2022-06-30T09:54:39.033+02:00,5148.44651425,-40.354731903076186,-65.50049102783204,24.75432312011719,5148.43656225,-1.223921800667269,0.0569717043630954,0.7210259657232342,-1.072396039962769,-8.053956985473633,9.301127433776855,0.104767382144928,-7.809235572814941,2.225786209106445,XArbitraryZVertical,0.3039307131141281,-0.180751254493236,-0.5291022207786396,0.7713663857507779,0.0427699461579322,-0.6601556539535522,-0.7499102354049683,0,0,0,-1,-1,5147.278148625001,unknown,2,2022-06-30T09:54:37.864+02:00,2022-06-30T08:20:05.567+02:00,1418,1.388076,0,0,1121.329,0,0,2022-06-30T09:50:28.075+02:00
301,2022-06-30T09:54:39.043+02:00,5148.45646525,-32.353720092773436,-36.41193099975587,9.450447692871094,5148.44651425,-1.087813565947825,-0.102353142819329,0.6598853100295967,-9.538991928100586,-6.665872573852539,11.95890998840332,-3.247202157974243,-8.108623504638672,3.299966096878052,XArbitraryZVertical,0.2518285306572909,-0.208850451357938,-0.503111166023212,0.7999019302731685,-0.0807242691516876,-0.6130262613296509,-0.7859277725219727,0,0,0,-1,-1,5147.278148625001,unknown,2,2022-06-30T09:54:37.864+02:00,2022-06-30T08:20:05.567+02:00,1418,1.388076,0,0,1121.329,0,0,2022-06-30T09:50:28.075+02:00
302,2022-06-30T09:54:39.053+02:00,5148.466417250001,-26.566005706787116,-15.672109680175781,-9.247619476318361,5148.45646525,-0.9544235769104712,-0.2320682587349432,0.5480337999543352,-8.635370254516602,-4.50525426864624,12.88431835174561,-3.642024278640747,-4.54094123840332,2.804347991943359,XArbitraryZVertical,0.1875609650055164,-0.2224550329906207,-0.4670235075095565,0.8349992397600444,-0.1963088065385818,-0.5210099816322327,-0.8306692838668823,0,0,0,-1,-1,5147.278148625001,unknown,2,2022-06-30T09:54:37.864+02:00,2022-06-30T08:20:05.567+02:00,1418,1.388076,0,0,1121.329,0,0,2022-06-30T09:50:28.075+02:00
303,2022-06-30T09:54:39.063+02:00,5148.476368250001,-21.652174072265627,-5.591023406982422,-18.07536209106445,5148.466417250001,-0.8589812500749217,-0.322623217478731,0.4509590073233484,-4.90906810760498,-4.684660911560059,8.416534423828125,-2.673686027526855,-1.966500043869019,0.8273494243621826,XArbitraryZVertical,0.1354418753428766,-0.2342185765893958,-0.4332455522040463,0.8597066292648331,-0.2853593528270721,-0.4358288645744324,-0.8535943031311035,0,0,0,-1,-1,5147.278148625001,unknown,2,2022-06-30T09:54:37.864+02:00,2022-06-30T08:20:05.567+02:00,1418,1.388076,0,0,1121.329,0,0,2022-06-30T09:50:28.075+02:00
304,2022-06-30T09:54:39.073+02:00,5148.48632025,-26.47783905029297,-0.4843927001953125,-18.46994155883789,5148.476368250001,-0.804474796510947,-0.392699727545254,0.4102899210961295,0.6717235445976257,-4.822696685791016,4.041889667510986,-2.016020059585571,-0.7083334922790527,-0.7336692810058594,XArbitraryZVertical,0.1090764333540513,-0.2539710040706946,-0.4124748340754406,0.8680239285044009,-0.3509232401847839,-0.3988752067089081,-0.8472021222114563,0,0,0,-1,-1,5147.278148625001,unknown,2,2022-06-30T09:54:37.864+02:00,2022-06-30T08:20:05.567+02:00,1418,1.388076,0,0,1121.329,0,0,2022-06-30T09:50:28.075+02:00
305,2022-06-30T09:54:39.082+02:00,5148.49627125,-30.21406951904297,-9.315877532958986,-11.762240295410157,5148.48632025,-0.7628954808898827,-0.4517047088807037,0.4288890629495215,5.616702079772949,-3.303329706192017,1.620224833488464,-1.904441475868225,0.2824679911136627,-1.125508785247803,XArbitraryZVertical,0.1110393080392777,-0.2802890986473577,-0.3987298409486984,0.8660963833920658,-0.3969653844833374,-0.4158607423305511,-0.8182165622711182,0,0,0,-1,-1,5147.278148625001,unknown,2,2022-06-30T09:54:37.864+02:00,2022-06-30T08:20:05.567+02:00,1418,1.388076,0,0,1121.329,0,0,2022-06-30T09:50:28.075+02:00
306,2022-06-30T09:54:39.092+02:00,5148.50622325,-22.52441024780274,-19.273320922851564,-4.8931745910644535,5148.49627125,-0.71656157150401,-0.4890062216021686,0.4874775835083149,8.463354110717773,-0.1779437512159348,0.6347852945327759,-2.616111993789673,0.1107171177864075,-0.807677149772644,XArbitraryZVertical,0.1369083903902915,-0.302111806008071,-0.3848893655410375,0.8613041868128724,-0.4150311648845673,-0.468398779630661,-0.7799690961837769,0,0,0,-1,-1,5147.278148625001,unknown,2,2022-06-30T09:54:37.864+02:00,2022-06-30T08:20:05.567+02:00,1418,1.388076,0,0,1121.329,0,0,2022-06-30T09:50:28.075+02:00
307,2022-06-30T09:54:39.102+02:00,5148.51617425,-13.601315917968751,-24.044349517822262,-0.33724868774414063,5148.50622325,-0.6614392097143657,-0.5081103333854445,0.5622814400533085,8.95119857788086,1.740322589874268,0.7224888205528259,-2.346282005310059,-1.032602190971375,-0.1058441400527954,XArbitraryZVertical,0.175584126678761,-0.3155816770405108,-0.3679142543677457,0.8568649868221475,-0.4116219878196716,-0.5331177711486816,-0.7391568422317505,0,0,0,-1,-1,5147.278148625001,unknown,2,2022-06-30T09:54:37.864+02:00,2022-06-30T08:20:05.567+02:00,1418,1.388076,0,0,1121.329,0,0,2022-06-30T09:50:28.075+02:00
308,2022-06-30T09:54:39.113+02:00,5148.52612525,-9.488019561767578,-30.087582550048825,2.9295579528808595,5148.51617425,-0.6000815140700818,-0.5201348996270058,0.6282204646500824,7.425090312957764,2.684088945388794,1.774927020072937,-1.393226146697998,-1.607927322387695,0.4968305826187134,XArbitraryZVertical,0.2129581190439699,-0.3218861642582725,-0.3475462425837303,0.8545465656097205,-0.402107834815979,-0.5877059102058411,-0.702076256275177,0,0,0,-1,-1,5147.278148625001,unknown,2,2022-06-30T09:54:37.864+02:00,2022-06-30T08:20:05.567+02:00,1418,1.388076,0,0,1121.329,0,0,2022-06-30T09:50:28.075+02:00
309,2022-06-30T09:54:39.122+02:00,5148.536077250001,-9.953102416992188,-34.64201156616212,3.1234048461914066,5148.52612525,-0.5343481687027392,-0.5324615609214807,0.6676093485847509,4.470788478851318,2.724332571029663,3.294287204742432,-0.6869378685951233,-2.1514892578125,0.7830932140350342,XArbitraryZVertical,0.239256833474806,-0.323207183845908,-0.3237893556147369,0.8564191717884982,-0.3986640274524689,-0.6191103458404541,-0.6765865683555603,0,0,0,-1,-1,5147.278148625001,unknown,2,2022-06-30T09:54:37.864+02:00,2022-06-30T08:20:05.567+02:00,1418,1.388076,0,0,1121.329,0,0,2022-06-30T09:50:28.075+02:00
310,2022-06-30T09:54:39.132+02:00,5148.546028250001,-9.303752746582031,-37.02670257568359,-2.946921844482422,5148.536077250001,-0.4752797796609349,-0.5427136964639678,0.6698762155763623,0.697309136390686,2.561865329742432,4.489923477172852,-0.5675128698348999,-2.686575889587402,1.108303070068359,XArbitraryZVertical,0.2481900730556336,-0.3205799409064032,-0.2998236708274641,0.8635600182075015,-0.4048535227775574,-0.6208889484405518,-0.6712603569030762,0,0,0,-1,-1,5147.278148625001,unknown,2,2022-06-30T09:54:37.864+02:00,2022-06-30T08:20:05.567+02:00,1418,1.388076,0,0,1121.329,0,0,2022-06-30T09:50:28.075+02:00
311,2022-06-30T09:54:39.142+02:00,5148.55598025,-8.434959411621094,-29.88924499511719,-2.4230113220214844,5148.546028250001,-0.4270455597934253,-0.5499618431215112,0.6341648804979405,-2.812755823135376,1.80085277557373,5.733072280883789,-0.5757929682731628,-3.134469985961914,0.6818227767944336,XArbitraryZVertical,0.2385973411015874,-0.3157222434437287,-0.2765149236143228,0.8757456192169044,-0.4210332930088043,-0.5925049781799316,-0.6867815256118774,0,0,0,-1,-1,5147.278148625001,unknown,2,2022-06-30T09:54:37.864+02:00,2022-06-30T08:20:05.567+02:00,1418,1.388076,0,0,1121.329,0,0,2022-06-30T09:50:28.075+02:00
312,2022-06-30T09:54:39.152+02:00,5148.56593125,-8.046816558837891,-20.29629364013672,-1.1955638122558594,5148.55598025,-0.3948944553654636,-0.5568366756941557,0.5653199926639616,-5.952625274658203,0.4917793571949005,5.907350540161133,-0.457973837852478,-2.967060804367065,0.3582862019538879,XArbitraryZVertical,0.2111860739842467,-0.3114070893682076,-0.2562931703150904,0.8903594429082633,-0.446277379989624,-0.5356860756874084,-0.7168521285057068,0,0,0,-1,-1,5147.278148625001,unknown,2,2022-06-30T09:54:37.864+02:00,2022-06-30T08:20:05.567+02:00,1418,1.388076,0,0,1121.329,0,0,2022-06-30T09:50:28.075+02:00
313,2022-06-30T09:54:39.162+02:00,5148.575883250001,-7.8956309509277345,-13.788875885009762,-4.567152557373047,5148.56593125,-0.3798052257343789,-0.5656585264168061,0.4837091499765004,-6.158252716064453,-0.6563541889190674,4.933815956115723,-0.3558851480484009,-2.083075761795044,0.6286839246749878,XArbitraryZVertical,0.1747078493902656,-0.3094935941897433,-0.2416255777460148,0.902944122884343,-0.4744830727577209,-0.465065985918045,-0.7473817467689514,0,0,0,-1,-1,5147.278148625001,unknown,2,2022-06-30T09:54:37.864+02:00,2022-06-30T08:20:05.567+02:00,1418,1.388076,0,0,1121.329,0,0,2022-06-30T09:50:28.075+02:00
314,2022-06-30T09:54:39.172+02:00,5148.585834250001,-8.924890594482424,-7.3938743591308596,-5.317242736816406,5148.575883250001,-0.3715594035291935,-0.5814324410212228,0.4178898702608435,-3.781158447265625,-1.671364903450012,3.389956951141357,-0.2878354787826538,-1.299230456352234,0.5050215721130371,XArbitraryZVertical,0.1435101819136265,-0.3122859695623811,-0.2315469201309675,0.9100925738083574,-0.5019596219062805,-0.4058327972888947,-0.7637646198272705,0,0,0,-1,-1,5147.278148625001,unknown,2,2022-06-30T09:54:37.864+02:00,2022-06-30T08:20:05.567+02:00,1418,1.388076,0,0,1121.329,0,0,2022-06-30T09:50:28.075+02:00
315,2022-06-30T09:54:39.182+02:00,5148.59578625,-9.555379486083986,-6.803651733398437,-2.58422607421875,5148.585834250001,-0.3624291668925366,-0.5998434456023923,0.3836833436225525,-1.174699187278748,-1.335419774055481,1.877285718917847,-0.3427881598472595,-0.6776180267333984,0.1605815887451172,XArbitraryZVertical,0.1269032926788666,-0.3181052568868953,-0.2244297430775469,0.9123245325790998,-0.5234687328338623,-0.3743385374546051,-0.7654091715812683,0,0,0,-1,-1,5147.278148625001,unknown,2,2022-06-30T09:54:37.864+02:00,2022-06-30T08:20:05.567+02:00,1418,1.388076,0,0,1121.329,0,0,2022-06-30T09:50:28.075+02:00
316,2022-06-30T09:54:39.192+02:00,5148.60573725,-9.162745971679689,-10.002050628662115,0.77838134765625,5148.59578625,-0.3519065928862147,-0.6146404931501034,0.3738645450579545,0.5706139802932739,-0.7983425259590149,0.9548293352127076,-0.4024243950843811,-0.277698427438736,0.3649165630340576,XArbitraryZVertical,0.1223730624142309,-0.3236537252624653,-0.2192900573644735,0.9122418421281634,-0.5368305444717407,-0.3652157485485077,-0.7605462074279785,0,0,0,-1,-1,5147.278148625001,unknown,2,2022-06-30T09:54:37.864+02:00,2022-06-30T08:20:05.567+02:00,1418,1.388076,0,0,1121.329,0,0,2022-06-30T09:50:28.075+02:00
317,2022-06-30T09:54:39.202+02:00,5148.61568925,-7.703580322265625,-13.090428314208989,2.2873933410644534,5148.60573725,-0.3388783813192911,-0.6235631597677527,0.3769901873966623,1.241248607635498,-0.019443541765213,0.7429526448249817,-0.4397249221801758,-0.4660898745059967,0.64329993724823,XArbitraryZVertical,0.1249812388672347,-0.3270808684761441,-0.2143136852966273,0.9118483560829818,-0.5429259538650513,-0.3681236803531647,-0.7547956109046936,0,0,0,-1,-1,5147.278148625001,unknown,2,2022-06-30T09:54:37.864+02:00,2022-06-30T08:20:05.567+02:00,1418,1.388076,0,0,1121.329,0,0,2022-06-30T09:50:28.075+02:00
