loggingTime(txt),locationTimestamp_since1970(s),locationLatitude(WGS84),locationLongitude(WGS84),locationAltitude(m),locationSpeed(m/s),locationSpeedAccuracy(m/s),locationCourse(°),locationCourseAccuracy(°),locationVerticalAccuracy(m),locationHorizontalAccuracy(m),locationFloor(Z),accelerometerTimestamp_sinceReboot(s),accelerometerAccelerationX(G),accelerometerAccelerationY(G),accelerometerAccelerationZ(G),motionTimestamp_sinceReboot(s),motionYaw(rad),motionRoll(rad),motionPitch(rad),motionRotationRateX(rad/s),motionRotationRateY(rad/s),motionRotationRateZ(rad/s),motionUserAccelerationX(G),motionUserAccelerationY(G),motionUserAccelerationZ(G),motionAttitudeReferenceFrame(txt),motionQuaternionX(R),motionQuaternionY(R),motionQuaternionZ(R),motionQuaternionW(R),motionGravityX(G),motionGravityY(G),motionGravityZ(G),motionMagneticFieldX(µT),motionMagneticFieldY(µT),motionMagneticFieldZ(µT),motionHeading(°),motionMagneticFieldCalibrationAccuracy(Z),activityTimestamp_sinceReboot(s),activity(txt),activityActivityConfidence(Z),activityActivityStartDate(txt),pedometerStartDate(txt),pedometerNumberofSteps(N),pedometerAverageActivePace(s/m),pedometerCurrentPace(s/m),pedometerCurrentCadence(steps/s),pedometerDistance(m),pedometerFloorAscended(N),pedometerFloorDescended(N),pedometerEndDate(txt),altimeterTimestamp_sinceReboot(s),altimeterReset(bool),altimeterRelativeAltitude(m),altimeterPressure(kPa),batteryState(N),batteryLevel(R)
2022-06-02T10:46:56.139+02:00,1654159607.99977,53.2290892146608,10.39854600557297,36.85167,0.0979749,0.8212841,33.42964030767001,121.7631351360658,2.400000095367432,7.999579855010836,-9999,2760.398651125,-0.102813720703125,0.01220703125,-0.9646148681640625,2760.388657125,0.1873602085075742,-0.1074630870798274,0.1206444357561217,0.2589369416236877,0.24322609603405,-0.04215637594461441,0.1600198596715927,0.2232572287321091,0.03589379787445068,XArbitraryZVertical,0.06494934899848161,-0.04774178567827984,0.09001476963561422,0.9926728861681148,-0.106476753950119,-0.1203519850969315,-0.9870046377182007,0,0,0,-1,-1,2758.246706125,unknown,2,2022-06-02T10:46:53.968+02:00,2022-06-02T10:17:13.754+02:00,448,1.423373,0,0,345.1212,0,0,2022-06-02T10:46:53.968+02:00,675852413.9681365,0,6.613281,101.3017,1,0.81
2022-06-02T10:46:56.142+02:00,1654159607.99977,53.2290892146608,10.39854600557297,36.85167,0.0979749,0.8212841,33.42964030767001,121.7631351360658,2.400000095367432,7.999579855010836,-9999,2760.408646125,-0.148773193359375,0.0098724365234375,-0.9590911865234375,2760.398651125,0.1878278012896205,-0.1053599843574858,0.1249743073936668,0.599107027053833,0.2054525464773178,0.01090930681675673,0.09764638543128967,0.1755525469779968,0.02466279268264771,XArbitraryZVertical,0.06701326592883371,-0.04647342857221631,0.09018938812342939,0.9925800476217708,-0.1043449640274048,-0.124649241566658,-0.9866988658905029,0,0,0,-1,-1,2758.246706125,unknown,2,2022-06-02T10:46:53.968+02:00,2022-06-02T10:17:13.754+02:00,448,1.423373,0,0,345.1212,0,0,2022-06-02T10:46:53.968+02:00,675852413.9681365,0,6.613281,101.3017,1,0.81
2022-06-02T10:46:56.143+02:00,1654159607.99977,53.2290892146608,10.39854600557297,36.85167,0.0979749,0.8212841,33.42964030767001,121.7631351360658,2.400000095367432,7.999579855010836,-9999,2760.418640125,-0.104949951171875,-0.107666015625,-0.9796600341796875,2760.408646125,0.188435391563832,-0.1034682794444391,0.1314226743949717,0.6549665331840515,0.2024506330490112,-0.02524683251976967,-0.0004206076264381409,0.1432517021894455,0.02145969867706299,XArbitraryZVertical,0.0701397635464843,-0.04520131010676127,0.09036923676439729,0.9924063713808585,-0.1023930907249451,-0.1310446858406067,-0.9860745072364807,0,0,0,-1,-1,2758.246706125,unknown,2,2022-06-02T10:46:53.968+02:00,2022-06-02T10:17:13.754+02:00,448,1.423373,0,0,345.1212,0,0,2022-06-02T10:46:53.968+02:00,675852413.9681365,0,6.613281,101.3017,1,0.81
2022-06-02T10:46:56.150+02:00,1654159607.99977,53.2290892146608,10.39854600557297,36.85167,0.0979749,0.8212841,33.42964030767001,121.7631351360658,2.400000095367432,7.999579855010836,-9999,2760.428635125,-0.0801849365234375,-0.1816864013671875,-1.003448486328125,2760.418640125,0.1888890338215756,-0.1014890371888826,0.1370225548761898,0.4474619030952454,0.2131545543670654,0.005180180072784424,-0.04840788990259171,0.1464665830135345,0.02643853425979614,XArbitraryZVertical,0.07283702823481278,-0.04393069511241134,0.09050495075196922,0.9922568298874153,-0.1003652885556221,-0.1365941911935806,-0.9855297207832336,0,0,0,-1,-1,2758.246706125,unknown,2,2022-06-02T10:46:53.968+02:00,2022-06-02T10:17:13.754+02:00,448,1.423373,0,0,345.1212,0,0,2022-06-02T10:46:53.968+02:00,675852413.9681365,0,6.613281,101.3017,1,0.81
2022-06-02T10:46:56.162+02:00,1654159607.99977,53.2290892146608,10.39854600557297,36.85167,0.0979749,0.8212841,33.42964030767001,121.7631351360658,2.400000095367432,7.999579855010836,-9999,2760.438629125,-0.029693603515625,-0.27008056640625,-1.028579711914062,2760.428635125,0.1895857087120147,-0.09944504289890237,0.1400731791109196,0.1618224233388901,0.224898561835289,0.05473442003130913,-0.006641104817390442,0.03194952011108398,0.005653560161590576,XArbitraryZVertical,0.07427189560625953,-0.0427421753983145,0.09083972512052647,0.9921717435794445,-0.09830883145332336,-0.1396155804395676,-0.9853135943412781,0,0,0,-1,-1,2758.246706125,unknown,2,2022-06-02T10:46:53.968+02:00,2022-06-02T10:17:13.754+02:00,448,1.423373,0,0,345.1212,0,0,2022-06-02T10:46:53.968+02:00,675852413.9681365,0,6.613281,101.3017,1,0.81
2022-06-02T10:46:56.170+02:00,1654159607.99977,53.2290892146608,10.39854600557297,36.85167,0.0979749,0.8212841,33.42964030767001,121.7631351360658,2.400000095367432,7.999579855010836,-9999,2760.448624125,0.0209503173828125,-0.0548095703125,-0.99432373046875,2760.438629125,0.185353607788739,-0.09430978030441375,0.1388271444663976,-0.3518300652503967,0.3901541531085968,-0.705468475818634,0.01307910680770874,-0.04330478608608246,-0.0174705982208252,XArbitraryZVertical,0.07333522607894027,-0.04041057324694233,0.0889633942220532,0.9925091250359268,-0.09326402842998505,-0.1383816450834274,-0.9859778881072998,0,0,0,-1,-1,2758.246706125,unknown,2,2022-06-02T10:46:53.968+02:00,2022-06-02T10:17:13.754+02:00,448,1.423373,0,0,345.1212,0,0,2022-06-02T10:46:53.968+02:00,675852413.9681365,0,6.613281,101.3017,1,0.81
2022-06-02T10:46:56.180+02:00,1654159607.99977,53.2290892146608,10.39854600557297,36.85167,0.0979749,0.8212841,33.42964030767001,121.7631351360658,2.400000095367432,7.999579855010836,-9999,2760.458618125,-0.2548370361328125,-0.0164794921875,-0.9638519287109375,2760.448624125,0.1819693625264437,-0.09125691653022028,0.1367628368051109,-0.1839713007211685,0.1455462872982025,0.03769997507333755,0.06058578938245773,-0.1337437033653259,-0.04203933477401733,XArbitraryZVertical,0.0721093351627583,-0.03911602275099666,0.0874487740039533,0.9927854310219935,-0.09027937799692154,-0.1363368928432465,-0.9865403771400452,0,0,0,-1,-1,2758.246706125,unknown,2,2022-06-02T10:46:53.968+02:00,2022-06-02T10:17:13.754+02:00,448,1.423373,0,0,345.1212,0,0,2022-06-02T10:46:53.968+02:00,675852413.9681365,0,6.613281,101.3017,1,0.81
2022-06-02T10:46:56.190+02:00,1654159607.99977,53.2290892146608,10.39854600557297,36.85167,0.0979749,0.8212841,33.42964030767001,121.7631351360658,2.400000095367432,7.999579855010836,-9999,2760.468612125,-0.12811279296875,-0.0949859619140625,-0.956329345703125,2760.458618125,0.182105904443819,-0.08951587884953487,0.1348900017780738,-0.1556725203990936,0.2242326289415359,-0.05872276797890663,0.1095346510410309,0.07967172563076019,-0.007375061511993408,XArbitraryZVertical,0.07110659625420331,-0.03833454812010891,0.08762669591472197,0.9928725310258233,-0.08858431130647659,-0.1344813108444214,-0.9869486093521118,0,0,0,-1,-1,2758.246706125,unknown,2,2022-06-02T10:46:53.968+02:00,2022-06-02T10:17:13.754+02:00,448,1.423373,0,0,345.1212,0,0,2022-06-02T10:46:53.968+02:00,675852413.9681365,0,6.613281,101.3017,1,0.81
2022-06-02T10:46:56.200+02:00,1654159607.99977,53.2290892146608,10.39854600557297,36.85167,0.0979749,0.8212841,33.42964030767001,121.7631351360658,2.400000095367432,7.999579855010836,-9999,2760.478607125,0.0040283203125,-0.1349029541015625,-0.9146881103515625,2760.468612125,0.1813289574820693,-0.08728708458995098,0.1339453735207875,-0.06560467183589935,0.1773900240659714,-0.02015220746397972,-0.1684415936470032,0.1170656979084015,0.02341783046722412,XArbitraryZVertical,0.07052569685576573,-0.03729965806572386,0.08734350335334537,0.9929782861689768,-0.08639542758464813,-0.1335452049970627,-0.9872696995735168,0,0,0,-1,-1,2758.246706125,unknown,2,2022-06-02T10:46:53.968+02:00,2022-06-02T10:17:13.754+02:00,448,1.423373,0,0,345.1212,0,0,2022-06-02T10:46:53.968+02:00,675852413.9681365,0,6.613281,101.3017,1,0.81
2022-06-02T10:46:56.210+02:00,1654159607.99977,53.2290892146608,10.39854600557297,36.85167,0.0979749,0.8212841,33.42964030767001,121.7631351360658,2.400000095367432,7.999579855010836,-9999,2760.488601125,0.0133514404296875,-0.1949920654296875,-0.8876190185546875,2760.478607125,0.1815211300389715,-0.08585054727361313,0.1333458509655318,-0.05417728424072266,0.13761205971241,0.02250118181109428,-0.0431288406252861,0.03796502947807312,0.03114306926727295,XArbitraryZVertical,0.07016894771013772,-0.0366075912188739,0.08750414430626247,0.9930151839109532,-0.0849839374423027,-0.1329510360956192,-0.9874724149703979,0,0,0,-1,-1,2758.246706125,unknown,2,2022-06-02T10:46:53.968+02:00,2022-06-02T10:17:13.754+02:00,448,1.423373,0,0,345.1212,0,0,2022-06-02T10:46:53.968+02:00,675852413.9681365,0,6.613281,101.3017,1,0.81
2022-06-02T10:46:56.220+02:00,1654159607.99977,53.2290892146608,10.39854600557297,36.85167,0.0979749,0.8212841,33.42964030767001,121.7631351360658,2.400000095367432,7.999579855010836,-9999,2760.498596125,-0.020233154296875,-0.1387786865234375,-0.868438720703125,2760.488601125,0.1811906220303678,-0.08461166345026615,0.1328408687640679,-0.05996006727218628,0.1018463373184204,-0.06773257255554199,0.08779450505971909,-0.002452477812767029,0.07295560836791992,XArbitraryZVertical,0.06985816751180418,-0.03602753352327088,0.08739561343810262,0.9930679164788544,-0.08376616984605789,-0.1324505060911179,-0.9876437187194824,0,0,0,-1,-1,2758.246706125,unknown,2,2022-06-02T10:46:53.968+02:00,2022-06-02T10:17:13.754+02:00,448,1.423373,0,0,345.1212,0,0,2022-06-02T10:46:53.968+02:00,675852413.9681365,0,6.613281,101.3017,1,0.81
2022-06-02T10:46:56.230+02:00,1654159607.99977,53.2290892146608,10.39854600557297,36.85167,0.0979749,0.8212841,33.42964030767001,121.7631351360658,2.400000095367432,7.999579855010836,-9999,2760.508590125,-0.07403564453125,-0.11688232421875,-0.9146270751953125,2760.498596125,0.1805483670508323,-0.08385540374619081,0.1324154358080246,-0.02845347858965397,0.04063903912901878,-0.04848790913820267,0.09637540578842163,-0.06296326220035553,0.1001438498497009,XArbitraryZVertical,0.06960251812861591,-0.03569414963277695,0.0871132429108448,0.9931227073578331,-0.08302394300699234,-0.1320288181304932,-0.9877628087997437,0,0,0,-1,-1,2758.246706125,unknown,2,2022-06-02T10:46:53.968+02:00,2022-06-02T10:17:13.754+02:00,448,1.423373,0,0,345.1212,0,0,2022-06-02T10:46:53.968+02:00,675852413.9681365,0,6.613281,101.3017,1,0.81
2022-06-02T10:46:56.240+02:00,1654159607.99977,53.2290892146608,10.39854600557297,36.85167,0.0979749,0.8212841,33.42964030767001,121.7631351360658,2.400000095367432,7.999579855010836,-9999,2760.518585125,-0.0839385986328125,-0.1217803955078125,-0.949493408203125,2760.508590125,0.1801715444575791,-0.08355507030928286,0.1324936595076455,0.02453011088073254,0.01295388117432594,-0.03322266787290573,0.06249328702688217,-0.00667235255241394,0.1193387508392334,XArbitraryZVertical,0.06962155885204159,-0.03555450963947199,0.08693471680039841,0.9931420631747544,-0.08272641897201538,-0.1321063488721848,-0.9877774119377136,0,0,0,-1,-1,2758.246706125,unknown,2,2022-06-02T10:46:53.968+02:00,2022-06-02T10:17:13.754+02:00,448,1.423373,0,0,345.1212,0,0,2022-06-02T10:46:53.968+02:00,675852413.9681365,0,6.613281,101.3017,1,0.81
2022-06-02T10:46:56.250+02:00,1654159607.99977,53.2290892146608,10.39854600557297,36.85167,0.0979749,0.8212841,33.42964030767001,121.7631351360658,2.400000095367432,7.999579855010836,-9999,2760.528579125,-0.071380615234375,-0.155731201171875,-0.969940185546875,2760.518585125,0.1799585798849947,-0.08351176920374803,0.1327496730411426,0.01791641488671303,-0.004426440224051476,-0.01482501812279224,0.008645199239253998,0.01547777652740479,0.07312023639678955,XArbitraryZVertical,0.0697429666084312,-0.03552860324582684,0.08682440818664491,0.9931440170043024,-0.08268082141876221,-0.132360115647316,-0.9877472519874573,0,0,0,-1,-1,2758.246706125,unknown,2,2022-06-02T10:46:53.968+02:00,2022-06-02T10:17:13.754+02:00,448,1.423373,0,0,345.1212,0,0,2022-06-02T10:46:53.968+02:00,675852413.9681365,0,6.613281,101.3017,1,0.81
2022-06-02T10:46:56.260+02:00,1654159607.99977,53.2290892146608,10.39854600557297,36.85167,0.0979749,0.8212841,33.42964030767001,121.7631351360658,2.400000095367432,7.999579855010836,-9999,2760.538574125,-0.0610809326171875,-0.168426513671875,-0.9823455810546875,2760.528579125,0.179836900588633,-0.08361045355798635,0.1327487437057262,-0.0305512510240078,-0.01239302009344101,-0.0123056685552001,-0.001160278916358948,0.01057878136634827,0.03824585676193237,XArbitraryZVertical,0.06974462416460223,-0.03558189314202059,0.08676056570010597,0.9931475793680842,-0.08277830481529236,-0.132359191775322,-0.9877392053604126,0,0,0,-1,-1,2758.246706125,unknown,2,2022-06-02T10:46:53.968+02:00,2022-06-02T10:17:13.754+02:00,448,1.423373,0,0,345.1212,0,0,2022-06-02T10:46:53.968+02:00,675852413.9681365,0,6.613281,101.3017,1,0.81
2022-06-02T10:46:56.270+02:00,1654159607.99977,53.2290892146608,10.39854600557297,36.85167,0.0979749,0.8212841,33.42964030767001,121.7631351360658,2.400000095367432,7.999579855010836,-9999,2760.5485665,-0.0728302001953125,-0.1492462158203125,-0.993011474609375,2760.538574125,0.1796031005273211,-0.08373077685727578,0.1320453553161525,-0.1145021393895149,-0.01377426832914352,-0.02163698524236679,0.01152431964874268,-0.02406926453113556,0.01788163185119629,XArbitraryZVertical,0.06939656001251771,-0.0356822092429022,0.08665698247774366,0.9931774109040049,-0.08290491998195648,-0.1316619664430618,-0.9878218173980713,0,0,0,-1,-1,2758.246706125,unknown,2,2022-06-02T10:46:53.968+02:00,2022-06-02T10:17:13.754+02:00,448,1.423373,0,0,345.1212,0,0,2022-06-02T10:46:53.968+02:00,675852413.9681365,0,6.613281,101.3017,1,0.81
2022-06-02T10:46:56.280+02:00,1654159607.99977,53.2290892146608,10.39854600557297,36.85167,0.0979749,0.8212841,33.42964030767001,121.7631351360658,2.400000095367432,7.999579855010836,-9999,2760.5585605,-0.088836669921875,-0.1431121826171875,-0.996826171875,2760.5485665,0.1792559486355651,-0.08380515883787226,0.1306017938889114,-0.1802132427692413,-0.007052982226014137,-0.0226772166788578,0.0219133049249649,-0.03819569945335388,0.005658447742462158,XArbitraryZVertical,0.06867705501475994,-0.03579757749156019,0.08651629380045926,0.9932355313706905,-0.08299422264099121,-0.1302308291196823,-0.9880039691925049,0,0,0,-1,-1,2758.246706125,unknown,2,2022-06-02T10:46:53.968+02:00,2022-06-02T10:17:13.754+02:00,448,1.423373,0,0,345.1212,0,0,2022-06-02T10:46:53.968+02:00,675852413.9681365,0,6.613281,101.3017,1,0.81
2022-06-02T10:46:56.290+02:00,1654159607.99977,53.2290892146608,10.39854600557297,36.85167,0.0979749,0.8212841,33.42964030767001,121.7631351360658,2.400000095367432,7.999579855010836,-9999,2760.5685555,-0.092193603515625,-0.104400634765625,-0.974609375,2760.5585605,0.1788710521006088,-0.08387853530810881,0.1288661077089639,-0.1618025898933411,-0.01351441070437431,-0.02614005841314793,0.01025534421205521,-0.02073650062084198,-0.004789769649505615,XArbitraryZVertical,0.06781174036807008,-0.03592686380079656,0.08636380680069002,0.9933036363207579,-0.08308552950620651,-0.1285097301006317,-0.9882216453552246,0,0,0,-1,-1,2758.246706125,unknown,2,2022-06-02T10:46:53.968+02:00,2022-06-02T10:17:13.754+02:00,448,1.423373,0,0,345.1212,0,0,2022-06-02T10:46:53.968+02:00,675852413.9681365,0,6.613281,101.3017,1,0.81
2022-06-02T10:46:56.300+02:00,1654159607.99977,53.2290892146608,10.39854600557297,36.85167,0.0979749,0.8212841,33.42964030767001,121.7631351360658,2.400000095367432,7.999579855010836,-9999,2760.5785495,-0.0887603759765625,-0.0635528564453125,-0.9451446533203125,2760.5685555,0.1784788639093992,-0.08343096517859498,0.1277891823606752,-0.08691395819187164,-0.01332825608551502,-0.01235660165548325,-0.006181947886943817,-0.01567055284976959,-0.008430063724517822,XArbitraryZVertical,0.06725078905050903,-0.03576715226512147,0.0862095930607517,0.9933608976411766,-0.08265470713376999,-0.1274416595697403,-0.9883961081504822,0,0,0,-1,-1,2758.246706125,unknown,2,2022-06-02T10:46:53.968+02:00,2022-06-02T10:17:13.754+02:00,448,1.423373,0,0,345.1212,0,0,2022-06-02T10:46:53.968+02:00,675852413.9681365,0,6.613281,101.3017,1,0.81
2022-06-02T10:46:56.311+02:00,1654159607.99977,53.2290892146608,10.39854600557297,36.85167,0.0979749,0.8212841,33.42964030767001,121.7631351360658,2.400000095367432,7.999579855010836,-9999,2760.5885445,-0.0806884765625,-0.06524658203125,-0.964019775390625,2760.5785495,0.1782738230729177,-0.08293686853739528,0.1280660705166217,0.004124769940972328,-0.02490654774010181,-0.003449725918471813,-0.01003018021583557,0.02331562340259552,0.01379221677780151,XArbitraryZVertical,0.06736330758590774,-0.0355159811573706,0.08611787047859336,0.9933702540719254,-0.08216340839862823,-0.1277162879705429,-0.9884015917778015,0,0,0,-1,-1,2758.246706125,unknown,2,2022-06-02T10:46:53.968+02:00,2022-06-02T10:17:13.754+02:00,448,1.423373,0,0,345.1212,0,0,2022-06-02T10:46:53.968+02:00,675852413.9681365,0,6.613281,101.3017,1,0.81
2022-06-02T10:46:56.320+02:00,1654159607.99977,53.2290892146608,10.39854600557297,36.85167,0.0979749,0.8212841,33.42964030767001,121.7631351360658,2.400000095367432,7.999579855010836,-9999,2760.5985385,-0.0771331787109375,-0.084014892578125,-0.9721832275390625,2760.5885445,0.1782843959434033,-0.08285067739411611,0.1286047040270083,0.04209186136722565,-0.03512642905116081,0.01022613979876041,-0.006687842309474945,0.06469762325286865,0.04319536685943604,XArbitraryZVertical,0.06762718196069477,-0.03544819576757815,0.08611339845041718,0.9933551855912232,-0.08207251131534576,-0.1282504945993423,-0.9883399605751038,0,0,0,-1,-1,2758.246706125,unknown,2,2022-06-02T10:46:53.968+02:00,2022-06-02T10:17:13.754+02:00,448,1.423373,0,0,345.1212,0,0,2022-06-02T10:46:53.968+02:00,675852413.9681365,0,6.613281,101.3017,1,0.81
2022-06-02T10:46:56.330+02:00,1654159607.99977,53.2290892146608,10.39854600557297,36.85167,0.0979749,0.8212841,33.42964030767001,121.7631351360658,2.400000095367432,7.999579855010836,-9999,2760.6085335,-0.0686492919921875,-0.1009674072265625,-0.9964447021484375,2760.5985385,0.1784399600463476,-0.08323989352867571,0.1289641359104545,0.03001678735017776,-0.04474716633558273,0.01456582639366388,0.001764878630638123,0.06336033344268799,0.02424216270446777,XArbitraryZVertical,0.06782514817166442,-0.03561980463142944,0.08616904328632609,0.9933306634930459,-0.08245334774255753,-0.1286069452762604,-0.9882619380950928,0,0,0,-1,-1,2758.246706125,unknown,2,2022-06-02T10:46:53.968+02:00,2022-06-02T10:17:13.754+02:00,448,1.423373,0,0,345.1212,0,0,2022-06-02T10:46:53.968+02:00,675852413.9681365,0,6.613281,101.3017,1,0.81
2022-06-02T10:46:56.340+02:00,1654159607.99977,53.2290892146608,10.39854600557297,36.85167,0.0979749,0.8212841,33.42964030767001,121.7631351360658,2.400000095367432,7.999579855010836,-9999,2760.6185275,-0.0718841552734375,-0.0937652587890625,-1.026290893554688,2760.6085335,0.1785983258476878,-0.0837634638921215,0.1289870180003838,-0.02650534361600876,-0.04768729582428932,0.01579833775758743,0.005837343633174896,0.04461471736431122,0.01603251695632935,XArbitraryZVertical,0.06786190137579202,-0.03587342144085794,0.08622939437951246,0.9933138182682997,-0.0829705148935318,-0.1286296397447586,-0.9882157444953918,0,0,0,-1,-1,2758.246706125,unknown,2,2022-06-02T10:46:53.968+02:00,2022-06-02T10:17:13.754+02:00,448,1.423373,0,0,345.1212,0,0,2022-06-02T10:46:53.968+02:00,675852413.9681365,0,6.613281,101.3017,1,0.81
2022-06-02T10:46:56.350+02:00,1654159607.99977,53.2290892146608,10.39854600557297,36.85167,0.0979749,0.8212841,33.42964030767001,121.7631351360658,2.400000095367432,7.999579855010836,-9999,2760.6285215,-0.077056884765625,-0.087646484375,-1.03546142578125,2760.6185275,0.1787555880331145,-0.0840573681833145,0.1286116766512687,-0.1029498502612114,-0.0298642236739397,0.02701037749648094,0.01461572200059891,0.0272899717092514,-0.0082053542137146,XArbitraryZVertical,0.06769107922344098,-0.0360312603877277,0.08630643918573995,0.9933130828438806,-0.08326499909162521,-0.1282574087381363,-0.9882393479347229,0,0,0,-1,-1,2758.246706125,unknown,2,2022-06-02T10:46:53.968+02:00,2022-06-02T10:17:13.754+02:00,448,1.423373,0,0,345.1212,0,0,2022-06-02T10:46:53.968+02:00,675852413.9681365,0,6.613281,101.3017,1,0.81
2022-06-02T10:46:56.360+02:00,1654159607.99977,53.2290892146608,10.39854600557297,36.85167,0.0979749,0.8212841,33.42964030767001,121.7631351360658,2.400000095367432,7.999579855010836,-9999,2760.6385165,-0.0814361572265625,-0.0881805419921875,-1.060211181640625,2760.6285215,0.1788089346713655,-0.08398372048604102,0.1280501347380382,-0.1547885537147522,-0.01857481710612774,0.01658942922949791,0.01131409406661987,0.03393518924713135,-0.03797382116317749,XArbitraryZVertical,0.06741010662791917,-0.03601862712809811,0.08634875474195373,0.9933288880527829,-0.08319824188947678,-0.1277004927396774,-0.98831707239151,0,0,0,-1,-1,2758.246706125,unknown,2,2022-06-02T10:46:53.968+02:00,2022-06-02T10:17:13.754+02:00,448,1.423373,0,0,345.1212,0,0,2022-06-02T10:46:53.968+02:00,675852413.9681365,0,6.613281,101.3017,1,0.81
2022-06-02T10:46:56.370+02:00,1654159607.99977,53.2290892146608,10.39854600557297,36.85167,0.0979749,0.8212841,33.42964030767001,121.7631351360658,2.400000095367432,7.999579855010836,-9999,2760.6485105,-0.0949554443359375,-0.0907440185546875,-1.064483642578125,2760.6385165,0.1787724455467439,-0.08391774933912471,0.1267170202127453,-0.1713539361953735,0.003448194358497858,0.005662479437887669,0.006090372800827026,0.03873166441917419,-0.04697006940841675,XArbitraryZVertical,0.06674479179402802,-0.03604819208930121,0.08636442887067738,0.9933714054413401,-0.08314723521471024,-0.1263781785964966,-0.9884912967681885,0,0,0,-1,-1,2758.246706125,unknown,2,2022-06-02T10:46:53.968+02:00,2022-06-02T10:17:13.754+02:00,448,1.423373,0,0,345.1212,0,0,2022-06-02T10:46:53.968+02:00,675852413.9681365,0,6.613281,101.3017,1,0.81
2022-06-02T10:46:56.380+02:00,1654159607.99977,53.2290892146608,10.39854600557297,36.85167,0.0979749,0.8212841,33.42964030767001,121.7631351360658,2.400000095367432,7.999579855010836,-9999,2760.6585055,-0.1074066162109375,-0.0869293212890625,-1.049942016601562,2760.6485105,0.1786068036594505,-0.0837895188388047,0.1253041885920693,-0.1543422043323517,0.02502965368330479,-0.009777462109923363,0.001599200069904327,0.0367959663271904,-0.07153224945068359,XArbitraryZVertical,0.06603484790200688,-0.03605470465705544,0.08631980516308925,0.9934225424507571,-0.08303534239530563,-0.1249765455722809,-0.9886789321899414,0,0,0,-1,-1,2758.246706125,unknown,2,2022-06-02T10:46:53.968+02:00,2022-06-02T10:17:13.754+02:00,448,1.423373,0,0,345.1212,0,0,2022-06-02T10:46:53.968+02:00,675852413.9681365,0,6.613281,101.3017,1,0.81
2022-06-02T10:46:56.390+02:00,1654159607.99977,53.2290892146608,10.39854600557297,36.85167,0.0979749,0.8212841,33.42964030767001,121.7631351360658,2.400000095367432,7.999579855010836,-9999,2760.6684995,-0.109771728515625,-0.106170654296875,-1.023345947265625,2760.6585055,0.1783950512335536,-0.08348425602637392,0.1236576978460409,-0.1288409382104874,0.05160007625818253,-0.01310781203210354,-0.0122048482298851,0.03259874880313873,-0.07557570934295654,XArbitraryZVertical,0.06520038719861394,-0.03598532285176981,0.08626340918099547,0.9934850943914157,-0.0827505812048912,-0.123342789709568,-0.9889079332351685,0,0,0,-1,-1,2758.246706125,unknown,2,2022-06-02T10:46:53.968+02:00,2022-06-02T10:17:13.754+02:00,448,1.423373,0,0,345.1212,0,0,2022-06-02T10:46:53.968+02:00,675852413.9681365,0,6.613281,101.3017,1,0.81
2022-06-02T10:46:56.400+02:00,1654159607.99977,53.2290892146608,10.39854600557297,36.85167,0.0979749,0.8212841,33.42964030767001,121.7631351360658,2.400000095367432,7.999579855010836,-9999,2760.6784945,-0.098419189453125,-0.1307220458984375,-0.9764556884765625,2760.6684995,0.1781942491155977,-0.08302648748126129,0.1214289555203708,-0.1222461462020874,0.06734441965818405,-0.01302205864340067,-0.02508612722158432,0.03420140594244003,-0.06072479486465454,XArbitraryZVertical,0.06407038892861303,-0.03586617806002188,0.0862306262610648,0.9935657648283633,-0.08232047408819199,-0.1211307644844055,-0.989217221736908,0,0,0,-1,-1,2758.246706125,unknown,2,2022-06-02T10:46:53.968+02:00,2022-06-02T10:17:13.754+02:00,448,1.423373,0,0,345.1212,0,0,2022-06-02T10:46:53.968+02:00,675852413.9681365,0,6.613281,101.3017,1,0.81
2022-06-02T10:46:56.410+02:00,1654159607.99977,53.2290892146608,10.39854600557297,36.85167,0.0979749,0.8212841,33.42964030767001,121.7631351360658,2.400000095367432,7.999579855010836,-9999,2760.6884885,-0.0772705078125,-0.1240386962890625,-0.9386749267578125,2760.6784945,0.177947099118014,-0.08229787080389522,0.1190576646149574,-0.117514967918396,0.07208871096372604,-0.01900018937885761,-0.02814863622188568,0.01260591298341751,-0.03378552198410034,XArbitraryZVertical,0.06285702587971055,-0.03562011890070526,0.08618600638287661,0.9936558834026581,-0.08162306994199753,-0.1187765970826149,-0.9895604252815247,0,0,0,-1,-1,2758.246706125,unknown,2,2022-06-02T10:46:53.968+02:00,2022-06-02T10:17:13.754+02:00,448,1.423373,0,0,345.1212,0,0,2022-06-02T10:46:53.968+02:00,675852413.9681365,0,6.613281,101.3017,1,0.81
2022-06-02T10:46:56.420+02:00,1654159607.99977,53.2290892146608,10.39854600557297,36.85167,0.0979749,0.8212841,33.42964030767001,121.7631351360658,2.400000095367432,7.999579855010836,-9999,2760.6984825,-0.0626678466796875,-0.11138916015625,-0.906982421875,2760.6884885,0.1776064585510171,-0.08159971123619551,0.117223430882224,-0.09225861728191376,0.04395001381635666,-0.0328342467546463,-0.0174693763256073,-0.01376693695783615,0.01337695121765137,XArbitraryZVertical,0.06190997091901917,-0.03536727734497409,0.08608069144495345,0.9937335225036636,-0.0809498056769371,-0.1169551461935043,-0.9898326396942139,0,0,0,-1,-1,2758.246706125,unknown,2,2022-06-02T10:46:53.968+02:00,2022-06-02T10:17:13.754+02:00,448,1.423373,0,0,345.1212,0,0,2022-06-02T10:46:53.968+02:00,675852413.9681365,0,6.613281,101.3017,1,0.81
2022-06-02T10:46:56.430+02:00,1654159607.99977,53.2290892146608,10.39854600557297,36.85167,0.0979749,0.8212841,33.42964030767001,121.7631351360658,2.400000095367432,7.999579855010836,-9999,2760.7084775,-0.0579986572265625,-0.101898193359375,-0.925445556640625,2760.6984825,0.177134682363969,-0.08104125216847226,0.1161783038633692,-0.05301111936569214,0.0149965938180685,-0.04187534376978874,0.003136366605758667,-0.008121602237224579,0.05132406949996948,XArbitraryZVertical,0.06135856117601854,-0.03515172868214405,0.08588730576444251,0.9937920770906309,-0.08040685951709747,-0.1159171313047409,-0.9899989366531372,0,0,0,-1,-1,2758.246706125,unknown,2,2022-06-02T10:46:53.968+02:00,2022-06-02T10:17:13.754+02:00,448,1.423373,0,0,345.1212,0,0,2022-06-02T10:46:53.968+02:00,675852413.9681365,0,6.613281,101.3017,1,0.81
2022-06-02T10:46:56.440+02:00,1654159607.99977,53.2290892146608,10.39854600557297,36.85167,0.0979749,0.8212841,33.42964030767001,121.7631351360658,2.400000095367432,7.999579855010836,-9999,2760.7184715,-0.0653533935546875,-0.0950164794921875,-0.976531982421875,2760.7084775,0.1766496373587209,-0.08081808832478164,0.1155932696103169,0.001640940085053444,-0.005298824980854988,-0.04855908080935478,0.01752355694770813,0.003946825861930847,0.08310186862945557,XArbitraryZVertical,0.06104988540645753,-0.03508213630952583,0.08566637343475558,0.9938326425521069,-0.08019138872623444,-0.1153360158205032,-0.9900842905044556,0,0,0,-1,-1,2758.246706125,unknown,2,2022-06-02T10:46:53.968+02:00,2022-06-02T10:17:13.754+02:00,448,1.423373,0,0,345.1212,0,0,2022-06-02T10:46:53.968+02:00,675852413.9681365,0,6.613281,101.3017,1,0.81
2022-06-02T10:46:56.450+02:00,1654159607.99977,53.2290892146608,10.39854600557297,36.85167,0.0979749,0.8212841,33.42964030767001,121.7631351360658,2.400000095367432,7.999579855010836,-9999,2760.7284665,-0.07745361328125,-0.1301422119140625,-1.025833129882812,2760.7184715,0.176113046483558,-0.08076790753850659,0.1154338771436619,0.03702852502465248,-0.007954462431371212,-0.06149571761488914,0.02214454114437103,0.01327946037054062,0.06466108560562134,XArbitraryZVertical,0.06095915209071705,-0.03508075386170767,0.08540486285168462,0.9938607957953317,-0.08014319092035294,-0.1151776909828186,-0.9901066422462463,0,0,0,-1,-1,2758.246706125,unknown,2,2022-06-02T10:46:53.968+02:00,2022-06-02T10:17:13.754+02:00,448,1.423373,0,0,345.1212,0,0,2022-06-02T10:46:53.968+02:00,675852413.9681365,0,6.613281,101.3017,1,0.81
2022-06-02T10:46:56.460+02:00,1654159607.99977,53.2290892146608,10.39854600557297,36.85167,0.0979749,0.8212841,33.42964030767001,121.7631351360658,2.400000095367432,7.999579855010836,-9999,2760.7384605,-0.081695556640625,-0.136077880859375,-1.07342529296875,2760.7284665,0.1754558862758892,-0.08076823158876824,0.1154442275567838,0.03544900566339493,-0.01144293695688248,-0.07329592108726501,0.01479003578424454,0.02017145603895187,0.01357346773147583,XArbitraryZVertical,0.06095277315671722,-0.03510047718037415,0.08507804676370163,0.9938885812594691,-0.08014341443777084,-0.1151879727840424,-0.9901054501533508,0,0,0,-1,-1,2758.246706125,unknown,2,2022-06-02T10:46:53.968+02:00,2022-06-02T10:17:13.754+02:00,448,1.423373,0,0,345.1212,0,0,2022-06-02T10:46:53.968+02:00,675852413.9681365,0,6.613281,101.3017,1,0.81
2022-06-02T10:46:56.470+02:00,1654159607.99977,53.2290892146608,10.39854600557297,36.85167,0.0979749,0.8212841,33.42964030767001,121.7631351360658,2.400000095367432,7.999579855010836,-9999,2760.7484555,-0.092926025390625,-0.1124267578125,-1.068832397460938,2760.7384605,0.1747417420881512,-0.08087938965790298,0.1153971513817166,0.0189657025039196,-0.004349208436906338,-0.0750926211476326,0.002800308167934418,-0.01500103622674942,-0.03573119640350342,XArbitraryZVertical,0.06092156572075097,-0.0351795863416677,0.0847208367188429,0.9939181141592713,-0.08025390654802322,-0.1151412054896355,-0.9901019334793091,0,0,0,-1,-1,2758.246706125,unknown,2,2022-06-02T10:46:53.968+02:00,2022-06-02T10:17:13.754+02:00,448,1.423373,0,0,345.1212,0,0,2022-06-02T10:46:53.968+02:00,675852413.9681365,0,6.613281,101.3017,1,0.81
2022-06-02T10:46:56.480+02:00,1654159607.99977,53.2290892146608,10.39854600557297,36.85167,0.0979749,0.8212841,33.42964030767001,121.7631351360658,2.400000095367432,7.999579855010836,-9999,2760.7584495,-0.099151611328125,-0.1179962158203125,-1.055252075195312,2760.7484555,0.1739800532589898,-0.08094313246824741,0.1150432083062653,-0.02486566826701164,0.0196051262319088,-0.08152522146701813,-0.0013752281665802,-0.02128829807043076,-0.08328789472579956,XArbitraryZVertical,0.06073502105928032,-0.03525021184909603,0.08434836661470116,0.9939587133703497,-0.08032031357288361,-0.1147896125912666,-0.9901373386383057,0,0,0,-1,-1,2758.246706125,unknown,2,2022-06-02T10:46:53.968+02:00,2022-06-02T10:17:13.754+02:00,448,1.423373,0,0,345.1212,0,0,2022-06-02T10:46:53.968+02:00,675852413.9681365,0,6.613281,101.3017,1,0.81
2022-06-02T10:46:56.490+02:00,1654159607.99977,53.2290892146608,10.39854600557297,36.85167,0.0979749,0.8212841,33.42964030767001,121.7631351360658,2.400000095367432,7.999579855010836,-9999,2760.7684435,-0.0981292724609375,-0.1212921142578125,-1.007644653320312,2760.7584495,0.1731798682612664,-0.08082146280086859,0.1145929934381595,-0.05712294206023216,0.03443999961018562,-0.07693818956613541,-0.01272200793027878,0.001915574073791504,-0.07863384485244751,XArbitraryZVertical,0.06049213783265117,-0.03523397842170176,0.08396453829548708,0.9940066137077481,-0.08020400255918503,-0.1143423616886139,-0.99019855260849,0,0,0,-1,-1,2758.246706125,unknown,2,2022-06-02T10:46:53.968+02:00,2022-06-02T10:17:13.754+02:00,448,1.423373,0,0,345.1212,0,0,2022-06-02T10:46:53.968+02:00,675852413.9681365,0,6.613281,101.3017,1,0.81
2022-06-02T10:46:56.500+02:00,1654159607.99977,53.2290892146608,10.39854600557297,36.85167,0.0979749,0.8212841,33.42964030767001,121.7631351360658,2.400000095367432,7.999579855010836,-9999,2760.7784385,-0.080963134765625,-0.122222900390625,-0.9542694091796875,2760.7684435,0.1723989916031693,-0.08049884732660167,0.113921450545804,-0.1273558288812637,0.04604871943593025,-0.068982794880867,-0.01926088333129883,-0.00432104617357254,-0.06495136022567749,XArbitraryZVertical,0.06013125559609243,-0.03512685434664744,0.08360128031665674,0.9940628652020543,-0.07989070564508438,-0.1136751994490623,-0.9903006553649902,0,0,0,-1,-1,2758.246706125,unknown,2,2022-06-02T10:46:53.968+02:00,2022-06-02T10:17:13.754+02:00,448,1.423373,0,0,345.1212,0,0,2022-06-02T10:46:53.968+02:00,675852413.9681365,0,6.613281,101.3017,1,0.81
2022-06-02T10:46:56.510+02:00,1654159607.99977,53.2290892146608,10.39854600557297,36.85167,0.0979749,0.8212841,33.42964030767001,121.7631351360658,2.400000095367432,7.999579855010836,-9999,2760.7884325,-0.06085205078125,-0.0812530517578125,-0.9353485107421875,2760.7784385,0.1716536778847769,-0.08001146301519563,0.1127883070907493,-0.1341183930635452,0.03005137480795383,-0.0541258193552494,-0.01871097832918167,-0.008742824196815491,-0.01717740297317505,XArbitraryZVertical,0.05953484976384447,-0.0349567327485201,0.0832707579272991,0.9941326220575855,-0.07941827923059464,-0.1125493273139,-0.9904672503471375,0,0,0,-1,-1,2758.246706125,unknown,2,2022-06-02T10:46:53.968+02:00,2022-06-02T10:17:13.754+02:00,448,1.423373,0,0,345.1212,0,0,2022-06-02T10:46:53.968+02:00,675852413.9681365,0,6.613281,101.3017,1,0.81
2022-06-02T10:46:56.520+02:00,1654159607.99977,53.2290892146608,10.39854600557297,36.85167,0.0979749,0.8212841,33.42964030767001,121.7631351360658,2.400000095367432,7.999579855010836,-9999,2760.7984275,-0.0550384521484375,-0.051055908203125,-0.946502685546875,2760.7884325,0.1710930166767425,-0.0797178020720691,0.1117718667096468,-0.09020419418811798,9.667279664427042e-05,-0.03859399631619453,-0.001826629042625427,-0.01068364828824997,0.03633469343185425,XArbitraryZVertical,0.05900779837872241,-0.03487190164566358,0.08302339102987133,0.9941876801682067,-0.07913648337125778,-0.1115392819046974,-0.990604043006897,0,0,0,-1,-1,2758.246706125,unknown,2,2022-06-02T10:46:53.968+02:00,2022-06-02T10:17:13.754+02:00,448,1.423373,0,0,345.1212,0,0,2022-06-02T10:46:53.968+02:00,675852413.9681365,0,6.613281,101.3017,1,0.81
2022-06-02T10:46:56.530+02:00,1654159607.99977,53.2290892146608,10.39854600557297,36.85167,0.0979749,0.8212841,33.42964030767001,121.7631351360658,2.400000095367432,7.999579855010836,-9999,2760.8084215,-0.0658111572265625,-0.0707550048828125,-0.990509033203125,2760.7984275,0.1707457196465819,-0.07971085480378279,0.1112023714700212,-0.01989647746086121,-0.03477448970079422,-0.01579627394676208,0.01828261464834213,0.0297202467918396,0.05531930923461914,XArbitraryZVertical,0.05871846135180284,-0.03490354657929484,0.08286359182832106,0.9942170608443829,-0.07913465052843094,-0.1109733283519745,-0.9906677603721619,0,0,0,-1,-1,2758.246706125,unknown,2,2022-06-02T10:46:53.968+02:00,2022-06-02T10:17:13.754+02:00,448,1.423373,0,0,345.1212,0,0,2022-06-02T10:46:53.968+02:00,675852413.9681365,0,6.613281,101.3017,1,0.81
2022-06-02T10:46:56.540+02:00,1654159607.99977,53.2290892146608,10.39854600557297,36.85167,0.0979749,0.8212841,33.42964030767001,121.7631351360658,2.400000095367432,7.999579855010836,-9999,2760.8184165,-0.07598876953125,-0.1157684326171875,-1.030746459960938,2760.8084215,0.1706626166870866,-0.08006674768289274,0.1111317893656337,0.02326747216284275,-0.05690010264515877,-0.0002239057794213295,0.02444940060377121,0.05984723567962646,0.04414469003677368,XArbitraryZVertical,0.05869667385015807,-0.03508598248721896,0.08281340211231347,0.9942161175851109,-0.07948783785104752,-0.1109031811356544,-0.9906473755836487,0,0,0,-1,-1,2760.8060365,unknown,2,2022-06-02T10:46:56.528+02:00,2022-06-02T10:17:13.754+02:00,448,1.423373,0,0,345.1212,0,0,2022-06-02T10:46:56.527+02:00,675852416.5274439,0,6.703125,101.3023,1,0.81
2022-06-02T10:46:56.550+02:00,1654159607.99977,53.2290892146608,10.39854600557297,36.85167,0.0979749,0.8212841,33.42964030767001,121.7631351360658,2.400000095367432,7.999579855010836,-9999,2760.8284105,-0.0808258056640625,-0.1213836669921875,-1.05096435546875,2760.8184165,0.1706597532473236,-0.08059250140864088,0.1115706391577284,0.03142806515097618,-0.05468834564089775,-0.005358746275305748,0.01419360190629959,0.04058427363634109,4.780292510986328e-05,XArbitraryZVertical,0.05893646032448453,-0.03532827526386369,0.08278671310610032,0.9941955632371146,-0.0800047442317009,-0.111339308321476,-0.9905568361282349,0,0,0,-1,-1,2760.8060365,unknown,2,2022-06-02T10:46:56.528+02:00,2022-06-02T10:17:13.754+02:00,448,1.423373,0,0,345.1212,0,0,2022-06-02T10:46:56.527+02:00,675852416.5274439,0,6.703125,101.3023,1,0.81
2022-06-02T10:46:56.565+02:00,1654159607.99977,53.2290892146608,10.39854600557297,36.85167,0.0979749,0.8212841,33.42964030767001,121.7631351360658,2.400000095367432,7.999579855010836,-9999,2760.8384055,-0.08984375,-0.1076507568359375,-1.069671630859375,2760.8284105,0.1705495942302314,-0.08099762369999661,0.11192163013002,0.002890428528189659,-0.03929207846522331,-0.01824098825454712,0.004414103925228119,-0.004080355167388916,-0.04026114940643311,XArbitraryZVertical,0.05912568430615871,-0.03551760189090086,0.08271211684581238,0.9941837157181275,-0.08040286600589752,-0.1116881147027016,-0.9904853105545044,0,0,0,-1,-1,2760.8060365,unknown,2,2022-06-02T10:46:56.528+02:00,2022-06-02T10:17:13.754+02:00,448,1.423373,0,0,345.1212,0,0,2022-06-02T10:46:56.527+02:00,675852416.5274439,0,6.703125,101.3023,1,0.81
2022-06-02T10:46:56.582+02:00,1654159607.99977,53.2290892146608,10.39854600557297,36.85167,0.0979749,0.8212841,33.42964030767001,121.7631351360658,2.400000095367432,7.999579855010836,-9999,2760.8483995,-0.103302001953125,-0.08709716796875,-1.077316284179688,2760.8384055,0.170354018486316,-0.08129727637885426,0.1117207807240786,-0.02930066362023354,-0.01503227930516005,-0.01594827324151993,-0.0001243054866790771,-0.009895183145999908,-0.06048083305358887,XArbitraryZVertical,0.05903478820990323,-0.03568109058272822,0.08261057818036724,0.9941916669919517,-0.08070148527622223,-0.1114885210990906,-0.9904835224151611,0,0,0,-1,-1,2760.8060365,unknown,2,2022-06-02T10:46:56.528+02:00,2022-06-02T10:17:13.754+02:00,448,1.423373,0,0,345.1212,0,0,2022-06-02T10:46:56.527+02:00,675852416.5274439,0,6.703125,101.3023,1,0.81
2022-06-02T10:46:56.585+02:00,1654159607.99977,53.2290892146608,10.39854600557297,36.85167,0.0979749,0.8212841,33.42964030767001,121.7631351360658,2.400000095367432,7.999579855010836,-9999,2760.8583935,-0.096527099609375,-0.0955352783203125,-1.063919067382812,2760.8483995,0.170255321102556,-0.08139202211903976,0.1112230353192606,-0.06528742611408234,0.0103100948035717,0.00197133794426918,-0.009043902158737183,0.003343075513839722,-0.07914054393768311,XArbitraryZVertical,0.05878960256632178,-0.03575277279917555,0.08256996735920016,0.9942070307233659,-0.08079982548952103,-0.1109938621520996,-0.9905310273170471,0,0,0,-1,-1,2760.8060365,unknown,2,2022-06-02T10:46:56.528+02:00,2022-06-02T10:17:13.754+02:00,448,1.423373,0,0,345.1212,0,0,2022-06-02T10:46:56.527+02:00,675852416.5274439,0,6.703125,101.3023,1,0.81
2022-06-02T10:46:56.590+02:00,1654159607.99977,53.2290892146608,10.39854600557297,36.85167,0.0979749,0.8212841,33.42964030767001,121.7631351360658,2.400000095367432,7.999579855010836,-9999,2760.8683885,-0.070648193359375,-0.105682373046875,-1.026260375976562,2760.8583935,0.1702267040358066,-0.08133283185558332,0.1105878462983406,-0.07879295200109482,0.0227990560233593,-0.0015347795560956,-0.02255508303642273,0.02326536923646927,-0.08671039342880249,XArbitraryZVertical,0.05847100854959845,-0.03575183729662902,0.0825718187335525,0.9942257418684637,-0.08074691146612167,-0.1103625744581223,-0.990605890750885,0,0,0,-1,-1,2760.8060365,unknown,2,2022-06-02T10:46:56.528+02:00,2022-06-02T10:17:13.754+02:00,448,1.423373,0,0,345.1212,0,0,2022-06-02T10:46:56.527+02:00,675852416.5274439,0,6.703125,101.3023,1,0.81
2022-06-02T10:46:56.600+02:00,1654159607.99977,53.2290892146608,10.39854600557297,36.85167,0.0979749,0.8212841,33.42964030767001,121.7631351360658,2.400000095367432,7.999579855010836,-9999,2760.8783825,-0.0578460693359375,-0.0996856689453125,-1.00494384765625,2760.8683885,0.1700494518641452,-0.08113844795910355,0.1098448539595738,-0.1042730063199997,0.01868766732513905,-0.01683890074491501,-0.01596611738204956,0.01408877968788147,-0.0732160210609436,XArbitraryZVertical,0.05809060670396362,-0.03569268965921258,0.08250611444644081,0.994255594782821,-0.08056097477674484,-0.1096240878105164,-0.9907030463218689,0,0,0,-1,-1,2760.8060365,unknown,2,2022-06-02T10:46:56.528+02:00,2022-06-02T10:17:13.754+02:00,448,1.423373,0,0,345.1212,0,0,2022-06-02T10:46:56.527+02:00,675852416.5274439,0,6.703125,101.3023,1,0.81
2022-06-02T10:46:56.610+02:00,1654159607.99977,53.2290892146608,10.39854600557297,36.85167,0.0979749,0.8212841,33.42964030767001,121.7631351360658,2.400000095367432,7.999579855010836,-9999,2760.8883775,-0.0655059814453125,-0.0805816650390625,-1.003524780273438,2760.8783825,0.1697924271136533,-0.08078355896070058,0.1084528462034422,-0.1166438236832619,0.008093546144664288,-0.009436046704649925,0.009573429822921753,0.002557955682277679,-0.03537768125534058,XArbitraryZVertical,0.05737963547257115,-0.03558413773368951,0.08241982985223419,0.9943078526723385,-0.08022161573171616,-0.1082403659820557,-0.9908826947212219,0,0,0,-1,-1,2760.8060365,unknown,2,2022-06-02T10:46:56.528+02:00,2022-06-02T10:17:13.754+02:00,448,1.423373,0,0,345.1212,0,0,2022-06-02T10:46:56.527+02:00,675852416.5274439,0,6.703125,101.3023,1,0.81
2022-06-02T10:46:56.620+02:00,1654159607.99977,53.2290892146608,10.39854600557297,36.85167,0.0979749,0.8212841,33.42964030767001,121.7631351360658,2.400000095367432,7.999579855010836,-9999,2760.8983715,-0.081207275390625,-0.0570220947265625,-1.028030395507812,2760.8883775,0.1696523975379668,-0.0804695014296118,0.1066007616723148,-0.1058297902345657,0.00297841290012002,0.005770603194832802,0.02208033949136734,0.006713278591632843,-0.01383787393569946,XArbitraryZVertical,0.05644374705020654,-0.03551229469281071,0.08240049567334722,0.9943656001122287,-0.07992639392614365,-0.1063989773392677,-0.9911059737205505,0,0,0,-1,-1,2760.8060365,unknown,2,2022-06-02T10:46:56.528+02:00,2022-06-02T10:17:13.754+02:00,448,1.423373,0,0,345.1212,0,0,2022-06-02T10:46:56.527+02:00,675852416.5274439,0,6.703125,101.3023,1,0.81
2022-06-02T10:46:56.631+02:00,1654159607.99977,53.2290892146608,10.39854600557297,36.85167,0.0979749,0.8212841,33.42964030767001,121.7631351360658,2.400000095367432,7.999579855010836,-9999,2760.9083665,-0.0900726318359375,-0.0304718017578125,-1.021041870117188,2760.8983715,0.1697678933688522,-0.08026952942091252,0.105424077482553,-0.03932809829711914,0.01032427605241537,0.02743162587285042,0.01423221081495285,0.02464720606803894,-0.01227873563766479,XArbitraryZVertical,0.05585272474248649,-0.03546062754647701,0.08248968443261112,0.9943935032591634,-0.07973818480968475,-0.1052289009094238,-0.9912460446357727,0,0,0,-1,-1,2760.8060365,unknown,2,2022-06-02T10:46:56.528+02:00,2022-06-02T10:17:13.754+02:00,448,1.423373,0,0,345.1212,0,0,2022-06-02T10:46:56.527+02:00,675852416.5274439,0,6.703125,101.3023,1,0.81
2022-06-02T10:46:56.640+02:00,1654159607.99977,53.2290892146608,10.39854600557297,36.85167,0.0979749,0.8212841,33.42964030767001,121.7631351360658,2.400000095367432,7.999579855010836,-9999,2760.9183605,-0.0873565673828125,-0.044708251953125,-1.00823974609375,2760.9083665,0.1700891634002352,-0.08013292437402626,0.1053838322960376,0.02592866867780685,0.003086869837716222,0.04108059033751488,-0.001604147255420685,0.04816675186157227,-0.03676921129226685,XArbitraryZVertical,0.0558327716631661,-0.03538548385088802,0.08265412367224871,0.9943836609930299,-0.07960311323404312,-0.1051888763904572,-0.9912611246109009,0,0,0,-1,-1,2760.8060365,unknown,2,2022-06-02T10:46:56.528+02:00,2022-06-02T10:17:13.754+02:00,448,1.423373,0,0,345.1212,0,0,2022-06-02T10:46:56.527+02:00,675852416.5274439,0,6.703125,101.3023,1,0.81
2022-06-02T10:46:56.650+02:00,1654159607.99977,53.2290892146608,10.39854600557297,36.85167,0.0979749,0.8212841,33.42964030767001,121.7631351360658,2.400000095367432,7.999579855010836,-9999,2760.9283545,-0.0767822265625,-0.0776824951171875,-1.0040283203125,2760.9183605,0.1705732958692197,-0.08007287057070861,0.1061290157879956,0.08949113637208939,0.006027000024914742,0.04281457513570786,-0.01053532958030701,0.07545806467533112,-0.02985435724258423,XArbitraryZVertical,0.05620920018441924,-0.03530965541508933,0.08287998928841978,0.9943463610541067,-0.0795372873544693,-0.105929896235466,-0.9911875128746033,0,0,0,-1,-1,2760.8060365,unknown,2,2022-06-02T10:46:56.528+02:00,2022-06-02T10:17:13.754+02:00,448,1.423373,0,0,345.1212,0,0,2022-06-02T10:46:56.527+02:00,675852416.5274439,0,6.703125,101.3023,1,0.81
2022-06-02T10:46:56.660+02:00,1654159607.99977,53.2290892146608,10.39854600557297,36.85167,0.0979749,0.8212841,33.42964030767001,121.7631351360658,2.400000095367432,7.999579855010836,-9999,2760.9383495,-0.07818603515625,-0.11798095703125,-1.01043701171875,2760.9283545,0.1710849703530664,-0.08010617237882037,0.1069442224777641,0.09659218788146973,0.01135065872222185,0.04321112111210823,-0.007793188095092773,0.06203220039606094,-0.01714128255844116,XArbitraryZVertical,0.05662475328046682,-0.03527621673264665,0.08311534965078295,0.9943043278099092,-0.07956336438655853,-0.1067404821515083,-0.9910984635353088,0,0,0,-1,-1,2760.8060365,unknown,2,2022-06-02T10:46:56.528+02:00,2022-06-02T10:17:13.754+02:00,448,1.423373,0,0,345.1212,0,0,2022-06-02T10:46:56.527+02:00,675852416.5274439,0,6.703125,101.3023,1,0.81
2022-06-02T10:46:56.670+02:00,1654159607.99977,53.2290892146608,10.39854600557297,36.85167,0.0979749,0.8212841,33.42964030767001,121.7631351360658,2.400000095367432,7.999579855010836,-9999,2760.9483435,-0.0837554931640625,-0.137481689453125,-1.008682250976562,2760.9383495,0.1716047665150983,-0.08023722484525025,0.1073225882686466,0.0651746392250061,0.02220363914966583,0.04188240319490433,0.002907790243625641,0.02943415194749832,-0.01298063993453979,XArbitraryZVertical,0.05682741521923353,-0.03531007041025463,0.08336163994794275,0.9942709090435282,-0.07969000190496445,-0.1071166843175888,-0.9910476803779602,0,0,0,-1,-1,2760.8060365,unknown,2,2022-06-02T10:46:56.528+02:00,2022-06-02T10:17:13.754+02:00,448,1.423373,0,0,345.1212,0,0,2022-06-02T10:46:56.527+02:00,675852416.5274439,0,6.703125,101.3023,1,0.81
2022-06-02T10:46:56.681+02:00,1654159607.99977,53.2290892146608,10.39854600557297,36.85167,0.0979749,0.8212841,33.42964030767001,121.7631351360658,2.400000095367432,7.999579855010836,-9999,2760.9583385,-0.089202880859375,-0.1476287841796875,-1.01116943359375,2760.9483435,0.1721554895949231,-0.08026390384865481,0.1072967041509727,0.01010899338871241,0.02145342715084553,0.05666560679674149,0.001530639827251434,-0.01089005172252655,-0.01938867568969727,XArbitraryZVertical,0.05682538542716228,-0.03530882023149336,0.08363523444022079,0.9942481486333434,-0.07971666753292084,-0.1070909425616264,-0.9910483360290527,0,0,0,-1,-1,2760.8060365,unknown,2,2022-06-02T10:46:56.528+02:00,2022-06-02T10:17:13.754+02:00,448,1.423373,0,0,345.1212,0,0,2022-06-02T10:46:56.527+02:00,675852416.5274439,0,6.703125,101.3023,1,0.81
2022-06-02T10:46:56.690+02:00,1654159607.99977,53.2290892146608,10.39854600557297,36.85167,0.0979749,0.8212841,33.42964030767001,121.7631351360658,2.400000095367432,7.999579855010836,-9999,2760.9683325,-0.08837890625,-0.1636505126953125,-0.97515869140625,2760.9583385,0.1726795785541789,-0.07983782347494578,0.1070290947700529,-0.03752117604017258,0.03315842151641846,0.05239110440015793,-0.004458807408809662,-0.03065685927867889,-0.01757150888442993,XArbitraryZVertical,0.05668377925851324,-0.03509391563269588,0.08391380729552241,0.9942403361819688,-0.07929667830467224,-0.1068248748779297,-0.9911107420921326,0,0,0,-1,-1,2760.8060365,unknown,2,2022-06-02T10:46:56.528+02:00,2022-06-02T10:17:13.754+02:00,448,1.423373,0,0,345.1212,0,0,2022-06-02T10:46:56.527+02:00,675852416.5274439,0,6.703125,101.3023,1,0.81
2022-06-02T10:46:56.700+02:00,1654159607.99977,53.2290892146608,10.39854600557297,36.85167,0.0979749,0.8212841,33.42964030767001,121.7631351360658,2.400000095367432,7.999579855010836,-9999,2760.9783275,-0.0845184326171875,-0.1731414794921875,-0.9300689697265625,2760.9683325,0.1730420345384066,-0.07926456539361368,0.1062909200647404,-0.08451905101537704,0.03276081010699272,0.03326001763343811,-0.01046814769506454,-0.04153792560100555,-0.01993507146835327,XArbitraryZVertical,0.05629920848736602,-0.03483126921430755,0.08412648870509953,0.9942533767945605,-0.07873472571372986,-0.1060908883810043,-0.9912343621253967,0,0,0,-1,-1,2760.8060365,unknown,2,2022-06-02T10:46:56.528+02:00,2022-06-02T10:17:13.754+02:00,448,1.423373,0,0,345.1212,0,0,2022-06-02T10:46:56.527+02:00,675852416.5274439,0,6.703125,101.3023,1,0.81
2022-06-02T10:46:56.710+02:00,1654159607.99977,53.2290892146608,10.39854600557297,36.85167,0.0979749,0.8212841,33.42964030767001,121.7631351360658,2.400000095367432,7.999579855010836,-9999,2760.9883215,-0.0822601318359375,-0.1311492919921875,-0.9185333251953125,2760.9783275,0.1731535858713917,-0.07877983095109317,0.1048790314187725,-0.1169568076729774,0.02968845330178738,0.01225393544882536,-0.0101129561662674,-0.05896367877721786,0.01626205444335938,XArbitraryZVertical,0.05557909259105189,-0.03464952381418795,0.08422645602107813,0.9942918617669591,-0.07826594263315201,-0.104686863720417,-0.9914207458496094,0,0,0,-1,-1,2760.8060365,unknown,2,2022-06-02T10:46:56.528+02:00,2022-06-02T10:17:13.754+02:00,448,1.423373,0,0,345.1212,0,0,2022-06-02T10:46:56.527+02:00,675852416.5274439,0,6.703125,101.3023,1,0.81
2022-06-02T10:46:56.720+02:00,1654159607.99977,53.2290892146608,10.39854600557297,36.85167,0.0979749,0.8212841,33.42964030767001,121.7631351360658,2.400000095367432,7.999579855010836,-9999,2760.9983155,-0.0845794677734375,-0.0962982177734375,-0.9343414306640625,2760.9883215,0.1731812902506656,-0.07858688802489591,0.1028582814049226,-0.1147423908114433,0.0164251122623682,0.01078200619667768,-0.00642731785774231,-0.07046449929475784,0.06157577037811279,XArbitraryZVertical,0.05456717316283877,-0.03464208273192313,0.08428961950138338,0.9943427203979877,-0.078091099858284,-0.102677009999752,-0.9916446805000305,0,0,0,-1,-1,2760.8060365,unknown,2,2022-06-02T10:46:56.528+02:00,2022-06-02T10:17:13.754+02:00,448,1.423373,0,0,345.1212,0,0,2022-06-02T10:46:56.527+02:00,675852416.5274439,0,6.703125,101.3023,1,0.81
2022-06-02T10:46:56.730+02:00,1654159607.99977,53.2290892146608,10.39854600557297,36.85167,0.0979749,0.8212841,33.42964030767001,121.7631351360658,2.400000095367432,7.999579855010836,-9999,2761.0083105,-0.084564208984375,-0.059906005859375,-0.972869873046875,2760.9983155,0.1732402216740472,-0.07870221133660565,0.1008893281721785,-0.05752051621675491,-0.004983240272849798,0.0102720120921731,-0.004038907587528229,-0.03043105453252792,0.07330203056335449,XArbitraryZVertical,0.05359447029525777,-0.03478476691567953,0.08435863883711225,0.994384801993529,-0.07822120189666748,-0.1007182598114014,-0.9918352961540222,0,0,0,-1,-1,2760.8060365,unknown,2,2022-06-02T10:46:56.528+02:00,2022-06-02T10:17:13.754+02:00,448,1.423373,0,0,345.1212,0,0,2022-06-02T10:46:56.527+02:00,675852416.5274439,0,6.703125,101.3023,1,0.81
2022-06-02T10:46:56.740+02:00,1654159607.99977,53.2290892146608,10.39854600557297,36.85167,0.0979749,0.8212841,33.42964030767001,121.7631351360658,2.400000095367432,7.999579855010836,-9999,2761.0183045,-0.0872650146484375,-0.0377655029296875,-0.975982666015625,2761.0083105,0.1734449506698854,-0.07906092761927273,0.09998974348572531,0.04046569764614105,-0.03350569680333138,0.0290539525449276,-0.00599534809589386,0.003524959087371826,0.0575556755065918,XArbitraryZVertical,0.0531660657688944,-0.03499739604837467,0.08447045089179273,0.9943908909421759,-0.07858410477638245,-0.09982321411371231,-0.9918971061706543,0,0,0,-1,-1,2760.8060365,unknown,2,2022-06-02T10:46:56.528+02:00,2022-06-02T10:17:13.754+02:00,448,1.423373,0,0,345.1212,0,0,2022-06-02T10:46:56.527+02:00,675852416.5274439,0,6.703125,101.3023,1,0.81
2022-06-02T10:46:56.750+02:00,1654159607.99977,53.2290892146608,10.39854600557297,36.85167,0.0979749,0.8212841,33.42964030767001,121.7631351360658,2.400000095367432,7.999579855010836,-9999,2761.0282995,-0.0804595947265625,-0.064300537109375,-0.9761199951171875,2761.0183045,0.1737790413824518,-0.07945885758793729,0.100353713535341,0.1009716242551804,-0.04452432319521904,0.02610430493950844,-0.005588270723819733,0.0402793288230896,0.018959641456604,XArbitraryZVertical,0.05336964547179353,-0.03517023839242141,0.08461799346418487,0.9943613631101302,-0.07897591590881348,-0.1001853570342064,-0.9918294548988342,0,0,0,-1,-1,2760.8060365,unknown,2,2022-06-02T10:46:56.528+02:00,2022-06-02T10:17:13.754+02:00,448,1.423373,0,0,345.1212,0,0,2022-06-02T10:46:56.527+02:00,675852416.5274439,0,6.703125,101.3023,1,0.81
2022-06-02T10:46:56.760+02:00,1654159607.99977,53.2290892146608,10.39854600557297,36.85167,0.0979749,0.8212841,33.42964030767001,121.7631351360658,2.400000095367432,7.999579855010836,-9999,2761.0382935,-0.075714111328125,-0.1083526611328125,-0.9686279296875,2761.0282995,0.1741009113278501,-0.07995161604442436,0.1014845472541616,0.07398554682731628,-0.05282299965620041,0.02369068190455437,-0.007809460163116455,0.06354489922523499,0.01569420099258423,XArbitraryZVertical,0.05395820265215296,-0.03535644376166894,0.08473990839968908,0.9943125894908076,-0.07945553958415985,-0.1013104394078255,-0.9916768670082092,0,0,0,-1,-1,2760.8060365,unknown,2,2022-06-02T10:46:56.528+02:00,2022-06-02T10:17:13.754+02:00,448,1.423373,0,0,345.1212,0,0,2022-06-02T10:46:56.527+02:00,675852416.5274439,0,6.703125,101.3023,1,0.81
2022-06-02T10:46:56.770+02:00,1654159607.99977,53.2290892146608,10.39854600557297,36.85167,0.0979749,0.8212841,33.42964030767001,121.7631351360658,2.400000095367432,7.999579855010836,-9999,2761.0482885,-0.07354736328125,-0.11767578125,-0.9596099853515625,2761.0382935,0.1743450894021068,-0.08054486132857742,0.1021291498977569,-0.02925582230091095,-0.0576929897069931,0.01937809400260448,-0.0004210174083709717,0.03765112906694412,0.01544427871704102,XArbitraryZVertical,0.05430803478083361,-0.03561612888401013,0.08483095836363236,0.9942764722140903,-0.08003856241703033,-0.1019517034292221,-0.9915642738342285,0,0,0,-1,-1,2760.8060365,unknown,2,2022-06-02T10:46:56.528+02:00,2022-06-02T10:17:13.754+02:00,448,1.423373,0,0,345.1212,0,0,2022-06-02T10:46:56.527+02:00,675852416.5274439,0,6.703125,101.3023,1,0.81
2022-06-02T10:46:56.780+02:00,1654159607.99977,53.2290892146608,10.39854600557297,36.85167,0.0979749,0.8212841,33.42964030767001,121.7631351360658,2.400000095367432,7.999579855010836,-9999,2761.0582825,-0.074615478515625,-0.1115264892578125,-0.948150634765625,2761.0482885,0.1744076876806019,-0.08122964995474952,0.1017382655743023,-0.1536688655614853,-0.06767052412033081,0.006585331633687019,0.005006693303585052,-0.006789848208427429,0.02292096614837646,XArbitraryZVertical,0.05414394971224588,-0.03597224828546577,0.08485223757431472,0.9942708144065208,-0.08072078227996826,-0.1015628427267075,-0.9915488362312317,0,0,0,-1,-1,2760.8060365,unknown,2,2022-06-02T10:46:56.528+02:00,2022-06-02T10:17:13.754+02:00,448,1.423373,0,0,345.1212,0,0,2022-06-02T10:46:56.527+02:00,675852416.5274439,0,6.703125,101.3023,1,0.81
2022-06-02T10:46:56.790+02:00,1654159607.99977,53.2290892146608,10.39854600557297,36.85167,0.0979749,0.8212841,33.42964030767001,121.7631351360658,2.400000095367432,7.999579855010836,-9999,2761.0682765,-0.08343505859375,-0.1264190673828125,-0.92236328125,2761.0582825,0.1741947738296496,-0.08201654697881186,0.1003838525532755,-0.2750205993652344,-0.0797504186630249,-0.014081796631217,0.007964856922626495,-0.01746046543121338,0.03201127052307129,XArbitraryZVertical,0.0535003699111983,-0.036429388316035,0.08475567889625969,0.9942972303325813,-0.0815121978521347,-0.100215345621109,-0.991621196269989,0,0,0,-1,-1,2760.8060365,unknown,2,2022-06-02T10:46:56.528+02:00,2022-06-02T10:17:13.754+02:00,448,1.423373,0,0,345.1212,0,0,2022-06-02T10:46:56.527+02:00,675852416.5274439,0,6.703125,101.3023,1,0.81
2022-06-02T10:46:56.800+02:00,1654159607.99977,53.2290892146608,10.39854600557297,36.85167,0.0979749,0.8212841,33.42964030767001,121.7631351360658,2.400000095367432,7.999579855010836,-9999,2761.0782715,-0.0799560546875,-0.150421142578125,-0.880645751953125,2761.0682765,0.1736622613618674,-0.08292058491884084,0.09805323754397113,-0.415963888168335,-0.09803275763988495,-0.03711414709687233,0.007812291383743286,-0.01363032311201096,0.04362660646438599,XArbitraryZVertical,0.05237057149057117,-0.03699631335164352,0.08451981912641511,0.9943564906840895,-0.0824277475476265,-0.09789618849754333,-0.9917771816253662,0,0,0,-1,-1,2760.8060365,unknown,2,2022-06-02T10:46:56.528+02:00,2022-06-02T10:17:13.754+02:00,448,1.423373,0,0,345.1212,0,0,2022-06-02T10:46:56.527+02:00,675852416.5274439,0,6.703125,101.3023,1,0.81
2022-06-02T10:46:56.810+02:00,1654159607.99977,53.2290892146608,10.39854600557297,36.85167,0.0979749,0.8212841,33.42964030767001,121.7631351360658,2.400000095367432,7.999579855010836,-9999,2761.0882655,-0.0764007568359375,-0.1864776611328125,-0.824554443359375,2761.0782715,0.1726576482223968,-0.08402487402622667,0.0935864818295352,-0.6376177072525024,-0.1291501224040985,-0.07918816059827805,0.000123731791973114,-0.0329691618680954,0.0697481632232666,XArbitraryZVertical,0.05017820567205691,-0.03776831133414674,0.08409397712788912,0.9944766214346252,-0.08355877548456192,-0.09344992786645889,-0.9921113848686218,0,0,0,-1,-1,2760.8060365,unknown,2,2022-06-02T10:46:56.528+02:00,2022-06-02T10:17:13.754+02:00,448,1.423373,0,0,345.1212,0,0,2022-06-02T10:46:56.527+02:00,675852416.5274439,0,6.703125,101.3023,1,0.81
2022-06-02T10:46:56.820+02:00,1654159607.99977,53.2290892146608,10.39854600557297,36.85167,0.0979749,0.8212841,33.42964030767001,121.7631351360658,2.400000095367432,7.999579855010836,-9999,2761.0982605,-0.0964202880859375,-0.2578125,-0.7743988037109375,2761.0882655,0.1708612464652973,-0.08549441901729883,0.08588531367106221,-0.972395122051239,-0.1804718971252441,-0.1495715081691742,0.005119524896144867,-0.06464141607284546,0.1120294332504272,XArbitraryZVertical,0.04637682985907959,-0.03887940316641962,0.08334233839096949,0.9946816960945263,-0.08507556468248367,-0.08577976375818253,-0.9926751852035522,0,0,0,-1,-1,2760.8060365,unknown,2,2022-06-02T10:46:56.528+02:00,2022-06-02T10:17:13.754+02:00,448,1.423373,0,0,345.1212,0,0,2022-06-02T10:46:56.527+02:00,675852416.5274439,0,6.703125,101.3023,1,0.81
2022-06-02T10:46:56.830+02:00,1654159607.99977,53.2290892146608,10.39854600557297,36.85167,0.0979749,0.8212841,33.42964030767001,121.7631351360658,2.400000095367432,7.999579855010836,-9999,2761.1082545,-0.123016357421875,-0.2871246337890625,-0.742279052734375,2761.0982605,0.1678218836720784,-0.08726501659347977,0.07395645996641634,-1.414851903915405,-0.2223039716482162,-0.2347844839096069,0.01051531732082367,-0.1125886365771294,0.1689172387123108,XArbitraryZVertical,0.04045795570168693,-0.04033989873496989,0.08206859845632779,0.9949877189332652,-0.08691606670618057,-0.07388906180858612,-0.9934716820716858,0,0,0,-1,-1,2760.8060365,unknown,2,2022-06-02T10:46:56.528+02:00,2022-06-02T10:17:13.754+02:00,448,1.423373,0,0,345.1212,0,0,2022-06-02T10:46:56.527+02:00,675852416.5274439,0,6.703125,101.3023,1,0.81
2022-06-02T10:46:56.840+02:00,1654159607.99977,53.2290892146608,10.39854600557297,36.85167,0.0979749,0.8212841,33.42964030767001,121.7631351360658,2.400000095367432,7.999579855010836,-9999,2761.1182495,-0.171173095703125,-0.3148193359375,-0.693603515625,2761.1082545,0.1636126596131396,-0.08939679714883636,0.05766133872128693,-1.911234974861145,-0.256554901599884,-0.3278337419033051,-0.007290877401828766,-0.2001831531524658,0.2199526429176331,XArbitraryZVertical,0.0323513750404372,-0.04216235109909597,0.08031580041106401,0.9953517825080636,-0.08912939578294754,-0.05762939155101776,-0.9943514466285706,0,0,0,-1,-1,2760.8060365,unknown,2,2022-06-02T10:46:56.528+02:00,2022-06-02T10:17:13.754+02:00,448,1.423373,0,0,345.1212,0,0,2022-06-02T10:46:56.527+02:00,675852416.5274439,0,6.703125,101.3023,1,0.81
2022-06-02T10:46:56.850+02:00,1654159607.99977,53.2290892146608,10.39854600557297,36.85167,0.0979749,0.8212841,33.42964030767001,121.7631351360658,2.400000095367432,7.999579855010836,-9999,2761.1282435,-0.219207763671875,-0.34539794921875,-0.654083251953125,2761.1182495,0.1575699366451885,-0.09186998528516344,0.03649426829530424,-2.418542623519897,-0.2940391600131989,-0.5006126761436462,-0.03133662045001984,-0.2506385147571564,0.2528408169746399,XArbitraryZVertical,0.02178370779657883,-0.04433426384547314,0.07777214066510152,0.9957466778517307,-0.09167972207069397,-0.03648616746068001,-0.9951198697090149,0,0,0,-1,-1,2760.8060365,unknown,2,2022-06-02T10:46:56.528+02:00,2022-06-02T10:17:13.754+02:00,448,1.423373,0,0,345.1212,0,0,2022-06-02T10:46:56.527+02:00,675852416.5274439,0,6.703125,101.3023,1,0.81
2022-06-02T10:46:56.860+02:00,1654159607.99977,53.2290892146608,10.39854600557297,36.85167,0.0979749,0.8212841,33.42964030767001,121.7631351360658,2.400000095367432,7.999579855010836,-9999,2761.1382385,-0.2661285400390625,-0.3112945556640625,-0.66510009765625,2761.1282435,0.1491095856160787,-0.09473995775404295,0.01064205391806697,-2.882966995239258,-0.3187394440174103,-0.7007737159729004,-0.07658014446496964,-0.3041775226593018,0.3018556237220764,XArbitraryZVertical,0.008827286967925034,-0.04682416133615878,0.07414987472924783,0.9961081192454629,-0.09459293633699417,-0.01064185332506895,-0.9954591393470764,0,0,0,-1,-1,2760.8060365,unknown,2,2022-06-02T10:46:56.528+02:00,2022-06-02T10:17:13.754+02:00,448,1.423373,0,0,345.1212,0,0,2022-06-02T10:46:56.527+02:00,675852416.5274439,0,6.703125,101.3023,1,0.81
2022-06-02T10:46:56.870+02:00,1654159607.99977,53.2290892146608,10.39854600557297,36.85167,0.0979749,0.8212841,33.42964030767001,121.7631351360658,2.400000095367432,7.999579855010836,-9999,2761.1482325,-0.3140106201171875,-0.24761962890625,-0.703857421875,2761.1382385,0.1382645299436036,-0.09805745498187758,-0.01924015665346526,-3.269936561584473,-0.3295878767967224,-0.8793817758560181,-0.1213254779577255,-0.3646369576454163,0.3409287929534912,XArbitraryZVertical,-0.006200164187681452,-0.04955347964137337,0.06946135222914709,0.9963337928791571,-0.09788227081298828,0.01923896931111813,-0.9950120449066162,0,0,0,-1,-1,2760.8060365,unknown,2,2022-06-02T10:46:56.528+02:00,2022-06-02T10:17:13.754+02:00,448,1.423373,0,0,345.1212,0,0,2022-06-02T10:46:56.527+02:00,675852416.5274439,0,6.703125,101.3023,1,0.81
2022-06-02T10:46:56.880+02:00,1654159607.99977,53.2290892146608,10.39854600557297,36.85167,0.0979749,0.8212841,33.42964030767001,121.7631351360658,2.400000095367432,7.999579855010836,-9999,2761.1582265,-0.3665313720703125,-0.2025299072265625,-0.7324066162109375,2761.1482325,0.1252295729391523,-0.1019110990203822,-0.05248945273222753,-3.605638265609741,-0.3418272435665131,-1.050302624702454,-0.1645338535308838,-0.3637599647045135,0.3283413648605347,XArbitraryZVertical,-0.02297028619652304,-0.05245609967573441,0.06380510638179042,0.9963180032975825,-0.1015946716070175,0.05246535316109657,-0.9934414625167847,0,0,0,-1,-1,2760.8060365,unknown,2,2022-06-02T10:46:56.528+02:00,2022-06-02T10:17:13.754+02:00,448,1.423373,0,0,345.1212,0,0,2022-06-02T10:46:56.527+02:00,675852416.5274439,0,6.703125,101.3023,1,0.81
2022-06-02T10:46:56.890+02:00,1654159607.99977,53.2290892146608,10.39854600557297,36.85167,0.0979749,0.8212841,33.42964030767001,121.7631351360658,2.400000095367432,7.999579855010836,-9999,2761.1682215,-0.4159088134765625,-0.1579437255859375,-0.731658935546875,2761.1582265,0.109916968216505,-0.1064138592689569,-0.08842313167559883,-3.853150606155396,-0.3350566923618317,-1.243419647216797,-0.2082124203443527,-0.3359276354312897,0.2866013050079346,XArbitraryZVertical,-0.04114951585669748,-0.05547399516957405,0.05714642350202639,0.9959736978716214,-0.1057981848716736,0.08830795437097549,-0.9904587268829346,0,0,0,-1,-1,2760.8060365,unknown,2,2022-06-02T10:46:56.528+02:00,2022-06-02T10:17:13.754+02:00,448,1.423373,0,0,345.1212,0,0,2022-06-02T10:46:56.527+02:00,675852416.5274439,0,6.703125,101.3023,1,0.81
2022-06-02T10:46:56.900+02:00,1654159607.99977,53.2290892146608,10.39854600557297,36.85167,0.0979749,0.8212841,33.42964030767001,121.7631351360658,2.400000095367432,7.999579855010836,-9999,2761.1782155,-0.451324462890625,-0.131500244140625,-0.6853485107421875,2761.1682215,0.0921178214292732,-0.1116598495036274,-0.1262640111979827,-4.064132690429688,-0.3317951261997223,-1.455035209655762,-0.2559904456138611,-0.3284587264060974,0.2534547448158264,XArbitraryZVertical,-0.06036087368002321,-0.05853101215646119,0.04939606243142178,0.9952339324223068,-0.1105409190058708,0.1259287893772125,-0.9858613610267639,0,0,0,-1,-1,2760.8060365,unknown,2,2022-06-02T10:46:56.528+02:00,2022-06-02T10:17:13.754+02:00,448,1.423373,0,0,345.1212,0,0,2022-06-02T10:46:56.527+02:00,675852416.5274439,0,6.703125,101.3023,1,0.81
2022-06-02T10:46:56.910+02:00,1654159607.99977,53.2290892146608,10.39854600557297,36.85167,0.0979749,0.8212841,33.42964030767001,121.7631351360658,2.400000095367432,7.999579855010836,-9999,2761.1882105,-0.470977783203125,-0.1367950439453125,-0.63323974609375,2761.1782155,0.07149848018241556,-0.1180575124763847,-0.166094098679356,-4.337687492370605,-0.3427181541919708,-1.687400221824646,-0.2997462749481201,-0.3232752680778503,0.2477142214775085,XArbitraryZVertical,-0.08065295361842559,-0.06171326729875567,0.04044697508930632,0.9940072515764059,-0.1161625310778618,0.1653314679861069,-0.9793731570243835,0,0,0,-1,-1,2760.8060365,unknown,2,2022-06-02T10:46:56.528+02:00,2022-06-02T10:17:13.754+02:00,448,1.423373,0,0,345.1212,0,0,2022-06-02T10:46:56.527+02:00,675852416.5274439,0,6.703125,101.3023,1,0.81
2022-06-02T10:46:56.920+02:00,1654159607.99977,53.2290892146608,10.39854600557297,36.85167,0.0979749,0.8212841,33.42964030767001,121.7631351360658,2.400000095367432,7.999579855010836,-9999,2761.1982045,-0.5096282958984375,-0.13018798828125,-0.6074981689453125,2761.1882105,0.04781251498158966,-0.1259649129250069,-0.2085873037491314,-4.671331882476807,-0.344163179397583,-1.894043922424316,-0.3284155428409576,-0.3385783433914185,0.2852245569229126,XArbitraryZVertical,-0.1023722298901862,-0.06506452622613698,0.03027752200514621,0.992154057087461,-0.1229089125990868,0.2070780247449875,-0.9705730676651001,0,0,0,-1,-1,2760.8060365,unknown,2,2022-06-02T10:46:56.528+02:00,2022-06-02T10:17:13.754+02:00,448,1.423373,0,0,345.1212,0,0,2022-06-02T10:46:56.527+02:00,675852416.5274439,0,6.703125,101.3023,1,0.81
2022-06-02T10:46:56.931+02:00,1654159607.99977,53.2290892146608,10.39854600557297,36.85167,0.0979749,0.8212841,33.42964030767001,121.7631351360658,2.400000095367432,7.999579855010836,-9999,2761.2081995,-0.57049560546875,-0.1291351318359375,-0.5807342529296875,2761.1982045,0.0211943221200204,-0.1351547550772395,-0.2536676634410158,-4.943150520324707,-0.2664848864078522,-2.070274829864502,-0.3405461013317108,-0.387751042842865,0.3259310722351074,XArbitraryZVertical,-0.1254884214960178,-0.06831717813089568,0.01902900097311374,0.9895570989264493,-0.1304316520690918,0.2509559392929077,-0.9591708183288574,0,0,0,-1,-1,2760.8060365,unknown,2,2022-06-02T10:46:56.528+02:00,2022-06-02T10:17:13.754+02:00,448,1.423373,0,0,345.1212,0,0,2022-06-02T10:46:56.527+02:00,675852416.5274439,0,6.703125,101.3023,1,0.81
2022-06-02T10:46:56.940+02:00,1654159607.99977,53.2290892146608,10.39854600557297,36.85167,0.0979749,0.8212841,33.42964030767001,121.7631351360658,2.400000095367432,7.999579855010836,-9999,2761.2181935,-0.6150970458984375,-0.166015625,-0.55877685546875,2761.2081995,-0.008520020507412386,-0.1456936911642629,-0.3009874440387666,-5.243598937988281,-0.2118083238601685,-2.267508745193481,-0.3709760904312134,-0.4266514480113983,0.3374277353286743,XArbitraryZVertical,-0.1498338576211681,-0.07132214294343873,0.006711224895663084,0.9861125201116773,-0.1386521756649017,0.2964634001255035,-0.9449259042739868,0,0,0,-1,-1,2760.8060365,unknown,2,2022-06-02T10:46:56.528+02:00,2022-06-02T10:17:13.754+02:00,448,1.423373,0,0,345.1212,0,0,2022-06-02T10:46:56.527+02:00,675852416.5274439,0,6.703125,101.3023,1,0.81
2022-06-02T10:46:56.950+02:00,1654159607.99977,53.2290892146608,10.39854600557297,36.85167,0.0979749,0.8212841,33.42964030767001,121.7631351360658,2.400000095367432,7.999579855010836,-9999,2761.2281875,-0.6636199951171875,-0.1587371826171875,-0.62060546875,2761.2181935,-0.04183378807465491,-0.1583384467396615,-0.3508663674147396,-5.583943367004395,-0.1789064407348633,-2.458603382110596,-0.4224243760108948,-0.4728467464447021,0.3465937972068787,XArbitraryZVertical,-0.175578683637849,-0.07421659360786527,-0.006729505825093959,0.9816408103477541,-0.1480711847543716,0.3437115252017975,-0.9273280501365662,0,0,0,-1,-1,2760.8060365,unknown,2,2022-06-02T10:46:56.528+02:00,2022-06-02T10:17:13.754+02:00,448,1.423373,0,0,345.1212,0,0,2022-06-02T10:46:56.527+02:00,675852416.5274439,0,6.703125,101.3023,1,0.81
2022-06-02T10:46:56.960+02:00,1654159607.99977,53.2290892146608,10.39854600557297,36.85167,0.0979749,0.8212841,33.42964030767001,121.7631351360658,2.400000095367432,7.999579855010836,-9999,2761.2381825,-0.725433349609375,-0.03253173828125,-0.6558685302734375,2761.2281875,-0.07884710528966704,-0.1730962841497555,-0.4030907833893297,-5.856770992279053,-0.0353199727833271,-2.595369100570679,-0.4566678106784821,-0.5582789778709412,0.3473299741744995,XArbitraryZVertical,-0.2026173833303812,-0.07676426714100518,-0.02118055608780453,0.9760147204139888,-0.1584292054176331,0.392263263463974,-0.9061068892478943,0,0,0,-1,-1,2760.8060365,unknown,2,2022-06-02T10:46:56.528+02:00,2022-06-02T10:17:13.754+02:00,448,1.423373,0,0,345.1212,0,0,2022-06-02T10:46:56.527+02:00,675852416.5274439,0,6.703125,101.3023,1,0.81
2022-06-02T10:46:56.970+02:00,1654159607.99977,53.2290892146608,10.39854600557297,36.85167,0.0979749,0.8212841,33.42964030767001,121.7631351360658,2.400000095367432,7.999579855010836,-9999,2761.2481765,-0.787445068359375,0.093414306640625,-0.652984619140625,2761.2381825,-0.1192054321098795,-0.1892766814925599,-0.4574806013220161,-6.182266712188721,0.1704225242137909,-2.654924392700195,-0.4948191046714783,-0.6004264354705811,0.260539710521698,XArbitraryZVertical,-0.2308176411650597,-0.0784258003353718,-0.03636700105901006,0.9691490801892195,-0.168800875544548,0.4416891932487488,-0.8811452388763428,0,0,0,-1,-1,2760.8060365,unknown,2,2022-06-02T10:46:56.528+02:00,2022-06-02T10:17:13.754+02:00,448,1.423373,0,0,345.1212,0,0,2022-06-02T10:46:56.527+02:00,675852416.5274439,0,6.703125,101.3023,1,0.81
2022-06-02T10:46:56.980+02:00,1654159607.99977,53.2290892146608,10.39854600557297,36.85167,0.0979749,0.8212841,33.42964030767001,121.7631351360658,2.400000095367432,7.999579855010836,-9999,2761.2581715,-0.862884521484375,0.207122802734375,-0.69317626953125,2761.2481765,-0.1630113930718741,-0.2068935182347006,-0.5141627654475291,-6.440792560577393,0.4091525673866272,-2.71246600151062,-0.5465725660324097,-0.5243378877639771,0.1962673664093018,XArbitraryZVertical,-0.2601910057441003,-0.07894726914547355,-0.05215071295706232,0.9609101372916641,-0.1788607537746429,0.4918060302734375,-0.852135956287384,0,0,0,-1,-1,2760.8060365,unknown,2,2022-06-02T10:46:56.528+02:00,2022-06-02T10:17:13.754+02:00,448,1.423373,0,0,345.1212,0,0,2022-06-02T10:46:56.527+02:00,675852416.5274439,0,6.703125,101.3023,1,0.81
2022-06-02T10:46:56.990+02:00,1654159607.99977,53.2290892146608,10.39854600557297,36.85167,0.0979749,0.8212841,33.42964030767001,121.7631351360658,2.400000095367432,7.999579855010836,-9999,2761.2681655,-0.9404296875,0.30474853515625,-0.7978973388671875,2761.2581715,-0.2108245802058835,-0.2259653815985293,-0.5713300626998483,-6.445389270782471,0.7410932779312134,-2.846626758575439,-0.5989803671836853,-0.4473371505737305,0.1668134927749634,XArbitraryZVertical,-0.2898264839464442,-0.07811238404721257,-0.06871556049218999,0.9514079202810507,-0.1884646564722061,0.5407513380050659,-0.8197981119155884,0,0,0,-1,-1,2760.8060365,unknown,2,2022-06-02T10:46:56.528+02:00,2022-06-02T10:17:13.754+02:00,448,1.423373,0,0,345.1212,0,0,2022-06-02T10:46:56.527+02:00,675852416.5274439,0,6.703125,101.3023,1,0.81
2022-06-02T10:46:57.000+02:00,1654159607.99977,53.2290892146608,10.39854600557297,36.85167,0.0979749,0.8212841,33.42964030767001,121.7631351360658,2.400000095367432,7.999579855010836,-9999,2761.2781605,-0.9361724853515625,0.4316253662109375,-0.776947021484375,2761.2681655,-0.2634720612013882,-0.2464667000753211,-0.6255461794817988,-6.133550643920898,1.08435320854187,-3.06679368019104,-0.6651045680046082,-0.378417432308197,0.09296989440917969,XArbitraryZVertical,-0.3180820849822591,-0.07583329352832416,-0.08653959005857498,0.9410546987688586,-0.1977799385786057,0.5855401158332825,-0.7861462235450745,0,0,0,-1,-1,2760.8060365,unknown,2,2022-06-02T10:46:56.528+02:00,2022-06-02T10:17:13.754+02:00,448,1.423373,0,0,345.1212,0,0,2022-06-02T10:46:56.527+02:00,675852416.5274439,0,6.703125,101.3023,1,0.81
2022-06-02T10:46:57.011+02:00,1654159607.99977,53.2290892146608,10.39854600557297,36.85167,0.0979749,0.8212841,33.42964030767001,121.7631351360658,2.400000095367432,7.999579855010836,-9999,2761.2881545,-0.8940277099609375,0.4733428955078125,-0.7392578125,2761.2781605,-0.3210340915248119,-0.2692574747964316,-0.6755306392409779,-5.872073173522949,1.326914668083191,-3.238769054412842,-0.7328375577926636,-0.3205630779266357,-0.04564011096954346,XArbitraryZVertical,-0.3443999957185362,-0.07252588020713187,-0.1055266060845517,0.9300498409126333,-0.2075920850038528,0.6253114938735962,-0.7522572875022888,0,0,0,-1,-1,2760.8060365,unknown,2,2022-06-02T10:46:56.528+02:00,2022-06-02T10:17:13.754+02:00,448,1.423373,0,0,345.1212,0,0,2022-06-02T10:46:56.527+02:00,675852416.5274439,0,6.703125,101.3023,1,0.81
2022-06-02T10:46:57.020+02:00,1654159607.99977,53.2290892146608,10.39854600557297,36.85167,0.0979749,0.8212841,33.42964030767001,121.7631351360658,2.400000095367432,7.999579855010836,-9999,2761.2981485,-0.86102294921875,0.544708251953125,-0.6386871337890625,2761.2881545,-0.3830364004258278,-0.2951722888301604,-0.7215149798950974,-5.641329288482666,1.47308623790741,-3.29730749130249,-0.7177594900131226,-0.2288976311683655,-0.05861198902130127,XArbitraryZVertical,-0.3689514197378373,-0.06860993612438181,-0.1252031409248461,0.9184179923836469,-0.2184129506349564,0.6605228781700134,-0.7183350324630737,0,0,0,-1,-1,2760.8060365,unknown,2,2022-06-02T10:46:56.528+02:00,2022-06-02T10:17:13.754+02:00,448,1.423373,0,0,345.1212,0,0,2022-06-02T10:46:56.527+02:00,675852416.5274439,0,6.703125,101.3023,1,0.81
2022-06-02T10:46:57.031+02:00,1654159607.99977,53.2290892146608,10.39854600557297,36.85167,0.0979749,0.8212841,33.42964030767001,121.7631351360658,2.400000095367432,7.999579855010836,-9999,2761.3081435,-0.8894195556640625,0.5459747314453125,-0.5878753662109375,2761.2981485,-0.4488344025165931,-0.3242671010245306,-0.7658446356136227,-5.800858497619629,1.650895833969116,-3.228538274765015,-0.6643714904785156,-0.2198032736778259,-0.05602538585662842,XArbitraryZVertical,-0.3928076113620467,-0.06392146860541402,-0.144913155235336,0.9058788062023542,-0.2296561896800995,0.6931460499763489,-0.6832324266433716,0,0,0,-1,-1,2760.8060365,unknown,2,2022-06-02T10:46:56.528+02:00,2022-06-02T10:17:13.754+02:00,448,1.423373,0,0,345.1212,0,0,2022-06-02T10:46:56.527+02:00,675852416.5274439,0,6.703125,101.3023,1,0.81
2022-06-02T10:46:57.041+02:00,1654159607.99977,53.2290892146608,10.39854600557297,36.85167,0.0979749,0.8212841,33.42964030767001,121.7631351360658,2.400000095367432,7.999579855010836,-9999,2761.3181375,-0.91839599609375,0.6360931396484375,-0.5693817138671875,2761.3081435,-0.520131639091721,-0.3568762409425212,-0.8114269295779432,-6.176645755767822,1.957825422286987,-3.200372695922852,-0.62050861120224,-0.1805621385574341,0.00639873743057251,XArbitraryZVertical,-0.4172829435294289,-0.05772322255764706,-0.1648218040541876,0.8918389851185723,-0.2405142933130264,0.7252703309059143,-0.6450859308242798,0,0,0,-1,-1,2760.8060365,unknown,2,2022-06-02T10:46:56.528+02:00,2022-06-02T10:17:13.754+02:00,448,1.423373,0,0,345.1212,0,0,2022-06-02T10:46:56.527+02:00,675852416.5274439,0,6.703125,101.3023,1,0.81
2022-06-02T10:46:57.050+02:00,1654159607.99977,53.2290892146608,10.39854600557297,36.85167,0.0979749,0.8212841,33.42964030767001,121.7631351360658,2.400000095367432,7.999579855010836,-9999,2761.3281325,-0.9290313720703125,0.8614501953125,-0.61993408203125,2761.3181375,-0.5986993461202003,-0.3936802178860907,-0.8595182473532603,-6.638341426849365,2.343924045562744,-3.063460826873779,-0.6390112638473511,-0.2115535140037537,0.01498997211456299,XArbitraryZVertical,-0.4428640823857264,-0.04938340678959068,-0.1850443189189419,0.8758944675072806,-0.250408262014389,0.7575281858444214,-0.6028653383255005,0,0,0,-1,-1,2760.8060365,unknown,2,2022-06-02T10:46:56.528+02:00,2022-06-02T10:17:13.754+02:00,448,1.423373,0,0,345.1212,0,0,2022-06-02T10:46:56.527+02:00,675852416.5274439,0,6.703125,101.3023,1,0.81
2022-06-02T10:46:57.084+02:00,1654159607.99977,53.2290892146608,10.39854600557297,36.85167,0.0979749,0.8212841,33.42964030767001,121.7631351360658,2.400000095367432,7.999579855010836,-9999,2761.3381265,-0.9046173095703125,1.125335693359375,-0.7527618408203125,2761.3281325,-0.6843541026282216,-0.4342478567537664,-0.9099015176145068,-6.921047687530518,2.814845085144043,-2.819611072540283,-0.6601431369781494,-0.153350293636322,-0.01252931356430054,XArbitraryZVertical,-0.4691546018350696,-0.0383113155815619,-0.2051593458754601,0.8581000148514767,-0.2582527697086334,0.78944331407547,-0.556852400302887,0,0,0,-1,-1,2760.8060365,unknown,2,2022-06-02T10:46:56.528+02:00,2022-06-02T10:17:13.754+02:00,448,1.423373,0,0,345.1212,0,0,2022-06-02T10:46:56.527+02:00,675852416.5274439,0,6.703125,101.3023,1,0.81
2022-06-02T10:46:57.087+02:00,1654159607.99977,53.2290892146608,10.39854600557297,36.85167,0.0979749,0.8212841,33.42964030767001,121.7631351360658,2.400000095367432,7.999579855010836,-9999,2761.3481215,-0.815948486328125,1.31378173828125,-0.867218017578125,2761.3381265,-0.7769009200248689,-0.4780838088453054,-0.9599734214770884,-6.872621536254883,3.315181970596313,-2.656390428543091,-0.6651570200920105,0.04227375984191895,-0.1106989979743958,XArbitraryZVertical,-0.4947573416330656,-0.02444652586044292,-0.225215198848191,0.8389848044729806,-0.2638742625713348,0.8191763162612915,-0.5092350840568542,0,0,0,-1,-1,2760.8060365,unknown,2,2022-06-02T10:46:56.528+02:00,2022-06-02T10:17:13.754+02:00,448,1.423373,0,0,345.1212,0,0,2022-06-02T10:46:56.527+02:00,675852416.5274439,0,6.703125,101.3023,1,0.81
2022-06-02T10:46:57.090+02:00,1654159607.99977,53.2290892146608,10.39854600557297,36.85167,0.0979749,0.8212841,33.42964030767001,121.7631351360658,2.400000095367432,7.999579855010836,-9999,2761.3581155,-0.685943603515625,1.416046142578125,-0.9033050537109375,2761.3481215,-0.8764337666721819,-0.5255037760339552,-1.006103008891189,-6.500113010406494,3.757516145706177,-2.582689046859741,-0.6361565589904785,0.2805827856063843,-0.2898132801055908,XArbitraryZVertical,-0.5181247318075538,-0.008512080030040165,-0.2456106148177809,0.8192371695949301,-0.2684606909751892,0.8447527885437012,-0.4629486203193665,0,0,0,-1,-1,2760.8060365,unknown,2,2022-06-02T10:46:56.528+02:00,2022-06-02T10:17:13.754+02:00,448,1.423373,0,0,345.1212,0,0,2022-06-02T10:46:56.527+02:00,675852416.5274439,0,6.703125,101.3023,1,0.81
2022-06-02T10:46:57.094+02:00,1654159607.99977,53.2290892146608,10.39854600557297,36.85167,0.0979749,0.8212841,33.42964030767001,121.7631351360658,2.400000095367432,7.999579855010836,-9999,2761.3681095,-0.57275390625,1.43670654296875,-0.8092498779296875,2761.3581155,-0.9807496350830871,-0.5754914424602793,-1.04586774544598,-5.920720100402832,4.080817222595215,-2.459748029708862,-0.5431983470916748,0.4484218955039978,-0.4467899203300476,XArbitraryZVertical,-0.5382482478794226,0.00864557897374737,-0.2662116445245211,0.799590738261589,-0.272750049829483,0.8653597235679626,-0.4204281568527222,0,0,0,-1,-1,2760.8060365,unknown,2,2022-06-02T10:46:56.528+02:00,2022-06-02T10:17:13.754+02:00,448,1.423373,0,0,345.1212,0,0,2022-06-02T10:46:56.527+02:00,675852416.5274439,0,6.703125,101.3023,1,0.81
2022-06-02T10:46:57.100+02:00,1654159607.99977,53.2290892146608,10.39854600557297,36.85167,0.0979749,0.8212841,33.42964030767001,121.7631351360658,2.400000095367432,7.999579855010836,-9999,2761.3781045,-0.497161865234375,1.41302490234375,-0.681793212890625,2761.3681095,-1.086595467384779,-0.6257522427097398,-1.078958022949127,-5.384969711303711,4.367979049682617,-2.298367023468018,-0.4093451201915741,0.5345798134803772,-0.520538330078125,XArbitraryZVertical,-0.5548950678703048,0.02660892915797491,-0.2866630758142619,0.7805174978653778,-0.2765983939170837,0.8814662098884583,-0.3827668428421021,0,0,0,-1,-1,2760.8060365,unknown,2,2022-06-02T10:46:56.528+02:00,2022-06-02T10:17:13.754+02:00,448,1.423373,0,0,345.1212,0,0,2022-06-02T10:46:56.527+02:00,675852416.5274439,0,6.703125,101.3023,1,0.81
2022-06-02T10:46:57.111+02:00,1654159607.99977,53.2290892146608,10.39854600557297,36.85167,0.0979749,0.8212841,33.42964030767001,121.7631351360658,2.400000095367432,7.999579855010836,-9999,2761.3880985,-0.440277099609375,1.402725219726562,-0.5435028076171875,2761.3781045,-1.192846546551988,-0.6750540643526957,-1.106870777438364,-4.999405860900879,4.64242696762085,-2.080673456192017,-0.2931171357631683,0.5424035787582397,-0.4599283039569855,XArbitraryZVertical,-0.5685682480002012,0.04549001638924892,-0.3068711271022416,0.7618994866428314,-0.2796367108821869,0.8943028450012207,-0.3493216037750244,0,0,0,-1,-1,2760.8060365,unknown,2,2022-06-02T10:46:56.528+02:00,2022-06-02T10:17:13.754+02:00,448,1.423373,0,0,345.1212,0,0,2022-06-02T10:46:56.527+02:00,675852416.5274439,0,6.703125,101.3023,1,0.81
2022-06-02T10:46:57.120+02:00,1654159607.99977,53.2290892146608,10.39854600557297,36.85167,0.0979749,0.8212841,33.42964030767001,121.7631351360658,2.400000095367432,7.999579855010836,-9999,2761.3980935,-0.4042510986328125,1.4166259765625,-0.342681884765625,2761.3880985,-1.299238018370285,-0.7232797281271984,-1.132165520774652,-4.90586519241333,4.850444316864014,-1.763801336288452,-0.2160752415657043,0.5076909065246582,-0.3634212911128998,XArbitraryZVertical,-0.5800908834874968,0.06563964720000198,-0.3263973676960887,0.7434048846047696,-0.2810865938663483,0.9053339958190918,-0.3183720111846924,0,0,0,-1,-1,2760.8060365,unknown,2,2022-06-02T10:46:56.528+02:00,2022-06-02T10:17:13.754+02:00,448,1.423373,0,0,345.1212,0,0,2022-06-02T10:46:56.527+02:00,675852416.5274439,0,6.703125,101.3023,1,0.81
2022-06-02T10:46:57.130+02:00,1654159607.99977,53.2290892146608,10.39854600557297,36.85167,0.0979749,0.8212841,33.42964030767001,121.7631351360658,2.400000095367432,7.999579855010836,-9999,2761.4080875,-0.3742828369140625,1.43701171875,-0.2082061767578125,2761.3980935,-1.41017607666314,-0.77521045988184,-1.158023166700585,-5.161111831665039,4.966036319732666,-1.419691443443298,-0.1595247983932495,0.4867133498191833,-0.256971150636673,XArbitraryZVertical,-0.5908426419874072,0.08740182155203281,-0.3447126506712112,0.7241817044496841,-0.2807522714138031,0.9160118699073792,-0.2865317761898041,0,0,0,-1,-1,2760.8060365,unknown,2,2022-06-02T10:46:56.528+02:00,2022-06-02T10:17:13.754+02:00,448,1.423373,0,0,345.1212,0,0,2022-06-02T10:46:56.527+02:00,675852416.5274439,0,6.703125,101.3023,1,0.81
2022-06-02T10:46:57.140+02:00,1654159607.99977,53.2290892146608,10.39854600557297,36.85167,0.0979749,0.8212841,33.42964030767001,121.7631351360658,2.400000095367432,7.999579855010836,-9999,2761.4180825,-0.3340606689453125,1.497543334960938,-0.0338897705078125,2761.4080875,-1.530321925357788,-0.8358385547022184,-1.186028543592541,-5.422143459320068,5.052917003631592,-1.006507635116577,-0.125798761844635,0.4897403717041016,-0.09099295735359192,XArbitraryZVertical,-0.6015213154293646,0.1110296447822857,-0.3613561548296785,0.7037515596585554,-0.2784522771835327,0.9268856048583984,-0.2516890466213226,0,0,0,-1,-1,2760.8060365,unknown,2,2022-06-02T10:46:56.528+02:00,2022-06-02T10:17:13.754+02:00,448,1.423373,0,0,345.1212,0,0,2022-06-02T10:46:56.527+02:00,675852416.5274439,0,6.703125,101.3023,1,0.81
2022-06-02T10:46:57.150+02:00,1654159607.99977,53.2290892146608,10.39854600557297,36.85167,0.0979749,0.8212841,33.42964030767001,121.7631351360658,2.400000095367432,7.999579855010836,-9999,2761.4280765,-0.2662811279296875,1.626708984375,0.138946533203125,2761.4180825,-1.660469029693134,-0.906288038464194,-1.214992298879345,-5.509675025939941,5.12308406829834,-0.6395078897476196,-0.1000593602657318,0.4996449947357178,0.006607800722122192,XArbitraryZVertical,-0.6115769636625187,0.1362592360879117,-0.3762594451650172,0.6825216725620019,-0.2742234468460083,0.9373667240142822,-0.214814081788063,0,0,0,-1,-1,2760.8060365,unknown,2,2022-06-02T10:46:56.528+02:00,2022-06-02T10:17:13.754+02:00,448,1.423373,0,0,345.1212,0,0,2022-06-02T10:46:56.527+02:00,675852416.5274439,0,6.703125,101.3023,1,0.81
2022-06-02T10:46:57.160+02:00,1654159607.99977,53.2290892146608,10.39854600557297,36.85167,0.0979749,0.8212841,33.42964030767001,121.7631351360658,2.400000095367432,7.999579855010836,-9999,2761.4380705,-0.1837921142578125,1.739822387695312,0.23846435546875,2761.4280765,-1.800669734435073,-0.9874472391099651,-1.243253464357601,-5.369253158569336,5.075240135192871,-0.2558193206787109,-0.06554809212684631,0.5507075190544128,0.1433192044496536,XArbitraryZVertical,-0.6204940795364374,0.1624271838945541,-0.3894090538490301,0.661033279932224,-0.268512487411499,0.9468356966972351,-0.1772090196609497,0,0,0,-1,-1,2760.8060365,unknown,2,2022-06-02T10:46:56.528+02:00,2022-06-02T10:17:13.754+02:00,448,1.423373,0,0,345.1212,0,0,2022-06-02T10:46:56.527+02:00,675852416.5274439,0,6.703125,101.3023,1,0.81
2022-06-02T10:46:57.170+02:00,1654159607.99977,53.2290892146608,10.39854600557297,36.85167,0.0979749,0.8212841,33.42964030767001,121.7631351360658,2.400000095367432,7.999579855010836,-9999,2761.4480655,-0.08477783203125,1.788970947265625,0.41241455078125,2761.4380705,-1.94263629668099,-1.072108588120475,-1.269067887385895,-4.753390789031982,5.000738620758057,0.146708220243454,-0.005302637815475464,0.6718845367431641,0.2810752391815186,XArbitraryZVertical,-0.6271568683255699,0.1887057392876103,-0.4008238671885752,0.6406281951078879,-0.2609784603118896,0.9548242688179016,-0.1421288102865219,0,0,0,-1,-1,2760.8060365,unknown,2,2022-06-02T10:46:56.528+02:00,2022-06-02T10:17:13.754+02:00,448,1.423373,0,0,345.1212,0,0,2022-06-02T10:46:56.527+02:00,675852416.5274439,0,6.703125,101.3023,1,0.81
2022-06-02T10:46:57.180+02:00,1654159607.99977,53.2290892146608,10.39854600557297,36.85167,0.0979749,0.8212841,33.42964030767001,121.7631351360658,2.400000095367432,7.999579855010836,-9999,2761.4580595,0.0191802978515625,1.777175903320312,0.6407318115234375,2761.4480655,-2.071244192582467,-1.146010072271075,-1.290911046795702,-3.776379346847534,4.85502290725708,0.4688447117805481,0.06790220737457275,0.7787351012229919,0.3523119688034058,XArbitraryZVertical,-0.6303254607037055,0.2139297602362504,-0.4110517124580658,0.6228645325928305,-0.2516942024230957,0.9610871076583862,-0.1138477399945259,0,0,0,-1,-1,2760.8060365,unknown,2,2022-06-02T10:46:56.528+02:00,2022-06-02T10:17:13.754+02:00,448,1.423373,0,0,345.1212,0,0,2022-06-02T10:46:56.527+02:00,675852416.5274439,0,6.703125,101.3023,1,0.81
2022-06-02T10:46:57.190+02:00,1654159607.99977,53.2290892146608,10.39854600557297,36.85167,0.0979749,0.8212841,33.42964030767001,121.7631351360658,2.400000095367432,7.999579855010836,-9999,2761.4680545,0.10986328125,1.676544189453125,0.7868499755859375,2761.4580595,-2.174655788895347,-1.198391311675148,-1.309050018927261,-2.750964403152466,4.58500862121582,0.7169275283813477,0.1562522351741791,0.8230311870574951,0.5065686106681824,XArbitraryZVertical,-0.6298384834367993,0.2371210861555636,-0.420440828085273,0.6085280683416531,-0.2410299479961395,0.9659395813941956,-0.09415414929389954,0,0,0,-1,-1,2760.8060365,unknown,2,2022-06-02T10:46:56.528+02:00,2022-06-02T10:17:13.754+02:00,448,1.423373,0,0,345.1212,0,0,2022-06-02T10:46:56.527+02:00,675852416.5274439,0,6.703125,101.3023,1,0.81
2022-06-02T10:46:57.200+02:00,1654159607.99977,53.2290892146608,10.39854600557297,36.85167,0.0979749,0.8212841,33.42964030767001,121.7631351360658,2.400000095367432,7.999579855010836,-9999,2761.4780485,0.1509552001953125,1.549789428710938,0.86676025390625,2761.4680545,-2.249591317677854,-1.226916229135662,-1.324805378091277,-1.918828368186951,4.210331439971924,0.9138672351837158,0.2484405636787415,0.8072793483734131,0.7228317856788635,XArbitraryZVertical,-0.6264622217023839,0.257866375130209,-0.4289427714300277,0.5975433367399048,-0.2292602211236954,0.9698964953422546,-0.0821000337600708,0,0,0,-1,-1,2760.8060365,unknown,2,2022-06-02T10:46:56.528+02:00,2022-06-02T10:17:13.754+02:00,448,1.423373,0,0,345.1212,0,0,2022-06-02T10:46:56.527+02:00,675852416.5274439,0,6.703125,101.3023,1,0.81
2022-06-02T10:46:57.210+02:00,1654159607.99977,53.2290892146608,10.39854600557297,36.85167,0.0979749,0.8212841,33.42964030767001,121.7631351360658,2.400000095367432,7.999579855010836,-9999,2761.4880435,0.131988525390625,1.459732055664062,0.9525299072265625,2761.4780485,-2.301398552918942,-1.237307121000458,-1.339827880876518,-1.445330262184143,3.785837650299072,1.112624049186707,0.326170951128006,0.7030988931655884,0.8617849349975586,XArbitraryZVertical,-0.6213772199383876,0.2764468038127517,-0.4362011553416057,0.5892333196479095,-0.2163075804710388,0.9734451770782471,-0.07493503391742706,0,0,0,-1,-1,2760.8060365,unknown,2,2022-06-02T10:46:56.528+02:00,2022-06-02T10:17:13.754+02:00,448,1.423373,0,0,345.1212,0,0,2022-06-02T10:46:56.527+02:00,675852416.5274439,0,6.703125,101.3023,1,0.81
2022-06-02T10:46:57.220+02:00,1654159607.99977,53.2290892146608,10.39854600557297,36.85167,0.0979749,0.8212841,33.42964030767001,121.7631351360658,2.400000095367432,7.999579855010836,-9999,2761.4980375,0.074127197265625,1.358200073242188,1.083404541015625,2761.4880435,-2.34248390006615,-1.241472981715815,-1.356054907344479,-1.36466121673584,3.399479866027832,1.371014595031738,0.3525985777378082,0.5727578401565552,0.9356755614280701,XArbitraryZVertical,-0.6157927017335499,0.2938394656078913,-0.4417009136795671,0.582544422945661,-0.201643317937851,0.9770315289497375,-0.06891543418169022,0,0,0,-1,-1,2760.8060365,unknown,2,2022-06-02T10:46:56.528+02:00,2022-06-02T10:17:13.754+02:00,448,1.423373,0,0,345.1212,0,0,2022-06-02T10:46:56.527+02:00,675852416.5274439,0,6.703125,101.3023,1,0.81
2022-06-02T10:46:57.230+02:00,1654159607.99977,53.2290892146608,10.39854600557297,36.85167,0.0979749,0.8212841,33.42964030767001,121.7631351360658,2.400000095367432,7.999579855010836,-9999,2761.5080315,0.051239013671875,1.270477294921875,1.153701782226562,2761.4980375,-2.385216772513028,-1.251102842696982,-1.374617359374171,-1.498475313186646,3.054471015930176,1.573680877685547,0.3170350790023804,0.478913426399231,1.013789415359497,XArbitraryZVertical,-0.6105227039105094,0.3108573244707881,-0.4451386858262746,0.5766118909760288,-0.1850464940071106,0.9808185696601868,-0.06125950440764427,0,0,0,-1,-1,2760.8060365,unknown,2,2022-06-02T10:46:56.528+02:00,2022-06-02T10:17:13.754+02:00,448,1.423373,0,0,345.1212,0,0,2022-06-02T10:46:56.527+02:00,675852416.5274439,0,6.703125,101.3023,1,0.81
2022-06-02T10:46:57.240+02:00,1654159607.99977,53.2290892146608,10.39854600557297,36.85167,0.0979749,0.8212841,33.42964030767001,121.7631351360658,2.400000095367432,7.999579855010836,-9999,2761.5180265,0.1124267578125,1.220779418945312,1.228408813476562,2761.5080315,-2.438042881143847,-1.273920255549443,-1.394999993123643,-1.597442030906677,2.771713733673096,1.718111395835876,0.2413683235645294,0.3736124038696289,1.134566307067871,XArbitraryZVertical,-0.6058514847962616,0.3276630231124654,-0.4467950701409148,0.5709246812861696,-0.167241096496582,0.984587550163269,-0.05116184428334236,0,0,0,-1,-1,2760.8060365,unknown,2,2022-06-02T10:46:56.528+02:00,2022-06-02T10:17:13.754+02:00,448,1.423373,0,0,345.1212,0,0,2022-06-02T10:46:56.527+02:00,675852416.5274439,0,6.703125,101.3023,1,0.81
2022-06-02T10:46:57.250+02:00,1654159607.99977,53.2290892146608,10.39854600557297,36.85167,0.0979749,0.8212841,33.42964030767001,121.7631351360658,2.400000095367432,7.999579855010836,-9999,2761.5280205,0.193634033203125,1.148605346679688,1.29339599609375,2761.5180265,-2.500143082739334,-1.308968040709232,-1.416631321715669,-1.540796160697937,2.45890474319458,1.871374011039734,0.1995603144168854,0.2823371291160583,1.193448781967163,XArbitraryZVertical,-0.6014564888750971,0.3440588806893147,-0.4469522427547101,0.5657801759479263,-0.148321270942688,0.9881401062011719,-0.03974715620279312,0,0,0,-1,-1,2760.8060365,unknown,2,2022-06-02T10:46:56.528+02:00,2022-06-02T10:17:13.754+02:00,448,1.423373,0,0,345.1212,0,0,2022-06-02T10:46:56.527+02:00,675852416.5274439,0,6.703125,101.3023,1,0.81
2022-06-02T10:46:57.260+02:00,1654159607.99977,53.2290892146608,10.39854600557297,36.85167,0.0979749,0.8212841,33.42964030767001,121.7631351360658,2.400000095367432,7.999579855010836,-9999,2761.5380155,0.2235565185546875,1.035888671875,1.4146728515625,2761.5280205,-2.565940883335063,-1.351478243085022,-1.438780982068469,-1.319982051849365,2.057081937789917,1.976910352706909,0.2409049719572067,0.2294806838035583,1.257046937942505,XArbitraryZVertical,-0.5970755061944492,0.3594185911011467,-0.4457683315748006,0.5617914019176723,-0.128478154540062,0.9912986159324646,-0.02863823249936104,0,0,0,-1,-1,2760.8060365,unknown,2,2022-06-02T10:46:56.528+02:00,2022-06-02T10:17:13.754+02:00,448,1.423373,0,0,345.1212,0,0,2022-06-02T10:46:56.527+02:00,675852416.5274439,0,6.703125,101.3023,1,0.81
2022-06-02T10:46:57.270+02:00,1654159607.99977,53.2290892146608,10.39854600557297,36.85167,0.0979749,0.8212841,33.42964030767001,121.7631351360658,2.400000095367432,7.999579855010836,-9999,2761.548009375,0.241485595703125,0.952972412109375,1.564193725585938,2761.5380155,-2.626476765949549,-1.393217363262699,-1.460727395181525,-0.9844143986701965,1.605940341949463,2.030216455459595,0.3017540574073792,0.1546568870544434,1.312800168991089,XArbitraryZVertical,-0.5925407834815772,0.3730861893045359,-0.4434997384814652,0.5594731131661305,-0.1081199795007706,0.9939485192298889,-0.01940423063933849,0,0,0,-1,-1,2760.8060365,unknown,2,2022-06-02T10:46:56.528+02:00,2022-06-02T10:17:13.754+02:00,448,1.423373,0,0,345.1212,0,0,2022-06-02T10:46:56.527+02:00,675852416.5274439,0,6.703125,101.3023,1,0.81
2022-06-02T10:46:57.288+02:00,1654159607.99977,53.2290892146608,10.39854600557297,36.85167,0.0979749,0.8212841,33.42964030767001,121.7631351360658,2.400000095367432,7.999579855010836,-9999,2761.558004375,0.22149658203125,0.8736114501953125,1.641006469726562,2761.548009375,-2.676917815258812,-1.430137845306521,-1.482203525443332,-0.6883499622344971,1.036261677742004,2.048419237136841,0.311160147190094,0.03981047868728638,1.427076816558838,XArbitraryZVertical,-0.5880748103730155,0.3846634469737223,-0.4401317847646444,0.5590045631515856,-0.08760358393192291,0.9960782527923584,-0.01240410003811121,0,0,0,-1,-1,2760.8060365,unknown,2,2022-06-02T10:46:56.528+02:00,2022-06-02T10:17:13.754+02:00,448,1.423373,0,0,345.1212,0,0,2022-06-02T10:46:56.527+02:00,675852416.5274439,0,6.703125,101.3023,1,0.81
2022-06-02T10:46:57.296+02:00,1654159607.99977,53.2290892146608,10.39854600557297,36.85167,0.0979749,0.8212841,33.42964030767001,121.7631351360658,2.400000095367432,7.999579855010836,-9999,2761.567998375,0.1746673583984375,0.8833160400390625,1.7171630859375,2761.558004375,-2.709812405214602,-1.455577210022344,-1.503041827583404,-0.3658815622329712,0.4333437085151672,2.008725643157959,0.3087374567985535,-0.04473328590393066,1.571976780891418,XArbitraryZVertical,-0.5839631390750717,0.3938216211647037,-0.4355807868589366,0.5605005134891239,-0.06725180894136429,0.9977055191993713,-0.007783165667206049,0,0,0,-1,-1,2760.8060365,unknown,2,2022-06-02T10:46:56.528+02:00,2022-06-02T10:17:13.754+02:00,448,1.423373,0,0,345.1212,0,0,2022-06-02T10:46:56.527+02:00,675852416.5274439,0,6.703125,101.3023,1,0.81
2022-06-02T10:46:57.300+02:00,1654159607.99977,53.2290892146608,10.39854600557297,36.85167,0.0979749,0.8212841,33.42964030767001,121.7631351360658,2.400000095367432,7.999579855010836,-9999,2761.577992375,0.098114013671875,0.89794921875,1.63861083984375,2761.567998375,-2.717197157961359,-1.461985372892041,-1.522907063798837,-0.1739957630634308,-0.250114768743515,1.932571291923523,0.2690804302692413,-0.125242292881012,1.646204590797424,XArbitraryZVertical,-0.5805875371008367,0.4003985841874635,-0.4298002808973858,0.5638001495328037,-0.04758381098508835,0.9988535046577454,-0.005198170896619558,0,0,0,-1,-1,2760.8060365,unknown,2,2022-06-02T10:46:56.528+02:00,2022-06-02T10:17:13.754+02:00,448,1.423373,0,0,345.1212,0,0,2022-06-02T10:46:56.527+02:00,675852416.5274439,0,6.703125,101.3023,1,0.81
2022-06-02T10:46:57.310+02:00,1654159607.99977,53.2290892146608,10.39854600557297,36.85167,0.0979749,0.8212841,33.42964030767001,121.7631351360658,2.400000095367432,7.999579855010836,-9999,2761.587987375,-0.01251220703125,0.92779541015625,1.59857177734375,2761.577992375,-2.667349850399044,-1.41816278702174,-1.541819995311902,0.06222109496593475,-0.939084529876709,1.86833918094635,0.203302264213562,-0.1162641644477844,1.721567869186401,XArbitraryZVertical,-0.5782028159950977,0.4043254303865186,-0.4225738513666885,0.5688881899511106,-0.02863485738635063,0.9995802044868469,-0.004404899664223194,0,0,0,-1,-1,2760.8060365,unknown,2,2022-06-02T10:46:56.528+02:00,2022-06-02T10:17:13.754+02:00,448,1.423373,0,0,345.1212,0,0,2022-06-02T10:46:56.527+02:00,675852416.5274439,0,6.703125,101.3023,1,0.81
2022-06-02T10:46:57.320+02:00,1654159607.99977,53.2290892146608,10.39854600557297,36.85167,0.0979749,0.8212841,33.42964030767001,121.7631351360658,2.400000095367432,7.999579855010836,-9999,2761.597981375,-0.09405517578125,0.94293212890625,1.585739135742188,2761.587987375,-2.30260838210501,-1.065918525354429,-1.559223419719509,0.1856580674648285,-1.546314597129822,1.851346373558044,0.108244001865387,-0.1019837856292725,1.644209146499634,XArbitraryZVertical,-0.5766318180556802,0.4058282514380683,-0.4139598261420712,0.5757051805425352,-0.0101299611851573,0.9999330639839172,-0.005598353687673807,0,0,0,-1,-1,2760.8060365,unknown,2,2022-06-02T10:46:56.528+02:00,2022-06-02T10:17:13.754+02:00,448,1.423373,0,0,345.1212,0,0,2022-06-02T10:46:56.527+02:00,675852416.5274439,0,6.703125,101.3023,1,0.81
2022-06-02T10:46:57.330+02:00,1654159607.99977,53.2290892146608,10.39854600557297,36.85167,0.0979749,0.8212841,33.42964030767001,121.7631351360658,2.400000095367432,7.999579855010836,-9999,2761.607976375,-0.14459228515625,0.851776123046875,1.563644409179688,2761.597981375,-0.3592676960109498,0.8590775969862604,-1.559950125725213,0.1236911788582802,-2.106633424758911,1.83008086681366,-0.02072784304618835,-0.07214581966400146,1.605657935142517,XArbitraryZVertical,-0.5761891044857824,0.4055404006134806,-0.4036430584005775,0.5836226683952876,0.008215676993131638,0.9999411702156067,-0.007086198776960373,0,0,0,-1,-1,2760.8060365,unknown,2,2022-06-02T10:46:56.528+02:00,2022-06-02T10:17:13.754+02:00,448,1.423373,0,0,345.1212,0,0,2022-06-02T10:46:56.527+02:00,675852416.5274439,0,6.703125,101.3023,1,0.81
2022-06-02T10:46:57.340+02:00,1654159607.99977,53.2290892146608,10.39854600557297,36.85167,0.0979749,0.8212841,33.42964030767001,121.7631351360658,2.400000095367432,7.999579855010836,-9999,2761.617970375,-0.1221923828125,0.8354949951171875,1.610244750976562,2761.607976375,0.05966646017880658,1.254367448086336,-1.5433937791398,0.04623021185398102,-2.617319822311401,1.765569806098938,-0.1200903058052063,-0.05669260025024414,1.594263792037964,XArbitraryZVertical,-0.5769306296839876,0.4035947117988406,-0.3917623698113618,0.592270627565061,0.02603516541421413,0.9996245503425598,-0.008524714037775993,0,0,0,-1,-1,2760.8060365,unknown,2,2022-06-02T10:46:56.528+02:00,2022-06-02T10:17:13.754+02:00,448,1.423373,0,0,345.1212,0,0,2022-06-02T10:46:56.527+02:00,675852416.5274439,0,6.703125,101.3023,1,0.81
2022-06-02T10:46:57.350+02:00,1654159607.99977,53.2290892146608,10.39854600557297,36.85167,0.0979749,0.8212841,33.42964030767001,121.7631351360658,2.400000095367432,7.999579855010836,-9999,2761.627965375,-0.116424560546875,0.80963134765625,1.682632446289062,2761.617970375,0.1974057015117413,1.362760338751653,-1.526747233621299,-0.1162736117839813,-3.251115322113037,1.696298003196716,-0.1876755356788635,-0.1472539901733398,1.572738766670227,XArbitraryZVertical,-0.5792160670139958,0.3999519003343447,-0.3780475576596642,0.601354448729112,0.04308326914906502,0.9990299940109253,-0.009094450622797012,0,0,0,-1,-1,2760.8060365,unknown,2,2022-06-02T10:46:56.528+02:00,2022-06-02T10:17:13.754+02:00,448,1.423373,0,0,345.1212,0,0,2022-06-02T10:46:56.527+02:00,675852416.5274439,0,6.703125,101.3023,1,0.81
2022-06-02T10:46:57.360+02:00,1654159607.99977,53.2290892146608,10.39854600557297,36.85167,0.0979749,0.8212841,33.42964030767001,121.7631351360658,2.400000095367432,7.999579855010836,-9999,2761.637959375,-0.15234375,0.8344268798828125,1.871917724609375,2761.627965375,0.2785129119757097,1.407758495713233,-1.510706627431775,-0.1176786944270134,-3.961189746856689,1.603364109992981,-0.1814460009336472,-0.162700355052948,1.619991779327393,XArbitraryZVertical,-0.5829594758680611,0.3940617970771724,-0.3623398795034428,0.6112144827780891,0.05925362184643745,0.9981951713562012,-0.009747099131345749,0,0,0,-1,-1,2760.8060365,unknown,2,2022-06-02T10:46:56.528+02:00,2022-06-02T10:17:13.754+02:00,448,1.423373,0,0,345.1212,0,0,2022-06-02T10:46:56.527+02:00,675852416.5274439,0,6.703125,101.3023,1,0.81
2022-06-02T10:46:57.370+02:00,1654159607.99977,53.2290892146608,10.39854600557297,36.85167,0.0979749,0.8212841,33.42964030767001,121.7631351360658,2.400000095367432,7.999579855010836,-9999,2761.647953375,-0.2239227294921875,0.8685455322265625,2.003433227539062,2761.637959375,0.3254560757431793,1.411071286940857,-1.495750854574935,-0.02184497937560081,-4.761860370635986,1.440841794013977,-0.1904459893703461,-0.1875540018081665,1.694556951522827,XArbitraryZVertical,-0.5879021878327643,0.3852384819362775,-0.3447478230240574,0.6221827108457508,0.07402144372463226,0.9971854090690613,-0.01192465890198946,0,0,0,-1,-1,2760.8060365,unknown,2,2022-06-02T10:46:56.528+02:00,2022-06-02T10:17:13.754+02:00,448,1.423373,0,0,345.1212,0,0,2022-06-02T10:46:56.527+02:00,675852416.5274439,0,6.703125,101.3023,1,0.81
2022-06-02T10:46:57.380+02:00,1654159607.99977,53.2290892146608,10.39854600557297,36.85167,0.0979749,0.8212841,33.42964030767001,121.7631351360658,2.400000095367432,7.999579855010836,-9999,2761.657948375,-0.3011322021484375,0.9243316650390625,2.082656860351562,2761.647953375,0.34558716170029,1.378711617634949,-1.482214273226254,0.1963422149419785,-5.761566162109375,1.29560661315918,-0.2391820847988129,-0.1616523861885071,1.888806104660034,XArbitraryZVertical,-0.5938665533457367,0.3726637114358682,-0.3251230005784815,0.6346173920185909,0.08683839440345764,0.99607914686203,-0.01688854955136776,0,0,0,-1,-1,2760.8060365,unknown,2,2022-06-02T10:46:56.528+02:00,2022-06-02T10:17:13.754+02:00,448,1.423373,0,0,345.1212,0,0,2022-06-02T10:46:56.527+02:00,675852416.5274439,0,6.703125,101.3023,1,0.81
2022-06-02T10:46:57.390+02:00,1654159607.99977,53.2290892146608,10.39854600557297,36.85167,0.0979749,0.8212841,33.42964030767001,121.7631351360658,2.400000095367432,7.999579855010836,-9999,2761.667942375,-0.494171142578125,1.01104736328125,1.923370361328125,2761.657948375,0.3403655271986825,1.309525348188264,-1.469381714071019,0.4819003343582153,-7.057236671447754,1.178223729133606,-0.3217281699180603,-0.1263163685798645,2.029584646224976,XArbitraryZVertical,-0.600572784428644,0.3552978652823097,-0.3026477124131016,0.6492150427477993,0.09780547767877579,0.9948619604110718,-0.02615151554346085,0,0,0,-1,-1,2760.8060365,unknown,2,2022-06-02T10:46:56.528+02:00,2022-06-02T10:17:13.754+02:00,448,1.423373,0,0,345.1212,0,0,2022-06-02T10:46:56.527+02:00,675852416.5274439,0,6.703125,101.3023,1,0.81
2022-06-02T10:46:57.400+02:00,1654159607.99977,53.2290892146608,10.39854600557297,36.85167,0.0979749,0.8212841,33.42964030767001,121.7631351360658,2.400000095367432,7.999579855010836,-9999,2761.677937375,-0.6798248291015625,1.161346435546875,1.689971923828125,2761.667942375,0.3131044139650748,1.205526566866527,-1.456748479352636,0.8545756340026855,-8.291434288024902,1.039656281471252,-0.40742427110672,-0.06917208433151245,2.123306274414062,XArbitraryZVertical,-0.6076063827741472,0.3324000231379908,-0.2769132239614946,0.6660658027882335,0.1062920913100243,0.9935035705566406,-0.0406494177877903,0,0,0,-1,-1,2760.8060365,unknown,2,2022-06-02T10:46:56.528+02:00,2022-06-02T10:17:13.754+02:00,448,1.423373,0,0,345.1212,0,0,2022-06-02T10:46:56.527+02:00,675852416.5274439,0,6.703125,101.3023,1,0.81
2022-06-02T10:46:57.410+02:00,1654159607.99977,53.2290892146608,10.39854600557297,36.85167,0.0979749,0.8212841,33.42964030767001,121.7631351360658,2.400000095367432,7.999579855010836,-9999,2761.687931375,-0.7394866943359375,1.267349243164062,1.436676025390625,2761.677937375,0.2740238491537804,1.079319479730183,-1.443534058048335,1.083606839179993,-9.171479225158691,0.9868255853652954,-0.6060671806335449,0.01913416385650635,1.983266830444336,XArbitraryZVertical,-0.6141841844019699,0.3046794191421265,-0.2483670081619119,0.6842967228231648,0.1118960827589035,0.9919130802154541,-0.05989647656679153,0,0,0,-1,-1,2760.8060365,unknown,2,2022-06-02T10:46:56.528+02:00,2022-06-02T10:17:13.754+02:00,448,1.423373,0,0,345.1212,0,0,2022-06-02T10:46:56.527+02:00,675852416.5274439,0,6.703125,101.3023,1,0.81
2022-06-02T10:46:57.420+02:00,1654159607.99977,53.2290892146608,10.39854600557297,36.85167,0.0979749,0.8212841,33.42964030767001,121.7631351360658,2.400000095367432,7.999579855010836,-9999,2761.697926375,-0.663970947265625,1.241455078125,1.58563232421875,2761.687931375,0.2389937252512332,0.9487771507082918,-1.429031518548816,1.236138105392456,-10.00896167755127,0.9872689843177795,-0.7946510910987854,0.1713780760765076,1.772297859191895,XArbitraryZVertical,-0.6198736112402268,0.2731184450177251,-0.2170714240106154,0.7028818069486586,0.1148262768983841,0.9899681806564331,-0.08232603967189789,0,0,0,-1,-1,2760.8060365,unknown,2,2022-06-02T10:46:56.528+02:00,2022-06-02T10:17:13.754+02:00,448,1.423373,0,0,345.1212,0,0,2022-06-02T10:46:56.527+02:00,675852416.5274439,0,6.703125,101.3023,1,0.81
2022-06-02T10:46:57.430+02:00,1654159607.99977,53.2290892146608,10.39854600557297,36.85167,0.0979749,0.8212841,33.42964030767001,121.7631351360658,2.400000095367432,7.999579855010836,-9999,2761.707920375,-0.5183868408203125,1.025192260742188,2.386856079101562,2761.697926375,0.2182650914896493,0.8236672674286545,-1.413600255505284,1.14119029045105,-10.99203109741211,0.9939005374908447,-0.8543376922607422,0.279679000377655,1.543056488037109,XArbitraryZVertical,-0.6247197440615702,0.2377708074889219,-0.1825043231895753,0.721028690754156,0.1148510426282883,0.9876701235771179,-0.1063805669546127,0,0,0,-1,-1,2760.8060365,unknown,2,2022-06-02T10:46:56.528+02:00,2022-06-02T10:17:13.754+02:00,448,1.423373,0,0,345.1212,0,0,2022-06-02T10:46:56.527+02:00,675852416.5274439,0,6.703125,101.3023,1,0.81
2022-06-02T10:46:57.440+02:00,1654159607.99977,53.2290892146608,10.39854600557297,36.85167,0.0979749,0.8212841,33.42964030767001,121.7631351360658,2.400000095367432,7.999579855010836,-9999,2761.717914375,-0.65325927734375,0.8126983642578125,2.190948486328125,2761.707920375,0.2150109296165063,0.7028516431699736,-1.400448118015093,0.8199129700660706,-12.58860683441162,0.7388930320739746,-0.7735514044761658,0.2559292316436768,1.714980363845825,XArbitraryZVertical,-0.6297580665727193,0.1968012366124482,-0.143505706674813,0.7376178604329872,0.1095804646611214,0.9855257868766785,-0.12934809923172,0,0,0,-1,-1,2760.8060365,unknown,2,2022-06-02T10:46:56.528+02:00,2022-06-02T10:17:13.754+02:00,448,1.423373,0,0,345.1212,0,0,2022-06-02T10:46:56.527+02:00,675852416.5274439,0,6.703125,101.3023,1,0.81
2022-06-02T10:46:57.450+02:00,1654159607.99977,53.2290892146608,10.39854600557297,36.85167,0.0979749,0.8212841,33.42964030767001,121.7631351360658,2.400000095367432,7.999579855010836,-9999,2761.727909375,-1.499481201171875,0.3996124267578125,2.203369140625,2761.717914375,0.2176982073389458,0.5696310814615023,-1.389832031899396,0.9801636338233948,-14.60063934326172,0.6166756749153137,-0.6154525876045227,0.04152154922485352,2.53841495513916,XArbitraryZVertical,-0.6343337623538897,0.1477874287926259,-0.09877183309767057,0.7523453615705603,0.0970657542347908,0.9836705923080444,-0.1515591144561768,0,0,0,-1,-1,2760.8060365,unknown,2,2022-06-02T10:46:56.528+02:00,2022-06-02T10:17:13.754+02:00,448,1.423373,0,0,345.1212,0,0,2022-06-02T10:46:56.527+02:00,675852416.5274439,0,6.703125,101.3023,1,0.81
2022-06-02T10:46:57.460+02:00,1654159607.99977,53.2290892146608,10.39854600557297,36.85167,0.0979749,0.8212841,33.42964030767001,121.7631351360658,2.400000095367432,7.999579855010836,-9999,2761.737903375,-12.26860046386719,-0.5684967041015625,-7.996917724609375,2761.727909375,0.1940355757315085,0.384322955756047,-1.372623741144542,2.69354248046875,-19.09246063232422,0.01119293365627527,-0.727074921131134,-0.1677297353744507,2.373464345932007,XArbitraryZVertical,-0.633410606058166,0.08679312343603557,-0.0468985213621664,0.7675014001824524,0.07381564378738403,0.9804279804229736,-0.1825159192085266,0,0,0,-1,-1,2760.8060365,unknown,2,2022-06-02T10:46:56.528+02:00,2022-06-02T10:17:13.754+02:00,448,1.423373,0,0,345.1212,0,0,2022-06-02T10:46:56.527+02:00,675852416.5274439,0,6.703125,101.3023,1,0.81
2022-06-02T10:46:57.470+02:00,1654159607.99977,53.2290892146608,10.39854600557297,36.85167,0.0979749,0.8212841,33.42964030767001,121.7631351360658,2.400000095367432,7.999579855010836,-9999,2761.747898375,-16.05599975585938,-0.573333740234375,-29.74818420410156,2761.737903375,0.007050099795818157,0.1390429206392178,-1.341618935844713,5.092421054840088,-5.285074234008789,-6.649876594543457,-1.530966758728027,-0.5742412805557251,2.428352832794189,XArbitraryZVertical,-0.6203067339881716,0.0522273328516902,-0.04042634081013935,0.7815737190020372,0.03148555755615234,0.973853588104248,-0.2249837219715118,0,0,0,-1,-1,2760.8060365,unknown,2,2022-06-02T10:46:56.528+02:00,2022-06-02T10:17:13.754+02:00,448,1.423373,0,0,345.1212,0,0,2022-06-02T10:46:56.527+02:00,675852416.5274439,0,6.703125,101.3023,1,0.81
2022-06-02T10:46:57.480+02:00,1654159607.99977,53.2290892146608,10.39854600557297,36.85167,0.0979749,0.8212841,33.42964030767001,121.7631351360658,2.400000095367432,7.999579855010836,-9999,2761.757892375,-4.264129638671875,-1.22222900390625,-7.103851318359375,2761.747898375,-0.1889614802847055,-0.01465137928025168,-1.27115671843249,7.789839744567871,3.490184545516968,1.968481540679932,-12.26427555084229,-1.523939728736877,-7.701773643493652,XArbitraryZVertical,-0.591535733177761,0.05013408878253112,-0.07158683467978405,0.8015281203291209,-0.004324577748775482,0.9554429054260254,-0.295144110918045,0,0,0,-1,-1,2760.8060365,unknown,2,2022-06-02T10:46:56.528+02:00,2022-06-02T10:17:13.754+02:00,448,1.423373,0,0,345.1212,0,0,2022-06-02T10:46:56.527+02:00,675852416.5274439,0,6.703125,101.3023,1,0.81
2022-06-02T10:46:57.490+02:00,1654159607.99977,53.2290892146608,10.39854600557297,36.85167,0.0979749,0.8212841,33.42964030767001,121.7631351360658,2.400000095367432,7.999579855010836,-9999,2761.767887375,-2.00103759765625,-1.9205322265625,9.001266479492188,2761.757892375,-0.08405788373341146,0.1301642199985958,-1.223530708846693,0.07547518610954285,3.970980167388916,4.423081398010254,-16.10017395019531,-1.513640642166138,-29.41073608398438,XArbitraryZVertical,-0.5703546145140975,0.07727350932030708,-0.07164161639289793,0.8146114642088238,0.04417352005839348,0.9403068423271179,-0.3374488353729248,0,0,0,-1,-1,2760.8060365,unknown,2,2022-06-02T10:46:56.528+02:00,2022-06-02T10:17:13.754+02:00,448,1.423373,0,0,345.1212,0,0,2022-06-02T10:46:56.527+02:00,675852416.5274439,0,6.703125,101.3023,1,0.81
2022-06-02T10:46:57.500+02:00,1654159607.99977,53.2290892146608,10.39854600557297,36.85167,0.0979749,0.8212841,33.42964030767001,121.7631351360658,2.400000095367432,7.999579855010836,-9999,2761.777881375,0.73541259765625,-0.14801025390625,7.236572265625,2761.767887375,0.005670152111130522,0.2918704341880408,-1.272383200946549,-10.51931953430176,11.3543529510498,-0.2991251945495605,-4.348727703094482,-2.178033351898193,-6.822281837463379,XArbitraryZVertical,-0.5881501647094463,0.1153018692536136,-0.08414143752298736,0.7960559782067429,0.0845978856086731,0.9558042287826538,-0.2815697193145752,0,0,0,-1,-1,2760.8060365,unknown,2,2022-06-02T10:46:56.528+02:00,2022-06-02T10:17:13.754+02:00,448,1.423373,0,0,345.1212,0,0,2022-06-02T10:46:56.527+02:00,675852416.5274439,0,6.703125,101.3023,1,0.81
2022-06-02T10:46:57.510+02:00,1654159607.99977,53.2290892146608,10.39854600557297,36.85167,0.0979749,0.8212841,33.42964030767001,121.7631351360658,2.400000095367432,7.999579855010836,-9999,2761.787876375,2.4840087890625,2.582122802734375,-2.0264892578125,2761.777881375,0.2291191573634953,0.6132613424741806,-1.392862344128618,-14.4483003616333,6.399415969848633,-0.01472102198749781,-2.102905511856079,-2.904743671417236,9.14600944519043,XArbitraryZVertical,-0.634023338915595,0.1601337046104757,-0.1087611703280133,0.7486939001124686,0.1018680185079575,0.9842114448547363,-0.1447432041168213,0,0,0,-1,-1,2760.8060365,unknown,2,2022-06-02T10:46:56.528+02:00,2022-06-02T10:17:13.754+02:00,448,1.423373,0,0,345.1212,0,0,2022-06-02T10:46:56.527+02:00,675852416.5274439,0,6.703125,101.3023,1,0.81
2022-06-02T10:46:57.520+02:00,1654159607.99977,53.2290892146608,10.39854600557297,36.85167,0.0979749,0.8212841,33.42964030767001,121.7631351360658,2.400000095367432,7.999579855010836,-9999,2761.797870375,-0.77392578125,2.465362548828125,-2.101943969726562,2761.787876375,0.8495156690359151,1.250285976014593,-1.451184421413642,-6.241590976715088,0.2741310298442841,2.209875822067261,0.6221631765365601,-1.140865325927734,7.274166107177734,XArbitraryZVertical,-0.6706858310242282,0.1771542025661415,-0.1038373055555071,0.7127514451620055,0.1132494062185287,0.9928550124168396,-0.03759380802512169,0,0,0,-1,-1,2760.8060365,unknown,2,2022-06-02T10:46:56.528+02:00,2022-06-02T10:17:13.754+02:00,448,1.423373,0,0,345.1212,0,0,2022-06-02T10:46:56.527+02:00,675852416.5274439,0,6.703125,101.3023,1,0.81
2022-06-02T10:46:57.530+02:00,1654159607.99977,53.2290892146608,10.39854600557297,36.85167,0.0979749,0.8212841,33.42964030767001,121.7631351360658,2.400000095367432,7.999579855010836,-9999,2761.807864375,-2.239837646484375,2.199615478515625,0.69866943359375,2761.797870375,0.9803220338838163,1.388668336036738,-1.438921767527807,3.901551246643066,1.826432704925537,0.4302181005477905,2.35469126701355,1.590805649757385,-2.002673149108887,XArbitraryZVertical,-0.6733609980373165,0.186217183093601,-0.0999022210358446,0.7084685088848872,0.129317507147789,0.9913171529769897,-0.02381625398993492,0,0,0,-1,-1,2760.8060365,unknown,2,2022-06-02T10:46:56.528+02:00,2022-06-02T10:17:13.754+02:00,448,1.423373,0,0,345.1212,0,0,2022-06-02T10:46:56.527+02:00,675852416.5274439,0,6.703125,101.3023,1,0.81
2022-06-02T10:46:57.540+02:00,1654159607.99977,53.2290892146608,10.39854600557297,36.85167,0.0979749,0.8212841,33.42964030767001,121.7631351360658,2.400000095367432,7.999579855010836,-9999,2761.817859375,-1.896255493164062,1.1727294921875,0.8024139404296875,2761.807864375,0.5089492896342879,0.9415081951919593,-1.421259757804604,8.385387420654297,1.629865288734436,-1.993242979049683,-0.8943672180175781,1.476522088050842,-2.014259815216064,XArbitraryZVertical,-0.6491761526988208,0.1863548974548636,-0.1162838032624292,0.7282307811399513,0.1204413995146751,0.9888402223587036,-0.08768434822559357,0,0,0,-1,-1,2760.8060365,unknown,2,2022-06-02T10:46:56.528+02:00,2022-06-02T10:17:13.754+02:00,448,1.423373,0,0,345.1212,0,0,2022-06-02T10:46:56.527+02:00,675852416.5274439,0,6.703125,101.3023,1,0.81
2022-06-02T10:46:57.550+02:00,1654159607.99977,53.2290892146608,10.39854600557297,36.85167,0.0979749,0.8212841,33.42964030767001,121.7631351360658,2.400000095367432,7.999579855010836,-9999,2761.827853375,-1.5845947265625,-0.4609375,-0.4931793212890625,2761.817859375,0.08478045473898453,0.5410364545907601,-1.377361351780929,7.270223617553711,2.303852319717407,-2.543893098831177,-2.338840961456299,1.218265652656555,0.8634445071220398,XArbitraryZVertical,-0.6206004445159499,0.1801873590997862,-0.1381487250162037,0.7505347585855749,0.09900343418121338,0.9813497066497803,-0.1647752076387405,0,0,0,-1,-1,2760.8060365,unknown,2,2022-06-02T10:46:56.528+02:00,2022-06-02T10:17:13.754+02:00,448,1.423373,0,0,345.1212,0,0,2022-06-02T10:46:56.527+02:00,675852416.5274439,0,6.703125,101.3023,1,0.81
2022-06-02T10:46:57.560+02:00,1654159607.99977,53.2290892146608,10.39854600557297,36.85167,0.0979749,0.8212841,33.42964030767001,121.7631351360658,2.400000095367432,7.999579855010836,-9999,2761.837848375,-0.73223876953125,-0.644561767578125,-0.528717041015625,2761.827853375,-0.1275902721382558,0.3646452079568818,-1.336747297852791,3.726417541503906,3.708454370498657,-1.837966442108154,-1.978961586952209,0.1999940872192383,1.019083499908447,XArbitraryZVertical,-0.5991271048949279,0.1808642743449644,-0.1613387794977789,0.7630888992245444,0.08270616829395294,0.9727353453636169,-0.2166696488857269,0,0,0,-1,-1,2760.8060365,unknown,2,2022-06-02T10:46:56.528+02:00,2022-06-02T10:17:13.754+02:00,448,1.423373,0,0,345.1212,0,0,2022-06-02T10:46:56.527+02:00,675852416.5274439,0,6.703125,101.3023,1,0.81
2022-06-02T10:46:57.570+02:00,1654159607.99977,53.2290892146608,10.39854600557297,36.85167,0.0979749,0.8212841,33.42964030767001,121.7631351360658,2.400000095367432,7.999579855010836,-9999,2761.847842375,-0.387481689453125,0.5050506591796875,0.0462799072265625,2761.837848375,-0.2086853993574317,0.3226216218087093,-1.319639031015994,0.9503531455993652,3.513931512832642,-0.685077965259552,-1.663390636444092,-1.429563045501709,-0.2574763894081116,XArbitraryZVertical,-0.5885087561111216,0.1892244855788217,-0.1791392599562739,0.7653500269875098,0.07879588752985001,0.9686254262924194,-0.2357030808925629,0,0,0,-1,-1,2760.8060365,unknown,2,2022-06-02T10:46:56.528+02:00,2022-06-02T10:17:13.754+02:00,448,1.423373,0,0,345.1212,0,0,2022-06-02T10:46:56.527+02:00,675852416.5274439,0,6.703125,101.3023,1,0.81
