,loggingTime(txt),accelerometerTimestamp_sinceReboot(s),accelerometerAccelerationX(G),accelerometerAccelerationY(G),accelerometerAccelerationZ(G),motionTimestamp_sinceReboot(s),motionYaw(rad),motionRoll(rad),motionPitch(rad),motionRotationRateX(rad/s),motionRotationRateY(rad/s),motionRotationRateZ(rad/s),motionUserAccelerationX(G),motionUserAccelerationY(G),motionUserAccelerationZ(G),motionAttitudeReferenceFrame(txt),motionQuaternionX(R),motionQuaternionY(R),motionQuaternionZ(R),motionQuaternionW(R),motionGravityX(G),motionGravityY(G),motionGravityZ(G),motionMagneticFieldX(µT),motionMagneticFieldY(µT),motionMagneticFieldZ(µT),motionHeading(°),motionMagneticFieldCalibrationAccuracy(Z),activityTimestamp_sinceReboot(s),activity(txt),activityActivityConfidence(Z),activityActivityStartDate(txt),pedometerStartDate(txt),pedometerNumberofSteps(N),pedometerAverageActivePace(s/m),pedometerCurrentPace(s/m),pedometerCurrentCadence(steps/s),pedometerDistance(m),pedometerFloorAscended(N),pedometerFloorDescended(N),pedometerEndDate(txt)
174,2022-06-30T10:02:07.402+02:00,5574.41865675,0.021106109619140626,8.129744110107422,16.091537475585938,5574.41368175,1.024403568269765,2.194513624258742,0.2110446097501805,5.779450416564941,2.608096122741699,1.60389506816864,-0.7972735166549683,0.9182676076889038,0.9489213228225708,XArbitraryZVertical,-0.3918721977282391,0.7949749509381819,0.3039675246370152,0.3493635055057206,0.7937033176422119,-0.2094814479351044,0.5710979700088501,0,0,0,-1,-1,5573.367713875,walking,2,2022-06-30T10:02:06.349+02:00,2022-06-30T08:20:05.567+02:00,1524,1.448282,0,0,1205.903,0,0,2022-06-30T10:02:06.349+02:00
175,2022-06-30T10:02:07.411+02:00,5574.42860875,0.3177891540527344,9.034163360595702,16.65736083984375,5574.42363275,0.9684468069697164,2.230407925328548,0.1897273579831971,5.639743328094482,2.367315530776978,1.566179156303406,-0.7738984823226929,1.017311334609985,1.038506031036377,XArbitraryZVertical,-0.3792730877218717,0.810591591852669,0.2791869088267538,0.3480631475081911,0.7760502696037292,-0.1885911524295807,0.6018136143684387,0,0,0,-1,-1,5573.367713875,walking,2,2022-06-30T10:02:06.349+02:00,2022-06-30T08:20:05.567+02:00,1524,1.448282,0,0,1205.903,0,0,2022-06-30T10:02:06.349+02:00
176,2022-06-30T10:02:07.421+02:00,5574.43855975,0.28889923095703124,8.244405670166016,17.837057647705073,5574.43358375,0.9151573617920372,2.262129006757934,0.1675180201098578,5.331613063812256,2.122288703918457,1.528722047805786,-0.7272180914878845,1.087649464607239,1.069358110427856,XArbitraryZVertical,-0.366397210171059,0.8246653384076953,0.2553180588590216,0.3471209262151533,0.7596128582954407,-0.1667356342077255,0.6286396980285645,0,0,0,-1,-1,5573.367713875,walking,2,2022-06-30T10:02:06.349+02:00,2022-06-30T08:20:05.567+02:00,1524,1.448282,0,0,1205.903,0,0,2022-06-30T10:02:06.349+02:00
177,2022-06-30T10:02:07.431+02:00,5574.44851075,0.6053411865234375,6.0272163391113285,19.14129547119141,5574.443535750001,0.8670755012292075,2.289911587174958,0.1464328905102742,4.638264179229736,1.96859347820282,1.427490949630737,-0.7148869633674622,0.9863185286521912,1.166582822799683,XArbitraryZVertical,-0.3541198577093361,0.8369193556183541,0.2335209471321199,0.3458804432281479,0.7443369030952454,-0.1459101289510727,0.6516697406768799,0,0,0,-1,-1,5573.367713875,walking,2,2022-06-30T10:02:06.349+02:00,2022-06-30T08:20:05.567+02:00,1524,1.448282,0,0,1205.903,0,0,2022-06-30T10:02:06.349+02:00
178,2022-06-30T10:02:07.440+02:00,5574.458462750001,1.1862831115722656,5.320086822509766,20.207977294921875,5574.453486750001,0.8263914266960756,2.314268649175232,0.1284748020086435,3.84653115272522,1.80411434173584,1.270260334014893,-0.6683492064476013,0.7425168752670288,1.279932260513306,XArbitraryZVertical,-0.3432801575851129,0.8472270681589549,0.214903606425303,0.3437755363712729,0.7300561666488647,-0.1281216591596603,0.671269953250885,0,0,0,-1,-1,5573.367713875,walking,2,2022-06-30T10:02:06.349+02:00,2022-06-30T08:20:05.567+02:00,1524,1.448282,0,0,1205.903,0,0,2022-06-30T10:02:06.349+02:00
179,2022-06-30T10:02:07.450+02:00,5574.468413750001,2.0878582763671876,5.8791741943359375,21.674328002929688,5574.463437750001,0.7921425237597902,2.335186963467594,0.1128572941237437,3.317339420318604,1.57092821598053,1.137416243553162,-0.5962862372398376,0.654930591583252,1.372241854667664,XArbitraryZVertical,-0.3338786856235746,0.8557874959541196,0.1989927159051237,0.3414010719498801,0.7172123789787292,-0.1126178726553917,0.6876944303512573,0,0,0,-1,-1,5573.367713875,walking,2,2022-06-30T10:02:06.349+02:00,2022-06-30T08:20:05.567+02:00,1524,1.448282,0,0,1205.903,0,0,2022-06-30T10:02:06.349+02:00
180,2022-06-30T10:02:07.460+02:00,5574.478364750001,3.146756286621094,5.202132110595703,23.44649276733399,5574.473388750001,0.7620414499992814,2.352617914565251,0.0988286520684571,2.986830949783325,1.300029754638672,1.04125189781189,-0.4933387041091919,0.6979721188545227,1.508275985717773,XArbitraryZVertical,-0.3252647867517209,0.8630008782012174,0.1850777255718116,0.339379846891438,0.7061687707901001,-0.0986678525805473,0.7011353969573975,0,0,0,-1,-1,5573.367713875,walking,2,2022-06-30T10:02:06.349+02:00,2022-06-30T08:20:05.567+02:00,1524,1.448282,0,0,1205.903,0,0,2022-06-30T10:02:06.349+02:00
181,2022-06-30T10:02:07.470+02:00,5574.488315750001,3.4322126770019534,4.3330393981933595,25.42642547607422,5574.48334075,0.7348325247715135,2.366835251753239,0.0857959451617539,2.702485322952271,1.063441395759583,0.9670761823654176,-0.3761992454528809,0.6159794926643372,1.678097724914551,XArbitraryZVertical,-0.3171640442847951,0.8691307590079197,0.1726265791177195,0.3379629815600838,0.6969699263572693,-0.0856907293200492,0.7119626402854919,0,0,0,-1,-1,5573.367713875,walking,2,2022-06-30T10:02:06.349+02:00,2022-06-30T08:20:05.567+02:00,1524,1.448282,0,0,1205.903,0,0,2022-06-30T10:02:06.349+02:00
182,2022-06-30T10:02:07.480+02:00,5574.49826775,4.623136138916016,3.745960235595703,27.1834716796875,5574.49329175,0.7105453448423256,2.37870229410533,0.0739159730559191,2.39013934135437,0.9547410011291504,0.8731696009635925,-0.3392577767372131,0.5155448913574219,1.871020078659058,XArbitraryZVertical,-0.3097290577068663,0.8743580539249504,0.1615538190861837,0.3368477651947681,0.6891269087791443,-0.0738486871123313,0.7208681702613831,0,0,0,-1,-1,5573.367713875,walking,2,2022-06-30T10:02:06.349+02:00,2022-06-30T08:20:05.567+02:00,1524,1.448282,0,0,1205.903,0,0,2022-06-30T10:02:06.349+02:00
183,2022-06-30T10:02:07.491+02:00,5574.50821875,5.837411041259766,3.208128662109375,28.830197296142575,5574.50324275,0.6892870062836112,2.389388955270343,0.0641547488895319,1.952908992767334,0.9049463272094728,0.8671971559524536,-0.2105759978294373,0.4459619522094727,2.042313098907471,XArbitraryZVertical,-0.3029969349662453,0.8789393647738135,0.1521077882689713,0.3354428255740122,0.681844174861908,-0.0641107484698295,0.7286831140518188,0,0,0,-1,-1,5573.367713875,walking,2,2022-06-30T10:02:06.349+02:00,2022-06-30T08:20:05.567+02:00,1524,1.448282,0,0,1205.903,0,0,2022-06-30T10:02:06.349+02:00
184,2022-06-30T10:02:07.500+02:00,5574.51816975,6.3846730041503905,2.4325914001464843,30.2636164855957,5574.51319475,0.6717577528248049,2.399425569326602,0.0577641172567133,1.363006830215454,0.9125258326530457,0.8334470391273499,-0.0797120332717895,0.3847584128379822,2.203081369400024,XArbitraryZVertical,-0.2971500296536592,0.8829439705341576,0.1448797751511097,0.3333491990268656,0.6747593879699707,-0.0577320009469986,0.7357763648033142,0,0,0,-1,-1,5573.367713875,walking,2,2022-06-30T10:02:06.349+02:00,2022-06-30T08:20:05.567+02:00,1524,1.448282,0,0,1205.903,0,0,2022-06-30T10:02:06.349+02:00
185,2022-06-30T10:02:07.510+02:00,5574.528121750001,7.149282989501954,2.1427940368652343,32.00659194946289,5574.52314575,0.6588734903080278,2.409439294753654,0.0562415912637355,0.5870844125747681,0.969143569469452,0.8762272596359253,-0.0165823698043823,0.3041825294494629,2.34241509437561,XArbitraryZVertical,-0.2924311054679019,0.8864335864839656,0.1405984361341114,0.3300784393580147,0.6674159169197083,-0.056211944669485,0.7425609230995178,0,0,0,-1,-1,5573.367713875,walking,2,2022-06-30T10:02:06.349+02:00,2022-06-30T08:20:05.567+02:00,1524,1.448282,0,0,1205.903,0,0,2022-06-30T10:02:06.349+02:00
186,2022-06-30T10:02:07.520+02:00,5574.538072750001,7.250771942138672,2.06690185546875,33.27086288452149,5574.53309675,0.6514213764951906,2.42005164349604,0.0611193456859733,-0.3254943788051605,1.084455251693726,0.8736440539360046,0.069466233253479,0.279510885477066,2.513262271881104,XArbitraryZVertical,-0.2890249009063353,0.8894706969154822,0.1399843521889065,0.3251322945866549,0.6593092083930969,-0.061081301420927,0.7493870258331299,0,0,0,-1,-1,5573.367713875,walking,2,2022-06-30T10:02:06.349+02:00,2022-06-30T08:20:05.567+02:00,1524,1.448282,0,0,1205.903,0,0,2022-06-30T10:02:06.349+02:00
187,2022-06-30T10:02:07.530+02:00,5574.548023750001,7.492070159912109,1.8741027832031252,34.43349517822266,5574.543048750001,0.65004273070367,2.431926512123072,0.0720327548291975,-1.104641318321228,1.307523012161255,0.7476515173912048,0.089229941368103,0.2826638519763947,2.634912729263306,XArbitraryZVertical,-0.2873864703286058,0.8920287044894902,0.1428713570796389,0.3182478021156958,0.6498909592628479,-0.0719704777002334,0.7566123604774475,0,0,0,-1,-1,5573.367713875,walking,2,2022-06-30T10:02:06.349+02:00,2022-06-30T08:20:05.567+02:00,1524,1.448282,0,0,1205.903,0,0,2022-06-30T10:02:06.349+02:00
188,2022-06-30T10:02:07.540+02:00,5574.55797575,8.135731658935548,1.9104771423339846,36.03022476196289,5574.552999750001,0.6539452333027662,2.446077109055022,0.0867581024936435,-1.627511024475098,1.605440020561218,0.5739768743515015,0.1253466606140137,0.2776893675327301,2.745203971862793,XArbitraryZVertical,-0.2876719346624843,0.8942387553436005,0.1479608829776785,0.3093374506806871,0.638371467590332,-0.0866493061184883,0.7648361921310425,0,0,0,-1,-1,5573.367713875,walking,2,2022-06-30T10:02:06.349+02:00,2022-06-30T08:20:05.567+02:00,1524,1.448282,0,0,1205.903,0,0,2022-06-30T10:02:06.349+02:00
189,2022-06-30T10:02:07.550+02:00,5574.56792675,8.712033233642579,1.2989987182617189,37.31170989990235,5574.562950750001,0.6616319467187513,2.463050648466919,0.1045771828127095,-2.107572078704834,1.954048871994019,0.4900995194911957,0.2051011919975281,0.2991346120834351,2.89857006072998,XArbitraryZVertical,-0.2894303946924096,0.8962967842073175,0.1545637300779659,0.2983157275285905,0.6242297291755676,-0.1043866723775864,0.7742357850074768,0,0,0,-1,-1,5573.367713875,walking,2,2022-06-30T10:02:06.349+02:00,2022-06-30T08:20:05.567+02:00,1524,1.448282,0,0,1205.903,0,0,2022-06-30T10:02:06.349+02:00
190,2022-06-30T10:02:07.560+02:00,5574.57787775,8.845854949951173,1.025068359375,38.13859039306641,5574.57290275,0.6728595111044715,2.482753661903055,0.1254601313779015,-2.597278356552124,2.272071838378906,0.3609890639781952,0.2806896567344666,0.2575470209121704,3.01894736289978,XArbitraryZVertical,-0.2926116714409523,0.8981219025312663,0.1625741902124123,0.2851759462626441,0.6073877215385437,-0.1251312643289566,0.784489095211029,0,0,0,-1,-1,5573.367713875,walking,2,2022-06-30T10:02:06.349+02:00,2022-06-30T08:20:05.567+02:00,1524,1.448282,0,0,1205.903,0,0,2022-06-30T10:02:06.349+02:00
191,2022-06-30T10:02:07.570+02:00,5574.58782975,9.557774505615235,0.3688330078125,40.04592407226563,5574.58285375,0.6884289203829803,2.504829315430349,0.1511419811322632,-3.407701730728149,2.610676050186157,0.262790858745575,0.3139008283615112,0.2550594210624695,3.092867136001587,XArbitraryZVertical,-0.2973359243122426,0.8994556766268376,0.1728313619272078,0.26962955592973,0.5878176093101501,-0.1505671888589859,0.7948583364486694,0,0,0,-1,-1,5573.367713875,walking,2,2022-06-30T10:02:06.349+02:00,2022-06-30T08:20:05.567+02:00,1524,1.448282,0,0,1205.903,0,0,2022-06-30T10:02:06.349+02:00
192,2022-06-30T10:02:07.580+02:00,5574.59778075,9.977351989746094,0.25342300415039065,41.559426727294934,5574.59280475,0.7099773705096516,2.529104654008291,0.1835333199964458,-4.352016448974609,2.994259595870972,0.0489510782063007,0.4090398550033569,0.2201023548841476,3.277674913406372,XArbitraryZVertical,-0.3041089128335877,0.8998649508850943,0.1862737759865563,0.2511235199955549,0.5652495622634888,-0.1825046837329865,0.8044783473014832,0,0,0,-1,-1,5573.367713875,walking,2,2022-06-30T10:02:06.349+02:00,2022-06-30T08:20:05.567+02:00,1524,1.448282,0,0,1205.903,0,0,2022-06-30T10:02:06.349+02:00
193,2022-06-30T10:02:07.590+02:00,5574.60773175,10.41593994140625,-0.23860382080078127,42.41220336914063,5574.60275675,0.7380998748856347,2.555062420686171,0.2216191250679486,-5.006300926208496,3.350591897964478,-0.3322684466838837,0.4771215915679932,0.2456426024436951,3.423938274383545,XArbitraryZVertical,-0.3133953296626868,0.8989058367819988,0.2023739342239878,0.2297749381989,0.5399381518363953,-0.2198094427585602,0.8124966621398926,0,0,0,-1,-1,5573.367713875,walking,2,2022-06-30T10:02:06.349+02:00,2022-06-30T08:20:05.567+02:00,1524,1.448282,0,0,1205.903,0,0,2022-06-30T10:02:06.349+02:00
194,2022-06-30T10:02:07.600+02:00,5574.61768275,10.964100036621094,-2.804717559814453,44.56697250366212,5574.61270775,0.7716041068998962,2.581328473836587,0.261203693576439,-5.159116744995117,3.525752305984497,-0.8788580298423767,0.5483834147453308,0.2339211106300354,3.504983425140381,XArbitraryZVertical,-0.3251938862076702,0.8963477834295969,0.2191101246535349,0.2068829582074961,0.5133846998214722,-0.258243590593338,0.8183808326721191,0,0,0,-1,-1,5573.367713875,walking,2,2022-06-30T10:02:06.349+02:00,2022-06-30T08:20:05.567+02:00,1524,1.448282,0,0,1205.903,0,0,2022-06-30T10:02:06.349+02:00
195,2022-06-30T10:02:07.610+02:00,5574.627634750001,11.154354400634762,-6.924001464843751,46.51322525024413,5574.62265875,0.8104971264396335,2.606123127515201,0.2989194689520066,-5.196341991424561,3.632409334182739,-1.635129332542419,0.6300274133682251,0.0085838735103607,3.721122980117798,XArbitraryZVertical,-0.3397609994694212,0.8919127013194684,0.2351023934378593,0.1837966367875871,0.4876183569431305,-0.2944877743721008,0.8218916058540344,0,0,0,-1,-1,5573.367713875,walking,2,2022-06-30T10:02:06.349+02:00,2022-06-30T08:20:05.567+02:00,1524,1.448282,0,0,1205.903,0,0,2022-06-30T10:02:06.349+02:00
196,2022-06-30T10:02:07.620+02:00,5574.637586416667,9.736802215576173,-9.721084899902344,47.701154937744136,5574.632610416667,0.8569164312434978,2.628121135301009,0.3329446695390296,-5.021366596221924,3.700606107711792,-2.683386564254761,0.6728103756904602,-0.3789830803871155,3.918198823928833,XArbitraryZVertical,-0.3580229746411313,0.885112879336568,0.2498251680235487,0.1611901389506812,0.4642292261123657,-0.3268274068832397,0.8232105374336243,0,0,0,-1,-1,5573.367713875,walking,2,2022-06-30T10:02:06.349+02:00,2022-06-30T08:20:05.567+02:00,1524,1.448282,0,0,1205.903,0,0,2022-06-30T10:02:06.349+02:00
197,2022-06-30T10:02:07.630+02:00,5574.647537416667,7.911198577880859,-8.611891479492188,51.28170913696288,5574.642562416667,0.9119709691536092,2.645308839913159,0.3601036753961993,-4.600102424621582,3.571978330612183,-3.850296497344971,0.5469186305999756,-0.6385650038719177,4.039546489715576,XArbitraryZVertical,-0.3804702708917515,0.87562590564516,0.2622611350306064,0.1405024716479564,0.4456203281879425,-0.3523712754249573,0.8229566812515259,0,0,0,-1,-1,5573.367713875,walking,2,2022-06-30T10:02:06.349+02:00,2022-06-30T08:20:05.567+02:00,1524,1.448282,0,0,1205.903,0,0,2022-06-30T10:02:06.349+02:00
198,2022-06-30T10:02:07.639+02:00,5574.657489416667,4.5267366027832034,-5.587879943847657,55.09892120361329,5574.652513416667,0.976891259504006,2.654952859148636,0.378858400645353,-4.443585395812988,3.05192494392395,-5.181366443634033,0.3719470202922821,-0.5080083608627319,4.406264305114746,XArbitraryZVertical,-0.407223423521487,0.8630084527670492,0.2724144688917893,0.1231902535934075,0.4344955682754517,-0.369860053062439,0.8212290406227112,0,0,0,-1,-1,5573.367713875,walking,2,2022-06-30T10:02:06.349+02:00,2022-06-30T08:20:05.567+02:00,1524,1.448282,0,0,1205.903,0,0,2022-06-30T10:02:06.349+02:00
199,2022-06-30T10:02:07.649+02:00,5574.667440416667,-0.8794212341308594,-1.7763560485839844,58.82033248901369,5574.662464416667,1.056866694186208,2.650251834058216,0.3891722752053491,-4.393790245056152,1.878423929214478,-7.08256196975708,0.0249131321907043,-0.1901876628398895,4.80083703994751,XArbitraryZVertical,-0.4392013491153398,0.8455692712133016,0.282277972407835,0.1115074489231382,0.4365282654762268,-0.3794227242469788,0.8157704472541809,0,0,0,-1,-1,5573.367713875,walking,2,2022-06-30T10:02:06.349+02:00,2022-06-30T08:20:05.567+02:00,1524,1.448282,0,0,1205.903,0,0,2022-06-30T10:02:06.349+02:00
200,2022-06-30T10:02:07.659+02:00,5574.677391416667,-3.852538604736328,4.803660736083985,59.02600479125976,5574.672416416667,1.156355565560126,2.621193702151462,0.3900979503000681,-4.745420455932617,-0.160728931427002,-8.99097728729248,-0.5495156645774841,0.199203222990036,5.193518161773682,XArbitraryZVertical,-0.4763306212770765,0.8211748638423659,0.2947818380926203,0.1090165721660123,0.4598705768585205,-0.380279004573822,0.8024380207061768,0,0,0,-1,-1,5573.367713875,walking,2,2022-06-30T10:02:06.349+02:00,2022-06-30T08:20:05.567+02:00,1524,1.448282,0,0,1205.903,0,0,2022-06-30T10:02:06.349+02:00
201,2022-06-30T10:02:07.669+02:00,5574.687343416667,-11.924203491210939,14.876514129638677,56.432048950195316,5574.682367416667,1.276191752049761,2.561163517408222,0.3832468144433045,-5.776928901672363,-2.891810417175293,-10.76924705505371,-0.9013158082962036,0.8636036515235901,5.241358280181885,XArbitraryZVertical,-0.5165350053923634,0.788018761433776,0.313915430751351,0.1169415294478196,0.5086008310317993,-0.3739337027072906,0.7755639553070068,0,0,0,-1,-1,5573.367713875,walking,2,2022-06-30T10:02:06.349+02:00,2022-06-30T08:20:05.567+02:00,1524,1.448282,0,0,1205.903,0,0,2022-06-30T10:02:06.349+02:00
202,2022-06-30T10:02:07.679+02:00,5574.697294416667,-17.949024810791013,18.709593200683596,52.07371215820313,5574.692318416667,1.416865711092139,2.468321679272299,0.3677873234611382,-7.067619800567627,-5.228688716888428,-12.30622673034668,-1.797361850738525,1.876016020774841,5.022997856140137,XArbitraryZVertical,-0.5579027484375927,0.743973719700371,0.3423587631290693,0.1343067728136856,0.5818471908569336,-0.3595516085624695,0.7295047640800476,0,0,0,-1,-1,5573.367713875,walking,2,2022-06-30T10:02:06.349+02:00,2022-06-30T08:20:05.567+02:00,1524,1.448282,0,0,1205.903,0,0,2022-06-30T10:02:06.349+02:00
203,2022-06-30T10:02:07.689+02:00,5574.707245416667,-20.07924499511719,20.184775543212886,44.856320800781255,5574.702270416667,1.570677716605157,2.355653677532982,0.3392350900334488,-8.015729904174805,-6.712479591369629,-13.04684162139893,-2.496834754943848,2.239962100982666,4.641779899597168,XArbitraryZVertical,-0.5980852240682334,0.6895780906704571,0.3771447195454458,0.1566462365803826,0.6671689748764038,-0.3327658772468567,0.6664477586746216,0,0,0,-1,-1,5573.367713875,walking,2,2022-06-30T10:02:06.349+02:00,2022-06-30T08:20:05.567+02:00,1524,1.448282,0,0,1205.903,0,0,2022-06-30T10:02:06.349+02:00
204,2022-06-30T10:02:07.699+02:00,5574.717197416667,-24.910149078369137,18.344801788330074,43.82227111816407,5574.712221416667,1.734520002548376,2.225246014929959,0.2972140961409991,-9.894952774047852,-9.360599517822266,-14.04243659973145,-2.805411815643311,2.35042929649353,3.990475654602051,XArbitraryZVertical,-0.6340065853519287,0.6237408591234079,0.4194748275654754,0.1817249191790874,0.7585981488227844,-0.2928575873374939,0.5820339918136597,0,0,0,-1,-1,5573.367713875,walking,2,2022-06-30T10:02:06.349+02:00,2022-06-30T08:20:05.567+02:00,1524,1.448282,0,0,1205.903,0,0,2022-06-30T10:02:06.349+02:00
205,2022-06-30T10:02:07.709+02:00,5574.727148416667,-35.573823852539064,10.4903352355957,49.35895751953125,5574.722172416667,1.906459717424764,2.0670211817753,0.2290806111842673,-10.37937068939209,-13.52075290679932,-15.65971088409424,-3.395673513412476,2.097093105316162,4.003430843353271,XArbitraryZVertical,-0.6619556514485494,0.5418950398257604,0.4713914307571387,0.2143701820134995,0.8564127087593079,-0.2270822525024414,0.4636710286140442,0,0,0,-1,-1,5573.367713875,walking,2,2022-06-30T10:02:06.349+02:00,2022-06-30T08:20:05.567+02:00,1524,1.448282,0,0,1205.903,0,0,2022-06-30T10:02:06.349+02:00
206,2022-06-30T10:02:07.719+02:00,5574.737099416667,-70.24472534179688,9.317673797607423,64.1955047607422,5574.732123416667,2.065581681456891,1.876792355925218,0.1197865650605988,-9.6650972366333,-19.16902160644531,-16.76364898681641,-4.572996139526367,1.188851952552795,4.732409477233887,XArbitraryZVertical,-0.6732912264898221,0.4429685460736424,0.531412243330209,0.2608808040661114,0.9467144012451172,-0.1195003017783165,0.2990844249725342,0,0,0,-1,-1,5573.367713875,walking,2,2022-06-30T10:02:06.349+02:00,2022-06-30T08:20:05.567+02:00,1524,1.448282,0,0,1205.903,0,0,2022-06-30T10:02:06.349+02:00
207,2022-06-30T10:02:07.729+02:00,5574.747050416667,-134.27467437744136,27.299181060791014,66.02065933227539,5574.742075416667,2.168674962556808,1.649075178789687,-0.0296325236859425,-4.555602550506592,-24.81790924072266,-17.15628433227539,-8.157022476196289,0.9201860427856444,6.465719699859619,XArbitraryZVertical,-0.6536893317369858,0.3343240280497817,0.594988948324152,0.326964484631536,0.9965000152587892,0.029628187417984,0.0781645998358726,0,0,0,-1,-1,5573.367713875,walking,2,2022-06-30T10:02:06.349+02:00,2022-06-30T08:20:05.567+02:00,1524,1.448282,0,0,1205.903,0,0,2022-06-30T10:02:06.349+02:00
208,2022-06-30T10:02:07.739+02:00,5574.757002416667,-140.32943344116214,126.39700607299807,53.620296020507816,5574.752026416667,2.105288475150357,1.344000580649605,-0.1927360682068419,16.12941741943359,-34.11820220947266,-15.12580299377441,-14.64388084411621,2.591246604919434,6.95062780380249,XArbitraryZVertical,-0.5756180878614832,0.2414897622574869,0.6470315268527417,0.4378319628072378,0.9563499689102172,0.1915450096130371,-0.2206930220127106,0,0,0,-1,-1,5573.367713875,walking,2,2022-06-30T10:02:06.349+02:00,2022-06-30T08:20:05.567+02:00,1524,1.448282,0,0,1205.903,0,0,2022-06-30T10:02:06.349+02:00
209,2022-06-30T10:02:07.749+02:00,5574.766953416667,-240.0213729858399,191.40202743530278,15.21406219482422,5574.761977416667,1.822900322553175,0.9402230702611936,-0.1943990969642704,34.06114959716797,-34.82943725585938,-11.56125164031982,-15.09720897674561,12.69132995605469,6.04438304901123,XArbitraryZVertical,-0.4093481095426981,0.2078055120961816,0.6743929722716623,0.5783123561202159,0.7924759387969971,0.1931769847869873,-0.5785019993782043,0,0,0,-1,-1,5573.367713875,walking,2,2022-06-30T10:02:06.349+02:00,2022-06-30T08:20:05.567+02:00,1524,1.448282,0,0,1205.903,0,0,2022-06-30T10:02:06.349+02:00
210,2022-06-30T10:02:07.759+02:00,5574.776904416667,-206.03424957275388,92.48218231201174,16.457526397705074,5574.771929416667,1.531258397879613,0.6568574962563832,0.0002803682183265,34.78135299682617,-13.8528299331665,-2.668264389038086,-25.0776424407959,19.51119041442871,2.342787742614746,XArbitraryZVertical,-0.2234327660921457,0.2326376759254347,0.6559832202365901,0.6823807911491271,0.6106312274932861,-0.0002803682291414,-0.7919149994850159,0,0,0,-1,-1,5573.367713875,walking,2,2022-06-30T10:02:06.349+02:00,2022-06-30T08:20:05.567+02:00,1524,1.448282,0,0,1205.903,0,0,2022-06-30T10:02:06.349+02:00
211,2022-06-30T10:02:07.769+02:00,5574.786856416667,-145.86372482299808,-88.3423910522461,95.3261183166504,5574.781880416667,1.351102294836008,0.6143109913753073,0.2436738181905186,24.98202133178711,-0.6705465912818909,0.8002288341522217,-21.56184005737305,9.668607711791992,2.470657348632812,XArbitraryZVertical,-0.097262256641938,0.3066350330695486,0.6203173367155894,0.7153469677008477,0.559367835521698,-0.2412695288658142,-0.7930300235748291,0,0,0,-1,-1,5573.367713875,walking,2,2022-06-30T10:02:06.349+02:00,2022-06-30T08:20:05.567+02:00,1524,1.448282,0,0,1205.903,0,0,2022-06-30T10:02:06.349+02:00
212,2022-06-30T10:02:07.779+02:00,5574.796807416667,-53.68885345458985,-182.0467817687988,46.2861474609375,5574.791831416667,1.2525787908298,0.7172963747771073,0.3841771955297482,9.583538055419922,14.1996431350708,1.143256664276123,-15.47831535339355,-8.63054370880127,10.4158935546875,XArbitraryZVertical,-0.0571224023280509,0.383939709205079,0.5930456516006896,0.7054247628362335,0.6094335317611694,-0.374796450138092,-0.6986546516418457,0,0,0,-1,-1,5573.367713875,walking,2,2022-06-30T10:02:06.349+02:00,2022-06-30T08:20:05.567+02:00,1524,1.448282,0,0,1205.903,0,0,2022-06-30T10:02:06.349+02:00
213,2022-06-30T10:02:07.789+02:00,5574.806758416667,71.45885055541993,-83.76550872802734,-7.363637237548828,5574.801783416667,1.28150462493152,0.7884611382113966,0.4289208251607086,-6.659406185150146,3.829856634140015,11.96178150177002,-6.117890357971191,-18.14137649536133,5.359342575073242,XArbitraryZVertical,-0.0668333713323484,0.4183214571940016,0.6048283354419833,0.6743316442565771,0.6450202465057373,-0.4158896207809448,-0.641080915927887,0,0,0,-1,-1,5573.367713875,walking,2,2022-06-30T10:02:06.349+02:00,2022-06-30T08:20:05.567+02:00,1524,1.448282,0,0,1205.903,0,0,2022-06-30T10:02:06.349+02:00
214,2022-06-30T10:02:07.799+02:00,5574.816710416667,18.75240417480469,-50.85704223632813,32.50550445556641,5574.811734416667,1.405432199689796,0.7615292607446037,0.4411771364527048,-6.943233489990234,0.5321946740150452,3.659117698669434,6.660327911376953,-8.111783027648926,-0.0961465835571289,XArbitraryZVertical,-0.0793531879648051,0.4079993147249039,0.6475168954165849,0.6387185941952762,0.6239585280418396,-0.4270041882991791,-0.6544792652130127,0,0,0,-1,-1,5573.367713875,walking,2,2022-06-30T10:02:06.349+02:00,2022-06-30T08:20:05.567+02:00,1524,1.448282,0,0,1205.903,0,0,2022-06-30T10:02:06.349+02:00
215,2022-06-30T10:02:07.809+02:00,5574.826661416667,-12.790003051757813,-7.696994018554688,-13.163626098632813,5574.821685416667,1.494499041547202,0.7148044584703289,0.3832135341089872,-12.32424926757812,-1.830155491828918,2.127865076065063,1.303632736206055,-4.810300827026367,4.013950347900391,XArbitraryZVertical,-0.1025404451306983,0.3731804369333006,0.6738977152206055,0.6293518762999968,0.607927143573761,-0.3739028573036194,-0.7004436254501343,0,0,0,-1,-1,5573.367713875,walking,2,2022-06-30T10:02:06.349+02:00,2022-06-30T08:20:05.567+02:00,1524,1.448282,0,0,1205.903,0,0,2022-06-30T10:02:06.349+02:00
216,2022-06-30T10:02:07.819+02:00,5574.836612416667,-13.87838973999024,14.942975921630865,-57.000716400146494,5574.831637416667,1.618939313104484,0.6616487515309791,0.3013828135001929,-13.96580219268799,-2.490364789962769,5.522041797637939,-1.890496850013733,-0.4877656102180481,-0.5884395837783813,XArbitraryZVertical,-0.1345309302126025,0.3243334205708387,0.7105484278403206,0.6097788367858233,0.5867248177528381,-0.2968409657478333,-0.753418505191803,0,0,0,-1,-1,5573.367713875,walking,2,2022-06-30T10:02:06.349+02:00,2022-06-30T08:20:05.567+02:00,1524,1.448282,0,0,1205.903,0,0,2022-06-30T10:02:06.349+02:00
217,2022-06-30T10:02:07.829+02:00,5574.846563416667,-28.250602569580074,0.1586700439453125,-42.21177017211913,5574.841588416667,1.719847101961307,0.586163210289991,0.24895026883948,-5.878352165222168,-5.554706573486328,3.640418767929077,-1.950834274291992,1.769626259803772,-5.0030837059021,XArbitraryZVertical,-0.1396798465401734,0.2771209786682195,0.7432699984824833,0.5926577717563659,0.5361154675483704,-0.2463867217302322,-0.8073869943618774,0,0,0,-1,-1,5573.367713875,walking,2,2022-06-30T10:02:06.349+02:00,2022-06-30T08:20:05.567+02:00,1524,1.448282,0,0,1205.903,0,0,2022-06-30T10:02:06.349+02:00
218,2022-06-30T10:02:07.839+02:00,5574.856515416667,-19.55608291625976,-11.942016448974615,-16.937278747558594,5574.851539416667,1.761587392620851,0.5301356753730523,0.2262898003753339,-3.050519943237305,-4.011033535003662,1.309929490089417,-3.372535228729248,0.240538164973259,-3.462189435958862,XArbitraryZVertical,-0.1313970289742901,0.2497260706475203,0.7583767708936718,0.5875682172057878,0.492759108543396,-0.2243634611368179,-0.8407434225082397,0,0,0,-1,-1,5573.367713875,walking,2,2022-06-30T10:02:06.349+02:00,2022-06-30T08:20:05.567+02:00,1524,1.448282,0,0,1205.903,0,0,2022-06-30T10:02:06.349+02:00
219,2022-06-30T10:02:07.848+02:00,5574.866466416667,-14.207255859375001,-9.667646026611328,-17.409247283935553,5574.861491416667,1.797930598299598,0.4854706224926303,0.2154817547644038,-2.32471752166748,-3.31042218208313,4.152252674102783,-2.449317932128906,-1.003512501716614,-0.8625310063362122,XArbitraryZVertical,-0.1220655672645554,0.2304331916976028,0.7714202966759043,0.580440573147131,0.4558332562446594,-0.2138180732727051,-0.8640010952949524,0,0,0,-1,-1,5573.367713875,walking,2,2022-06-30T10:02:06.349+02:00,2022-06-30T08:20:05.567+02:00,1524,1.448282,0,0,1205.903,0,0,2022-06-30T10:02:06.349+02:00
220,2022-06-30T10:02:07.858+02:00,5574.876417416667,-7.529192962646484,3.7473074340820314,-23.974893951416014,5574.871442416667,1.847966059623386,0.4483087486984668,0.2237596510883545,-0.2698136270046234,-1.944632172584534,4.891860961914062,-1.87087869644165,-0.7635914087295532,-0.8959280252456665,XArbitraryZVertical,-0.1106736963767517,0.2199858828980399,0.7881356247756224,0.5640921040668287,0.4226363599300385,-0.2218971103429794,-0.8787150979042053,0,0,0,-1,-1,5573.367713875,walking,2,2022-06-30T10:02:06.349+02:00,2022-06-30T08:20:05.567+02:00,1524,1.448282,0,0,1205.903,0,0,2022-06-30T10:02:06.349+02:00
221,2022-06-30T10:02:07.868+02:00,5574.886369416667,-6.234086151123047,-1.6709751892089844,-31.507679443359375,5574.881393416667,1.882624269235679,0.4238312508991956,0.2549101990481582,3.098696947097778,-1.299756526947021,3.80608606338501,-1.165468215942383,0.6341474056243896,-1.561859011650085,XArbitraryZVertical,-0.0954803530779283,0.2232732625818721,0.799578650370895,0.5492782232394512,0.3979663848876953,-0.252158522605896,-0.8820651173591614,0,0,0,-1,-1,5573.367713875,walking,2,2022-06-30T10:02:06.349+02:00,2022-06-30T08:20:05.567+02:00,1524,1.448282,0,0,1205.903,0,0,2022-06-30T10:02:06.349+02:00
222,2022-06-30T10:02:07.879+02:00,5574.896320416667,-7.8956309509277345,-20.29494644165039,-27.973528747558596,5574.891344416667,1.898295326928341,0.4101710524464933,0.3065021666724493,4.719327926635742,-0.5836241245269775,3.310848712921143,-1.015664458274841,0.1313922107219696,-2.337478876113892,XArbitraryZVertical,-0.0765737035038543,0.2387045658512356,0.8046605303482265,0.5382174843998998,0.380181610584259,-0.3017256855964661,-0.8743131756782532,0,0,0,-1,-1,5573.367713875,walking,2,2022-06-30T10:02:06.349+02:00,2022-06-30T08:20:05.567+02:00,1524,1.448282,0,0,1205.903,0,0,2022-06-30T10:02:06.349+02:00
223,2022-06-30T10:02:07.888+02:00,5574.906271416667,-5.834866333007813,-29.720096740722656,-20.030296783447262,5574.901296416667,1.91231259894073,0.4029095148280913,0.3589134020652025,3.609012365341187,0.0421332567930221,3.297824859619141,-1.171967148780823,-1.717544436454773,-1.99022650718689,XArbitraryZVertical,-0.0599983568341585,0.2564124952503879,0.8082003001918475,0.5267496698960656,0.3671117722988129,-0.3512570858001709,-0.8613056540489197,0,0,0,-1,-1,5573.367713875,walking,2,2022-06-30T10:02:06.349+02:00,2022-06-30T08:20:05.567+02:00,1524,1.448282,0,0,1205.903,0,0,2022-06-30T10:02:06.349+02:00
224,2022-06-30T10:02:07.902+02:00,5574.916223416667,-2.9654832458496094,-29.56831237792969,-14.100677490234375,5574.911247416667,1.936901057384367,0.3954959656928463,0.3901997701401029,0.2984890341758728,0.2888396084308624,3.353632211685181,-0.9510942697525024,-2.649198055267334,-1.188383340835571,XArbitraryZVertical,-0.0511163326236535,0.2658317881855146,0.8142011329932821,0.5136118615065959,0.3563066720962524,-0.3803731799125671,-0.8534411787986755,0,0,0,-1,-1,5573.367713875,walking,2,2022-06-30T10:02:06.349+02:00,2022-06-30T08:20:05.567+02:00,1524,1.448282,0,0,1205.903,0,0,2022-06-30T10:02:06.349+02:00
225,2022-06-30T10:02:07.912+02:00,5574.926174416667,-1.1605366516113282,-24.60972381591797,-11.205248565673825,5574.921198416667,1.974559588475276,0.3841181774732721,0.3921515702411625,-2.439597368240356,0.2454700171947479,3.232545852661133,-0.6485865116119385,-2.631921291351318,-0.5806282162666321,XArbitraryZVertical,-0.0508774535579433,0.2627480594571128,0.823978379468061,0.4994343911020469,0.3462946712970734,-0.3821775317192078,-0.8567498922348022,0,0,0,-1,-1,5573.367713875,walking,2,2022-06-30T10:02:06.349+02:00,2022-06-30T08:20:05.567+02:00,1524,1.448282,0,0,1205.903,0,0,2022-06-30T10:02:06.349+02:00
226,2022-06-30T10:02:07.918+02:00,5574.936125416667,1.8142272949218752,-18.61498992919922,-10.120903472900387,5574.931150416667,2.017495704696849,0.3678533372044457,0.372977545786331,-3.892926216125488,-0.3207341134548187,2.761662244796753,-0.4531899094581604,-2.144246101379395,-0.2732798457145691,XArbitraryZVertical,-0.0549309885230089,0.2500176913273527,0.8355403946394708,0.4861544473417448,0.3348885476589203,-0.3643898665904999,-0.8689475059509277,0,0,0,-1,-1,5573.367713875,walking,2,2022-06-30T10:02:06.349+02:00,2022-06-30T08:20:05.567+02:00,1524,1.448282,0,0,1205.903,0,0,2022-06-30T10:02:06.349+02:00
227,2022-06-30T10:02:07.928+02:00,5574.946077416667,2.432890777587891,-12.336296539306637,-11.52094207763672,5574.941101416667,2.056964092256463,0.3471355558561428,0.343153346418998,-4.23438835144043,-1.058074712753296,2.077291488647461,-0.1354345381259918,-1.561093807220459,-0.1461655497550964,XArbitraryZVertical,-0.0589502083422705,0.2318648908775439,0.8464780095698331,0.4756454894850317,0.3203710913658142,-0.3364582657814026,-0.8855270743370056,0,0,0,-1,-1,5573.367713875,walking,2,2022-06-30T10:02:06.349+02:00,2022-06-30T08:20:05.567+02:00,1524,1.448282,0,0,1205.903,0,0,2022-06-30T10:02:06.349+02:00
228,2022-06-30T10:02:07.938+02:00,5574.956028416667,-0.08322692871093751,-7.574249267578125,-14.532379760742188,5574.951052416667,2.088422044696369,0.3240879358548314,0.3104815046222723,-3.829007625579834,-1.470515966415405,1.428068876266479,-0.055217295885086,-0.9520050287246704,-0.2717908620834351,XArbitraryZVertical,-0.0611114369731024,0.212030127865986,0.8554794489535723,0.4684694277746152,0.3032184243202209,-0.305517166852951,-0.9026172161102296,0,0,0,-1,-1,5573.367713875,walking,2,2022-06-30T10:02:06.349+02:00,2022-06-30T08:20:05.567+02:00,1524,1.448282,0,0,1205.903,0,0,2022-06-30T10:02:06.349+02:00
229,2022-06-30T10:02:07.948+02:00,5574.965979416667,-1.9748432922363282,-4.760251007080078,-15.70818466186524,5574.961004416667,2.110709933004431,0.3033015791406935,0.2831623497525669,-2.663467645645142,-1.329076051712036,0.9967232346534728,-0.2952624261379242,-0.4927008748054504,-0.5650343894958496,XArbitraryZVertical,-0.0613703891477439,0.1950863112475471,0.8619911848089222,0.4638385616349788,0.2867785692214966,-0.2793934643268585,-0.91635000705719,0,0,0,-1,-1,5573.367713875,walking,2,2022-06-30T10:02:06.349+02:00,2022-06-30T08:20:05.567+02:00,1524,1.448282,0,0,1205.903,0,0,2022-06-30T10:02:06.349+02:00
230,2022-06-30T10:02:07.958+02:00,5574.975931416667,-1.2900173950195313,-2.086960144042969,-14.258000335693364,5574.970955416667,2.126049983617586,0.2881556882211428,0.2667468093298806,-1.372113943099976,-0.8702726364135742,0.9038242101669312,-0.475443035364151,-0.2216496169567108,-0.6763808131217957,XArbitraryZVertical,-0.0603619574380744,0.1841894967921481,0.8663798197397542,0.460235453968986,0.2741338312625885,-0.2635946869850159,-0.9248613119125366,0,0,0,-1,-1,5573.367713875,walking,2,2022-06-30T10:02:06.349+02:00,2022-06-30T08:20:05.567+02:00,1524,1.448282,0,0,1205.903,0,0,2022-06-30T10:02:06.349+02:00
231,2022-06-30T10:02:07.968+02:00,5574.985882416667,-0.07035369873046875,-1.011895751953125,-12.39587265014649,5574.980906416667,2.137522224694639,0.2782544124096555,0.2614782600147388,-0.279841810464859,-0.5503292679786682,0.9489781260490416,-0.3968412280082703,0.0457712411880493,-0.5245623588562012,XArbitraryZVertical,-0.0584012457396228,0.1793403123958034,0.8694257999875964,0.4566455931869003,0.2653410136699677,-0.2585088312625885,-0.928852677345276,0,0,0,-1,-1,5573.367713875,walking,2,2022-06-30T10:02:06.349+02:00,2022-06-30T08:20:05.567+02:00,1524,1.448282,0,0,1205.903,0,0,2022-06-30T10:02:06.349+02:00
232,2022-06-30T10:02:07.978+02:00,5574.995833416667,0.7346722412109375,-0.8927435302734376,-9.712103576660157,5574.990858416667,2.147016914155517,0.2710575026570822,0.2658073172292782,0.5496842265129089,-0.4253190755844116,1.078547358512878,-0.2655188739299774,0.1595393121242523,-0.3339443802833557,XArbitraryZVertical,-0.055067221912385,0.1792817579117555,0.8716819891954495,0.4527651702470563,0.2583472728729248,-0.2626883089542389,-0.9296513199806212,0,0,0,-1,-1,5573.367713875,walking,2,2022-06-30T10:02:06.349+02:00,2022-06-30T08:20:05.567+02:00,1524,1.448282,0,0,1205.903,0,0,2022-06-30T10:02:06.349+02:00
233,2022-06-30T10:02:07.988+02:00,5575.005784416667,1.3802796936035158,-1.9461030578613283,-7.88006332397461,5575.000809416667,2.156481995331674,0.2637174971245628,0.275327438925075,0.7494500279426575,-0.571435272693634,1.16861891746521,-0.1759633123874664,0.1808590888977051,-0.0609548687934875,XArbitraryZVertical,-0.0504224237863488,0.1814513613248681,0.8737467138792839,0.4484413888861838,0.2508534491062164,-0.2718620598316193,-0.9290659427642822,0,0,0,-1,-1,5573.367713875,walking,2,2022-06-30T10:02:06.349+02:00,2022-06-30T08:20:05.567+02:00,1524,1.448282,0,0,1205.903,0,0,2022-06-30T10:02:06.349+02:00
