loggingTime(txt),locationTimestamp_since1970(s),locationLatitude(WGS84),locationLongitude(WGS84),locationAltitude(m),locationSpeed(m/s),locationSpeedAccuracy(m/s),locationCourse(°),locationCourseAccuracy(°),locationVerticalAccuracy(m),locationHorizontalAccuracy(m),locationFloor(Z),accelerometerTimestamp_sinceReboot(s),accelerometerAccelerationX(G),accelerometerAccelerationY(G),accelerometerAccelerationZ(G),motionTimestamp_sinceReboot(s),motionYaw(rad),motionRoll(rad),motionPitch(rad),motionRotationRateX(rad/s),motionRotationRateY(rad/s),motionRotationRateZ(rad/s),motionUserAccelerationX(G),motionUserAccelerationY(G),motionUserAccelerationZ(G),motionAttitudeReferenceFrame(txt),motionQuaternionX(R),motionQuaternionY(R),motionQuaternionZ(R),motionQuaternionW(R),motionGravityX(G),motionGravityY(G),motionGravityZ(G),motionMagneticFieldX(µT),motionMagneticFieldY(µT),motionMagneticFieldZ(µT),motionHeading(°),motionMagneticFieldCalibrationAccuracy(Z),activityTimestamp_sinceReboot(s),activity(txt),activityActivityConfidence(Z),activityActivityStartDate(txt),pedometerStartDate(txt),pedometerNumberofSteps(N),pedometerAverageActivePace(s/m),pedometerCurrentPace(s/m),pedometerCurrentCadence(steps/s),pedometerDistance(m),pedometerFloorAscended(N),pedometerFloorDescended(N),pedometerEndDate(txt),altimeterTimestamp_sinceReboot(s),altimeterReset(bool),altimeterRelativeAltitude(m),altimeterPressure(kPa),batteryState(N),batteryLevel(R)
2022-06-02T10:55:33.760+02:00,1654160133.000334,53.22910340651305,10.3984763994714,36.91801,0,20,-1,-1,2.400000095367432,11.99936978251625,-9999,3271.86330875,0.033172607421875,-0.31829833984375,-0.9586944580078125,3271.85331475,0.4781959759931882,-0.03635030221527998,0.3021959892097197,0.2984126806259155,0.1527442783117294,-0.2202996015548706,-0.03998105600476265,0.2448677718639374,-0.06407284736633301,XArbitraryZVertical,0.1504725459210012,0.01818615018747435,0.2314315987889007,0.9609716498316987,-0.03469545394182205,-0.2976174056529999,-0.9540545344352722,0,0,0,-1,-1,3271.29105875,unknown,2,2022-06-02T10:55:33.149+02:00,2022-06-02T10:17:13.754+02:00,521,1.631355,0,0,405.4342,0,0,2022-06-02T10:55:33.149+02:00,675852933.1490878,0,4.210938,101.3309,1,0.78
2022-06-02T10:55:33.764+02:00,1654160133.000334,53.22910340651305,10.3984763994714,36.91801,0,20,-1,-1,2.400000095367432,11.99936978251625,-9999,3271.87330275,0.0287322998046875,-0.320037841796875,-0.9192962646484375,3271.86330875,0.4766229787165472,-0.03492283224473191,0.3052486996810954,0.2721433639526367,0.111410416662693,-0.1129601076245308,0.01282436400651932,0.1306847929954529,-0.02469933032989502,XArbitraryZVertical,0.1517870891356149,0.01911383012459345,0.2307029656915072,0.9609221522832276,-0.03330165892839432,-0.3005303740501404,-0.9531906843185425,0,0,0,-1,-1,3271.29105875,unknown,2,2022-06-02T10:55:33.149+02:00,2022-06-02T10:17:13.754+02:00,521,1.631355,0,0,405.4342,0,0,2022-06-02T10:55:33.149+02:00,675852933.1490878,0,4.210938,101.3309,1,0.78
2022-06-02T10:55:33.777+02:00,1654160133.000334,53.22910340651305,10.3984763994714,36.91801,0,20,-1,-1,2.400000095367432,11.99936978251625,-9999,3271.88329675,0.004486083984375,-0.2545166015625,-0.9156951904296875,3271.87330275,0.4760720952382446,-0.03427415471734454,0.3073177528498239,0.1529669165611267,0.05964282527565956,-0.04758935421705246,0.06583456695079803,-0.01579520106315613,-0.00610584020614624,XArbitraryZVertical,0.1527103977915885,0.01962737285950936,0.2304332549350304,0.9608302825308067,-0.03266195952892303,-0.3025031387805939,-0.9525886178016663,0,0,0,-1,-1,3271.29105875,unknown,2,2022-06-02T10:55:33.149+02:00,2022-06-02T10:17:13.754+02:00,521,1.631355,0,0,405.4342,0,0,2022-06-02T10:55:33.149+02:00,675852933.1490878,0,4.210938,101.3309,1,0.78
2022-06-02T10:55:33.779+02:00,1654160133.000334,53.22910340651305,10.3984763994714,36.91801,0,20,-1,-1,2.400000095367432,11.99936978251625,-9999,3271.89329075,-0.01312255859375,-0.2451171875,-0.915283203125,3271.88329675,0.4757000729088157,-0.03400483299559229,0.3087475978560072,0.1429977416992188,0.04109703376889229,-0.05520087108016014,0.06112296506762505,-0.01617217063903809,0.03286784887313843,XArbitraryZVertical,0.1533690661147976,0.01989659544955276,0.2302375721267375,0.9607667723106632,-0.03239066898822784,-0.3038657009601593,-0.9521641135215759,0,0,0,-1,-1,3271.29105875,unknown,2,2022-06-02T10:55:33.149+02:00,2022-06-02T10:17:13.754+02:00,521,1.631355,0,0,405.4342,0,0,2022-06-02T10:55:33.149+02:00,675852933.1490878,0,4.210938,101.3309,1,0.78
2022-06-02T10:55:33.781+02:00,1654160133.000334,53.22910340651305,10.3984763994714,36.91801,0,20,-1,-1,2.400000095367432,11.99936978251625,-9999,3271.90328575,-0.0189971923828125,-0.3053131103515625,-0.938629150390625,3271.89329075,0.4752647115911126,-0.03386224549199099,0.3101179090174958,0.1234908774495125,0.02965130284428596,-0.05631540343165398,0.03672685846686363,0.05065432190895081,0.0360565185546875,XArbitraryZVertical,0.1540144374488358,0.02009279198214484,0.2300033862944864,0.960715461316712,-0.03224077075719833,-0.3051709234714508,-0.9517516493797302,0,0,0,-1,-1,3271.29105875,unknown,2,2022-06-02T10:55:33.149+02:00,2022-06-02T10:17:13.754+02:00,521,1.631355,0,0,405.4342,0,0,2022-06-02T10:55:33.149+02:00,675852933.1490878,0,4.210938,101.3309,1,0.78
2022-06-02T10:55:33.783+02:00,1654160133.000334,53.22910340651305,10.3984763994714,36.91801,0,20,-1,-1,2.400000095367432,11.99936978251625,-9999,3271.91327975,-0.01336669921875,-0.350860595703125,-0.9367828369140625,3271.90328575,0.4749123549908158,-0.03380477091175194,0.310941719106306,0.03209112584590912,0.02447185479104519,-0.03868887200951576,0.01905500516295433,0.06083813309669495,0.03621876239776611,XArbitraryZVertical,0.1544065947811643,0.02019002938529416,0.2298168897148687,0.9606950812827145,-0.03217756375670433,-0.3059553205966949,-0.9515019059181213,0,0,0,-1,-1,3271.29105875,unknown,2,2022-06-02T10:55:33.149+02:00,2022-06-02T10:17:13.754+02:00,521,1.631355,0,0,405.4342,0,0,2022-06-02T10:55:33.149+02:00,675852933.1490878,0,4.210938,101.3309,1,0.78
2022-06-02T10:55:33.785+02:00,1654160133.000334,53.22910340651305,10.3984763994714,36.91801,0,20,-1,-1,2.400000095367432,11.99936978251625,-9999,3271.92327375,-0.00958251953125,-0.3260650634765625,-0.9294281005859375,3271.91327975,0.4746518548127635,-0.03380217738608753,0.3105263175323917,-0.1038169115781784,0.02039322257041931,-0.02885302156209946,0.01318218931555748,0.0002467036247253418,0.01299983263015747,XArbitraryZVertical,0.1542096264520683,0.02012239444628255,0.2297028725766302,0.9607554574418544,-0.03217938914895058,-0.3055598139762878,-0.9516289830207825,0,0,0,-1,-1,3271.29105875,unknown,2,2022-06-02T10:55:33.149+02:00,2022-06-02T10:17:13.754+02:00,521,1.631355,0,0,405.4342,0,0,2022-06-02T10:55:33.149+02:00,675852933.1490878,0,4.210938,101.3309,1,0.78
2022-06-02T10:55:33.793+02:00,1654160133.000334,53.22910340651305,10.3984763994714,36.91801,0,20,-1,-1,2.400000095367432,11.99936978251625,-9999,3271.93326775,-0.0261993408203125,-0.2744903564453125,-0.9034881591796875,3271.92327375,0.4744200301467919,-0.0339516204194908,0.3091495481258851,-0.160248264670372,-0.004919391125440598,-0.02542546391487122,0.01896914839744568,-0.04661202430725098,0.01526087522506714,XArbitraryZVertical,0.1535685397674621,0.01987117322941931,0.229616166777876,0.9608840702216802,-0.03233585134148598,-0.3042486011981964,-0.9520436525344849,0,0,0,-1,-1,3271.29105875,unknown,2,2022-06-02T10:55:33.149+02:00,2022-06-02T10:17:13.754+02:00,521,1.631355,0,0,405.4342,0,0,2022-06-02T10:55:33.149+02:00,675852933.1490878,0,4.210938,101.3309,1,0.78
2022-06-02T10:55:33.803+02:00,1654160133.000334,53.22910340651305,10.3984763994714,36.91801,0,20,-1,-1,2.400000095367432,11.99936978251625,-9999,3271.94326175,-0.0426025390625,-0.2818145751953125,-0.8919830322265625,3271.93326775,0.4741590612605545,-0.03425536529952015,0.3075731737126602,-0.1449593305587769,-0.008236624300479889,-0.03595613688230515,0.02305888757109642,-0.02331849932670593,0.02308386564254761,XArbitraryZVertical,0.1528495238447355,0.01952028516482729,0.2295088417824244,0.9610315713872738,-0.03264141455292702,-0.302746593952179,-0.9525119662284851,0,0,0,-1,-1,3271.29105875,unknown,2,2022-06-02T10:55:33.149+02:00,2022-06-02T10:17:13.754+02:00,521,1.631355,0,0,405.4342,0,0,2022-06-02T10:55:33.149+02:00,675852933.1490878,0,4.210938,101.3309,1,0.78
2022-06-02T10:55:33.812+02:00,1654160133.000334,53.22910340651305,10.3984763994714,36.91801,0,20,-1,-1,2.400000095367432,11.99936978251625,-9999,3271.95325575,-0.0261688232421875,-0.30322265625,-0.8857269287109375,3271.94326175,0.4737207376743186,-0.03432894324542212,0.3064659517960121,-0.08184563368558884,0.02153585106134415,-0.05459819734096527,0.006523642688989639,0.02720078825950623,0.04935586452484131,XArbitraryZVertical,0.1523308339680195,0.01932166096345951,0.2293215888296207,0.9611625896240197,-0.03272298350930214,-0.3016911447048187,-0.952843964099884,0,0,0,-1,-1,3271.29105875,unknown,2,2022-06-02T10:55:33.149+02:00,2022-06-02T10:17:13.754+02:00,521,1.631355,0,0,405.4342,0,0,2022-06-02T10:55:33.149+02:00,675852933.1490878,0,4.210938,101.3309,1,0.78
2022-06-02T10:55:33.822+02:00,1654160133.000334,53.22910340651305,10.3984763994714,36.91801,0,20,-1,-1,2.400000095367432,11.99936978251625,-9999,3271.96324975,0.003509521484375,-0.3334808349609375,-0.91180419921875,3271.95325575,0.4733471248859145,-0.03415906519131022,0.3056484209444567,-0.09350442141294479,0.03781842067837715,-0.02455694228410721,-0.010033018887043,0.01909703016281128,0.06111270189285278,XArbitraryZVertical,0.1519225613063702,0.01927910664100288,0.2291762923251501,0.961262683792653,-0.0325695276260376,-0.3009116053581238,-0.9530956745147705,0,0,0,-1,-1,3271.29105875,unknown,2,2022-06-02T10:55:33.149+02:00,2022-06-02T10:17:13.754+02:00,521,1.631355,0,0,405.4342,0,0,2022-06-02T10:55:33.149+02:00,675852933.1490878,0,4.210938,101.3309,1,0.78
2022-06-02T10:55:33.832+02:00,1654160133.000334,53.22910340651305,10.3984763994714,36.91801,0,20,-1,-1,2.400000095367432,11.99936978251625,-9999,3271.97324375,0.0243988037109375,-0.3569488525390625,-0.934112548828125,3271.96324975,0.4732165545873605,-0.03402450483359861,0.3044886677073312,-0.1385744214057922,0.02673647180199623,-0.0113412719219923,0.006284300237894058,-0.003417283296585083,0.06772130727767944,XArbitraryZVertical,0.1513516667921349,0.01919808020556396,0.2291538929482532,0.9613596591280408,-0.03245312720537186,-0.2998054027557373,-0.9534482359886169,0,0,0,-1,-1,3271.29105875,unknown,2,2022-06-02T10:55:33.149+02:00,2022-06-02T10:17:13.754+02:00,521,1.631355,0,0,405.4342,0,0,2022-06-02T10:55:33.149+02:00,675852933.1490878,0,4.210938,101.3309,1,0.78
2022-06-02T10:55:33.842+02:00,1654160133.000334,53.22910340651305,10.3984763994714,36.91801,0,20,-1,-1,2.400000095367432,11.99936978251625,-9999,3271.98323875,0.03369140625,-0.3450469970703125,-0.9513092041015625,3271.97324375,0.4730506408721886,-0.03402182178900622,0.3029205667286881,-0.1720263957977295,-0.002975083887577057,-0.02132519707083702,0.03597604110836983,-0.03517177700996399,0.04211282730102539,XArbitraryZVertical,0.150600076062842,0.01900326524079365,0.2291149373919979,0.9614908904067694,-0.03246651962399483,-0.2983090579509735,-0.9539169669151306,0,0,0,-1,-1,3271.29105875,unknown,2,2022-06-02T10:55:33.149+02:00,2022-06-02T10:17:13.754+02:00,521,1.631355,0,0,405.4342,0,0,2022-06-02T10:55:33.149+02:00,675852933.1490878,0,4.210938,101.3309,1,0.78
2022-06-02T10:55:33.852+02:00,1654160133.000334,53.22910340651305,10.3984763994714,36.91801,0,20,-1,-1,2.400000095367432,11.99936978251625,-9999,3271.99323275,0.0251007080078125,-0.3303985595703125,-0.9838714599609375,3271.98323875,0.4726462008768949,-0.03404136277152888,0.301050674817739,-0.1706039905548096,-0.03482995182275772,-0.0395558625459671,0.05690289288759232,-0.06042507290840149,0.02035963535308838,XArbitraryZVertical,0.1497082209531485,0.01874470944184354,0.2289672383964209,0.9616704440450289,-0.03250408917665482,-0.296523779630661,-0.9544721841812134,0,0,0,-1,-1,3271.29105875,unknown,2,2022-06-02T10:55:33.149+02:00,2022-06-02T10:17:13.754+02:00,521,1.631355,0,0,405.4342,0,0,2022-06-02T10:55:33.149+02:00,675852933.1490878,0,4.210938,101.3309,1,0.78
2022-06-02T10:55:33.862+02:00,1654160133.000334,53.22910340651305,10.3984763994714,36.91801,0,20,-1,-1,2.400000095367432,11.99936978251625,-9999,3272.00322675,0.011138916015625,-0.3160247802734375,-1.005401611328125,3271.99323275,0.4720272714982674,-0.03420231047256083,0.2996366855899488,-0.1238354295492172,-0.04489936307072639,-0.06167901307344437,0.06636341661214828,-0.04987391829490662,0.003575801849365234,XArbitraryZVertical,0.1490532840811251,0.01845579709956277,0.2286939332855044,0.9618427522696825,-0.03267201408743858,-0.2951731085777283,-0.9548850059509277,0,0,0,-1,-1,3271.29105875,unknown,2,2022-06-02T10:55:33.149+02:00,2022-06-02T10:17:13.754+02:00,521,1.631355,0,0,405.4342,0,0,2022-06-02T10:55:33.149+02:00,675852933.1490878,0,4.210938,101.3309,1,0.78
2022-06-02T10:55:33.872+02:00,1654160133.000334,53.22910340651305,10.3984763994714,36.91801,0,20,-1,-1,2.400000095367432,11.99936978251625,-9999,3272.01322075,0.0003509521484375,-0.302520751953125,-0.9968719482421875,3272.00322675,0.4712383632669724,-0.03432853942808647,0.2989702624241691,-0.08099944889545441,-0.04305066540837288,-0.07830426096916199,0.05789999291300774,-0.0358622670173645,-0.02879416942596436,XArbitraryZVertical,0.148754830514983,0.01825855755288573,0.2283222070728684,0.9619809822923913,-0.03279929235577583,-0.294536292552948,-0.9550772309303284,0,0,0,-1,-1,3271.29105875,unknown,2,2022-06-02T10:55:33.149+02:00,2022-06-02T10:17:13.754+02:00,521,1.631355,0,0,405.4342,0,0,2022-06-02T10:55:33.149+02:00,675852933.1490878,0,4.210938,101.3309,1,0.78
2022-06-02T10:55:33.882+02:00,1654160133.000334,53.22910340651305,10.3984763994714,36.91801,0,20,-1,-1,2.400000095367432,11.99936978251625,-9999,3272.02321475,-0.005340576171875,-0.311553955078125,-0.9707183837890625,3272.01322075,0.4701777062608006,-0.03408862770025974,0.2989571475689808,-0.05322746932506561,-0.0308147706091404,-0.09983298927545547,0.04370919987559319,-0.02150103449821472,-0.05031263828277588,XArbitraryZVertical,0.148730868392611,0.01829355263615239,0.2278301949999199,0.9621006282383707,-0.03257028758525848,-0.2945237755775452,-0.9550889730453491,0,0,0,-1,-1,3271.29105875,unknown,2,2022-06-02T10:55:33.149+02:00,2022-06-02T10:17:13.754+02:00,521,1.631355,0,0,405.4342,0,0,2022-06-02T10:55:33.149+02:00,675852933.1490878,0,4.210938,101.3309,1,0.78
2022-06-02T10:55:33.893+02:00,1654160133.000334,53.22910340651305,10.3984763994714,36.91801,0,20,-1,-1,2.400000095367432,11.99936978251625,-9999,3272.03320875,-0.00732421875,-0.31304931640625,-0.9461517333984375,3272.02321475,0.4690533876572842,-0.03382870713967263,0.298449503410029,-0.03283870592713356,-0.01188901625573635,-0.1029922962188721,0.03267804160714149,-0.008482128381729126,-0.04162520170211792,XArbitraryZVertical,0.1484676390251681,0.0182760456073093,0.227321526783121,0.9622619809918028,-0.03232709318399429,-0.2940385937690735,-0.9552466869354248,0,0,0,-1,-1,3271.29105875,unknown,2,2022-06-02T10:55:33.149+02:00,2022-06-02T10:17:13.754+02:00,521,1.631355,0,0,405.4342,0,0,2022-06-02T10:55:33.149+02:00,675852933.1490878,0,4.210938,101.3309,1,0.78
2022-06-02T10:55:33.902+02:00,1654160133.000334,53.22910340651305,10.3984763994714,36.91801,0,20,-1,-1,2.400000095367432,11.99936978251625,-9999,3272.04320275,-0.007843017578125,-0.3015899658203125,-0.935150146484375,3272.03320875,0.4681463971095851,-0.03399474621349246,0.2983976106633495,-0.02197220921516418,-0.01287465263158083,-0.08840349316596985,0.0271456390619278,-0.01756495237350464,-0.01546180248260498,XArbitraryZVertical,0.1484698080457452,0.01812280531016047,0.2268741141302956,0.9623701272258893,-0.03248621895909309,-0.2939890027046204,-0.9552565813064575,0,0,0,-1,-1,3271.29105875,unknown,2,2022-06-02T10:55:33.149+02:00,2022-06-02T10:17:13.754+02:00,521,1.631355,0,0,405.4342,0,0,2022-06-02T10:55:33.149+02:00,675852933.1490878,0,4.210938,101.3309,1,0.78
2022-06-02T10:55:33.912+02:00,1654160133.000334,53.22910340651305,10.3984763994714,36.91801,0,20,-1,-1,2.400000095367432,11.99936978251625,-9999,3272.05319775,-0.0153045654296875,-0.3042755126953125,-0.9417266845703125,3272.04320275,0.4672983665835352,-0.03374619189069966,0.2990089274357917,-0.03220733627676964,-0.009605489671230316,-0.06852579861879349,0.02491849660873413,-0.01847606897354126,0.008933067321777344,XArbitraryZVertical,0.1487431547007896,0.01825017903574059,0.2264689920610423,0.962420943580105,-0.03224271535873413,-0.2945732474327087,-0.9550848007202148,0,0,0,-1,-1,3271.29105875,unknown,2,2022-06-02T10:55:33.149+02:00,2022-06-02T10:17:13.754+02:00,521,1.631355,0,0,405.4342,0,0,2022-06-02T10:55:33.149+02:00,675852933.1490878,0,4.210938,101.3309,1,0.78
2022-06-02T10:55:33.922+02:00,1654160133.000334,53.22910340651305,10.3984763994714,36.91801,0,20,-1,-1,2.400000095367432,11.99936978251625,-9999,3272.063190541667,-0.011383056640625,-0.3088531494140625,-0.9575653076171875,3272.053196541667,0.4663339519584474,-0.03265035278557797,0.3000934453411861,-0.03818560019135475,0.0003057308495044708,-0.05800284817814827,0.02334260940551758,-0.005980521440505981,0.01964956521987915,XArbitraryZVertical,0.149149381526279,0.01883099519218083,0.2260591323683519,0.9624432810504128,-0.03118563070893288,-0.2956094741821289,-0.9547997117042542,0,0,0,-1,-1,3271.29105875,unknown,2,2022-06-02T10:55:33.149+02:00,2022-06-02T10:17:13.754+02:00,521,1.631355,0,0,405.4342,0,0,2022-06-02T10:55:33.149+02:00,675852933.1490878,0,4.210938,101.3309,1,0.78
2022-06-02T10:55:33.932+02:00,1654160133.000334,53.22910340651305,10.3984763994714,36.91801,0,20,-1,-1,2.400000095367432,11.99936978251625,-9999,3272.073184541667,-0.000518798828125,-0.2879638671875,-0.98529052734375,3272.063190541667,0.4653860957018555,-0.03096992079247466,0.3014278090305813,-0.06042442470788956,0.008212190121412277,-0.03211379423737526,0.0142642967402935,-0.007391601800918579,0.0127289891242981,XArbitraryZVertical,0.1496101188293497,0.01972265168048678,0.2256952346327526,0.9624393332851925,-0.0295688696205616,-0.2968839406967163,-0.9544556736946106,0,0,0,-1,-1,3271.29105875,unknown,2,2022-06-02T10:55:33.149+02:00,2022-06-02T10:17:13.754+02:00,521,1.631355,0,0,405.4342,0,0,2022-06-02T10:55:33.149+02:00,675852933.1490878,0,4.210938,101.3309,1,0.78
2022-06-02T10:55:33.942+02:00,1654160133.000334,53.22910340651305,10.3984763994714,36.91801,0,20,-1,-1,2.400000095367432,11.99936978251625,-9999,3272.083178541667,-3.0517578125e-05,-0.2581939697265625,-0.998199462890625,3272.073184541667,0.4646800141855225,-0.0293081870174482,0.3020207593931203,-0.07291385531425476,-0.01653390191495419,-0.008519785478711128,0.01659455336630344,-0.01140305399894714,-0.003237903118133545,XArbitraryZVertical,0.1497148257506646,0.02053766441273091,0.2254652281224835,0.9624599545473788,-0.02797761559486389,-0.2974500954151154,-0.9543273448944092,0,0,0,-1,-1,3271.29105875,unknown,2,2022-06-02T10:55:33.149+02:00,2022-06-02T10:17:13.754+02:00,521,1.631355,0,0,405.4342,0,0,2022-06-02T10:55:33.149+02:00,675852933.1490878,0,4.210938,101.3309,1,0.78
2022-06-02T10:55:33.952+02:00,1654160133.000334,53.22910340651305,10.3984763994714,36.91801,0,20,-1,-1,2.400000095367432,11.99936978251625,-9999,3272.093172541667,-0.0011444091796875,-0.2622222900390625,-1.02105712890625,3272.083178541667,0.464112318853773,-0.02819752615571239,0.3018564296077677,-0.05968283861875534,-0.01770562678575516,-0.03059585951268673,0.02640023827552795,0.009329348802566528,-0.03088384866714478,XArbitraryZVertical,0.1495165798582137,0.02101084325075098,0.2252791136024573,0.962524033596112,-0.0269190426915884,-0.2972932159900665,-0.9544066786766052,0,0,0,-1,-1,3271.29105875,unknown,2,2022-06-02T10:55:33.149+02:00,2022-06-02T10:17:13.754+02:00,521,1.631355,0,0,405.4342,0,0,2022-06-02T10:55:33.149+02:00,675852933.1490878,0,4.210938,101.3309,1,0.78
2022-06-02T10:55:33.962+02:00,1654160133.000334,53.22910340651305,10.3984763994714,36.91801,0,20,-1,-1,2.400000095367432,11.99936978251625,-9999,3272.103166541667,0.0072021484375,-0.275299072265625,-1.02520751953125,3272.093172541667,0.4633862063906876,-0.02734454320846339,0.3014741622703811,-0.02325798384845257,-0.002605769783258438,-0.05717980116605759,0.0260775201022625,0.03873422741889954,-0.04365664720535278,XArbitraryZVertical,0.149244436667197,0.02132332471075104,0.2250024928445145,0.9626241689095845,-0.02610804513096809,-0.296928197145462,-0.9545428156852722,0,0,0,-1,-1,3271.29105875,unknown,2,2022-06-02T10:55:33.149+02:00,2022-06-02T10:17:13.754+02:00,521,1.631355,0,0,405.4342,0,0,2022-06-02T10:55:33.149+02:00,675852933.1490878,0,4.210938,101.3309,1,0.78
2022-06-02T10:55:33.972+02:00,1654160133.000334,53.22910340651305,10.3984763994714,36.91801,0,20,-1,-1,2.400000095367432,11.99936978251625,-9999,3272.113160541667,0.0031280517578125,-0.291717529296875,-1.004501342773438,3272.103166541667,0.4626426363779239,-0.02674067225162219,0.3011555787301977,-0.01572653278708458,-0.01682165823876858,-0.0545627772808075,0.02438973635435104,0.03440165519714355,-0.06640416383743286,XArbitraryZVertical,0.1490313128261115,0.02152209659166261,0.2246971717745582,0.9627240803233851,-0.02553414739668369,-0.2966239750385284,-0.9546529054641724,0,0,0,-1,-1,3271.29105875,unknown,2,2022-06-02T10:55:33.149+02:00,2022-06-02T10:17:13.754+02:00,521,1.631355,0,0,405.4342,0,0,2022-06-02T10:55:33.149+02:00,675852933.1490878,0,4.210938,101.3309,1,0.78
2022-06-02T10:55:33.982+02:00,1654160133.000334,53.22910340651305,10.3984763994714,36.91801,0,20,-1,-1,2.400000095367432,11.99936978251625,-9999,3272.123155541667,-0.0054473876953125,-0.294647216796875,-0.9793548583984375,3272.113160541667,0.4618806278124861,-0.02632507283579725,0.3011072563330143,-0.0361015796661377,-0.01571830920875072,-0.06341539323329926,0.0323399119079113,0.0212787389755249,-0.07052969932556152,XArbitraryZVertical,0.1489696533955611,0.02165987785339226,0.2243624702361706,0.9628085107525777,-0.02513776905834675,-0.2965778410434723,-0.9546777606010437,0,0,0,-1,-1,3271.29105875,unknown,2,2022-06-02T10:55:33.149+02:00,2022-06-02T10:17:13.754+02:00,521,1.631355,0,0,405.4342,0,0,2022-06-02T10:55:33.149+02:00,675852933.1490878,0,4.210938,101.3309,1,0.78
2022-06-02T10:55:33.992+02:00,1654160133.000334,53.22910340651305,10.3984763994714,36.91801,0,20,-1,-1,2.400000095367432,11.99936978251625,-9999,3272.133149541667,-0.01788330078125,-0.3018951416015625,-0.957763671875,3272.123155541667,0.4611331276796308,-0.02578568580763467,0.3011311168391223,-0.06258068978786469,-0.001680188346654177,-0.0514216460287571,0.02775068953633308,0.004883080720901489,-0.04981720447540283,XArbitraryZVertical,0.1489287968108022,0.02186660113787309,0.2240422165876978,0.9628847380027308,-0.02462264336645603,-0.2966006100177765,-0.9546841382980347,0,0,0,-1,-1,3271.29105875,unknown,2,2022-06-02T10:55:33.149+02:00,2022-06-02T10:17:13.754+02:00,521,1.631355,0,0,405.4342,0,0,2022-06-02T10:55:33.149+02:00,675852933.1490878,0,4.210938,101.3309,1,0.78
2022-06-02T10:55:34.002+02:00,1654160133.000334,53.22910340651305,10.3984763994714,36.91801,0,20,-1,-1,2.400000095367432,11.99936978251625,-9999,3272.143143541667,-0.0269927978515625,-0.304443359375,-0.9514007568359375,3272.133149541667,0.460488277982586,-0.02514086438447338,0.3006641515384167,-0.08506602793931961,0.02316843532025814,-0.04548119753599167,0.01856312528252602,0.001507401466369629,-0.02451670169830322,XArbitraryZVertical,0.1486390534688386,0.02207593566712607,0.2237905513399193,0.9629833187430517,-0.02401051670312881,-0.2961546182632446,-0.9548381567001343,0,0,0,-1,-1,3271.29105875,unknown,2,2022-06-02T10:55:33.149+02:00,2022-06-02T10:17:13.754+02:00,521,1.631355,0,0,405.4342,0,0,2022-06-02T10:55:33.149+02:00,675852933.1490878,0,4.210938,101.3309,1,0.78
2022-06-02T10:55:34.012+02:00,1654160133.000334,53.22910340651305,10.3984763994714,36.91801,0,20,-1,-1,2.400000095367432,11.99936978251625,-9999,3272.153137541667,-0.0260467529296875,-0.293670654296875,-0.9455413818359375,3272.143143541667,0.4600200118183707,-0.02443230616600669,0.3000601437077265,-0.1011251583695412,0.05768220126628876,-0.02570642903447151,0.005455009639263153,-0.006317496299743652,-0.002730071544647217,XArbitraryZVertical,0.1482744176997688,0.02231370944347542,0.2236315879967062,0.9630709311899126,-0.02333831787109375,-0.2955776751041412,-0.9550336003303528,0,0,0,-1,-1,3271.29105875,unknown,2,2022-06-02T10:55:33.149+02:00,2022-06-02T10:17:13.754+02:00,521,1.631355,0,0,405.4342,0,0,2022-06-02T10:55:33.149+02:00,675852933.1490878,0,4.210938,101.3309,1,0.78
2022-06-02T10:55:34.022+02:00,1654160133.000334,53.22910340651305,10.3984763994714,36.91801,0,20,-1,-1,2.400000095367432,11.99936978251625,-9999,3272.163131541667,-0.0221710205078125,-0.291259765625,-0.952880859375,3272.153137541667,0.459803675450932,-0.02339445029356547,0.2992484483236386,-0.1256430149078369,0.08366986364126205,0.002010953612625599,-0.004640078172087669,-0.009641200304031372,0.003896117210388184,XArbitraryZVertical,0.1477702669271745,0.02270531502385144,0.2236227097841858,0.9631412878401381,-0.02235272154211998,-0.2948021292686462,-0.9552968144416809,0,0,0,-1,-1,3271.29105875,unknown,2,2022-06-02T10:55:33.149+02:00,2022-06-02T10:17:13.754+02:00,521,1.631355,0,0,405.4342,0,0,2022-06-02T10:55:33.149+02:00,675852933.1490878,0,4.210938,101.3309,1,0.78
2022-06-02T10:55:34.032+02:00,1654160133.000334,53.22910340651305,10.3984763994714,36.91801,0,20,-1,-1,2.400000095367432,11.99936978251625,-9999,3272.173125541667,-0.0015869140625,-0.266571044921875,-0.9615020751953125,3272.163131541667,0.4595927671742072,-0.02172139903535771,0.2975118456876398,-0.09628978371620178,0.1042899191379547,0.0002037324011325836,-0.005281234160065651,-0.0005283951759338379,0.01030194759368896,XArbitraryZVertical,0.1467499093556781,0.02329849716390343,0.2236831513978021,0.9632691033470413,-0.02076551876962185,-0.2931422591209412,-0.9558432698249817,0,0,0,-1,-1,3271.29105875,unknown,2,2022-06-02T10:55:33.149+02:00,2022-06-02T10:17:13.754+02:00,521,1.631355,0,0,405.4342,0,0,2022-06-02T10:55:33.149+02:00,675852933.1490878,0,4.210938,101.3309,1,0.78
2022-06-02T10:55:34.042+02:00,1654160133.000334,53.22910340651305,10.3984763994714,36.91801,0,20,-1,-1,2.400000095367432,11.99936978251625,-9999,3272.183119541667,0.0174560546875,-0.2436676025390625,-0.9826812744140625,3272.173125541667,0.4592908611724302,-0.01991549317817087,0.295160563903134,-0.0236147828400135,0.0852951854467392,-0.008930111303925514,-0.003118023276329041,-0.0003663003444671631,0.003684878349304199,XArbitraryZVertical,0.145419726713859,0.02387979447438966,0.2237209257799675,0.9634478799379289,-0.01905299723148346,-0.2908934652805328,-0.9565657377243042,0,0,0,-1,-1,3271.29105875,unknown,2,2022-06-02T10:55:33.149+02:00,2022-06-02T10:17:13.754+02:00,521,1.631355,0,0,405.4342,0,0,2022-06-02T10:55:33.149+02:00,675852933.1490878,0,4.210938,101.3309,1,0.78
2022-06-02T10:55:34.052+02:00,1654160134.000336,53.22909249881107,10.39848802925651,36.897,0,20,-1,-1,2.400000095367432,7.999579855010836,-9999,3272.193114541667,0.0182342529296875,-0.2660064697265625,-0.9953765869140625,3272.183119541667,0.4589227510435526,-0.01851237906129497,0.2936441560946627,0.06896857917308807,0.05032102763652802,-0.0265834741294384,0.01613203063607216,0.02287125587463379,-0.004470646381378174,XArbitraryZVertical,0.144537176062641,0.02435738062872075,0.2236776181904751,0.9635787648258395,-0.0177189540117979,-0.2894423007965088,-0.9570314288139343,0,0,0,-1,-1,3271.29105875,unknown,2,2022-06-02T10:55:33.149+02:00,2022-06-02T10:17:13.754+02:00,521,1.631355,0,0,405.4342,0,0,2022-06-02T10:55:33.149+02:00,675852933.1490878,0,4.210938,101.3309,1,0.78
2022-06-02T10:55:34.062+02:00,1654160134.000336,53.22909249881107,10.39848802925651,36.897,0,20,-1,-1,2.400000095367432,7.999579855010836,-9999,3272.203108541667,0.013031005859375,-0.316162109375,-0.99298095703125,3272.193114541667,0.4582984032899657,-0.01706321244062618,0.2932709434519721,0.08604423701763153,0.05058574676513672,-0.04712177440524101,0.03378992527723312,0.0454174280166626,-0.02551722526550293,XArbitraryZVertical,0.1442031670205723,0.02496834118475979,0.223489215277257,0.9636568569243875,-0.01633387804031372,-0.2890850603580475,-0.9571640491485596,0,0,0,-1,-1,3271.29105875,unknown,2,2022-06-02T10:55:33.149+02:00,2022-06-02T10:17:13.754+02:00,521,1.631355,0,0,405.4342,0,0,2022-06-02T10:55:33.149+02:00,675852933.1490878,0,4.210938,101.3309,1,0.78
2022-06-02T10:55:34.072+02:00,1654160134.000336,53.22909249881107,10.39848802925651,36.897,0,20,-1,-1,2.400000095367432,7.999579855010836,-9999,3272.213102541667,0.0205078125,-0.341796875,-0.9753265380859375,3272.203108541667,0.4576194811014251,-0.01572505045203145,0.2935413540597103,0.0379355326294899,0.05990887433290482,-0.04797152057290077,0.03328604251146317,0.02333742380142212,-0.03826969861984253,XArbitraryZVertical,0.1441925192057153,0.02559468792610343,0.2232530149216308,0.9636967465509108,-0.01505179423838854,-0.2893438935279846,-0.95710688829422,0,0,0,-1,-1,3271.29105875,unknown,2,2022-06-02T10:55:33.149+02:00,2022-06-02T10:17:13.754+02:00,521,1.631355,0,0,405.4342,0,0,2022-06-02T10:55:33.149+02:00,675852933.1490878,0,4.210938,101.3309,1,0.78
2022-06-02T10:55:34.082+02:00,1654160134.000336,53.22909249881107,10.39848802925651,36.897,0,20,-1,-1,2.400000095367432,7.999579855010836,-9999,3272.223096541667,0.0268402099609375,-0.3283233642578125,-0.9466552734375,3272.213102541667,0.4570837222170082,-0.01473657912647255,0.2933289107773422,-0.07671728730201721,0.05610588192939758,-0.03799078986048698,0.0271376259624958,-0.02702155709266663,-0.03579825162887573,XArbitraryZVertical,0.143986812234175,0.02600845685793004,0.2230703522241303,0.9637587901205013,-0.0141066201031208,-0.2891405522823334,-0.9571827054023743,0,0,0,-1,-1,3271.29105875,unknown,2,2022-06-02T10:55:33.149+02:00,2022-06-02T10:17:13.754+02:00,521,1.631355,0,0,405.4342,0,0,2022-06-02T10:55:33.149+02:00,675852933.1490878,0,4.210938,101.3309,1,0.78
2022-06-02T10:55:34.092+02:00,1654160134.000336,53.22909249881107,10.39848802925651,36.897,0,20,-1,-1,2.400000095367432,7.999579855010836,-9999,3272.233090541667,0.016845703125,-0.3048858642578125,-0.9176483154296875,3272.223096541667,0.4567328891847349,-0.01421827533610817,0.2923280429232644,-0.188399538397789,0.04315878823399544,-0.03394558280706406,0.03412242606282234,-0.05361458659172058,-0.01784771680831909,XArbitraryZVertical,0.1434515100927576,0.02612038871423392,0.2229585601944156,0.9638614203709124,-0.01361461449414492,-0.2881822884082794,-0.9574787616729736,0,0,0,-1,-1,3271.29105875,unknown,2,2022-06-02T10:55:33.149+02:00,2022-06-02T10:17:13.754+02:00,521,1.631355,0,0,405.4342,0,0,2022-06-02T10:55:33.149+02:00,675852933.1490878,0,4.210938,101.3309,1,0.78
2022-06-02T10:55:34.102+02:00,1654160134.000336,53.22909249881107,10.39848802925651,36.897,0,20,-1,-1,2.400000095367432,7.999579855010836,-9999,3272.243084541667,-0.00079345703125,-0.29705810546875,-0.905059814453125,3272.233090541667,0.4563377585502582,-0.0140281723626671,0.290544670840269,-0.2620441913604736,0.02855561301112175,-0.05251101404428482,0.04027998819947243,-0.04184925556182861,0.01133847236633301,XArbitraryZVertical,0.1425763437344285,0.02598322774867636,0.2228170705916065,0.9640277256961296,-0.0134397828951478,-0.2864741086959839,-0.957993745803833,0,0,0,-1,-1,3271.29105875,unknown,2,2022-06-02T10:55:33.149+02:00,2022-06-02T10:17:13.754+02:00,521,1.631355,0,0,405.4342,0,0,2022-06-02T10:55:33.149+02:00,675852933.1490878,0,4.210938,101.3309,1,0.78
2022-06-02T10:55:34.112+02:00,1654160134.000336,53.22909249881107,10.39848802925651,36.897,0,20,-1,-1,2.400000095367432,7.999579855010836,-9999,3272.253078541667,-0.0203399658203125,-0.308135986328125,-0.879150390625,3272.243084541667,0.4557331659382877,-0.01393776251474682,0.2879836015970158,-0.3275673389434814,0.01959846913814545,-0.07280789315700531,0.03020904958248138,-0.02086642384529114,0.04107707738876343,XArbitraryZVertical,0.1413400461496905,0.02569621138786828,0.222582380641677,0.9642716388243374,-0.01336335204541683,-0.2840194404125214,-0.9587253928184509,0,0,0,-1,-1,3271.29105875,unknown,2,2022-06-02T10:55:33.149+02:00,2022-06-02T10:17:13.754+02:00,521,1.631355,0,0,405.4342,0,0,2022-06-02T10:55:33.149+02:00,675852933.1490878,0,4.210938,101.3309,1,0.78
2022-06-02T10:55:34.122+02:00,1654160134.000336,53.22909249881107,10.39848802925651,36.897,0,20,-1,-1,2.400000095367432,7.999579855010836,-9999,3272.263073541667,-0.030059814453125,-0.3453826904296875,-0.846923828125,3272.253078541667,0.4549549905890612,-0.01370408507516443,0.2842580635711665,-0.4777536392211914,0.01974121481180191,-0.07576773315668106,0.01236026734113693,-0.01661276817321777,0.05472004413604736,XArbitraryZVertical,0.1395282881023946,0.02533633011347076,0.2222959021679709,0.9646109938613117,-0.01315372809767723,-0.2804453670978546,-0.9597798585891724,0,0,0,-1,-1,3271.29105875,unknown,2,2022-06-02T10:55:33.149+02:00,2022-06-02T10:17:13.754+02:00,521,1.631355,0,0,405.4342,0,0,2022-06-02T10:55:33.149+02:00,675852933.1490878,0,4.210938,101.3309,1,0.78
2022-06-02T10:55:34.132+02:00,1654160134.000336,53.22909249881107,10.39848802925651,36.897,0,20,-1,-1,2.400000095367432,7.999579855010836,-9999,3272.273067541667,-0.0310821533203125,-0.4156494140625,-0.8321685791015625,3272.263073541667,0.4540399402746375,-0.0130303024335392,0.2777411653864518,-0.80679851770401,0.02204971015453339,-0.0772612988948822,-0.007809378206729889,-0.03395190834999084,0.08244520425796509,XArbitraryZVertical,0.1363222941519848,0.02486844072135941,0.2220247205077221,0.9651439059442959,-0.01253059040755033,-0.2741840779781342,-0.9615955948829651,0,0,0,-1,-1,3271.29105875,unknown,2,2022-06-02T10:55:33.149+02:00,2022-06-02T10:17:13.754+02:00,521,1.631355,0,0,405.4342,0,0,2022-06-02T10:55:33.149+02:00,675852933.1490878,0,4.210938,101.3309,1,0.78
2022-06-02T10:55:34.142+02:00,1654160134.000336,53.22909249881107,10.39848802925651,36.897,0,20,-1,-1,2.400000095367432,7.999579855010836,-9999,3272.283061541667,-0.037109375,-0.43603515625,-0.8077850341796875,3272.273067541667,0.4527600833861047,-0.01219096793578332,0.266891864302742,-1.279176354408264,0.007800465449690819,-0.1242091059684753,-0.01830076053738594,-0.08164811134338379,0.1175997853279114,XArbitraryZVertical,0.1310090551681448,0.02397565100798834,0.2216614565700721,0.9659853917398421,-0.01175905857235193,-0.2637346088886261,-0.9645236134529114,0,0,0,-1,-1,3271.29105875,unknown,2,2022-06-02T10:55:33.149+02:00,2022-06-02T10:17:13.754+02:00,521,1.631355,0,0,405.4342,0,0,2022-06-02T10:55:33.149+02:00,675852933.1490878,0,4.210938,101.3309,1,0.78
2022-06-02T10:55:34.152+02:00,1654160134.000336,53.22909249881107,10.39848802925651,36.897,0,20,-1,-1,2.400000095367432,7.999579855010836,-9999,3272.293055541667,-0.0569610595703125,-0.381683349609375,-0.7659759521484375,3272.283061541667,0.4509767984549067,-0.0116466003153855,0.2513649099913934,-1.818719148635864,-0.04860508814454079,-0.1681546568870544,-0.01980182155966759,-0.1669232249259949,0.136339545249939,XArbitraryZVertical,0.1234681931107223,0.02239490820743421,0.2211036415998259,0.9671438817639562,-0.01128033734858036,-0.2487262040376663,-0.9685081243515015,0,0,0,-1,-1,3271.29105875,unknown,2,2022-06-02T10:55:33.149+02:00,2022-06-02T10:17:13.754+02:00,521,1.631355,0,0,405.4342,0,0,2022-06-02T10:55:33.149+02:00,675852933.1490878,0,4.210938,101.3309,1,0.78
2022-06-02T10:55:34.162+02:00,1654160134.000336,53.22909249881107,10.39848802925651,36.897,0,20,-1,-1,2.400000095367432,7.999579855010836,-9999,3272.303049541667,-0.09857177734375,-0.3667449951171875,-0.696685791015625,3272.293055541667,0.4488839312481832,-0.01228053146720929,0.2304967942684288,-2.365692138671875,-0.1174906715750694,-0.2017512321472168,-0.02515393123030663,-0.2075739651918411,0.1656945943832397,XArbitraryZVertical,0.1134646368184653,0.0196462220842901,0.2203933997953125,0.9685899416477762,-0.01195544749498367,-0.2284612059593201,-0.9734796285629272,0,0,0,-1,-1,3271.29105875,unknown,2,2022-06-02T10:55:33.149+02:00,2022-06-02T10:17:13.754+02:00,521,1.631355,0,0,405.4342,0,0,2022-06-02T10:55:33.149+02:00,675852933.1490878,0,4.210938,101.3309,1,0.78
2022-06-02T10:55:34.172+02:00,1654160134.000336,53.22909249881107,10.39848802925651,36.897,0,20,-1,-1,2.400000095367432,7.999579855010836,-9999,3272.313043541667,-0.1425933837890625,-0.3938446044921875,-0.618011474609375,3272.303049541667,0.4459492309110246,-0.01329550151444124,0.2041687310802338,-2.902251243591309,-0.1773277819156647,-0.3281665444374084,-0.04394209384918213,-0.1789301484823227,0.2131673693656921,XArbitraryZVertical,0.1008445074112336,0.01608501376572511,0.2193148136042054,0.9702951014898531,-0.01301896851509809,-0.2027532309293747,-0.9791433215141296,0,0,0,-1,-1,3271.29105875,unknown,2,2022-06-02T10:55:33.149+02:00,2022-06-02T10:17:13.754+02:00,521,1.631355,0,0,405.4342,0,0,2022-06-02T10:55:33.149+02:00,675852933.1490878,0,4.210938,101.3309,1,0.78
2022-06-02T10:55:34.182+02:00,1654160134.000336,53.22909249881107,10.39848802925651,36.897,0,20,-1,-1,2.400000095367432,7.999579855010836,-9999,3272.323037541667,-0.2901611328125,-0.5043182373046875,-0.50750732421875,3272.313043541667,0.441221292115515,-0.01476249788371618,0.1723712500037052,-3.499550580978394,-0.2806536257266998,-0.5484539270401001,-0.08402857929468155,-0.1952260881662369,0.2883877158164978,XArbitraryZVertical,0.08559966664191196,0.01166020231446626,0.2173873966740146,0.9722548205846627,-0.01454320177435875,-0.171518936753273,-0.985073447227478,0,0,0,-1,-1,3271.29105875,unknown,2,2022-06-02T10:55:33.149+02:00,2022-06-02T10:17:13.754+02:00,521,1.631355,0,0,405.4342,0,0,2022-06-02T10:55:33.149+02:00,675852933.1490878,0,4.210938,101.3309,1,0.78
2022-06-02T10:55:34.192+02:00,1654160134.000336,53.22909249881107,10.39848802925651,36.897,0,20,-1,-1,2.400000095367432,7.999579855010836,-9999,3272.333032541667,-0.2772216796875,-0.453887939453125,-0.4818878173828125,3272.323037541667,0.433474900710739,-0.01614689809230223,0.1342332694306764,-4.142730712890625,-0.2070987820625305,-0.7758374810218811,-0.1265924423933029,-0.2600141167640686,0.3728635907173157,XArbitraryZVertical,0.06722727672918333,0.006555034487307796,0.214024602374088,0.9744901642171879,-0.01600094884634018,-0.1338305175304413,-0.9908750653266907,0,0,0,-1,-1,3271.29105875,unknown,2,2022-06-02T10:55:33.149+02:00,2022-06-02T10:17:13.754+02:00,521,1.631355,0,0,405.4342,0,0,2022-06-02T10:55:33.149+02:00,675852933.1490878,0,4.210938,101.3309,1,0.78
2022-06-02T10:55:34.202+02:00,1654160134.000336,53.22909249881107,10.39848802925651,36.897,0,20,-1,-1,2.400000095367432,7.999579855010836,-9999,3272.343026541667,-0.2612762451171875,-0.44775390625,-0.531768798828125,3272.333032541667,0.4250890471240017,-0.01708481742595804,0.09001472694861264,-4.72698450088501,-0.1696861684322357,-0.7873029112815857,-0.2731463015079498,-0.4144250452518463,0.488298773765564,XArbitraryZVertical,0.04577828073766443,0.00114903246419522,0.2103508655170818,0.9765528013016841,-0.01701482012867928,-0.08989321440458298,-0.9958060383796692,0,0,0,-1,-1,3271.29105875,unknown,2,2022-06-02T10:55:33.149+02:00,2022-06-02T10:17:13.754+02:00,521,1.631355,0,0,405.4342,0,0,2022-06-02T10:55:33.149+02:00,675852933.1490878,0,4.210938,101.3309,1,0.78
2022-06-02T10:55:34.212+02:00,1654160134.000336,53.22909249881107,10.39848802925651,36.897,0,20,-1,-1,2.400000095367432,7.999579855010836,-9999,3272.353020541667,-0.29217529296875,-0.4259490966796875,-0.6600799560546875,3272.343026541667,0.4155099813501756,-0.01829653091279474,0.03998138914804512,-5.328891754150391,-0.1946462392807007,-0.9593773484230042,-0.2589407861232758,-0.4139172434806824,0.5171458125114441,XArbitraryZVertical,0.02144525609408397,-0.004826724214606368,0.2060349299255761,0.978297615123368,-0.01828088983893394,-0.03997073695063591,-0.9990336298942566,0,0,0,-1,-1,3271.29105875,unknown,2,2022-06-02T10:55:33.149+02:00,2022-06-02T10:17:13.754+02:00,521,1.631355,0,0,405.4342,0,0,2022-06-02T10:55:33.149+02:00,675852933.1490878,0,4.210938,101.3309,1,0.78
2022-06-02T10:55:34.222+02:00,1654160134.000336,53.22909249881107,10.39848802925651,36.897,0,20,-1,-1,2.400000095367432,7.999579855010836,-9999,3272.363014541667,-0.3667144775390625,-0.305877685546875,-0.7652435302734375,3272.353020541667,0.403677132055426,-0.02051281938789599,-0.01560107075106572,-5.795493602752686,-0.2625496685504913,-1.187641143798828,-0.2407673597335815,-0.4633543789386749,0.4678991436958313,XArbitraryZVertical,-0.005585689240311155,-0.01161140242330306,0.2005326598147262,0.9796022117775082,-0.02050888538360596,0.01560043822973967,-0.9996679425239563,0,0,0,-1,-1,3271.29105875,unknown,2,2022-06-02T10:55:33.149+02:00,2022-06-02T10:17:13.754+02:00,521,1.631355,0,0,405.4342,0,0,2022-06-02T10:55:33.149+02:00,675852933.1490878,0,4.210938,101.3309,1,0.78
2022-06-02T10:55:34.232+02:00,1654160134.000336,53.22909249881107,10.39848802925651,36.897,0,20,-1,-1,2.400000095367432,7.999579855010836,-9999,3272.373008541667,-0.4802093505859375,-0.156280517578125,-0.7950286865234375,3272.363014541667,0.3899754134170209,-0.0237940650681946,-0.07454702050838274,-6.049971580505371,-0.2555003464221954,-1.276265501976013,-0.2684495449066162,-0.5004271268844604,0.3368604183197021,XArbitraryZVertical,-0.03425267748281457,-0.0188829287899471,0.194041125310832,0.9802133577359854,-0.02372574247419834,0.07447799295186996,-0.9969403743743896,0,0,0,-1,-1,3271.29105875,unknown,2,2022-06-02T10:55:33.149+02:00,2022-06-02T10:17:13.754+02:00,521,1.631355,0,0,405.4342,0,0,2022-06-02T10:55:33.149+02:00,675852933.1490878,0,4.210938,101.3309,1,0.78
2022-06-02T10:55:34.242+02:00,1654160134.000336,53.22909249881107,10.39848802925651,36.897,0,20,-1,-1,2.400000095367432,7.999579855010836,-9999,3272.383002541667,-0.61920166015625,-0.05865478515625,-0.8798675537109375,3272.373008541667,0.3753601179513816,-0.02759279247736223,-0.1358969438162983,-6.304699420928955,-0.1737849712371826,-1.31672477722168,-0.3393795490264893,-0.4413567781448364,0.2251595258712769,XArbitraryZVertical,-0.06412946460879522,-0.02618930440563695,0.1870521816853532,0.9799045359660697,-0.02733492292463779,0.1354790329933167,-0.9904030561447144,0,0,0,-1,-1,3271.29105875,unknown,2,2022-06-02T10:55:33.149+02:00,2022-06-02T10:17:13.754+02:00,521,1.631355,0,0,405.4342,0,0,2022-06-02T10:55:33.149+02:00,675852933.1490878,0,4.210938,101.3309,1,0.78
2022-06-02T10:55:34.252+02:00,1654160134.000336,53.22909249881107,10.39848802925651,36.897,0,20,-1,-1,2.400000095367432,7.999579855010836,-9999,3272.392996541667,-0.728973388671875,-0.011138916015625,-0.8639373779296875,3272.383002541667,0.3595914969552319,-0.03074034917063549,-0.1994295562279984,-6.477999210357666,0.1065252423286438,-1.447324275970459,-0.4500830173492432,-0.3543907999992371,0.1846879720687866,XArbitraryZVertical,-0.0951984669762779,-0.032846918772666,0.1794246623490315,0.978603631570278,-0.03012632206082344,0.1981102228164673,-0.9797166585922241,0,0,0,-1,-1,3271.29105875,unknown,2,2022-06-02T10:55:33.149+02:00,2022-06-02T10:17:13.754+02:00,521,1.631355,0,0,405.4342,0,0,2022-06-02T10:55:33.149+02:00,675852933.1490878,0,4.210938,101.3309,1,0.78
2022-06-02T10:55:34.262+02:00,1654160134.000336,53.22909249881107,10.39848802925651,36.897,0,20,-1,-1,2.400000095367432,7.999579855010836,-9999,3272.402991541667,-0.785919189453125,0.0183868408203125,-0.7906951904296875,3272.392996541667,0.3408922849923172,-0.03213884932315603,-0.263822635338876,-6.515647888183594,0.4677023589611053,-1.798962712287903,-0.5881801247596741,-0.3194276690483093,0.0850340723991394,XArbitraryZVertical,-0.1269044631695957,-0.03800565994476437,0.1702095891884008,0.9764627632357162,-0.03102151118218899,0.2607728242874146,-0.9649016261100769,0,0,0,-1,-1,3271.29105875,unknown,2,2022-06-02T10:55:33.149+02:00,2022-06-02T10:17:13.754+02:00,521,1.631355,0,0,405.4342,0,0,2022-06-02T10:55:33.149+02:00,675852933.1490878,0,4.210938,101.3309,1,0.78
2022-06-02T10:55:34.272+02:00,1654160134.000336,53.22909249881107,10.39848802925651,36.897,0,20,-1,-1,2.400000095367432,7.999579855010836,-9999,3272.412985541667,-0.8132476806640625,-0.003143310546875,-0.742950439453125,3272.402991541667,0.3181058834165799,-0.03255321396004908,-0.3286695396462302,-6.60348653793335,0.7892374992370605,-2.118903636932373,-0.6981680989265442,-0.3339230716228485,0.08203381299972534,XArbitraryZVertical,-0.1589666531023672,-0.041761377425006,0.1588577090107436,0.9735244172620514,-0.03080528415739536,0.3227840662002563,-0.9459711909294128,0,0,0,-1,-1,3271.29105875,unknown,2,2022-06-02T10:55:33.149+02:00,2022-06-02T10:17:13.754+02:00,521,1.631355,0,0,405.4342,0,0,2022-06-02T10:55:33.149+02:00,675852933.1490878,0,4.210938,101.3309,1,0.78
2022-06-02T10:55:34.282+02:00,1654160134.000336,53.22909249881107,10.39848802925651,36.897,0,20,-1,-1,2.400000095367432,7.999579855010836,-9999,3272.422979541667,-0.8255615234375,-0.0118865966796875,-0.69403076171875,3272.412985541667,0.2921056212235335,-0.03217472111988472,-0.3947270993790754,-6.78328800201416,1.136545181274414,-2.293826580047607,-0.7562237977981567,-0.3661695122718811,0.131928563117981,XArbitraryZVertical,-0.1916762667464366,-0.04413975684075098,0.1458111522295186,0.9695622646650578,-0.02969541028141975,0.3845562934875488,-0.9226237535476685,0,0,0,-1,-1,3271.29105875,unknown,2,2022-06-02T10:55:33.149+02:00,2022-06-02T10:17:13.754+02:00,521,1.631355,0,0,405.4342,0,0,2022-06-02T10:55:33.149+02:00,675852933.1490878,0,4.210938,101.3309,1,0.78
2022-06-02T10:55:34.292+02:00,1654160134.000336,53.22909249881107,10.39848802925651,36.897,0,20,-1,-1,2.400000095367432,7.999579855010836,-9999,3272.432973541667,-0.8232269287109375,0.0105133056640625,-0.6661376953125,3272.422979541667,0.2637403388927502,-0.0309084633871395,-0.463273646727131,-7.111931800842285,1.486083269119263,-2.435376167297363,-0.7856015563011169,-0.4500224888324738,0.1512166261672974,XArbitraryZVertical,-0.2255728673481154,-0.04509258189113475,0.1314781247818126,0.9642598223532702,-0.02764613553881645,0.4468790888786316,-0.8941670656204224,0,0,0,-1,-1,3271.29105875,unknown,2,2022-06-02T10:55:33.149+02:00,2022-06-02T10:17:13.754+02:00,521,1.631355,0,0,405.4342,0,0,2022-06-02T10:55:33.149+02:00,675852933.1490878,0,4.210938,101.3309,1,0.78
2022-06-02T10:55:34.302+02:00,1654160134.000336,53.22909249881107,10.39848802925651,36.897,0,20,-1,-1,2.400000095367432,7.999579855010836,-9999,3272.442967541667,-0.813079833984375,0.070037841796875,-0.6322021484375,3272.432973541667,0.2325697559207085,-0.02917483454782789,-0.5353731149507011,-7.462432861328125,1.852130770683289,-2.604137659072876,-0.8004724383354187,-0.5220487117767334,0.1656815409660339,XArbitraryZVertical,-0.2610547270484105,-0.04465734073829689,0.1157111715952133,0.9573227848365117,-0.02508908323943615,0.5101619958877563,-0.8597123026847839,0,0,0,-1,-1,3271.29105875,unknown,2,2022-06-02T10:55:33.149+02:00,2022-06-02T10:17:13.754+02:00,521,1.631355,0,0,405.4342,0,0,2022-06-02T10:55:33.149+02:00,675852933.1490878,0,4.210938,101.3309,1,0.78
2022-06-02T10:55:34.312+02:00,1654160134.000336,53.22909249881107,10.39848802925651,36.897,0,20,-1,-1,2.400000095367432,7.999579855010836,-9999,3272.452961541667,-0.8084259033203125,0.1788330078125,-0.648712158203125,3272.442967541667,0.198201283022507,-0.02771396732098991,-0.6105717482243807,-7.758565425872803,2.171029329299927,-2.726386785507202,-0.8005232214927673,-0.5628228187561035,0.1528679728507996,XArbitraryZVertical,-0.2977548744882215,-0.04288567196857192,0.09849901297331931,0.9485782675958575,-0.02270371094346046,0.5733360052108765,-0.8190057277679443,0,0,0,-1,-1,3271.29105875,unknown,2,2022-06-02T10:55:33.149+02:00,2022-06-02T10:17:13.754+02:00,521,1.631355,0,0,405.4342,0,0,2022-06-02T10:55:33.149+02:00,675852933.1490878,0,4.210938,101.3309,1,0.78
2022-06-02T10:55:34.322+02:00,1654160134.000336,53.22909249881107,10.39848802925651,36.897,0,20,-1,-1,2.400000095367432,7.999579855010836,-9999,3272.462955541667,-0.8281097412109375,0.2387237548828125,-0.7182464599609375,3272.452961541667,0.1611217768940146,-0.02680686938023256,-0.6891900470796485,-8.132698059082031,2.509826898574829,-2.741519212722778,-0.7923938035964966,-0.5658745765686035,0.1392818093299866,XArbitraryZVertical,-0.335674495198267,-0.03975704106137021,0.08024918008118363,0.937711040973312,-0.02068602666258812,0.635912299156189,-0.7714840173721313,0,0,0,-1,-1,3271.29105875,unknown,2,2022-06-02T10:55:33.149+02:00,2022-06-02T10:17:13.754+02:00,521,1.631355,0,0,405.4342,0,0,2022-06-02T10:55:33.149+02:00,675852933.1490878,0,4.210938,101.3309,1,0.78
2022-06-02T10:55:34.332+02:00,1654160134.000336,53.22909249881107,10.39848802925651,36.897,0,20,-1,-1,2.400000095367432,7.999579855010836,-9999,3272.472949541667,-0.84112548828125,0.3751678466796875,-0.798095703125,3272.462955541667,0.1208158168668481,-0.02668321584070936,-0.7703816758506689,-8.218831062316895,2.898301362991333,-2.839470386505127,-0.7892791032791138,-0.517576277256012,0.06867718696594238,XArbitraryZVertical,-0.3742709036472217,-0.03502271984716185,0.06094624136737059,0.9246513475424685,-0.01914680004119873,0.6964092254638672,-0.7173894047737122,0,0,0,-1,-1,3271.29105875,unknown,2,2022-06-02T10:55:33.149+02:00,2022-06-02T10:17:13.754+02:00,521,1.631355,0,0,405.4342,0,0,2022-06-02T10:55:33.149+02:00,675852933.1490878,0,4.210938,101.3309,1,0.78
2022-06-02T10:55:34.343+02:00,1654160134.000336,53.22909249881107,10.39848802925651,36.897,0,20,-1,-1,2.400000095367432,7.999579855010836,-9999,3272.482944541667,-0.8703155517578125,0.5308074951171875,-0.844024658203125,3272.472949541667,0.07571843597344875,-0.02851738683444047,-0.8507820071041234,-8.01350212097168,3.292181253433228,-2.916268110275269,-0.8093080520629883,-0.5130726099014282,-0.05911922454833984,XArbitraryZVertical,-0.4118477899174682,-0.0285964879080652,0.04035318838244727,0.9099094207864316,-0.01880168542265892,0.7517963051795959,-0.6591272950172424,0,0,0,-1,-1,3271.29105875,unknown,2,2022-06-02T10:55:33.149+02:00,2022-06-02T10:17:13.754+02:00,521,1.631355,0,0,405.4342,0,0,2022-06-02T10:55:33.149+02:00,675852933.1490878,0,4.210938,101.3309,1,0.78
2022-06-02T10:55:34.352+02:00,1654160134.000336,53.22909249881107,10.39848802925651,36.897,0,20,-1,-1,2.400000095367432,7.999579855010836,-9999,3272.492938541667,-0.8832244873046875,0.6819305419921875,-0.7708892822265625,3272.482944541667,0.0251108347483759,-0.03256318085253467,-0.9277473647668497,-7.544860363006592,3.762388467788696,-2.970003843307495,-0.8216028213500977,-0.4251035451889038,-0.1987755298614502,XArbitraryZVertical,-0.44713849787903,-0.02017586496643613,0.01851060408211918,0.8940454413687176,-0.01952267251908779,0.800271213054657,-0.5993201732635498,0,0,0,-1,-1,3271.29105875,unknown,2,2022-06-02T10:55:33.149+02:00,2022-06-02T10:17:13.754+02:00,521,1.631355,0,0,405.4342,0,0,2022-06-02T10:55:33.149+02:00,675852933.1490878,0,4.210938,101.3309,1,0.78
2022-06-02T10:55:34.362+02:00,1654160134.000336,53.22909249881107,10.39848802925651,36.897,0,20,-1,-1,2.400000095367432,7.999579855010836,-9999,3272.502932541667,-0.882293701171875,0.8057098388671875,-0.636322021484375,3272.492938541667,-0.03120608962617179,-0.03903298294049348,-0.9991797747505188,-6.999044418334961,4.198256492614746,-2.931480169296265,-0.8492043614387512,-0.3102201819419861,-0.3034445643424988,XArbitraryZVertical,-0.4791833951520854,-0.009654839880071977,-0.004344912753262943,0.8776508530860964,-0.02111117728054523,0.841027557849884,-0.5405800938606262,0,0,0,-1,-1,3271.29105875,unknown,2,2022-06-02T10:55:33.149+02:00,2022-06-02T10:17:13.754+02:00,521,1.631355,0,0,405.4342,0,0,2022-06-02T10:55:33.149+02:00,675852933.1490878,0,4.210938,101.3309,1,0.78
2022-06-02T10:55:34.373+02:00,1654160134.000336,53.22909249881107,10.39848802925651,36.897,0,20,-1,-1,2.400000095367432,7.999579855010836,-9999,3272.512926541667,-0.8463897705078125,0.9399566650390625,-0.4831390380859375,3272.502932541667,-0.09340549700344766,-0.0483511384748691,-1.065326611858916,-6.510349273681641,4.628937721252441,-2.856026411056519,-0.859821081161499,-0.1930167675018311,-0.2872369587421417,XArbitraryZVertical,-0.508099820703493,0.002900001380465136,-0.02794357811079266,0.8608397580878089,-0.02340338192880154,0.8749471306800842,-0.4836523234844208,0,0,0,-1,-1,3271.29105875,unknown,2,2022-06-02T10:55:33.149+02:00,2022-06-02T10:17:13.754+02:00,521,1.631355,0,0,405.4342,0,0,2022-06-02T10:55:33.149+02:00,675852933.1490878,0,4.210938,101.3309,1,0.78
2022-06-02T10:55:34.382+02:00,1654160134.000336,53.22909249881107,10.39848802925651,36.897,0,20,-1,-1,2.400000095367432,7.999579855010836,-9999,3272.522920541667,-0.76934814453125,1.078948974609375,-0.353424072265625,3272.512926541667,-0.1625450188962429,-0.06146745891015443,-1.126871449346276,-6.154182434082031,5.060742855072021,-2.771755933761597,-0.8559108376502991,-0.09736323356628418,-0.2076461613178253,XArbitraryZVertical,-0.5341888170600387,0.01744570668827422,-0.05224385219824669,0.8435688355847648,-0.02638285420835018,0.9030729532241821,-0.4286759197711945,0,0,0,-1,-1,3271.29105875,unknown,2,2022-06-02T10:55:33.149+02:00,2022-06-02T10:17:13.754+02:00,521,1.631355,0,0,405.4342,0,0,2022-06-02T10:55:33.149+02:00,675852933.1490878,0,4.210938,101.3309,1,0.78
2022-06-02T10:55:34.394+02:00,1654160134.000336,53.22909249881107,10.39848802925651,36.897,0,20,-1,-1,2.400000095367432,7.999579855010836,-9999,3272.532914541667,-0.6262969970703125,1.170211791992188,-0.215423583984375,3272.522920541667,-0.2407131963324483,-0.08044604049151642,-1.184774050080373,-5.866872787475586,5.453671932220459,-2.696894645690918,-0.816133975982666,0.01354247331619263,-0.1078507304191589,XArbitraryZVertical,-0.5578610861535589,0.03386485967740124,-0.07723786123328071,0.8256380910085623,-0.0302557572722435,0.9264140129089355,-0.3752883672714233,0,0,0,-1,-1,3271.29105875,unknown,2,2022-06-02T10:55:33.149+02:00,2022-06-02T10:17:13.754+02:00,521,1.631355,0,0,405.4342,0,0,2022-06-02T10:55:33.149+02:00,675852933.1490878,0,4.210938,101.3309,1,0.78
2022-06-02T10:55:34.403+02:00,1654160134.000336,53.22909249881107,10.39848802925651,36.897,0,20,-1,-1,2.400000095367432,7.999579855010836,-9999,3272.542909541667,-0.4654541015625,1.239669799804688,-0.1760711669921875,3272.532914541667,-0.3319896330094512,-0.109830464343869,-1.239823882030017,-5.72161340713501,5.767080783843994,-2.613080978393555,-0.7337290644645691,0.1332220435142517,-0.03041967749595642,XArbitraryZVertical,-0.5794960159628713,0.05178943155014497,-0.1028363596549657,0.8068002914114014,-0.03561906516551971,0.9457268118858337,-0.3230044543743134,0,0,0,-1,-1,3271.29105875,unknown,2,2022-06-02T10:55:33.149+02:00,2022-06-02T10:17:13.754+02:00,521,1.631355,0,0,405.4342,0,0,2022-06-02T10:55:33.149+02:00,675852933.1490878,0,4.210938,101.3309,1,0.78
2022-06-02T10:55:34.412+02:00,1654160134.000336,53.22909249881107,10.39848802925651,36.897,0,20,-1,-1,2.400000095367432,7.999579855010836,-9999,3272.552903541667,-0.3637237548828125,1.346115112304688,-0.1935272216796875,3272.542909541667,-0.4403463794992297,-0.1540108718180925,-1.293122880415673,-5.711662292480469,6.087425231933594,-2.402066469192505,-0.5842463374137878,0.2085159420967102,0.0554509162902832,XArbitraryZVertical,-0.5995700229999659,0.07126364798416465,-0.1285735480276841,0.7867059030801506,-0.04205062612891197,0.9616957902908325,-0.270874559879303,0,0,0,-1,-1,3271.29105875,unknown,2,2022-06-02T10:55:33.149+02:00,2022-06-02T10:17:13.754+02:00,521,1.631355,0,0,405.4342,0,0,2022-06-02T10:55:33.149+02:00,675852933.1490878,0,4.210938,101.3309,1,0.78
2022-06-02T10:55:34.422+02:00,1654160134.000336,53.22909249881107,10.39848802925651,36.897,0,20,-1,-1,2.400000095367432,7.999579855010836,-9999,3272.562897541667,-0.3192596435546875,1.542984008789062,-0.1013336181640625,3272.552903541667,-0.5720648867118797,-0.219280391536919,-1.344872303733443,-5.673622608184814,6.355141162872314,-2.105450630187988,-0.4167265594005585,0.2650821208953857,0.04257114231586456,XArbitraryZVertical,-0.6181500591784068,0.09257051865144768,-0.1540126929584395,0.7652457940804598,-0.04872750863432884,0.9745875597000122,-0.2186424136161804,0,0,0,-1,-1,3271.29105875,unknown,2,2022-06-02T10:55:33.149+02:00,2022-06-02T10:17:13.754+02:00,521,1.631355,0,0,405.4342,0,0,2022-06-02T10:55:33.149+02:00,675852933.1490878,0,4.210938,101.3309,1,0.78
2022-06-02T10:55:34.432+02:00,1654160134.000336,53.22909249881107,10.39848802925651,36.897,0,20,-1,-1,2.400000095367432,7.999579855010836,-9999,3272.572891541667,-0.3167724609375,1.610275268554688,0.075225830078125,3272.562897541667,-0.7405399375304312,-0.32009350092847,-1.394523807722797,-5.69437313079834,6.524292945861816,-1.736425518989563,-0.3085456788539886,0.3616107702255249,-0.02707432210445404,XArbitraryZVertical,-0.6351633495925237,0.1155033505432884,-0.1784669530123829,0.7425468773424322,-0.05517803132534027,0.9845041632652283,-0.1664529889822006,0,0,0,-1,-1,3271.29105875,unknown,2,2022-06-02T10:55:33.149+02:00,2022-06-02T10:17:13.754+02:00,521,1.631355,0,0,405.4342,0,0,2022-06-02T10:55:33.149+02:00,675852933.1490878,0,4.210938,101.3309,1,0.78
2022-06-02T10:55:34.442+02:00,1654160134.000336,53.22909249881107,10.39848802925651,36.897,0,20,-1,-1,2.400000095367432,7.999579855010836,-9999,3272.582885541667,-0.25823974609375,1.57635498046875,0.2754058837890625,3272.572891541667,-0.9852449497893166,-0.4960066626620655,-1.441073293369648,-5.755899429321289,6.655164241790771,-1.420003890991211,-0.2576957046985626,0.5513860583305359,0.01243574917316437,XArbitraryZVertical,-0.6507875694918684,0.1399672036462095,-0.201816768278535,0.7184389702830257,-0.06156390160322189,0.9915977716445923,-0.1137694418430328,0,0,0,-1,-1,3271.29105875,unknown,2,2022-06-02T10:55:33.149+02:00,2022-06-02T10:17:13.754+02:00,521,1.631355,0,0,405.4342,0,0,2022-06-02T10:55:33.149+02:00,675852933.1490878,0,4.210938,101.3309,1,0.78
2022-06-02T10:55:34.452+02:00,1654160134.000336,53.22909249881107,10.39848802925651,36.897,0,20,-1,-1,2.400000095367432,7.999579855010836,-9999,3272.592879541667,-0.1371917724609375,1.6326904296875,0.47735595703125,3272.582885541667,-1.399045966490187,-0.8409857750865574,-1.479561377578447,-5.810731887817383,6.613271713256836,-0.9933854341506958,-0.248869463801384,0.6144342422485352,0.1359700560569763,XArbitraryZVertical,-0.6650027006780223,0.1655270888188534,-0.2235752466165044,0.693099033871748,-0.06790295243263245,0.9958409667015076,-0.06074438244104385,0,0,0,-1,-1,3271.29105875,unknown,2,2022-06-02T10:55:33.149+02:00,2022-06-02T10:17:13.754+02:00,521,1.631355,0,0,405.4342,0,0,2022-06-02T10:55:33.149+02:00,675852933.1490878,0,4.210938,101.3309,1,0.78
2022-06-02T10:55:34.462+02:00,1654160134.000336,53.22909249881107,10.39848802925651,36.897,0,20,-1,-1,2.400000095367432,7.999579855010836,-9999,3272.602873541667,-0.01959228515625,1.68426513671875,0.635986328125,3272.592879541667,-2.09501779251005,-1.469179567142124,-1.49758397493787,-5.812323093414307,6.505938529968262,-0.4247528910636902,-0.1854698359966278,0.5790337324142456,0.2828260064125061,XArbitraryZVertical,-0.6777459084502031,0.1922248321134626,-0.2428312235202083,0.6668906289402521,-0.07276985794305801,0.9973211884498596,-0.007420194800943136,0,0,0,-1,-1,3271.29105875,unknown,2,2022-06-02T10:55:33.149+02:00,2022-06-02T10:17:13.754+02:00,521,1.631355,0,0,405.4342,0,0,2022-06-02T10:55:33.149+02:00,675852933.1490878,0,4.210938,101.3309,1,0.78
2022-06-02T10:55:34.472+02:00,1654160134.000336,53.22909249881107,10.39848802925651,36.897,0,20,-1,-1,2.400000095367432,7.999579855010836,-9999,3272.612867541667,0.02374267578125,1.687881469726562,0.802459716796875,3272.602873541667,-2.795881020127079,-2.103782033919176,-1.482981965047598,-5.553849220275879,6.31456184387207,0.1006188169121742,-0.06165605783462524,0.6365435123443604,0.4327946901321411,XArbitraryZVertical,-0.6884505382823566,0.2198099473808289,-0.2594061182011608,0.6406463911177157,-0.07553566247224808,0.9961467981338501,0.04456111416220665,0,0,0,-1,-1,3271.29105875,unknown,2,2022-06-02T10:55:33.149+02:00,2022-06-02T10:17:13.754+02:00,521,1.631355,0,0,405.4342,0,0,2022-06-02T10:55:33.149+02:00,675852933.1490878,0,4.210938,101.3309,1,0.78
2022-06-02T10:55:34.482+02:00,1654160134.000336,53.22909249881107,10.39848802925651,36.897,0,20,-1,-1,2.400000095367432,7.999579855010836,-9999,3272.622862541667,0.0109100341796875,1.615264892578125,1.060775756835938,3272.612867541667,3.081267852618785,-2.446189130066954,-1.450723443351496,-4.888983249664307,5.972880840301514,0.5029649138450623,0.05715248733758926,0.6914650797843933,0.5440170764923096,XArbitraryZVertical,-0.6963450278255229,0.247160250264488,-0.2736537580115326,0.6157344500792924,-0.07674470543861389,0.9927999377250671,0.09196917712688446,0,0,0,-1,-1,3271.29105875,unknown,2,2022-06-02T10:55:33.149+02:00,2022-06-02T10:17:13.754+02:00,521,1.631355,0,0,405.4342,0,0,2022-06-02T10:55:33.149+02:00,675852933.1490878,0,4.210938,101.3309,1,0.78
2022-06-02T10:55:34.493+02:00,1654160134.000336,53.22909249881107,10.39848802925651,36.897,0,20,-1,-1,2.400000095367432,7.999579855010836,-9999,3272.632856541667,0.0492706298828125,1.641357421875,1.364791870117188,3272.622862541667,2.861456744711174,-2.606616911235785,-1.419671275359309,-3.574573040008545,5.51505708694458,0.7722170948982239,0.1004961431026459,0.6992790699005127,0.6729443073272705,XArbitraryZVertical,-0.7002839689123738,0.2726903492611183,-0.2862568660269657,0.5943898432835506,-0.07675343751907349,0.988602340221405,0.1295153200626373,0,0,0,-1,-1,3271.29105875,unknown,2,2022-06-02T10:55:33.149+02:00,2022-06-02T10:17:13.754+02:00,521,1.631355,0,0,405.4342,0,0,2022-06-02T10:55:33.149+02:00,675852933.1490878,0,4.210938,101.3309,1,0.78
2022-06-02T10:55:34.502+02:00,1654160134.000336,53.22909249881107,10.39848802925651,36.897,0,20,-1,-1,2.400000095367432,7.999579855010836,-9999,3272.642850541667,0.1187896728515625,1.552703857421875,1.60797119140625,3272.632856541667,2.728016496723326,-2.685424913356196,-1.398091005302048,-2.374950885772705,5.053267478942871,1.007536172866821,0.08661042153835297,0.6301411986351013,0.9065006971359253,XArbitraryZVertical,-0.6998731712184728,0.295491096558909,-0.298088314419255,0.5779322709190954,-0.07570035010576248,0.9851234555244446,0.1542748808860779,0,0,0,-1,-1,3271.29105875,unknown,2,2022-06-02T10:55:33.149+02:00,2022-06-02T10:17:13.754+02:00,521,1.631355,0,0,405.4342,0,0,2022-06-02T10:55:33.149+02:00,675852933.1490878,0,4.210938,101.3309,1,0.78
2022-06-02T10:55:34.512+02:00,1654160134.000336,53.22909249881107,10.39848802925651,36.897,0,20,-1,-1,2.400000095367432,7.999579855010836,-9999,3272.652844541667,0.1642608642578125,1.455734252929688,1.813064575195312,3272.642850541667,2.63551047985385,-2.728256632586326,-1.387962123395071,-1.117161989212036,4.553267002105713,1.132019400596619,0.1223004162311554,0.6580250263214111,1.198286414146423,XArbitraryZVertical,-0.6955321740828803,0.3154166135506478,-0.3094318559444165,0.5665679237378656,-0.07302974909543991,0.9833323359489441,0.166505292057991,0,0,0,-1,-1,3271.29105875,unknown,2,2022-06-02T10:55:33.149+02:00,2022-06-02T10:17:13.754+02:00,521,1.631355,0,0,405.4342,0,0,2022-06-02T10:55:33.149+02:00,675852933.1490878,0,4.210938,101.3309,1,0.78
2022-06-02T10:55:34.522+02:00,1654160134.000336,53.22909249881107,10.39848802925651,36.897,0,20,-1,-1,2.400000095367432,7.999579855010836,-9999,3272.662838541667,0.15789794921875,1.328414916992188,1.876739501953125,3272.652844541667,2.563036124995106,-2.757371983111549,-1.386802967361578,-0.2174254953861237,3.86247730255127,1.249167919158936,0.187368243932724,0.5695827007293701,1.43835461139679,XArbitraryZVertical,-0.6887488585547816,0.3323150288099061,-0.3197109626190819,0.5594429635313863,-0.06857851147651672,0.9831209182739258,0.1696165353059769,0,0,0,-1,-1,3271.29105875,unknown,2,2022-06-02T10:55:33.149+02:00,2022-06-02T10:17:13.754+02:00,521,1.631355,0,0,405.4342,0,0,2022-06-02T10:55:33.149+02:00,675852933.1490878,0,4.210938,101.3309,1,0.78
2022-06-02T10:55:34.543+02:00,1654160134.000336,53.22909249881107,10.39848802925651,36.897,0,20,-1,-1,2.400000095367432,7.999579855010836,-9999,3272.672832541667,0.170623779296875,1.157989501953125,1.912643432617188,3272.662838541667,2.498213509253691,-2.785676180606769,-1.392671661840093,0.4313675761222839,3.23194694519043,1.345384955406189,0.2260005474090576,0.4715564250946045,1.646985173225403,XArbitraryZVertical,-0.6804487401577519,0.3464522631636883,-0.328434992158523,0.5559592998495422,-0.06173963844776154,0.9841777086257935,0.1660793125629425,0,0,0,-1,-1,3271.29105875,unknown,2,2022-06-02T10:55:33.149+02:00,2022-06-02T10:17:13.754+02:00,521,1.631355,0,0,405.4342,0,0,2022-06-02T10:55:33.149+02:00,675852933.1490878,0,4.210938,101.3309,1,0.78
2022-06-02T10:55:34.549+02:00,1654160134.000336,53.22909249881107,10.39848802925651,36.897,0,20,-1,-1,2.400000095367432,7.999579855010836,-9999,3272.682826541667,0.220916748046875,1.04058837890625,1.946990966796875,3272.672832541667,2.438231502794308,-2.81598016408096,-1.403980636470137,0.9663603901863098,2.516810178756714,1.356614112854004,0.2110128700733185,0.3422961831092834,1.719422578811646,XArbitraryZVertical,-0.6712905222623945,0.3578092107475099,-0.335688364629162,0.555566998056453,-0.05311485752463341,0.986118495464325,0.1573167890310287,0,0,0,-1,-1,3271.29105875,unknown,2,2022-06-02T10:55:33.149+02:00,2022-06-02T10:17:13.754+02:00,521,1.631355,0,0,405.4342,0,0,2022-06-02T10:55:33.149+02:00,675852933.1490878,0,4.210938,101.3309,1,0.78
2022-06-02T10:55:34.553+02:00,1654160134.000336,53.22909249881107,10.39848802925651,36.897,0,20,-1,-1,2.400000095367432,7.999579855010836,-9999,3272.692821541667,0.2333526611328125,0.931976318359375,1.953140258789062,3272.682826541667,2.376486813590647,-2.855620419793691,-1.418531895279516,1.158217668533325,1.728574752807617,1.389159798622131,0.2134101986885071,0.1695592403411865,1.76712703704834,XArbitraryZVertical,-0.6621590293388449,0.3664745432768463,-0.3409518273094435,0.5576680130191946,-0.04278640076518059,0.9884301424026489,0.1455163359642029,0,0,0,-1,-1,3271.29105875,unknown,2,2022-06-02T10:55:33.149+02:00,2022-06-02T10:17:13.754+02:00,521,1.631355,0,0,405.4342,0,0,2022-06-02T10:55:33.149+02:00,675852933.1490878,0,4.210938,101.3309,1,0.78
2022-06-02T10:55:34.562+02:00,1654160134.000336,53.22909249881107,10.39848802925651,36.897,0,20,-1,-1,2.400000095367432,7.999579855010836,-9999,3272.702815541667,0.230255126953125,0.871734619140625,1.940078735351562,3272.692821541667,2.302321340856061,-2.915004149179646,-1.433018804175716,1.059368968009949,1.045706748962402,1.407589197158813,0.2517711818218231,0.05006462335586548,1.813160181045532,XArbitraryZVertical,-0.6540092081978538,0.3730782017341996,-0.3437213458785226,0.561195308412922,-0.03085437789559364,0.9905236959457397,0.1338307708501816,0,0,0,-1,-1,3271.29105875,unknown,2,2022-06-02T10:55:33.149+02:00,2022-06-02T10:17:13.754+02:00,521,1.631355,0,0,405.4342,0,0,2022-06-02T10:55:33.149+02:00,675852933.1490878,0,4.210938,101.3309,1,0.78
2022-06-02T10:55:34.572+02:00,1654160134.000336,53.22909249881107,10.39848802925651,36.897,0,20,-1,-1,2.400000095367432,7.999579855010836,-9999,3272.712809541667,0.220306396484375,0.8637542724609375,1.908660888671875,3272.702815541667,2.210910157421793,-2.998433054777625,-1.44523191003774,0.8927685618400574,0.3982632458209991,1.395933389663696,0.2512198090553284,-0.06015104055404663,1.829188466072083,XArbitraryZVertical,-0.6473801802739604,0.3779877476783412,-0.3439460245592809,0.5654423758246764,-0.01786709949374199,0.9921271204948425,0.1239516735076904,0,0,0,-1,-1,3271.29105875,unknown,2,2022-06-02T10:55:33.149+02:00,2022-06-02T10:17:13.754+02:00,521,1.631355,0,0,405.4342,0,0,2022-06-02T10:55:33.149+02:00,675852933.1490878,0,4.210938,101.3309,1,0.78
2022-06-02T10:55:34.582+02:00,1654160134.000336,53.22909249881107,10.39848802925651,36.897,0,20,-1,-1,2.400000095367432,7.999579855010836,-9999,3272.722803541667,0.214202880859375,0.8653717041015625,1.894073486328125,3272.712809541667,2.103171392976392,-3.104598578361096,-1.454761020419668,0.7724400162696838,-0.2431849539279938,1.366805553436279,0.2345371246337891,-0.1215410232543945,1.824384450912476,XArbitraryZVertical,-0.6422696324367725,0.3812306947220554,-0.341865401115954,0.5703338973465509,-0.004281955305486917,0.9932754635810852,0.1156942471861839,0,0,0,-1,-1,3271.29105875,unknown,2,2022-06-02T10:55:33.149+02:00,2022-06-02T10:17:13.754+02:00,521,1.631355,0,0,405.4342,0,0,2022-06-02T10:55:33.149+02:00,675852933.1490878,0,4.210938,101.3309,1,0.78
2022-06-02T10:55:34.592+02:00,1654160134.000336,53.22909249881107,10.39848802925651,36.897,0,20,-1,-1,2.400000095367432,7.999579855010836,-9999,3272.732797541667,0.1618499755859375,0.8456573486328125,1.88641357421875,3272.722803541667,1.980318669750959,3.050891651020814,-1.461536605172283,0.6402930617332458,-0.8733099102973938,1.362289905548096,0.2104298174381256,-0.1302829384803772,1.800067186355591,XArbitraryZVertical,-0.638579953907297,0.3827693862899669,-0.3375267274854759,0.5760024965772506,0.009876640513539314,0.9940370917320251,0.1085935235023499,0,0,0,-1,-1,3271.29105875,unknown,2,2022-06-02T10:55:33.149+02:00,2022-06-02T10:17:13.754+02:00,521,1.631355,0,0,405.4342,0,0,2022-06-02T10:55:33.149+02:00,675852933.1490878,0,4.210938,101.3309,1,0.78
2022-06-02T10:55:34.602+02:00,1654160134.000336,53.22909249881107,10.39848802925651,36.897,0,20,-1,-1,2.400000095367432,7.999579855010836,-9999,3272.742791541667,0.082855224609375,0.7733154296875,1.802871704101562,3272.732797541667,1.84746026420567,2.90705623096776,-1.464711795506696,0.4450271427631378,-1.468176007270813,1.342607617378235,0.18959641456604,-0.1290068626403809,1.791088700294495,XArbitraryZVertical,-0.6363716911036414,0.3827837620327263,-0.3308957948543141,0.5822503163021167,0.02460649982094765,0.9943783283233643,0.1029846742749214,0,0,0,-1,-1,3271.29105875,unknown,2,2022-06-02T10:55:33.149+02:00,2022-06-02T10:17:13.754+02:00,521,1.631355,0,0,405.4342,0,0,2022-06-02T10:55:33.149+02:00,675852933.1490878,0,4.210938,101.3309,1,0.78
2022-06-02T10:55:34.612+02:00,1654160134.000336,53.22909249881107,10.39848802925651,36.897,0,20,-1,-1,2.400000095367432,7.999579855010836,-9999,3272.752785541667,0.0360870361328125,0.743499755859375,1.706146240234375,3272.742791541667,1.720323519803715,2.763252959973819,-1.464159330655634,0.26317098736763,-2.00522518157959,1.264199495315552,0.1225355565547943,-0.1486624479293823,1.787506341934204,XArbitraryZVertical,-0.6356846816897781,0.3812591158781962,-0.322230929485754,0.58882392826986,0.03931444883346558,0.9943196773529053,0.09890705347061157,0,0,0,-1,-1,3271.29105875,unknown,2,2022-06-02T10:55:33.149+02:00,2022-06-02T10:17:13.754+02:00,521,1.631355,0,0,405.4342,0,0,2022-06-02T10:55:33.149+02:00,675852933.1490878,0,4.210938,101.3309,1,0.78
2022-06-02T10:55:34.622+02:00,1654160134.000336,53.22909249881107,10.39848802925651,36.897,0,20,-1,-1,2.400000095367432,7.999579855010836,-9999,3272.762780541667,-0.02734375,0.7330169677734375,1.638885498046875,3272.752785541667,1.61043815349776,2.63128088292842,-1.460330458084727,0.08478526026010513,-2.538840293884277,1.219955801963806,0.02900794893503189,-0.2205893993377686,1.706675887107849,XArbitraryZVertical,-0.6364427735111612,0.3782042872101115,-0.3116490149622486,0.5956316044822005,0.05384732410311699,0.9939048290252686,0.0961957722902298,0,0,0,-1,-1,3271.29105875,unknown,2,2022-06-02T10:55:33.149+02:00,2022-06-02T10:17:13.754+02:00,521,1.631355,0,0,405.4342,0,0,2022-06-02T10:55:33.149+02:00,675852933.1490878,0,4.210938,101.3309,1,0.78
2022-06-02T10:55:34.632+02:00,1654160134.000336,53.22909249881107,10.39848802925651,36.897,0,20,-1,-1,2.400000095367432,7.999579855010836,-9999,3272.772774541667,-0.0956268310546875,0.7599639892578125,1.6417236328125,3272.762780541667,1.51895966210749,2.51267352142251,-1.45457953825191,0.08952371776103973,-3.000668048858643,1.134997963905334,-0.03212574124336243,-0.2497547268867493,1.612377643585205,XArbitraryZVertical,-0.6382356462763981,0.3735498232523934,-0.2994181859863713,0.6028801509895313,0.06821282953023911,0.9932544231414795,0.0937684178352356,0,0,0,-1,-1,3271.29105875,unknown,2,2022-06-02T10:55:33.149+02:00,2022-06-02T10:17:13.754+02:00,521,1.631355,0,0,405.4342,0,0,2022-06-02T10:55:33.149+02:00,675852933.1490878,0,4.210938,101.3309,1,0.78
2022-06-02T10:55:34.642+02:00,1654160134.000336,53.22909249881107,10.39848802925651,36.897,0,20,-1,-1,2.400000095367432,7.999579855010836,-9999,3272.782768541667,-0.1458282470703125,0.7778472900390625,1.676239013671875,3272.772774541667,1.441605770551029,2.403518450583283,-1.448501094382156,0.1310165673494339,-3.484579086303711,1.075129389762878,-0.1094262301921844,-0.2595143914222717,1.548641681671143,XArbitraryZVertical,-0.6406045009039877,0.3670800367522983,-0.2859507188150801,0.6108274698398393,0.08208250254392624,0.9925312399864197,0.09024375677108765,0,0,0,-1,-1,3271.29105875,unknown,2,2022-06-02T10:55:33.149+02:00,2022-06-02T10:17:13.754+02:00,521,1.631355,0,0,405.4342,0,0,2022-06-02T10:55:33.149+02:00,675852933.1490878,0,4.210938,101.3309,1,0.78
2022-06-02T10:55:34.652+02:00,1654160134.000336,53.22909249881107,10.39848802925651,36.897,0,20,-1,-1,2.400000095367432,7.999579855010836,-9999,3272.792762541667,-0.210479736328125,0.7620697021484375,1.734573364257812,3272.782768541667,1.373795898057227,2.298700519112344,-1.441825776826289,0.1272764652967453,-4.038820743560791,1.065410971641541,-0.1916445940732956,-0.2317310571670532,1.556157231330872,XArbitraryZVertical,-0.643471827136005,0.3587856507200087,-0.2708458658599544,0.6195637214181254,0.09601777791976929,0.9916948080062866,0.08556626737117767,0,0,0,-1,-1,3271.29105875,unknown,2,2022-06-02T10:55:33.149+02:00,2022-06-02T10:17:13.754+02:00,521,1.631355,0,0,405.4342,0,0,2022-06-02T10:55:33.149+02:00,675852933.1490878,0,4.210938,101.3309,1,0.78
2022-06-02T10:55:34.662+02:00,1654160134.000336,53.22909249881107,10.39848802925651,36.897,0,20,-1,-1,2.400000095367432,7.999579855010836,-9999,3272.802756541667,-0.2686614990234375,0.7882080078125,1.750411987304688,3272.792762541667,1.319674609013841,2.201855924801995,-1.434373138630789,0.0672386959195137,-4.603147983551025,0.976021945476532,-0.2556344270706177,-0.2128616571426392,1.595999240875244,XArbitraryZVertical,-0.6470408259630358,0.3485082471125148,-0.2538520831215789,0.6288395250590848,0.1098061949014664,0.9907087683677673,0.08023966103792191,0,0,0,-1,-1,3271.29105875,unknown,2,2022-06-02T10:55:33.149+02:00,2022-06-02T10:17:13.754+02:00,521,1.631355,0,0,405.4342,0,0,2022-06-02T10:55:33.149+02:00,675852933.1490878,0,4.210938,101.3309,1,0.78
2022-06-02T10:55:34.672+02:00,1654160134.000336,53.22909249881107,10.39848802925651,36.897,0,20,-1,-1,2.400000095367432,7.999579855010836,-9999,3272.812750541667,-0.342254638671875,0.838623046875,1.67510986328125,3272.802756541667,1.28086414777346,2.114104581841893,-1.427179811128073,0.07089834660291672,-5.301892757415771,0.8205560445785522,-0.3329926133155823,-0.227635383605957,1.66058337688446,XArbitraryZVertical,-0.6513657825869944,0.3357343688362012,-0.2350834232289123,0.6385457408455194,0.1225129067897797,0.9897048473358154,0.07398989796638489,0,0,0,-1,-1,3271.29105875,unknown,2,2022-06-02T10:55:33.149+02:00,2022-06-02T10:17:13.754+02:00,521,1.631355,0,0,405.4342,0,0,2022-06-02T10:55:33.149+02:00,675852933.1490878,0,4.210938,101.3309,1,0.78
2022-06-02T10:55:34.682+02:00,1654160134.000336,53.22909249881107,10.39848802925651,36.897,0,20,-1,-1,2.400000095367432,7.999579855010836,-9999,3272.822744541667,-0.50616455078125,0.91015625,1.56207275390625,3272.812750541667,1.246468582742761,2.022304168454626,-1.421274898864894,0.290372371673584,-6.307315349578857,0.7036371231079102,-0.4026989340782166,-0.2006344795227051,1.685415029525757,XArbitraryZVertical,-0.6560956419755322,0.3194322686911646,-0.2140163847253245,0.6493832213505069,0.1340374797582626,0.9888424873352051,0.06499692797660828,0,0,0,-1,-1,3271.29105875,unknown,2,2022-06-02T10:55:33.149+02:00,2022-06-02T10:17:13.754+02:00,521,1.631355,0,0,405.4342,0,0,2022-06-02T10:55:33.149+02:00,675852933.1490878,0,4.210938,101.3309,1,0.78
2022-06-02T10:55:34.692+02:00,1654160134.000336,53.22909249881107,10.39848802925651,36.897,0,20,-1,-1,2.400000095367432,7.999579855010836,-9999,3272.832739541667,-0.786590576171875,0.9255523681640625,1.369003295898438,3272.822744541667,1.204628279001519,1.911470505580654,-1.416224219821169,0.4518833160400391,-7.620068550109863,0.734914243221283,-0.4873629212379456,-0.149454653263092,1.623669505119324,XArbitraryZVertical,-0.6607272448328647,0.2985961031785259,-0.1894155092977374,0.6621189298747261,0.1451082825660706,0.9880775213241577,0.05144025012850761,0,0,0,-1,-1,3271.29105875,unknown,2,2022-06-02T10:55:33.149+02:00,2022-06-02T10:17:13.754+02:00,521,1.631355,0,0,405.4342,0,0,2022-06-02T10:55:33.149+02:00,675852933.1490878,0,4.210938,101.3309,1,0.78
2022-06-02T10:55:34.702+02:00,1654160134.000336,53.22909249881107,10.39848802925651,36.897,0,20,-1,-1,2.400000095367432,7.999579855010836,-9999,3272.842733541667,-0.9915924072265625,0.939849853515625,0.96142578125,3272.832739541667,1.170036048633448,1.794627263057204,-1.41008874280556,0.209245353937149,-8.872353553771973,0.7235393524169922,-0.6621887683868408,-0.07695817947387695,1.526554465293884,XArbitraryZVertical,-0.665718896222617,0.2730887299473773,-0.1600179373608286,0.6757477666418624,0.1560242623090744,0.9871143102645874,0.03551820665597916,0,0,0,-1,-1,3271.29105875,unknown,2,2022-06-02T10:55:33.149+02:00,2022-06-02T10:17:13.754+02:00,521,1.631355,0,0,405.4342,0,0,2022-06-02T10:55:33.149+02:00,675852933.1490878,0,4.210938,101.3309,1,0.78
2022-06-02T10:55:34.712+02:00,1654160134.000336,53.22909249881107,10.39848802925651,36.897,0,20,-1,-1,2.400000095367432,7.999579855010836,-9999,3272.852727541667,-0.9989776611328125,0.923004150390625,0.4050140380859375,3272.842733541667,1.162876836517711,1.694804137081855,-1.40377404455558,-0.1435534060001373,-9.642187118530273,0.5441771745681763,-0.951560378074646,-0.06053191423416138,1.348440170288086,XArbitraryZVertical,-0.671522207648769,0.2435969118900315,-0.1268183795708778,0.6882118209675194,0.1649698317050934,0.9860841631889343,0.02056306228041649,0,0,0,-1,-1,3271.29105875,unknown,2,2022-06-02T10:55:33.149+02:00,2022-06-02T10:17:13.754+02:00,521,1.631355,0,0,405.4342,0,0,2022-06-02T10:55:33.149+02:00,675852933.1490878,0,4.210938,101.3309,1,0.78
2022-06-02T10:55:34.722+02:00,1654160134.000336,53.22909249881107,10.39848802925651,36.897,0,20,-1,-1,2.400000095367432,7.999579855010836,-9999,3272.862721541667,-0.81890869140625,0.7754974365234375,0.3364105224609375,3272.852727541667,1.167366770456184,1.599769870510662,-1.399787493382274,0.01511799916625023,-10.30803203582764,0.2118312269449234,-1.161696672439575,-0.04556387662887573,0.9564957618713379,XArbitraryZVertical,-0.6768816029321733,0.2104667388990595,-0.09180370172973773,0.6993618478105602,0.1701043397188187,0.9854136109352112,0.004929905291646719,0,0,0,-1,-1,3271.29105875,unknown,2,2022-06-02T10:55:33.149+02:00,2022-06-02T10:17:13.754+02:00,521,1.631355,0,0,405.4342,0,0,2022-06-02T10:55:33.149+02:00,675852933.1490878,0,4.210938,101.3309,1,0.78
2022-06-02T10:55:34.732+02:00,1654160134.000336,53.22909249881107,10.39848802925651,36.897,0,20,-1,-1,2.400000095367432,7.999579855010836,-9999,3272.872715541667,-0.73101806640625,0.72808837890625,0.673431396484375,3272.862721541667,1.155705639587459,1.479752301437069,-1.39952074544138,0.3753076791763306,-11.43924808502197,-0.16044020652771,-1.168710947036743,-0.06236410140991211,0.4205099940299988,XArbitraryZVertical,-0.6801454465712933,0.1722038023815233,-0.05509454736272271,0.7104312636885789,0.1697333157062531,0.9853681325912476,-0.01549604348838329,0,0,0,-1,-1,3271.29105875,unknown,2,2022-06-02T10:55:33.149+02:00,2022-06-02T10:17:13.754+02:00,521,1.631355,0,0,405.4342,0,0,2022-06-02T10:55:33.149+02:00,675852933.1490878,0,4.210938,101.3309,1,0.78
2022-06-02T10:55:34.742+02:00,1654160134.000336,53.22909249881107,10.39848802925651,36.897,0,20,-1,-1,2.400000095367432,7.999579855010836,-9999,3272.882709541667,-1.01031494140625,0.8978271484375,1.156936645507812,3272.872715541667,1.124034045670218,1.330290190459942,-1.401431580892289,0.5690587162971497,-12.17427444458008,-0.3980444967746735,-0.9826135039329529,-0.2101945877075195,0.3765595555305481,XArbitraryZVertical,-0.6806795758972766,0.1288438937656882,-0.01622114254734163,0.7209795080081784,0.1637048125267029,0.985692024230957,-0.04014913365244865,0,0,0,-1,-1,3271.29105875,unknown,2,2022-06-02T10:55:33.149+02:00,2022-06-02T10:17:13.754+02:00,521,1.631355,0,0,405.4342,0,0,2022-06-02T10:55:33.149+02:00,675852933.1490878,0,4.210938,101.3309,1,0.78
2022-06-02T10:55:34.752+02:00,1654160134.000336,53.22909249881107,10.39848802925651,36.897,0,20,-1,-1,2.400000095367432,7.999579855010836,-9999,3272.892704541667,-1.389801025390625,-0.3457183837890625,5.521469116210938,3272.882709541667,1.097279769472499,1.181053513249065,-1.406327214624485,-0.04681094735860825,-12.3778018951416,-0.8778933882713318,-0.8824682831764221,-0.258417010307312,0.7356401085853577,XArbitraryZVertical,-0.6797999115081368,0.08226582352962609,0.02324628909518857,0.7283982752620194,0.1514502167701721,0.986505389213562,-0.06220882758498192,0,0,0,-1,-1,3271.29105875,unknown,2,2022-06-02T10:55:33.149+02:00,2022-06-02T10:17:13.754+02:00,521,1.631355,0,0,405.4342,0,0,2022-06-02T10:55:33.149+02:00,675852933.1490878,0,4.210938,101.3309,1,0.78
2022-06-02T10:55:34.762+02:00,1654160134.000336,53.22909249881107,10.39848802925651,36.897,0,20,-1,-1,2.400000095367432,7.999579855010836,-9999,3272.902698541667,-12.80766296386719,0.735931396484375,-19.35671997070312,3272.892704541667,1.076896208890359,1.038762519806386,-1.423010212712943,-0.3601038753986359,-9.743041038513184,-2.995383739471436,-1.137210130691528,-0.09127247333526611,1.23163366317749,XArbitraryZVertical,-0.6794298624876826,0.03203900084660495,0.05892838598118778,0.730668139238019,0.1268951594829559,0.9890995025634766,-0.07469712942838669,0,0,0,-1,-1,3271.29105875,unknown,2,2022-06-02T10:55:33.149+02:00,2022-06-02T10:17:13.754+02:00,521,1.631355,0,0,405.4342,0,0,2022-06-02T10:55:33.149+02:00,675852933.1490878,0,4.210938,101.3309,1,0.78
2022-06-02T10:55:34.772+02:00,1654160134.000336,53.22909249881107,10.39848802925651,36.897,0,20,-1,-1,2.400000095367432,7.999579855010836,-9999,3272.912692541667,-3.20465087890625,0.9953460693359375,-19.79031372070312,3272.902698541667,0.7681865960778074,0.7578516348422834,-1.443623114924005,-3.58967113494873,7.040873050689697,-3.392323732376099,-1.476978778839111,-1.337642908096313,5.613586902618408,XArbitraryZVertical,-0.6731938401504073,0.02740605078849694,0.03469917848026114,0.7381427572971324,0.08717770129442215,0.9919244050979614,-0.09211792051792145,0,0,0,-1,-1,3271.29105875,unknown,2,2022-06-02T10:55:33.149+02:00,2022-06-02T10:17:13.754+02:00,521,1.631355,0,0,405.4342,0,0,2022-06-02T10:55:33.149+02:00,675852933.1490878,0,4.210938,101.3309,1,0.78
2022-06-02T10:55:34.782+02:00,1654160134.000336,53.22909249881107,10.39848802925651,36.897,0,20,-1,-1,2.400000095367432,7.999579855010836,-9999,3272.922686541667,-2.775436401367188,0.996795654296875,-4.881439208984375,3272.912692541667,0.4976446659878675,0.5413223791493968,-1.432802336965756,6.796469688415527,2.300513029098511,0.08620705455541611,-12.87854099273682,-0.2545626163482666,-19.23883056640625,XArbitraryZVertical,-0.6629379688019134,0.03960519099555898,0.008796305730932159,0.7475742331583292,0.07087845355272293,0.9904939532279968,-0.1178893595933914,0,0,0,-1,-1,3271.29105875,unknown,2,2022-06-02T10:55:33.149+02:00,2022-06-02T10:17:13.754+02:00,521,1.631355,0,0,405.4342,0,0,2022-06-02T10:55:33.149+02:00,675852933.1490878,0,4.210938,101.3309,1,0.78
2022-06-02T10:55:34.792+02:00,1654160134.000336,53.22909249881107,10.39848802925651,36.897,0,20,-1,-1,2.400000095367432,7.999579855010836,-9999,3272.932680541667,-0.925628662109375,-2.219100952148438,7.877609252929688,3272.922686541667,0.528083453664845,0.582244261577294,-1.398393178086138,-1.178903818130493,0.03956665098667145,3.753082752227783,-3.298986196517944,0.01017063856124878,-19.64702987670898,XArbitraryZVertical,-0.6524878579593406,0.0511631209324593,0.01301249921332327,0.7559580298157976,0.09433533996343613,0.9851753711700439,-0.1432838588953018,0,0,0,-1,-1,3271.29105875,unknown,2,2022-06-02T10:55:33.149+02:00,2022-06-02T10:17:13.754+02:00,521,1.631355,0,0,405.4342,0,0,2022-06-02T10:55:33.149+02:00,675852933.1490878,0,4.210938,101.3309,1,0.78
2022-06-02T10:55:34.802+02:00,1654160134.000336,53.22909249881107,10.39848802925651,36.897,0,20,-1,-1,2.400000095367432,7.999579855010836,-9999,3272.942674541667,-0.1064300537109375,0.8062286376953125,5.166900634765625,3272.932680541667,0.9120955882557483,0.9722351745150659,-1.415970509438234,-8.917826652526855,2.783946514129639,1.384166121482849,-2.902835130691528,0.008757293224334717,-4.794549942016602,XArbitraryZVertical,-0.6725137164277799,0.06542644815015281,0.0230350942731218,0.7368270644250564,0.1273987889289856,0.9880384206771851,-0.0868893638253212,0,0,0,-1,-1,3271.29105875,unknown,2,2022-06-02T10:55:33.149+02:00,2022-06-02T10:17:13.754+02:00,521,1.631355,0,0,405.4342,0,0,2022-06-02T10:55:33.149+02:00,675852933.1490878,0,4.210938,101.3309,1,0.78
2022-06-02T10:55:34.812+02:00,1654160134.000336,53.22909249881107,10.39848802925651,36.897,0,20,-1,-1,2.400000095367432,7.999579855010836,-9999,3272.952668541667,0.1795654296875,4.048110961914062,-2.268829345703125,3272.942674541667,1.502833942330629,1.606892282819998,-1.446795152561279,-8.661745071411133,5.535288333892822,-1.186002135276794,-1.049230813980103,-3.211422920227051,7.873145580291748,XArbitraryZVertical,-0.704095078866588,0.08050998558737782,0.007104136418467097,0.7054910893929892,0.1236021295189857,0.9923217296600342,0.004463475663214922,0,0,0,-1,-1,3271.29105875,unknown,2,2022-06-02T10:55:33.149+02:00,2022-06-02T10:17:13.754+02:00,521,1.631355,0,0,405.4342,0,0,2022-06-02T10:55:33.149+02:00,675852933.1490878,0,4.210938,101.3309,1,0.78
2022-06-02T10:55:34.822+02:00,1654160134.000336,53.22909249881107,10.39848802925651,36.897,0,20,-1,-1,2.400000095367432,7.999579855010836,-9999,3272.962663541667,-1.43170166015625,1.053237915039062,-2.270477294921875,3272.952668541667,2.043335368833226,2.189962347095293,-1.424625329567522,-4.877551078796387,3.649413585662842,0.7137963175773621,-0.225041925907135,-0.1831075549125671,5.082371711730957,XArbitraryZVertical,-0.7301298127476066,0.09578558260904117,-0.007525901887592492,0.676519616246534,0.1186118796467781,0.9893360137939453,0.0845288410782814,0,0,0,-1,-1,3271.29105875,unknown,2,2022-06-02T10:55:33.149+02:00,2022-06-02T10:17:13.754+02:00,521,1.631355,0,0,405.4342,0,0,2022-06-02T10:55:33.149+02:00,675852933.1490878,0,4.210938,101.3309,1,0.78
2022-06-02T10:55:34.832+02:00,1654160134.000336,53.22909249881107,10.39848802925651,36.897,0,20,-1,-1,2.400000095367432,7.999579855010836,-9999,3272.972657541667,-2.265457153320312,0.8620147705078125,1.309829711914062,3272.962663541667,1.957698347296153,2.13364066468368,-1.433077751085318,7.563723564147949,2.068459033966064,-0.6762852668762207,0.06345967203378677,3.057579040527344,-2.342082738876343,XArbitraryZVertical,-0.7249481817075228,0.1052463701562463,-0.0187087346963494,0.6804580989809887,0.1161057651042938,0.9905318021774292,0.0732533261179924,0,0,0,-1,-1,3271.29105875,unknown,2,2022-06-02T10:55:33.149+02:00,2022-06-02T10:17:13.754+02:00,521,1.631355,0,0,405.4342,0,0,2022-06-02T10:55:33.149+02:00,675852933.1490878,0,4.210938,101.3309,1,0.78
2022-06-02T10:55:34.842+02:00,1654160134.000336,53.22909249881107,10.39848802925651,36.897,0,20,-1,-1,2.400000095367432,7.999579855010836,-9999,3272.982651541667,-1.52154541015625,0.4629974365234375,0.7714080810546875,3272.972657541667,1.25159616179296,1.455805115872201,-1.468561973761091,8.545022964477539,2.635373115539551,-1.745391249656677,-1.533083081245422,0.05845916271209717,-2.25876784324646,XArbitraryZVertical,-0.6947232381379648,0.1072604508061204,-0.03669805770953131,0.7102872511425482,0.1013814732432365,0.9947786331176758,-0.01170963607728481,0,0,0,-1,-1,3271.29105875,unknown,2,2022-06-02T10:55:33.149+02:00,2022-06-02T10:17:13.754+02:00,521,1.631355,0,0,405.4342,0,0,2022-06-02T10:55:33.149+02:00,675852933.1490878,0,4.210938,101.3309,1,0.78
2022-06-02T10:55:34.852+02:00,1654160134.000336,53.22909249881107,10.39848802925651,36.897,0,20,-1,-1,2.400000095367432,7.999579855010836,-9999,3272.992645541667,-0.720733642578125,-0.00531005859375,-0.2836761474609375,3272.982651541667,0.6021844417395581,0.8396396290470028,-1.456372179562885,5.00306510925293,2.997372627258301,-1.706465363502502,-2.350449085235596,-0.1314460039138794,1.386067628860474,XArbitraryZVertical,-0.6706065847537072,0.1103075845519484,-0.05693028743463911,0.7313535492433214,0.08499203622341156,0.9934607148170471,-0.07623808830976486,0,0,0,-1,-1,3271.29105875,unknown,2,2022-06-02T10:55:33.149+02:00,2022-06-02T10:17:13.754+02:00,521,1.631355,0,0,405.4342,0,0,2022-06-02T10:55:33.149+02:00,675852933.1490878,0,4.210938,101.3309,1,0.78
2022-06-02T10:55:34.862+02:00,1654160134.000336,53.22909249881107,10.39848802925651,36.897,0,20,-1,-1,2.400000095367432,7.999579855010836,-9999,3273.002639541667,-0.553009033203125,0.2043304443359375,-0.2409515380859375,3272.992645541667,0.2795286089556495,0.547909588821956,-1.439178806175452,2.800345420837402,2.621013879776001,-2.055228471755981,-1.589907169342041,-0.5283536911010742,0.8834336400032043,XArbitraryZVertical,-0.6566562880841761,0.1130915618627929,-0.07570407595684445,0.7418096377510144,0.06836170703172684,0.9913508892059326,-0.1120256334543228,0,0,0,-1,-1,3271.29105875,unknown,2,2022-06-02T10:55:33.149+02:00,2022-06-02T10:17:13.754+02:00,521,1.631355,0,0,405.4342,0,0,2022-06-02T10:55:33.149+02:00,675852933.1490878,0,4.210938,101.3309,1,0.78
2022-06-02T10:55:34.872+02:00,1654160134.000336,53.22909249881107,10.39848802925651,36.897,0,20,-1,-1,2.400000095367432,7.999579855010836,-9999,3273.012633541667,-0.76385498046875,0.3459625244140625,0.047576904296875,3273.002639541667,0.05869248105283189,0.3561818425937461,-1.426391193107859,1.837988018989563,2.804114580154419,-1.858120322227478,-0.7709121704101562,-0.9949019551277161,-0.1488057821989059,XArbitraryZVertical,-0.6475602748019286,0.115023743343018,-0.09401239924883457,0.7473932589530646,0.05017855018377304,0.989591658115387,-0.1348704546689987,0,0,0,-1,-1,3271.29105875,unknown,2,2022-06-02T10:55:33.149+02:00,2022-06-02T10:17:13.754+02:00,521,1.631355,0,0,405.4342,0,0,2022-06-02T10:55:33.149+02:00,675852933.1490878,0,4.210938,101.3309,1,0.78
2022-06-02T10:55:34.882+02:00,1654160134.000336,53.22909249881107,10.39848802925651,36.897,0,20,-1,-1,2.400000095367432,7.999579855010836,-9999,3273.022627541667,-0.87823486328125,0.4962615966796875,0.0516357421875,3273.012633541667,-0.08123444345814419,0.2481657249757882,-1.42113797542014,0.2637085318565369,3.198841571807861,-1.731237292289734,-0.5896318554878235,-0.7844917178153992,-0.09641945362091064,XArbitraryZVertical,-0.6429072457240482,0.1200174593064507,-0.111203262130493,0.7482645560344218,0.03662285581231117,0.9888221025466919,-0.1445321589708328,0,0,0,-1,-1,3271.29105875,unknown,2,2022-06-02T10:55:33.149+02:00,2022-06-02T10:17:13.754+02:00,521,1.631355,0,0,405.4342,0,0,2022-06-02T10:55:33.149+02:00,675852933.1490878,0,4.210938,101.3309,1,0.78
2022-06-02T10:55:34.892+02:00,1654160134.000336,53.22909249881107,10.39848802925651,36.897,0,20,-1,-1,2.400000095367432,7.999579855010836,-9999,3273.032622541667,-0.80389404296875,0.7641448974609375,0.030975341796875,3273.022627541667,-0.2049575112901738,0.1596236163732031,-1.428295979999524,-0.8366114497184753,3.513330936431885,-2.042515754699707,-0.7864282131195068,-0.6439015865325928,0.1877891421318054,XArbitraryZVertical,-0.6433007232603835,0.1267201402748909,-0.1290019897862679,0.7439519807942035,0.02257325127720833,0.9898639917373657,-0.1402123719453812,0,0,0,-1,-1,3271.29105875,unknown,2,2022-06-02T10:55:33.149+02:00,2022-06-02T10:17:13.754+02:00,521,1.631355,0,0,405.4342,0,0,2022-06-02T10:55:33.149+02:00,675852933.1490878,0,4.210938,101.3309,1,0.78
2022-06-02T10:55:34.902+02:00,1654160134.000336,53.22909249881107,10.39848802925651,36.897,0,20,-1,-1,2.400000095367432,7.999579855010836,-9999,3273.042616541667,-0.68804931640625,0.801116943359375,0.1203460693359375,3273.032622541667,-0.3574208424581288,0.04546136035210363,-1.439459168814371,-0.8833880424499512,3.811224460601807,-2.258923053741455,-0.8841863870620728,-0.4951261281967163,0.1824604272842407,XArbitraryZVertical,-0.6454771915155718,0.133965642048375,-0.1483823748789169,0.7371533791248845,0.005951574072241783,0.991387665271759,-0.1308248043060303,0,0,0,-1,-1,3271.29105875,unknown,2,2022-06-02T10:55:33.149+02:00,2022-06-02T10:17:13.754+02:00,521,1.631355,0,0,405.4342,0,0,2022-06-02T10:55:33.149+02:00,675852933.1490878,0,4.210938,101.3309,1,0.78
2022-06-02T10:55:34.912+02:00,1654160134.000336,53.22909249881107,10.39848802925651,36.897,0,20,-1,-1,2.400000095367432,7.999579855010836,-9999,3273.052610541667,-0.6085968017578125,0.52117919921875,0.4619293212890625,3273.042616541667,-0.5438993767445157,-0.1005600655732867,-1.44607840667637,-0.5945422053337097,3.905142307281494,-2.444463729858398,-0.791405975818634,-0.2280880212783813,0.1547412872314453,XArbitraryZVertical,-0.6466665920323056,0.1412066598013224,-0.1691163274843619,0.730262011507865,-0.01248803921043873,0.9922327995300293,-0.1237659975886345,0,0,0,-1,-1,3271.29105875,unknown,2,2022-06-02T10:55:33.149+02:00,2022-06-02T10:17:13.754+02:00,521,1.631355,0,0,405.4342,0,0,2022-06-02T10:55:33.149+02:00,675852933.1490878,0,4.210938,101.3309,1,0.78
2022-06-02T10:55:34.922+02:00,1654160134.000336,53.22909249881107,10.39848802925651,36.897,0,20,-1,-1,2.400000095367432,7.999579855010836,-9999,3273.06260625,-0.577545166015625,0.362274169921875,0.807952880859375,3273.052610541667,-0.757631170203368,-0.2740940938309234,-1.446618682057397,-0.5399457812309265,3.779560804367065,-2.712475061416626,-0.6545236706733704,-0.1911829113960266,0.2395816892385483,XArbitraryZVertical,-0.6470526626403768,0.1473261861934775,-0.1906123821628351,0.7233842947299031,-0.03352560102939606,0.9922998547554016,-0.1192356944084167,0,0,0,-1,-1,3271.29105875,unknown,2,2022-06-02T10:55:33.149+02:00,2022-06-02T10:17:13.754+02:00,521,1.631355,0,0,405.4342,0,0,2022-06-02T10:55:33.149+02:00,675852933.1490878,0,4.210938,101.3309,1,0.78
2022-06-02T10:55:34.932+02:00,1654160134.000336,53.22909249881107,10.39848802925651,36.897,0,20,-1,-1,2.400000095367432,7.999579855010836,-9999,3273.07260025,-0.5851287841796875,0.4910430908203125,0.928924560546875,3273.06260625,-0.9797883213272671,-0.4571255097714462,-1.44171975338019,-0.5651702284812927,3.698204278945923,-2.825109481811523,-0.5517842769622803,-0.4705020785331726,0.5774314403533936,XArbitraryZVertical,-0.6473446261039384,0.1522952394785315,-0.2123301888335717,0.7160076621135704,-0.05681249499320984,0.9916811585426331,-0.115502193570137,0,0,0,-1,-1,3271.29105875,unknown,2,2022-06-02T10:55:33.149+02:00,2022-06-02T10:17:13.754+02:00,521,1.631355,0,0,405.4342,0,0,2022-06-02T10:55:33.149+02:00,675852933.1490878,0,4.210938,101.3309,1,0.78
2022-06-02T10:55:34.942+02:00,1654160134.000336,53.22909249881107,10.39848802925651,36.897,0,20,-1,-1,2.400000095367432,7.999579855010836,-9999,3273.08259425,-0.616180419921875,0.702850341796875,0.7666473388671875,3273.07260025,-1.179710524724363,-0.6180823992355243,-1.430709855153569,-0.2470060735940933,3.740191221237183,-2.902366876602173,-0.4966342449188232,-0.6279298663139343,0.9217485785484314,XArbitraryZVertical,-0.6469389699868731,0.1567548190994718,-0.2342164740743092,0.7085481370520414,-0.08091086149215698,0.9902039170265198,-0.1137957945466042,0,0,0,-1,-1,3271.29105875,unknown,2,2022-06-02T10:55:33.149+02:00,2022-06-02T10:17:13.754+02:00,521,1.631355,0,0,405.4342,0,0,2022-06-02T10:55:33.149+02:00,675852933.1490878,0,4.210938,101.3309,1,0.78
2022-06-02T10:55:34.952+02:00,1654160134.000336,53.22909249881107,10.39848802925651,36.897,0,20,-1,-1,2.400000095367432,7.999579855010836,-9999,3273.09258925,-0.6566619873046875,0.796905517578125,0.4163055419921875,3273.08259425,-1.33375329305801,-0.7327552300422007,-1.411540142786397,0.3415244221687317,3.790374517440796,-3.067047595977783,-0.4790492057800293,-0.4963025450706482,1.046804785728455,XArbitraryZVertical,-0.6444810269855812,0.1603248070518777,-0.2569517741372136,0.7020796490387751,-0.1060795187950134,0.9873455166816711,-0.1178803220391273,0,0,0,-1,-1,3271.29105875,unknown,2,2022-06-02T10:55:33.149+02:00,2022-06-02T10:17:13.754+02:00,521,1.631355,0,0,405.4342,0,0,2022-06-02T10:55:33.149+02:00,675852933.1490878,0,4.210938,101.3309,1,0.78
2022-06-02T10:55:34.962+02:00,1654160134.000336,53.22909249881107,10.39848802925651,36.897,0,20,-1,-1,2.400000095367432,7.999579855010836,-9999,3273.10258325,-0.699188232421875,0.708831787109375,0.24127197265625,3273.09258925,-1.44288701738383,-0.8023865561155605,-1.385317737598545,0.7974522709846497,3.779419422149658,-3.262383699417114,-0.483582079410553,-0.2799979448318481,0.8948150873184204,XArbitraryZVertical,-0.6398970451994662,0.1626279312619067,-0.2806593011715764,0.6966448953397898,-0.1325982809066772,0.9828481078147888,-0.1281678527593613,0,0,0,-1,-1,3271.29105875,unknown,2,2022-06-02T10:55:33.149+02:00,2022-06-02T10:17:13.754+02:00,521,1.631355,0,0,405.4342,0,0,2022-06-02T10:55:33.149+02:00,675852933.1490878,0,4.210938,101.3309,1,0.78
2022-06-02T10:55:34.972+02:00,1654160134.000336,53.22909249881107,10.39848802925651,36.897,0,20,-1,-1,2.400000095367432,7.999579855010836,-9999,3273.11257725,-0.75311279296875,0.7101593017578125,0.3272705078125,3273.10258325,-1.524985630612987,-0.8454261337697235,-1.355064025919456,0.8062261939048767,3.70535135269165,-3.365829706192017,-0.4964885711669922,-0.1799143552780151,0.5583174228668213,XArbitraryZVertical,-0.6341743250744289,0.1637587678777344,-0.3048302074801335,0.6914365851004444,-0.1601733714342117,0.9768198728561401,-0.1420119851827621,0,0,0,-1,-1,3271.29105875,unknown,2,2022-06-02T10:55:33.149+02:00,2022-06-02T10:17:13.754+02:00,521,1.631355,0,0,405.4342,0,0,2022-06-02T10:55:33.149+02:00,675852933.1490878,0,4.210938,101.3309,1,0.78
2022-06-02T10:55:34.982+02:00,1654160134.000336,53.22909249881107,10.39848802925651,36.897,0,20,-1,-1,2.400000095367432,7.999579855010836,-9999,3273.12257125,-0.8551177978515625,0.7730255126953125,0.4174957275390625,3273.11257725,-1.603510216718311,-0.8850734668306501,-1.326566166820729,0.08712664246559143,3.674636602401733,-3.282132387161255,-0.5120372772216797,-0.2614920735359192,0.3943933248519897,XArbitraryZVertical,-0.6294178598351676,0.1651437673449338,-0.3283103845737761,0.6846699104912454,-0.1871508955955505,0.9703237414360046,-0.1531213819980621,0,0,0,-1,-1,3271.29105875,unknown,2,2022-06-02T10:55:33.149+02:00,2022-06-02T10:17:13.754+02:00,521,1.631355,0,0,405.4342,0,0,2022-06-02T10:55:33.149+02:00,675852933.1490878,0,4.210938,101.3309,1,0.78
2022-06-02T10:55:34.992+02:00,1654160134.000336,53.22909249881107,10.39848802925651,36.897,0,20,-1,-1,2.400000095367432,7.999579855010836,-9999,3273.13256525,-0.8938140869140625,0.7956695556640625,0.493804931640625,3273.12257125,-1.695195016897895,-0.9369889277660772,-1.303454788117046,-0.9447016716003418,3.684589385986328,-3.228924751281738,-0.5402517914772034,-0.2543174028396606,0.4837151765823364,XArbitraryZVertical,-0.6272959071514889,0.1681590095078049,-0.3505546641880271,0.6747842008750979,-0.2128609269857407,0.9644765853881836,-0.156444787979126,0,0,0,-1,-1,3271.29105875,unknown,2,2022-06-02T10:55:33.149+02:00,2022-06-02T10:17:13.754+02:00,521,1.631355,0,0,405.4342,0,0,2022-06-02T10:55:33.149+02:00,675852933.1490878,0,4.210938,101.3309,1,0.78
2022-06-02T10:55:35.002+02:00,1654160134.000336,53.22909249881107,10.39848802925651,36.897,0,20,-1,-1,2.400000095367432,7.999579855010836,-9999,3273.14255925,-0.8694610595703125,0.75567626953125,0.5964813232421875,3273.13256525,-1.803804055006979,-1.004579037505446,-1.28477358973266,-1.829493761062622,3.685966730117798,-3.188398361206055,-0.617010772228241,-0.1863481998443604,0.5688470602035522,XArbitraryZVertical,-0.628032389927428,0.1729150492618695,-0.3716838908439952,0.661458021431648,-0.2381069511175156,0.9593735933303833,-0.1513514071702957,0,0,0,-1,-1,3271.29105875,unknown,2,2022-06-02T10:55:33.149+02:00,2022-06-02T10:17:13.754+02:00,521,1.631355,0,0,405.4342,0,0,2022-06-02T10:55:33.149+02:00,675852933.1490878,0,4.210938,101.3309,1,0.78
2022-06-02T10:55:35.012+02:00,1654160134.000336,53.22909249881107,10.39848802925651,36.897,0,20,-1,-1,2.400000095367432,7.999579855010836,-9999,3273.15255325,-0.8580169677734375,0.722412109375,0.6559600830078125,3273.14255925,-1.922385796245543,-1.08136074015863,-1.268949202630388,-2.469444513320923,3.65995717048645,-2.979046583175659,-0.6314315795898438,-0.1591195464134216,0.6335663199424744,XArbitraryZVertical,-0.6308441557405223,0.1793178709734396,-0.3914416148899024,0.6454875073225343,-0.2623824179172516,0.9547889828681946,-0.1397615075111389,0,0,0,-1,-1,3271.29105875,unknown,2,2022-06-02T10:55:33.149+02:00,2022-06-02T10:17:13.754+02:00,521,1.631355,0,0,405.4342,0,0,2022-06-02T10:55:33.149+02:00,675852933.1490878,0,4.210938,101.3309,1,0.78
2022-06-02T10:55:35.023+02:00,1654160134.000336,53.22909249881107,10.39848802925651,36.897,0,20,-1,-1,2.400000095367432,7.999579855010836,-9999,3273.16254825,-0.87591552734375,0.9024505615234375,0.6982574462890625,3273.15255325,-2.040075758732295,-1.157054521139696,-1.254603972147727,-2.672934293746948,3.636290311813354,-2.718281030654907,-0.5847482681274414,-0.1947500705718994,0.7214949131011963,XArbitraryZVertical,-0.6344184915005296,0.1870998120089077,-0.4096653478691649,0.62823647446271,-0.2847127020359039,0.9504262804985046,-0.125013679265976,0,0,0,-1,-1,3271.29105875,unknown,2,2022-06-02T10:55:33.149+02:00,2022-06-02T10:17:13.754+02:00,521,1.631355,0,0,405.4342,0,0,2022-06-02T10:55:33.149+02:00,675852933.1490878,0,4.210938,101.3309,1,0.78
2022-06-02T10:55:35.032+02:00,1654160134.000336,53.22909249881107,10.39848802925651,36.897,0,20,-1,-1,2.400000095367432,7.999579855010836,-9999,3273.17254225,-0.9141845703125,1.051406860351562,0.7079010009765625,3273.16254825,-2.146059261945672,-1.221058171761919,-1.240160040603386,-2.485870599746704,3.683938503265381,-2.481956243515015,-0.5530253052711487,-0.2234238982200623,0.7672001123428345,XArbitraryZVertical,-0.6372839460787346,0.1955737930262063,-0.4268272923532495,0.6110961272896919,-0.3049915730953217,0.9458359479904175,-0.1112401261925697,0,0,0,-1,-1,3271.29105875,unknown,2,2022-06-02T10:55:33.149+02:00,2022-06-02T10:17:13.754+02:00,521,1.631355,0,0,405.4342,0,0,2022-06-02T10:55:33.149+02:00,675852933.1490878,0,4.210938,101.3309,1,0.78
2022-06-02T10:55:35.042+02:00,1654160134.000336,53.22909249881107,10.39848802925651,36.897,0,20,-1,-1,2.400000095367432,7.999579855010836,-9999,3273.18253625,-0.8793792724609375,1.0618896484375,0.5518798828125,3273.17254225,-2.233465985630397,-1.266159074945213,-1.223789380537552,-1.916808366775513,3.80177903175354,-2.510439157485962,-0.5514895915985107,-0.03794419765472412,0.800264835357666,XArbitraryZVertical,-0.6383403046870317,0.2037594439475512,-0.4439997851382353,0.5948680594176032,-0.3244259357452393,0.9403948187828064,-0.1020074859261513,0,0,0,-1,-1,3271.29105875,unknown,2,2022-06-02T10:55:33.149+02:00,2022-06-02T10:17:13.754+02:00,521,1.631355,0,0,405.4342,0,0,2022-06-02T10:55:33.149+02:00,675852933.1490878,0,4.210938,101.3309,1,0.78
2022-06-02T10:55:35.056+02:00,1654160134.000336,53.22909249881107,10.39848802925651,36.897,0,20,-1,-1,2.400000095367432,7.999579855010836,-9999,3273.19253025,-0.8351593017578125,1.005340576171875,0.3114013671875,3273.18253625,-2.296363452956611,-1.286721593018369,-1.203458612777132,-1.112138271331787,3.868185997009277,-2.640475988388062,-0.5694461464881897,0.118120014667511,0.8085545897483826,XArbitraryZVertical,-0.6367704544925102,0.2102297597037107,-0.4622511380143661,0.5802160476813625,-0.3447383642196655,0.9332867860794067,-0.1006536707282066,0,0,0,-1,-1,3271.29105875,unknown,2,2022-06-02T10:55:33.149+02:00,2022-06-02T10:17:13.754+02:00,521,1.631355,0,0,405.4342,0,0,2022-06-02T10:55:33.149+02:00,675852933.1490878,0,4.210938,101.3309,1,0.78
2022-06-02T10:55:35.069+02:00,1654160134.000336,53.22909249881107,10.39848802925651,36.897,0,20,-1,-1,2.400000095367432,7.999579855010836,-9999,3273.20252425,-0.874176025390625,0.925872802734375,0.0767059326171875,3273.19253025,-2.336571051838362,-1.285304432310045,-1.179643795856013,-0.4710616171360016,3.888906478881836,-2.758742094039917,-0.5135573148727417,0.1374192833900452,0.6592521071434021,XArbitraryZVertical,-0.6326736251340361,0.2145645232023203,-0.4815046210308427,0.5673088140332869,-0.3658218681812286,0.9244702458381653,-0.1073722988367081,0,0,0,-1,-1,3271.29105875,unknown,2,2022-06-02T10:55:33.149+02:00,2022-06-02T10:17:13.754+02:00,521,1.631355,0,0,405.4342,0,0,2022-06-02T10:55:33.149+02:00,675852933.1490878,0,4.210938,101.3309,1,0.78
2022-06-02T10:55:35.072+02:00,1654160135.000333,53.22908935913814,10.39848921687091,36.8946,0,20,-1,-1,2.400000095367432,7.999579855010837,-9999,3273.21251825,-1.03997802734375,0.9609222412109375,-0.0562591552734375,3273.20252425,-2.366122181015407,-1.273334194870978,-1.154007386050822,-0.3716189861297607,3.947452783584595,-2.807884693145752,-0.4481115937232971,0.09094691276550293,0.4300537109375,XArbitraryZVertical,-0.6271254449187169,0.217686604655594,-0.5012536155669776,0.5550414067955606,-0.3870476484298706,0.9143935441970825,-0.1186524406075478,0,0,0,-1,-1,3271.29105875,unknown,2,2022-06-02T10:55:33.149+02:00,2022-06-02T10:17:13.754+02:00,521,1.631355,0,0,405.4342,0,0,2022-06-02T10:55:33.149+02:00,675852933.1490878,0,4.210938,101.3309,1,0.78
2022-06-02T10:55:35.082+02:00,1654160135.000333,53.22908935913814,10.39848921687091,36.8946,0,20,-1,-1,2.400000095367432,7.999579855010837,-9999,3273.22251225,-1.262771606445312,1.048004150390625,-0.09002685546875,3273.21251825,-2.399773071821811,-1.263840263707706,-1.129123727787849,-0.8878344297409058,4.079453945159912,-2.760421514511108,-0.4667042195796967,0.0218346118927002,0.2058639824390411,XArbitraryZVertical,-0.6215824717934751,0.2214862604815141,-0.5207710773643716,0.541642280498668,-0.4074716866016388,0.9040379524230957,-0.1291581392288208,0,0,0,-1,-1,3271.29105875,unknown,2,2022-06-02T10:55:33.149+02:00,2022-06-02T10:17:13.754+02:00,521,1.631355,0,0,405.4342,0,0,2022-06-02T10:55:33.149+02:00,675852933.1490878,0,4.210938,101.3309,1,0.78
2022-06-02T10:55:35.092+02:00,1654160135.000333,53.22908935913814,10.39848921687091,36.8946,0,20,-1,-1,2.400000095367432,7.999579855010837,-9999,3273.23250725,-1.40240478515625,1.0386962890625,-0.0687103271484375,3273.22251225,-2.445962243361541,-1.263610108486978,-1.106933783038319,-1.639580488204956,4.279170513153076,-2.69207763671875,-0.6135163307189941,0.06659102439880371,0.0790262371301651,XArbitraryZVertical,-0.6169206894975158,0.2275217276808676,-0.5395684591259335,0.5258406498567968,-0.4264615476131439,0.8943310379981995,-0.1352854520082474,0,0,0,-1,-1,3271.29105875,unknown,2,2022-06-02T10:55:33.149+02:00,2022-06-02T10:17:13.754+02:00,521,1.631355,0,0,405.4342,0,0,2022-06-02T10:55:33.149+02:00,675852933.1490878,0,4.210938,101.3309,1,0.78
2022-06-02T10:55:35.102+02:00,1654160135.000333,53.22908935913814,10.39848921687091,36.8946,0,20,-1,-1,2.400000095367432,7.999579855010837,-9999,3273.24250125,-1.410934448242188,0.9188079833984375,0.019256591796875,3273.23250725,-2.504827683564976,-1.27212927051697,-1.087622900188111,-2.332932710647583,4.493027687072754,-2.579744338989258,-0.8187475800514221,0.162479043006897,0.04667758941650391,XArbitraryZVertical,-0.6130820138740259,0.2361740908055728,-0.5575856452254215,0.5073957944654144,-0.4440239667892456,0.8855250477790833,-0.1367044895887375,0,0,0,-1,-1,3271.29105875,unknown,2,2022-06-02T10:55:33.149+02:00,2022-06-02T10:17:13.754+02:00,521,1.631355,0,0,405.4342,0,0,2022-06-02T10:55:33.149+02:00,675852933.1490878,0,4.210938,101.3309,1,0.78
2022-06-02T10:55:35.111+02:00,1654160135.000333,53.22908935913814,10.39848921687091,36.8946,0,20,-1,-1,2.400000095367432,7.999579855010837,-9999,3273.25249525,-1.355941772460938,0.726593017578125,0.16888427734375,3273.24250125,-2.573507149944243,-1.287257805151687,-1.071195664433765,-2.932369709014893,4.566650390625,-2.422451734542847,-0.9424583911895752,0.1609224081039429,0.06531308591365814,XArbitraryZVertical,-0.6097935904711413,0.2472651208271043,-0.5745135205992096,0.4867709694516341,-0.4599463641643524,0.8777739405632019,-0.1340234726667404,0,0,0,-1,-1,3271.29105875,unknown,2,2022-06-02T10:55:33.149+02:00,2022-06-02T10:17:13.754+02:00,521,1.631355,0,0,405.4342,0,0,2022-06-02T10:55:33.149+02:00,675852933.1490878,0,4.210938,101.3309,1,0.78
2022-06-02T10:55:35.122+02:00,1654160135.000333,53.22908935913814,10.39848921687091,36.8946,0,20,-1,-1,2.400000095367432,7.999579855010837,-9999,3273.26248925,-1.306198120117188,0.6732635498046875,0.28369140625,3273.25249525,-2.648754330682036,-1.307248455151885,-1.057123740277385,-3.339276313781738,4.588185787200928,-2.243835926055908,-0.9365217685699463,0.04786217212677002,0.1472644805908203,XArbitraryZVertical,-0.6068833367159769,0.2601703948334094,-0.5900368469452394,0.4646078412248882,-0.4744126498699188,0.8709457516670227,-0.1280079632997513,0,0,0,-1,-1,3271.29105875,unknown,2,2022-06-02T10:55:33.149+02:00,2022-06-02T10:17:13.754+02:00,521,1.631355,0,0,405.4342,0,0,2022-06-02T10:55:33.149+02:00,675852933.1490878,0,4.210938,101.3309,1,0.78
2022-06-02T10:55:35.132+02:00,1654160135.000333,53.22908935913814,10.39848921687091,36.8946,0,20,-1,-1,2.400000095367432,7.999579855010837,-9999,3273.27248325,-1.279159545898438,0.829681396484375,0.3970794677734375,3273.26248925,-2.726614568085916,-1.328866022759043,-1.045280183936642,-3.53225040435791,4.599246501922607,-1.955599308013916,-0.8688918352127075,-0.1384720802307129,0.2890703678131104,XArbitraryZVertical,-0.6037928377085275,0.2744833599236809,-0.6041315239271914,0.4417218907702271,-0.4870499670505524,0.8650651574134827,-0.1201861873269081,0,0,0,-1,-1,3271.29105875,unknown,2,2022-06-02T10:55:33.149+02:00,2022-06-02T10:17:13.754+02:00,521,1.631355,0,0,405.4342,0,0,2022-06-02T10:55:33.149+02:00,675852933.1490878,0,4.210938,101.3309,1,0.78
2022-06-02T10:55:35.142+02:00,1654160135.000333,53.22908935913814,10.39848921687091,36.8946,0,20,-1,-1,2.400000095367432,7.999579855010837,-9999,3273.28247725,-1.286727905273438,1.094589233398438,0.4106292724609375,3273.27248325,-2.801747593909871,-1.34726606971372,-1.035804630171257,-3.414819478988647,4.700443267822266,-1.635987520217896,-0.8090484142303467,-0.187009334564209,0.3967078924179077,XArbitraryZVertical,-0.5996442091479771,0.2896869315618751,-0.6170608321674597,0.4192185439815088,-0.497149646282196,0.8602728843688965,-0.1130166053771973,0,0,0,-1,-1,3271.29105875,unknown,2,2022-06-02T10:55:33.149+02:00,2022-06-02T10:17:13.754+02:00,521,1.631355,0,0,405.4342,0,0,2022-06-02T10:55:33.149+02:00,675852933.1490878,0,4.210938,101.3309,1,0.78
2022-06-02T10:55:35.152+02:00,1654160135.000333,53.22908935913814,10.39848921687091,36.8946,0,20,-1,-1,2.400000095367432,7.999579855010837,-9999,3273.29247125,-1.321365356445312,1.31536865234375,0.3269805908203125,3273.28247725,-2.870315153462629,-1.358257698693506,-1.027912360580999,-3.14983868598938,4.857287406921387,-1.419302821159363,-0.7741764187812805,-0.02654099464416504,0.506053626537323,XArbitraryZVertical,-0.5936719520593866,0.3050680075613691,-0.6296117799758627,0.3975878779117884,-0.5049830079078674,0.85622239112854,-0.1089742481708527,0,0,0,-1,-1,3271.29105875,unknown,2,2022-06-02T10:55:33.149+02:00,2022-06-02T10:17:13.754+02:00,521,1.631355,0,0,405.4342,0,0,2022-06-02T10:55:33.149+02:00,675852933.1490878,0,4.210938,101.3309,1,0.78
2022-06-02T10:55:35.162+02:00,1654160135.000333,53.22908935913814,10.39848921687091,36.8946,0,20,-1,-1,2.400000095367432,7.999579855010837,-9999,3273.30246625,-1.446075439453125,1.430496215820312,0.2408294677734375,3273.29247125,-2.933559286813417,-1.363404749825705,-1.021571736199508,-3.058319091796875,4.903083324432373,-1.178646802902222,-0.7758882641792297,0.2416595816612244,0.5181185603141785,XArbitraryZVertical,-0.5861310875545457,0.3204772747977004,-0.6417440907690086,0.376708194668222,-0.5108395218849182,0.8529295325279236,-0.1074893325567245,0,0,0,-1,-1,3271.29105875,unknown,2,2022-06-02T10:55:33.149+02:00,2022-06-02T10:17:13.754+02:00,521,1.631355,0,0,405.4342,0,0,2022-06-02T10:55:33.149+02:00,675852933.1490878,0,4.210938,101.3309,1,0.78
2022-06-02T10:55:35.172+02:00,1654160135.000333,53.22908935913814,10.39848921687091,36.8946,0,20,-1,-1,2.400000095367432,7.999579855010837,-9999,3273.31246025,-1.589981079101562,1.483444213867188,0.1868896484375,3273.30246625,-2.99592332720109,-1.367166500261788,-1.017420998923494,-3.229173898696899,4.966614723205566,-0.9520851373672485,-0.8066622614860535,0.464613139629364,0.4332624673843384,XArbitraryZVertical,-0.5776178639791882,0.3364767868872913,-0.652958817714445,0.3560697167180251,-0.5147029757499695,0.8507554531097412,-0.1062819510698318,0,0,0,-1,-1,3271.29105875,unknown,2,2022-06-02T10:55:33.149+02:00,2022-06-02T10:17:13.754+02:00,521,1.631355,0,0,405.4342,0,0,2022-06-02T10:55:33.149+02:00,675852933.1490878,0,4.210938,101.3309,1,0.78
2022-06-02T10:55:35.182+02:00,1654160135.000333,53.22908935913814,10.39848921687091,36.8946,0,20,-1,-1,2.400000095367432,7.999579855010837,-9999,3273.32245425,-1.634628295898438,1.449188232421875,0.159423828125,3273.31246025,-3.060870530453636,-1.372117683486994,-1.015699079920335,-3.417515993118286,5.072104454040527,-0.7296339273452759,-0.9294169545173645,0.5806471109390259,0.3448507785797119,XArbitraryZVertical,-0.5682728584074572,0.3536315922742073,-0.6631145751027302,0.3350966537640447,-0.5166584849357605,0.8498491644859314,-0.1040213108062744,0,0,0,-1,-1,3271.29105875,unknown,2,2022-06-02T10:55:33.149+02:00,2022-06-02T10:17:13.754+02:00,521,1.631355,0,0,405.4342,0,0,2022-06-02T10:55:33.149+02:00,675852933.1490878,0,4.210938,101.3309,1,0.78
2022-06-02T10:55:35.192+02:00,1654160135.000333,53.22908935913814,10.39848921687091,36.8946,0,20,-1,-1,2.400000095367432,7.999579855010837,-9999,3273.33244825,-1.565567016601562,1.446624755859375,0.2000885009765625,3273.32245425,-3.126612349884837,-1.376672605824064,-1.016100387918373,-3.460978031158447,5.143713474273682,-0.4965459108352661,-1.073188900947571,0.6333836317062378,0.2884906530380249,XArbitraryZVertical,-0.5578158407425712,0.371538621725749,-0.6724242354190697,0.3140798907750637,-0.5167921781539917,0.8500606417655945,-0.1016010791063309,0,0,0,-1,-1,3271.29105875,unknown,2,2022-06-02T10:55:33.149+02:00,2022-06-02T10:17:13.754+02:00,521,1.631355,0,0,405.4342,0,0,2022-06-02T10:55:33.149+02:00,675852933.1490878,0,4.210938,101.3309,1,0.78
2022-06-02T10:55:35.202+02:00,1654160135.000333,53.22908935913814,10.39848921687091,36.8946,0,20,-1,-1,2.400000095367432,7.999579855010837,-9999,3273.34244225,-1.462203979492188,1.47821044921875,0.2884979248046875,3273.33244825,3.094057621171248,-1.377658612961329,-1.017764270093424,-3.366774082183838,5.133603096008301,-0.2656192183494568,-1.119124889373779,0.5982524156570435,0.2602436542510986,XArbitraryZVertical,-0.5459972327914587,0.3892005857944865,-0.6813407383962381,0.2935723297825841,-0.5155032873153687,0.8509358167648315,-0.1008198484778404,0,0,0,-1,-1,3271.29105875,unknown,2,2022-06-02T10:55:33.149+02:00,2022-06-02T10:17:13.754+02:00,521,1.631355,0,0,405.4342,0,0,2022-06-02T10:55:33.149+02:00,675852933.1490878,0,4.210938,101.3309,1,0.78
2022-06-02T10:55:35.212+02:00,1654160135.000333,53.22908935913814,10.39848921687091,36.8946,0,20,-1,-1,2.400000095367432,7.999579855010837,-9999,3273.35243625,-1.348907470703125,1.447738647460938,0.3978118896484375,3273.34244225,3.031563836961695,-1.379499626898603,-1.022732290012929,-3.288777351379395,5.121968269348145,0.02932526543736458,-1.054035663604736,0.5930898189544678,0.2991540431976318,XArbitraryZVertical,-0.5333438734783457,0.4074451079121362,-0.6888299347587654,0.2739452606429554,-0.5115311145782471,0.8535348176956177,-0.09906559437513351,0,0,0,-1,-1,3271.29105875,unknown,2,2022-06-02T10:55:33.149+02:00,2022-06-02T10:17:13.754+02:00,521,1.631355,0,0,405.4342,0,0,2022-06-02T10:55:33.149+02:00,675852933.1490878,0,4.210938,101.3309,1,0.78
2022-06-02T10:55:35.222+02:00,1654160135.000333,53.22908935913814,10.39848921687091,36.8946,0,20,-1,-1,2.400000095367432,7.999579855010837,-9999,3273.36243125,-1.242294311523438,1.425827026367188,0.4629364013671875,3273.35243625,2.97207089072122,-1.379187667920567,-1.030695585491163,-3.088314056396484,5.115684509277344,0.3734602630138397,-0.9573923349380493,0.6205534934997559,0.3864254951477051,XArbitraryZVertical,-0.5194148314495413,0.4257280916126562,-0.6954378483121638,0.2555972704381184,-0.5048115849494934,0.8576568961143494,-0.09792765229940414,0,0,0,-1,-1,3271.29105875,unknown,2,2022-06-02T10:55:33.149+02:00,2022-06-02T10:17:13.754+02:00,521,1.631355,0,0,405.4342,0,0,2022-06-02T10:55:33.149+02:00,675852933.1490878,0,4.210938,101.3309,1,0.78
2022-06-02T10:55:35.232+02:00,1654160135.000333,53.22908935913814,10.39848921687091,36.8946,0,20,-1,-1,2.400000095367432,7.999579855010837,-9999,3273.37242525,-1.155242919921875,1.442092895507812,0.4830474853515625,3273.36243125,2.917773317615347,-1.374609442488028,-1.041380598825938,-2.755171298980713,5.134310722351074,0.6640015840530396,-0.8535664677619934,0.5846362113952637,0.4962575435638428,XArbitraryZVertical,-0.5039897511168293,0.4435893307997478,-0.7015769089316889,0.2387729399374234,-0.495340883731842,0.8631023168563843,-0.09844567626714706,0,0,0,-1,-1,3271.29105875,unknown,2,2022-06-02T10:55:33.149+02:00,2022-06-02T10:17:13.754+02:00,521,1.631355,0,0,405.4342,0,0,2022-06-02T10:55:33.149+02:00,675852933.1490878,0,4.210938,101.3309,1,0.78
2022-06-02T10:55:35.242+02:00,1654160135.000333,53.22908935913814,10.39848921687091,36.8946,0,20,-1,-1,2.400000095367432,7.999579855010837,-9999,3273.38241925,-1.126495361328125,1.491180419921875,0.4883880615234375,3273.37242525,2.870891258277999,-1.364097714142465,-1.054391633149808,-2.385554552078247,5.073158264160156,0.9614441394805908,-0.75904780626297,0.556226909160614,0.5642699599266052,XArbitraryZVertical,-0.4871084785596114,0.4604981202743184,-0.7075401926880769,0.2237264956666313,-0.483246386051178,0.8695999979972839,-0.1013336256146431,0,0,0,-1,-1,3271.29105875,unknown,2,2022-06-02T10:55:33.149+02:00,2022-06-02T10:17:13.754+02:00,521,1.631355,0,0,405.4342,0,0,2022-06-02T10:55:33.149+02:00,675852933.1490878,0,4.210938,101.3309,1,0.78
2022-06-02T10:55:35.252+02:00,1654160135.000333,53.22908935913814,10.39848921687091,36.8946,0,20,-1,-1,2.400000095367432,7.999579855010837,-9999,3273.39241325,-1.164047241210938,1.531448364257812,0.3757171630859375,3273.38241925,2.830023142564473,-1.349289304823407,-1.070081677457971,-2.20122218132019,5.034749984741211,1.260518074035645,-0.6869193315505981,0.5648530721664429,0.5885149836540222,XArbitraryZVertical,-0.4690415720992474,0.4767244864414415,-0.713070620672984,0.2103899499976565,-0.4683234393596649,0.8772397041320801,-0.1054675355553627,0,0,0,-1,-1,3271.29105875,unknown,2,2022-06-02T10:55:33.149+02:00,2022-06-02T10:17:13.754+02:00,521,1.631355,0,0,405.4342,0,0,2022-06-02T10:55:33.149+02:00,675852933.1490878,0,4.210938,101.3309,1,0.78
