,loggingTime(txt),accelerometerTimestamp_sinceReboot(s),accelerometerAccelerationX(G),accelerometerAccelerationY(G),accelerometerAccelerationZ(G),motionTimestamp_sinceReboot(s),motionYaw(rad),motionRoll(rad),motionPitch(rad),motionRotationRateX(rad/s),motionRotationRateY(rad/s),motionRotationRateZ(rad/s),motionUserAccelerationX(G),motionUserAccelerationY(G),motionUserAccelerationZ(G),motionAttitudeReferenceFrame(txt),motionQuaternionX(R),motionQuaternionY(R),motionQuaternionZ(R),motionQuaternionW(R),motionGravityX(G),motionGravityY(G),motionGravityZ(G),motionMagneticFieldX(µT),motionMagneticFieldY(µT),motionMagneticFieldZ(µT),motionHeading(°),motionMagneticFieldCalibrationAccuracy(Z),activityTimestamp_sinceReboot(s),activity(txt),activityActivityConfidence(Z),activityActivityStartDate(txt),pedometerStartDate(txt),pedometerNumberofSteps(N),pedometerAverageActivePace(s/m),pedometerCurrentPace(s/m),pedometerCurrentCadence(steps/s),pedometerDistance(m),pedometerFloorAscended(N),pedometerFloorDescended(N),pedometerEndDate(txt)
151,2022-06-30T09:48:06.466+02:00,4786.18335975,-13.979429626464844,1.887125701904297,15.1413134765625,4786.17340775,-1.166195134890963,2.296734342457653,0.274985905296225,2.124123096466064,5.996769905090332,5.020082473754883,-2.052252531051636,0.2645444273948669,0.9035689830780028,XArbitraryZVertical,0.5443781410131288,0.7232569336757866,-0.1192530457195275,0.407836504384526,0.7197786569595337,-0.2715333700180054,0.6388962864875793,0,0,0,-1,-1,4785.100701750001,unknown,2,2022-06-30T09:48:05.385+02:00,2022-06-30T08:20:05.567+02:00,1379,1.392158,0,0,1089.191,0,0,2022-06-30T09:48:05.385+02:00
152,2022-06-30T09:48:06.476+02:00,4786.19331175,-14.046490173339844,1.6374449157714845,15.468982086181637,4786.18335975,-1.218118835809039,2.370090221039982,0.2953205013814258,2.411731481552124,5.928048133850098,4.835901737213135,-2.04351019859314,0.4260711371898651,0.8473271727561951,XArbitraryZVertical,0.5696907650904136,0.7199774401050731,-0.1011097747225033,0.3832254548426055,0.6670299768447876,-0.2910465002059937,0.6858301758766174,0,0,0,-1,-1,4785.100701750001,unknown,2,2022-06-30T09:48:05.385+02:00,2022-06-30T08:20:05.567+02:00,1379,1.392158,0,0,1089.191,0,0,2022-06-30T09:48:05.385+02:00
153,2022-06-30T09:48:06.486+02:00,4786.20326275,-14.291530609130865,0.2977308654785156,16.793278198242188,4786.19331175,-1.273081514862113,2.445191950463216,0.3081968416520998,2.769897222518921,5.946648597717285,4.716340065002441,-2.0362548828125,0.4957081079483032,0.8124479651451111,XArbitraryZVertical,0.5942392277677316,0.7158102724425447,-0.0843935861519647,0.3568937434523389,0.6112363934516907,-0.3033409416675568,0.7310091853141785,0,0,0,-1,-1,4785.100701750001,unknown,2,2022-06-30T09:48:05.385+02:00,2022-06-30T08:20:05.567+02:00,1379,1.392158,0,0,1089.191,0,0,2022-06-30T09:48:05.385+02:00
154,2022-06-30T09:48:06.496+02:00,4786.213214750001,-14.504687347412114,-1.5322137451171876,18.209632873535156,4786.20326275,-1.329589139650849,2.521512122476633,0.3141228069331604,2.933885335922241,5.963299751281738,4.542330265045166,-1.984520673751831,0.4758977591991425,0.8028494119644165,XArbitraryZVertical,0.6178127767980395,0.710853024643502,-0.0686598962378818,0.3290612668114666,0.5526663064956665,-0.3089823126792908,0.7740092873573303,0,0,0,-1,-1,4785.100701750001,unknown,2,2022-06-30T09:48:05.385+02:00,2022-06-30T08:20:05.567+02:00,1379,1.392158,0,0,1089.191,0,0,2022-06-30T09:48:05.385+02:00
155,2022-06-30T09:48:06.506+02:00,4786.22316675,-14.0637043762207,-1.9357745361328127,20.197948150634762,4786.213214750001,-1.385406193627499,2.597927130022487,0.3139260711242743,2.97442102432251,5.965387344360352,4.342702388763428,-1.948829531669617,0.3391445577144623,0.8978597521781921,XArbitraryZVertical,0.6399050952837404,0.7053496498140749,-0.0534855634234318,0.3002376874102317,0.4919964671134949,-0.3087952136993408,0.8139933347702026,0,0,0,-1,-1,4785.100701750001,unknown,2,2022-06-30T09:48:05.385+02:00,2022-06-30T08:20:05.567+02:00,1379,1.392158,0,0,1089.191,0,0,2022-06-30T09:48:05.385+02:00
156,2022-06-30T09:48:06.516+02:00,4786.23311775,-13.814023590087887,-2.0603155517578124,21.78913925170899,4786.22316675,-1.439014683371135,2.67337360233466,0.3095598792507316,2.800378561019897,5.909324169158936,4.197474479675293,-1.908408164978027,0.14845010638237,1.006274700164795,XArbitraryZVertical,0.6602716848879174,0.6992995167287117,-0.0382610498973874,0.2712151230694586,0.4298465847969055,-0.304639458656311,0.8499570488929749,0,0,0,-1,-1,4785.100701750001,unknown,2,2022-06-30T09:48:05.385+02:00,2022-06-30T08:20:05.567+02:00,1379,1.392158,0,0,1089.191,0,0,2022-06-30T09:48:05.385+02:00
157,2022-06-30T09:48:06.526+02:00,4786.24306975,-13.205988006591802,-2.3875350952148438,23.940914611816407,4786.23311775,-1.489798136537146,2.746635213056733,0.3020625089259624,2.699815511703491,5.746747016906738,4.000279426574707,-1.800957798957825,0.1001629233360291,1.177690625190735,XArbitraryZVertical,0.6788567505365419,0.6926509536765313,-0.0230277421223436,0.2426066630120466,0.3673485517501831,-0.2974899709224701,0.8812236785888672,0,0,0,-1,-1,4785.100701750001,unknown,2,2022-06-30T09:48:05.385+02:00,2022-06-30T08:20:05.567+02:00,1379,1.392158,0,0,1089.191,0,0,2022-06-30T09:48:05.385+02:00
158,2022-06-30T09:48:06.536+02:00,4786.25302075,-12.63537460327149,-2.868934020996094,25.72655136108399,4786.24306975,-1.537654577867134,2.816504251967841,0.2910943416971683,2.653039693832397,5.510553359985352,3.827731609344482,-1.714113473892212,0.0769783556461334,1.313358664512634,XArbitraryZVertical,0.6957424306779617,0.6854347084273311,-0.0084634767569508,0.214593079405908,0.3059558868408203,-0.2870006859302521,0.9077565670013428,0,0,0,-1,-1,4785.100701750001,unknown,2,2022-06-30T09:48:05.385+02:00,2022-06-30T08:20:05.567+02:00,1379,1.392158,0,0,1089.191,0,0,2022-06-30T09:48:05.385+02:00
159,2022-06-30T09:48:06.546+02:00,4786.262972750001,-12.2339094543457,-2.5406666564941407,27.807673645019534,4786.25302075,-1.582515103095804,2.882712744182339,0.2768190030425154,2.613369226455688,5.272523880004883,3.629090547561646,-1.59242844581604,0.0299190878868103,1.510584592819214,XArbitraryZVertical,0.7110616525331269,0.6777383268311852,0.0052456930030226,0.1871755604903459,0.2462520748376846,-0.273297131061554,0.9298758506774902,0,0,0,-1,-1,4785.100701750001,unknown,2,2022-06-30T09:48:05.385+02:00,2022-06-30T08:20:05.567+02:00,1379,1.392158,0,0,1089.191,0,0,2022-06-30T09:48:05.385+02:00
160,2022-06-30T09:48:06.556+02:00,4786.27292475,-11.701466674804688,-2.208058319091797,29.487330780029303,4786.262972750001,-1.623839292360365,2.94408417804155,0.2607261869355004,2.372528553009033,4.864639759063721,3.437963247299194,-1.477604866027832,-0.0346680879592895,1.675063610076904,XArbitraryZVertical,0.724766323550286,0.6696441276139826,0.0180804801356546,0.1611328241515892,0.1895950585603714,-0.2577822506427765,0.9474189877510072,0,0,0,-1,-1,4785.100701750001,unknown,2,2022-06-30T09:48:05.385+02:00,2022-06-30T08:20:05.567+02:00,1379,1.392158,0,0,1089.191,0,0,2022-06-30T09:48:05.385+02:00
161,2022-06-30T09:48:06.566+02:00,4786.28287575,-11.491752777099615,-1.3892610168457031,30.943352966308595,4786.27292475,-1.6616099415378,2.999156989484141,0.2450915701867494,2.0171799659729,4.311305522918701,3.266655921936035,-1.384798049926758,-0.0163426399230957,1.874334216117859,XArbitraryZVertical,0.7369434619179934,0.6611050737179507,0.0300607324456381,0.1376622254171914,0.1377122700214386,-0.2426451593637466,0.9602911472320556,0,0,0,-1,-1,4785.100701750001,unknown,2,2022-06-30T09:48:05.385+02:00,2022-06-30T08:20:05.567+02:00,1379,1.392158,0,0,1089.191,0,0,2022-06-30T09:48:05.385+02:00
162,2022-06-30T09:48:06.576+02:00,4786.29282775,-10.757379913330075,-0.8180488586425781,32.39069320678711,4786.28287575,-1.695396226823759,3.046346457927675,0.2307769023394153,1.706695318222046,3.572842121124268,2.924853801727295,-1.285391330718994,0.0036511421203613,2.036767482757568,XArbitraryZVertical,0.7475557890677752,0.6524559681330657,0.0406430657644012,0.117515160263054,0.0925810188055038,-0.2287338972091675,0.9690768718719482,0,0,0,-1,-1,4785.100701750001,unknown,2,2022-06-30T09:48:05.385+02:00,2022-06-30T08:20:05.567+02:00,1379,1.392158,0,0,1089.191,0,0,2022-06-30T09:48:05.385+02:00
163,2022-06-30T09:48:06.586+02:00,4786.30277975,-9.624535675048827,-1.6018190002441408,33.901800842285155,4786.29282775,-1.724493538769614,3.083569817643385,0.2178488942831832,1.437045693397522,2.641817092895508,2.570699691772461,-1.228052496910095,0.074512705206871,2.179544687271118,XArbitraryZVertical,0.7565409509333787,0.6442101323833067,0.0488159604853459,0.101273029763416,0.0566196776926517,-0.2161298543214798,0.9747217893600464,0,0,0,-1,-1,4785.100701750001,unknown,2,2022-06-30T09:48:05.385+02:00,2022-06-30T08:20:05.567+02:00,1379,1.392158,0,0,1089.191,0,0,2022-06-30T09:48:05.385+02:00
164,2022-06-30T09:48:06.595+02:00,4786.31273075,-8.437953186035157,-2.6960435485839844,34.88330978393555,4786.30277975,-1.74926912884786,3.10940353297499,0.2076672815608162,1.151259183883667,1.604530692100525,2.205549478530884,-1.128065228462219,0.1227882504463196,2.323795795440674,XArbitraryZVertical,0.7641474488846439,0.6364610014021439,0.054175502221257,0.0897841610289801,0.0314920917153358,-0.2061778604984283,0.9780078530311584,0,0,0,-1,-1,4785.100701750001,unknown,2,2022-06-30T09:48:05.385+02:00,2022-06-30T08:20:05.567+02:00,1379,1.392158,0,0,1089.191,0,0,2022-06-30T09:48:05.385+02:00
165,2022-06-30T09:48:06.605+02:00,4786.32268275,-7.578590240478516,-2.724035339355469,35.406322174072265,4786.31273075,-1.769944475116049,3.123963590187189,0.1994819148820378,0.9004657864570618,0.5873606204986572,1.836649298667908,-0.99837327003479,0.0348769575357437,2.475823879241943,XArbitraryZVertical,0.7705770699886568,0.6294596693615996,0.0562723606224324,0.0826128807759864,0.0172785725444555,-0.1981615424156189,0.9800170063972472,0,0,0,-1,-1,4785.100701750001,unknown,2,2022-06-30T09:48:05.385+02:00,2022-06-30T08:20:05.567+02:00,1379,1.392158,0,0,1089.191,0,0,2022-06-30T09:48:05.385+02:00
166,2022-06-30T09:48:06.615+02:00,4786.33263375,-6.7879344177246095,-3.078348541259766,35.30049224853516,4786.32268275,-1.786967983224476,3.128263789265247,0.1929417060077467,0.5453894734382629,-0.3631178438663483,1.513315200805664,-0.8732194304466248,-0.0830794721841812,2.574535608291626,XArbitraryZVertical,0.7760216286362925,0.6232728146145756,0.0551941572824994,0.0792148062338448,0.01308115106076,-0.1917468458414078,0.9813571572303772,0,0,0,-1,-1,4785.100701750001,unknown,2,2022-06-30T09:48:05.385+02:00,2022-06-30T08:20:05.567+02:00,1379,1.392158,0,0,1089.191,0,0,2022-06-30T09:48:05.385+02:00
167,2022-06-30T09:48:06.625+02:00,4786.342585750001,-6.259982299804688,-2.9991632080078126,34.12753143310547,4786.33263375,-1.800965257842698,3.12305787663654,0.1899620960742486,0.154679536819458,-1.177681565284729,1.244358777999878,-0.7907378673553467,-0.0888581126928329,2.62736439704895,XArbitraryZVertical,0.7806072892560821,0.6177166035374717,0.0516847047920249,0.0800458016132467,0.0182003267109394,-0.1888216733932495,0.981843113899231,0,0,0,-1,-1,4785.100701750001,unknown,2,2022-06-30T09:48:05.385+02:00,2022-06-30T08:20:05.567+02:00,1379,1.392158,0,0,1089.191,0,0,2022-06-30T09:48:05.385+02:00
168,2022-06-30T09:48:06.636+02:00,4786.35253775,-5.907615051269532,-2.6553282165527343,31.753468322753907,4786.342585750001,-1.812271284769556,3.110317559912203,0.1905686243634918,-0.1630009412765503,-1.779402613639832,0.9858039021492004,-0.722644567489624,-0.1243800818920135,2.617002487182617,XArbitraryZVertical,0.7843774395213489,0.6127482952544456,0.0464221548666953,0.0844791402433704,0.030703917145729,-0.1894172579050064,0.981416881084442,0,0,0,-1,-1,4785.100701750001,unknown,2,2022-06-30T09:48:05.385+02:00,2022-06-30T08:20:05.567+02:00,1379,1.392158,0,0,1089.191,0,0,2022-06-30T09:48:05.385+02:00
169,2022-06-30T09:48:06.645+02:00,4786.36248875,-5.192102966308594,-2.821482696533203,28.965665588378908,4786.35253775,-1.821030705459522,3.092151083732439,0.1937123281220116,-0.3622221648693085,-2.172174215316772,0.7756510972976685,-0.6866199970245361,-0.1132223308086395,2.498754024505615,XArbitraryZVertical,0.7873440619548252,0.6083897636004053,0.0398632017795569,0.09144565020463,0.0484970845282077,-0.1925031095743179,0.9800975322723388,0,0,0,-1,-1,4785.100701750001,unknown,2,2022-06-30T09:48:05.385+02:00,2022-06-30T08:20:05.567+02:00,1379,1.392158,0,0,1089.191,0,0,2022-06-30T09:48:05.385+02:00
170,2022-06-30T09:48:06.655+02:00,4786.37244075,-4.8614405822753906,-2.6671536254882815,26.036556701660157,4786.36248875,-1.827872706191533,3.070962264205335,0.1988285495197787,-0.5606785416603088,-2.319230079650879,0.6297061443328857,-0.6713850498199463,-0.0731549113988876,2.258992433547974,XArbitraryZVertical,0.7896519777872598,0.6044643258836758,0.0327452127923554,0.1000025794701864,0.0691813379526138,-0.1975210905075073,0.9778547286987304,0,0,0,-1,-1,4785.100701750001,unknown,2,2022-06-30T09:48:05.385+02:00,2022-06-30T08:20:05.567+02:00,1379,1.392158,0,0,1089.191,0,0,2022-06-30T09:48:05.385+02:00
171,2022-06-30T09:48:06.665+02:00,4786.382392750001,-3.995790710449219,-1.7152830505371095,23.092478942871097,4786.37244075,-1.832837323163416,3.04898692791527,0.2058569723627476,-0.7391586303710938,-2.26445460319519,0.4528540670871735,-0.6197876930236816,-0.0832071751356124,1.977975368499756,XArbitraryZVertical,0.7912765155092805,0.6010221717206575,0.0259409832521097,0.1094585127199443,0.0905210077762603,-0.2044061124324799,0.9746923446655272,0,0,0,-1,-1,4785.100701750001,unknown,2,2022-06-30T09:48:05.385+02:00,2022-06-30T08:20:05.567+02:00,1379,1.392158,0,0,1089.191,0,0,2022-06-30T09:48:05.385+02:00
172,2022-06-30T09:48:06.675+02:00,4786.392343750001,-3.001707916259766,-1.6542100524902346,20.451670532226565,4786.382392750001,-1.835897377891308,3.028371223631513,0.2142870043662111,-0.8600219488143921,-1.974030375480652,0.3241288363933563,-0.6059557199478149,-0.0592306107282638,1.683211207389832,XArbitraryZVertical,0.7922123236147987,0.5981937166792352,0.020168514248068,0.1189841609452418,0.1103956624865532,-0.212650790810585,0.970872163772583,0,0,0,-1,-1,4785.100701750001,unknown,2,2022-06-30T09:48:05.385+02:00,2022-06-30T08:20:05.567+02:00,1379,1.392158,0,0,1089.191,0,0,2022-06-30T09:48:05.385+02:00
173,2022-06-30T09:48:06.685+02:00,4786.40229575,-1.7500108337402345,-1.9604731750488282,18.60540985107422,4786.392343750001,-1.837294928599872,3.011340216330697,0.2235386622038413,-0.909191370010376,-1.4859459400177,0.1733565181493759,-0.5339713096618652,0.0468308925628662,1.387114286422729,XArbitraryZVertical,0.7925532874740361,0.5960612057769281,0.0161458835936872,0.1277098678769856,0.1266528517007828,-0.2216816246509552,0.9668593406677246,0,0,0,-1,-1,4785.100701750001,unknown,2,2022-06-30T09:48:05.385+02:00,2022-06-30T08:20:05.567+02:00,1379,1.392158,0,0,1089.191,0,0,2022-06-30T09:48:05.385+02:00
174,2022-06-30T09:48:06.695+02:00,4786.41224775,-1.4450949096679688,-1.1234138488769532,18.459463348388677,4786.40229575,-1.837273569275659,2.999756064380745,0.2329070438101369,-0.9701133370399476,-0.8243592381477356,0.0835422128438949,-0.4435295462608337,0.0621819049119949,1.121549129486084,XArbitraryZVertical,0.7924044413974624,0.5947349567084437,0.0144038144322922,0.1348264421798133,0.1375447064638138,-0.2308070510625839,0.9632289409637452,0,0,0,-1,-1,4785.100701750001,unknown,2,2022-06-30T09:48:05.385+02:00,2022-06-30T08:20:05.567+02:00,1379,1.392158,0,0,1089.191,0,0,2022-06-30T09:48:05.385+02:00
175,2022-06-30T09:48:06.705+02:00,4786.42219875,-1.8269508361816407,-0.1580712890625,19.023340759277346,4786.41224775,-1.83574083617205,2.994926170338986,0.2436949039225607,-1.216681718826294,-0.064347356557846,-0.0840651243925094,-0.3202140331268311,0.0414453148841857,0.9365419149398804,XArbitraryZVertical,0.7917116146480393,0.5943145741584551,0.015876799237135,0.1404667846789867,0.1418232172727585,-0.2412900030612946,0.960034191608429,0,0,0,-1,-1,4785.100701750001,unknown,2,2022-06-30T09:48:05.385+02:00,2022-06-30T08:20:05.567+02:00,1379,1.392158,0,0,1089.191,0,0,2022-06-30T09:48:05.385+02:00
176,2022-06-30T09:48:06.715+02:00,4786.43215075,-2.3604414367675783,0.9181906127929688,20.702997894287115,4786.42219875,-1.831721815140676,2.997233899269263,0.2570502331004836,-1.541668057441711,0.7309215664863586,-0.297431468963623,-0.2864400148391724,0.139711320400238,0.9246143102645874,XArbitraryZVertical,0.7901280656727739,0.5951804898041008,0.0211439356382528,0.1449511202201378,0.1391313225030899,-0.254228800535202,0.9570843577384948,0,0,0,-1,-1,4785.100701750001,unknown,2,2022-06-30T09:48:05.385+02:00,2022-06-30T08:20:05.567+02:00,1379,1.392158,0,0,1089.191,0,0,2022-06-30T09:48:05.385+02:00
177,2022-06-30T09:48:06.725+02:00,4786.44210175,-3.8464013671875,1.2283456420898438,23.159389801025387,4786.43215075,-1.825126191009026,3.006852858282271,0.2739108018621044,-2.01664924621582,1.552336096763611,-0.5005775094032288,-0.3155584931373596,0.2543849349021912,0.985183835029602,XArbitraryZVertical,0.7875113407586932,0.5973468442106032,0.0305716379289085,0.1485532648020631,0.1293246299028397,-0.270498514175415,0.9539947509765624,0,0,0,-1,-1,4785.100701750001,unknown,2,2022-06-30T09:48:05.385+02:00,2022-06-30T08:20:05.567+02:00,1379,1.392158,0,0,1089.191,0,0,2022-06-30T09:48:05.385+02:00
178,2022-06-30T09:48:06.735+02:00,4786.45205375,-5.930218048095703,1.7991087341308594,25.965604248046876,4786.44210175,-1.815685330464212,3.02367462067717,0.2964532988601798,-2.715546369552612,2.362558603286743,-0.7427315711975098,-0.3531293272972107,0.3857271671295166,1.160660028457642,XArbitraryZVertical,0.7835364125922837,0.6007823178725202,0.0448001028885588,0.1520668592589573,0.1125131398439407,-0.2921300530433655,0.9497374296188354,0,0,0,-1,-1,4785.100701750001,unknown,2,2022-06-30T09:48:05.385+02:00,2022-06-30T08:20:05.567+02:00,1379,1.392158,0,0,1089.191,0,0,2022-06-30T09:48:05.385+02:00
179,2022-06-30T09:48:06.745+02:00,4786.462005750001,-8.451275482177735,2.1480331420898438,29.03811492919922,4786.45205375,-1.803127829289031,3.047002819932549,0.3266853228120754,-3.571704387664795,3.079404354095459,-1.005856990814209,-0.4815437495708466,0.4461188018321991,1.417916536331177,XArbitraryZVertical,0.7777627357336568,0.6054121511669269,0.0641864409413859,0.1563374762472933,0.0894535705447197,-0.3209054172039032,0.942877471446991,0,0,0,-1,-1,4785.100701750001,unknown,2,2022-06-30T09:48:05.385+02:00,2022-06-30T08:20:05.567+02:00,1379,1.392158,0,0,1089.191,0,0,2022-06-30T09:48:05.385+02:00
180,2022-06-30T09:48:06.755+02:00,4786.471956750001,-11.029663696289063,1.7976118469238282,32.0359309387207,4786.462005750001,-1.787674505201485,3.07525151908105,0.3652085115882892,-4.350028991699219,3.633642911911011,-1.288368344306946,-0.6664282083511353,0.5405391454696655,1.714855909347534,XArbitraryZVertical,0.7698725914814422,0.6109775727038897,0.0882694650000315,0.1618986947737512,0.0619204603135585,-0.3571440577507019,0.9319947957992554,0,0,0,-1,-1,4785.100701750001,unknown,2,2022-06-30T09:48:05.385+02:00,2022-06-30T08:20:05.567+02:00,1379,1.392158,0,0,1089.191,0,0,2022-06-30T09:48:05.385+02:00
181,2022-06-30T09:48:06.765+02:00,4786.48190875,-13.53275848388672,0.15881973266601562,34.242791748046876,4786.471956750001,-1.769633476423474,3.106726438094808,0.41078550337124,-4.899964809417725,4.045483112335205,-1.604129314422607,-0.893455445766449,0.618293046951294,2.043802261352539,XArbitraryZVertical,0.7596713500023752,0.6172718337441236,0.1159642362258953,0.1686036290205203,0.0319591276347637,-0.3993296027183533,0.9162501692771912,0,0,0,-1,-1,4785.100701750001,unknown,2,2022-06-30T09:48:05.385+02:00,2022-06-30T08:20:05.567+02:00,1379,1.392158,0,0,1089.191,0,0,2022-06-30T09:48:05.385+02:00
182,2022-06-30T09:48:06.775+02:00,4786.49186075,-15.985258483886719,-2.056124267578125,35.34420135498047,4786.48190875,-1.74919787995227,3.139908216105744,0.4591316190654326,-4.783265113830566,4.330592632293701,-1.946914076805115,-1.125838875770569,0.6264122724533081,2.369203567504883,XArbitraryZVertical,0.7472794763180066,0.6243330100002965,0.145302593933532,0.1751255195697162,0.0015099928714334,-0.4431698322296143,0.8964366316795349,0,0,0,-1,-1,4785.100701750001,unknown,2,2022-06-30T09:48:05.385+02:00,2022-06-30T08:20:05.567+02:00,1379,1.392158,0,0,1089.191,0,0,2022-06-30T09:48:05.385+02:00
183,2022-06-30T09:48:06.785+02:00,4786.50181175,-18.45377517700195,-5.502257995605469,35.93098114013672,4786.49186075,-1.7253891618278,-3.110898509294171,0.503388783709958,-3.956738471984863,4.366623401641846,-2.438527584075928,-1.352604031562805,0.498585969209671,2.615060091018677,XArbitraryZVertical,0.733091908802297,0.6327293927078051,0.1732481194242582,0.1794852457352591,-0.0268824081867933,-0.4823967218399048,0.8755404353141785,0,0,0,-1,-1,4785.100701750001,unknown,2,2022-06-30T09:48:05.385+02:00,2022-06-30T08:20:05.567+02:00,1379,1.392158,0,0,1089.191,0,0,2022-06-30T09:48:05.385+02:00
184,2022-06-30T09:48:06.794+02:00,4786.511763750001,-20.628602600097658,-9.308842163085938,36.88599517822266,4786.50181175,-1.695433582418087,-3.083237207764133,0.5383657610516496,-2.790574312210083,4.16890287399292,-3.125568389892578,-1.579413890838623,0.3031385540962219,2.745788097381592,XArbitraryZVertical,0.7173297579191524,0.6434137999913414,0.1969850986665127,0.1807033238000824,-0.0500725209712982,-0.5127335786819458,0.8570865988731384,0,0,0,-1,-1,4785.100701750001,unknown,2,2022-06-30T09:48:05.385+02:00,2022-06-30T08:20:05.567+02:00,1379,1.392158,0,0,1089.191,0,0,2022-06-30T09:48:05.385+02:00
185,2022-06-30T09:48:06.805+02:00,4786.52171575,-22.319935455322263,-12.455299072265626,39.23461120605469,4786.511763750001,-1.654873593963699,-3.064976511875681,0.5614686434920146,-1.319979071617126,3.747814655303955,-4.146377086639404,-1.816328883171082,-0.02845299243927,2.818697929382324,XArbitraryZVertical,0.6996783748790332,0.6576060728951701,0.2144595118831026,0.1789180532780546,-0.064790166914463,-0.5324299335479736,0.8439911603927612,0,0,0,-1,-1,4785.100701750001,unknown,2,2022-06-30T09:48:05.385+02:00,2022-06-30T08:20:05.567+02:00,1379,1.392158,0,0,1089.191,0,0,2022-06-30T09:48:05.385+02:00
186,2022-06-30T09:48:06.814+02:00,4786.53166675,-24.673491210937502,-12.084819488525387,43.2724644470215,4786.52171575,-1.598773523184866,-3.060989748978058,0.5704166010446605,0.2943910956382751,3.078628063201904,-5.519518375396729,-2.035045862197876,-0.4089311361312866,2.921096563339233,XArbitraryZVertical,0.6795054819691063,0.676567867267242,0.2237065790523929,0.1745956278876668,-0.0677681118249893,-0.5399827361106873,0.8389435410499573,0,0,0,-1,-1,4785.100701750001,unknown,2,2022-06-30T09:48:05.385+02:00,2022-06-30T08:20:05.567+02:00,1379,1.392158,0,0,1089.191,0,0,2022-06-30T09:48:05.385+02:00
187,2022-06-30T09:48:06.824+02:00,4786.54161875,-28.597730712890627,-9.537566528320314,46.73596206665039,4786.53166675,-1.522751878507078,-3.076731276480006,0.5657843347225922,1.503565073013306,1.894866585731506,-7.303478717803955,-2.220507383346558,-0.7335755228996277,3.157057285308838,XArbitraryZVertical,0.655595155269671,0.7009933419403542,0.2234367698408772,0.1699392632959576,-0.0547155439853668,-0.5360780954360962,0.8423933386802673,0,0,0,-1,-1,4785.100701750001,unknown,2,2022-06-30T09:48:05.385+02:00,2022-06-30T08:20:05.567+02:00,1379,1.392158,0,0,1089.191,0,0,2022-06-30T09:48:05.385+02:00
188,2022-06-30T09:48:06.834+02:00,4786.55156975,-32.26630187988282,-3.6721636962890627,48.788643493652344,4786.54161875,-1.42360510534031,-3.119653003117728,0.5515487826438515,1.973871946334839,-0.1139299422502518,-9.488441467285156,-2.49645209312439,-0.7078811526298523,3.559547424316406,XArbitraryZVertical,0.6262188204091502,0.7304823655284574,0.2130579085993018,0.1698582664911395,-0.0186848081648349,-0.5240069627761841,0.8515089750289917,0,0,0,-1,-1,4785.100701750001,unknown,2,2022-06-30T09:48:05.385+02:00,2022-06-30T08:20:05.567+02:00,1379,1.392158,0,0,1089.191,0,0,2022-06-30T09:48:05.385+02:00
189,2022-06-30T09:48:06.844+02:00,4786.56152175,-36.65008575439453,6.128705291748047,48.19108612060547,4786.55156975,-1.300004141295431,3.083900990770764,0.5334881588725958,1.281906843185425,-3.134730339050293,-11.82664394378662,-2.964808464050293,-0.4636895656585693,3.904508113861084,XArbitraryZVertical,0.5895944526153333,0.7630081410746252,0.192916311784307,0.1816048590199633,0.0496471971273422,-0.5085398554801941,0.8596060872077942,0,0,0,-1,-1,4785.100701750001,unknown,2,2022-06-30T09:48:05.385+02:00,2022-06-30T08:20:05.567+02:00,1379,1.392158,0,0,1089.191,0,0,2022-06-30T09:48:05.385+02:00
190,2022-06-30T09:48:06.854+02:00,4786.57147375,-40.58151031494141,18.461409301757815,44.856769866943374,4786.56152175,-1.152319684082899,2.962142976095085,0.5109649899037552,0.1948771625757217,-6.524360179901123,-14.21707630157471,-3.444813966751099,0.1146903336048126,4.115091800689697,XArbitraryZVertical,0.5439922191590706,0.7957420650667817,0.1638295245170671,0.2098257224438226,0.1556903272867203,-0.4890192151069641,0.8582659363746643,0,0,0,-1,-1,4785.100701750001,unknown,2,2022-06-30T09:48:05.385+02:00,2022-06-30T08:20:05.567+02:00,1379,1.392158,0,0,1089.191,0,0,2022-06-30T09:48:05.385+02:00
191,2022-06-30T09:48:06.864+02:00,4786.58142475,-45.51674743652344,26.118137054443366,41.917781524658196,4786.57147375,-0.9855280648940856,2.802966857447225,0.4788390034884389,-1.660152792930603,-9.442137718200684,-15.80719375610352,-4.030822277069092,1.085489273071289,4.075315475463867,XArbitraryZVertical,0.4882027625968469,0.8247561935866461,0.1284987855812772,0.2548006146731875,0.2948298454284668,-0.4607490599155426,0.8371294140815735,0,0,0,-1,-1,4785.100701750001,unknown,2,2022-06-30T09:48:05.385+02:00,2022-06-30T08:20:05.567+02:00,1379,1.392158,0,0,1089.191,0,0,2022-06-30T09:48:05.385+02:00
192,2022-06-30T09:48:06.875+02:00,4786.591376750001,-51.58542755126953,25.8376203918457,39.05139221191406,4786.58142475,-0.807773212671469,2.616950343626453,0.4363592895033236,-3.810540914535522,-12.18858909606934,-16.8218879699707,-4.590716361999512,2.304539203643799,3.788152933120728,XArbitraryZVertical,0.4221679915398051,0.8449706664225876,0.0927315109491685,0.3149598059567423,0.4539670348167419,-0.422642707824707,0.7844024896621704,0,0,0,-1,-1,4785.100701750001,unknown,2,2022-06-30T09:48:05.385+02:00,2022-06-30T08:20:05.567+02:00,1379,1.392158,0,0,1089.191,0,0,2022-06-30T09:48:05.385+02:00
193,2022-06-30T09:48:06.884+02:00,4786.60132875,-65.62473266601563,20.194355621337888,37.74820220947266,4786.591376750001,-0.6268059107394152,2.406963657718697,0.3697116282968672,-5.001532077789307,-15.69114398956299,-18.21750068664551,-5.264851570129395,3.023745536804199,3.581025838851929,XArbitraryZVertical,0.3456215145241347,0.8523585018429857,0.0543615621549087,0.3886845428676882,0.6250200867652893,-0.361346572637558,0.6919385194778442,0,0,0,-1,-1,4785.100701750001,unknown,2,2022-06-30T09:48:05.385+02:00,2022-06-30T08:20:05.567+02:00,1379,1.392158,0,0,1089.191,0,0,2022-06-30T09:48:05.385+02:00
194,2022-06-30T09:48:06.894+02:00,4786.61127975,-77.24237365722657,12.636422424316407,50.322653503417975,4786.60132875,-0.4529228412248854,2.177884011587878,0.2600215760326492,-5.146604061126709,-19.24839210510254,-20.26795959472656,-6.052157402038574,2.890905380249023,3.429472684860229,XArbitraryZVertical,0.2558322126724337,0.8427338822050935,0.0087752179847253,0.4735741702030337,0.7937040328979492,-0.2571014165878296,0.5513010621070862,0,0,0,-1,-1,4785.100701750001,unknown,2,2022-06-30T09:48:05.385+02:00,2022-06-30T08:20:05.567+02:00,1379,1.392158,0,0,1089.191,0,0,2022-06-30T09:48:05.385+02:00
195,2022-06-30T09:48:06.904+02:00,4786.62123175,-100.345779876709,25.516089019775386,65.65601760864257,4786.61127975,-0.3260982544322715,1.951490241581093,0.1043024807228662,-2.023518800735474,-21.30427551269531,-18.44941711425781,-7.612936973571777,2.162661075592041,3.478385210037231,XArbitraryZVertical,0.1630766184646618,0.8112821623562534,-0.0482738725560812,0.5593718179786736,0.9233614206314088,-0.1041134670376778,0.3695454597473145,0,0,0,-1,-1,4785.100701750001,unknown,2,2022-06-30T09:48:05.385+02:00,2022-06-30T08:20:05.567+02:00,1379,1.392158,0,0,1089.191,0,0,2022-06-30T09:48:05.385+02:00
196,2022-06-30T09:48:06.914+02:00,4786.631183750001,-130.34399826049807,20.263511810302738,58.97975097656251,4786.62123175,-0.262261988146772,1.725909503162139,-0.0489212026864548,-2.5977623462677,-23.60448837280273,-15.29685211181641,-8.860651969909668,1.239214420318604,4.975422859191895,XArbitraryZVertical,0.0835479606788687,0.7550981879375475,-0.1034141658820897,0.6419905785774916,0.9868119359016418,0.048901692032814,0.1543070673942566,0,0,0,-1,-1,4785.100701750001,unknown,2,2022-06-30T09:48:05.385+02:00,2022-06-30T08:20:05.567+02:00,1379,1.392158,0,0,1089.191,0,0,2022-06-30T09:48:05.385+02:00
197,2022-06-30T09:48:06.924+02:00,4786.641134750001,-150.40213714599616,30.36585388183594,80.463076171875,4786.631183750001,-0.2261803887700693,1.47392153706701,-0.2024762527755078,-2.908518075942993,-28.33735847473145,-15.62773609161377,-11.20390605926514,2.399932622909546,6.787511348724365,XArbitraryZVertical,0.0010887296772298,0.6727741748649572,-0.1506247317195019,0.7243521651963811,0.9749788641929626,0.2010956108570099,-0.0947474464774131,0,0,0,-1,-1,4785.100701750001,unknown,2,2022-06-30T09:48:05.385+02:00,2022-06-30T08:20:05.567+02:00,1379,1.392158,0,0,1089.191,0,0,2022-06-30T09:48:05.385+02:00
198,2022-06-30T09:48:06.934+02:00,4786.65108675,-206.72401519775389,60.76209457397462,86.61049255371094,4786.641134750001,-0.2479745255288225,1.164067843242147,-0.3425316138501376,0.9728818535804749,-31.94500350952148,-13.25911903381348,-14.15191650390625,1.729724526405334,6.38483190536499,XArbitraryZVertical,-0.0742853187238922,0.5551298795634314,-0.1947658609422091,0.805219765418861,0.8650665879249573,0.3358727097511292,-0.3726250231266022,0,0,0,-1,-1,4785.100701750001,unknown,2,2022-06-30T09:48:05.385+02:00,2022-06-30T08:20:05.567+02:00,1379,1.392158,0,0,1089.191,0,0,2022-06-30T09:48:05.385+02:00
199,2022-06-30T09:48:06.944+02:00,4786.66103775,-234.05148742675783,31.952853698730472,57.06448379516601,4786.65108675,-0.386084756893398,0.7973375988462741,-0.411509450304336,13.66730976104736,-30.96901321411133,-12.58721351623535,-15.98727989196777,2.695404529571533,8.842440605163574,XArbitraryZVertical,-0.1118846351533872,0.4090666961050608,-0.2509083274743157,0.8701674734108588,0.6557675004005432,0.3999932110309601,-0.6402925252914429,0,0,0,-1,-1,4785.100701750001,unknown,2,2022-06-30T09:48:05.385+02:00,2022-06-30T08:20:05.567+02:00,1379,1.392158,0,0,1089.191,0,0,2022-06-30T09:48:05.385+02:00
200,2022-06-30T09:48:06.954+02:00,4786.67098975,-246.87786483764654,-37.50570648193359,-4.42599609375,4786.66103775,-0.5761328171805989,0.4317032025301175,-0.3210493934243658,19.46116638183594,-27.41014289855957,-5.956978797912598,-21.46982383728027,5.878330707550049,9.690643310546877,XArbitraryZVertical,-0.0896280482436472,0.247069482081174,-0.3067614110482397,0.9147791676137405,0.3970391750335693,0.315562516450882,-0.8618469834327698,0,0,0,-1,-1,4785.100701750001,unknown,2,2022-06-30T09:48:05.385+02:00,2022-06-30T08:20:05.567+02:00,1379,1.392158,0,0,1089.191,0,0,2022-06-30T09:48:05.385+02:00
201,2022-06-30T09:48:06.964+02:00,4786.68094175,-189.0258686828613,-50.35558502197266,-32.705937652587885,4786.67098975,-0.6425428078201681,0.2025479828407701,-0.1983475555274565,7.103632926940918,-14.24996948242188,1.001572608947754,-24.0556812286377,3.060121774673462,6.777322292327881,XArbitraryZVertical,-0.0616958849635238,0.1265616553119565,-0.3221095091276734,0.9361736964045572,0.1972217261791229,0.1970495581626892,-0.9603515267372132,0,0,0,-1,-1,4785.100701750001,unknown,2,2022-06-30T09:48:05.385+02:00,2022-06-30T08:20:05.567+02:00,1379,1.392158,0,0,1089.191,0,0,2022-06-30T09:48:05.385+02:00
202,2022-06-30T09:48:06.974+02:00,4786.69089275,-88.94384033203126,-24.643104400634762,-27.93161590576172,4786.68094175,-0.6222803002409526,0.1377659718337484,-0.1827061409814789,-3.005526781082153,0.1596194505691528,2.462204694747925,-25.30098342895508,-4.004903316497803,0.5228666067123413,XArbitraryZVertical,-0.0656563060398027,0.093112609298619,-0.3101221536915218,0.9438451231195868,0.1350448131561279,0.1816913336515427,-0.9740386009216307,0,0,0,-1,-1,4785.100701750001,unknown,2,2022-06-30T09:48:05.385+02:00,2022-06-30T08:20:05.567+02:00,1379,1.392158,0,0,1089.191,0,0,2022-06-30T09:48:05.385+02:00
203,2022-06-30T09:48:06.984+02:00,4786.70084475,-2.3135888671875002,5.444777526855469,-16.294665069580073,4786.69089275,-0.5959760881684961,0.1759968256338628,-0.2199770681257636,-4.659392833709717,4.500089645385742,2.232445240020752,-19.43956184387207,-5.351294994354248,-2.373111486434937,XArbitraryZVertical,-0.0788765044019956,0.1156066556524945,-0.2999159399418921,0.9436440382811628,0.1708704233169556,0.2182072401046753,-0.9608271718025208,0,0,0,-1,-1,4785.100701750001,unknown,2,2022-06-30T09:48:05.385+02:00,2022-06-30T08:20:05.567+02:00,1379,1.392158,0,0,1089.191,0,0,2022-06-30T09:48:05.385+02:00
204,2022-06-30T09:48:06.994+02:00,4786.710796750001,2.2996678161621094,4.090693359375,-24.960594177246094,4786.70084475,-0.5520411941360143,0.2068223389531762,-0.25676969706421,-3.993561267852783,-1.024177551269531,4.561938762664795,-9.26526927947998,-2.765996932983398,-1.900657176971436,XArbitraryZVertical,-0.0946272132294428,0.1332083082536549,-0.2815583166944269,0.9455296391454152,0.1986186504364014,0.2539574801921844,-0.946602463722229,0,0,0,-1,-1,4785.100701750001,unknown,2,2022-06-30T09:48:05.385+02:00,2022-06-30T08:20:05.567+02:00,1379,1.392158,0,0,1089.191,0,0,2022-06-30T09:48:05.385+02:00
205,2022-06-30T09:48:07.003+02:00,4786.720747750001,-36.77148330688476,9.344318389892578,-28.02741668701172,4786.710796750001,-0.4955309251758164,0.1754213612632661,-0.2775304093052688,-2.707379341125488,-7.856609344482422,5.158238410949707,-0.4036849737167358,0.2810414135456085,-0.7140507698059082,XArbitraryZVertical,-0.1123049581768551,0.1178979793128778,-0.2536938913719288,0.9534815018094592,0.1678449213504791,0.2739813923835754,-0.9469753503799438,0,0,0,-1,-1,4785.100701750001,unknown,2,2022-06-30T09:48:05.385+02:00,2022-06-30T08:20:05.567+02:00,1379,1.392158,0,0,1089.191,0,0,2022-06-30T09:48:05.385+02:00
206,2022-06-30T09:48:07.013+02:00,4786.73069975,-48.40544036865234,-4.371060333251953,-27.304719543457033,4786.720747750001,-0.4466407212088964,0.0998448477846262,-0.3083819978400496,-4.351665496826172,-9.442004203796388,3.071410417556763,0.1394437849521637,0.1134744584560394,-1.596322655677795,XArbitraryZVertical,-0.1386598118617015,0.0820561399677358,-0.2260422444866432,0.9607003224295596,0.0949767678976059,0.3035173714160919,-0.9480804800987244,0,0,0,-1,-1,4785.100701750001,unknown,2,2022-06-30T09:48:05.385+02:00,2022-06-30T08:20:05.567+02:00,1379,1.392158,0,0,1089.191,0,0,2022-06-30T09:48:05.385+02:00
207,2022-06-30T09:48:07.023+02:00,4786.74065075,-33.84911041259766,-16.008909301757814,-35.885026702880864,4786.73069975,-0.422338313720168,0.0193412575699379,-0.3471622551890448,-3.795417547225952,-8.35635757446289,1.233335852622986,-3.76655387878418,0.612298846244812,-1.916859149932861,XArbitraryZVertical,-0.1668698627436319,0.0455126152629908,-0.2080768847994117,0.9626977533903154,0.0181862618774175,0.3402307331562042,-0.9401661157608032,0,0,0,-1,-1,4785.100701750001,unknown,2,2022-06-30T09:48:05.385+02:00,2022-06-30T08:20:05.567+02:00,1379,1.392158,0,0,1089.191,0,0,2022-06-30T09:48:05.385+02:00
208,2022-06-30T09:48:07.033+02:00,4786.75060275,-35.9875634765625,-1.8693127441406252,-43.32994491577149,4786.74065075,-0.4165055999663648,-0.0630008993361661,-0.3879391475601496,-4.346354007720947,-8.698975563049316,0.0689770877361297,-4.876015186309814,-0.8238537311553955,-1.859501719474792,XArbitraryZVertical,-0.1948867753708163,0.0095957130461711,-0.1968331680933999,0.9608245559965138,-0.0582807697355747,0.3782815039157867,-0.923854112625122,0,0,0,-1,-1,4785.100701750001,unknown,2,2022-06-30T09:48:05.385+02:00,2022-06-30T08:20:05.567+02:00,1379,1.392158,0,0,1089.191,0,0,2022-06-30T09:48:05.385+02:00
209,2022-06-30T09:48:07.043+02:00,4786.760555041667,-38.90110473632813,9.562564544677736,-38.984331665039065,4786.75060275,-0.4264530696236141,-0.1490852401747055,-0.4282906872419012,-3.766555547714233,-7.498605251312256,-1.035711169242859,-3.31535267829895,-2.047213792800903,-2.758418560028076,XArbitraryZVertical,-0.2225225710636871,-0.0262786407022936,-0.1907384610348833,0.9557259301276756,-0.1351175755262375,0.4153164923191071,-0.8995862603187561,0,0,0,-1,-1,4785.100701750001,unknown,2,2022-06-30T09:48:05.385+02:00,2022-06-30T08:20:05.567+02:00,1379,1.392158,0,0,1089.191,0,0,2022-06-30T09:48:05.385+02:00
210,2022-06-30T09:48:07.053+02:00,4786.770506041667,-31.714698944091804,6.688241729736329,-37.23671585083007,4786.760555041667,-0.4473309636281291,-0.2217791677907857,-0.4567064801665441,-2.590873241424561,-5.330907344818115,-1.457607626914978,-3.471035957336426,-0.6315466165542603,-3.541388273239136,XArbitraryZVertical,-0.2432876336471397,-0.0552022736882794,-0.1902932796961698,0.9495011610438714,-0.1974212527275085,0.440994530916214,-0.8755276799201965,0,0,0,-1,-1,4785.100701750001,unknown,2,2022-06-30T09:48:05.385+02:00,2022-06-30T08:20:05.567+02:00,1379,1.392158,0,0,1089.191,0,0,2022-06-30T09:48:05.385+02:00
