loggingTime(txt),accelerometerTimestamp_sinceReboot(s),accelerometerAccelerationX(G),accelerometerAccelerationY(G),accelerometerAccelerationZ(G),motionTimestamp_sinceReboot(s),motionYaw(rad),motionRoll(rad),motionPitch(rad),motionRotationRateX(rad/s),motionRotationRateY(rad/s),motionRotationRateZ(rad/s),motionUserAccelerationX(G),motionUserAccelerationY(G),motionUserAccelerationZ(G),motionAttitudeReferenceFrame(txt),motionQuaternionX(R),motionQuaternionY(R),motionQuaternionZ(R),motionQuaternionW(R),motionGravityX(G),motionGravityY(G),motionGravityZ(G),motionMagneticFieldX(µT),motionMagneticFieldY(µT),motionMagneticFieldZ(µT),motionHeading(°),motionMagneticFieldCalibrationAccuracy(Z),activityTimestamp_sinceReboot(s),activity(txt),activityActivityConfidence(Z),activityActivityStartDate(txt),pedometerStartDate(txt),pedometerNumberofSteps(N),pedometerAverageActivePace(s/m),pedometerCurrentPace(s/m),pedometerCurrentCadence(steps/s),pedometerDistance(m),pedometerFloorAscended(N),pedometerFloorDescended(N),pedometerEndDate(txt)
2022-06-30T09:45:43.752+02:00,4643.457797291667,0.108856201171875,-0.20806884765625,-0.951446533203125,4643.447845291667,0.176953400244275,0.06499776710001359,0.1994853895592283,0.006953464820981026,0.002537633758038282,-0.04362033307552338,-0.1015519052743912,-0.0008403658866882324,0.01908409595489502,XArbitraryZVertical,0.09627864854239192,0.04099934137264544,0.091098637616901,0.9903285236138294,0.06366392970085144,-0.1981649547815323,-0.9780989289283752,0,0,0,-1,-1,4642.37182275,unknown,2,2022-06-30T09:45:42.656+02:00,2022-06-30T08:20:05.567+02:00,1379,1.385177,0,0,1089.191,0,0,2022-06-30T09:44:05.799+02:00
2022-06-30T09:45:43.754+02:00,4643.467749291667,0.0494384765625,-0.2089080810546875,-0.941864013671875,4643.457797291667,0.1764946507733331,0.06446304873660406,0.1999417732066216,-0.02475479617714882,-0.08588524162769318,-0.06056715920567513,0.02142872661352158,-0.01453793048858643,0.01467889547348022,XArbitraryZVertical,0.09653846062206485,0.04073174622809494,0.09085101671954052,0.9903370220371809,0.06313508003950119,-0.1986122578382492,-0.9780424833297729,0,0,0,-1,-1,4642.37182275,unknown,2,2022-06-30T09:45:42.656+02:00,2022-06-30T08:20:05.567+02:00,1379,1.385177,0,0,1089.191,0,0,2022-06-30T09:44:05.799+02:00
2022-06-30T09:45:43.760+02:00,4643.477700291667,0.0227813720703125,-0.2174835205078125,-0.9398345947265625,4643.467749291667,0.1757555444819625,0.06391120704426013,0.199667499748948,-0.04916000366210938,-0.06665029376745224,-0.08116245269775391,0.04625698924064636,-0.009725585579872131,0.02668499946594238,XArbitraryZVertical,0.09644257667457694,0.04041126919650974,0.09045524334396748,0.9903956926740914,0.062598817050457,-0.1983434408903122,-0.9781315326690674,0,0,0,-1,-1,4642.37182275,unknown,2,2022-06-30T09:45:42.656+02:00,2022-06-30T08:20:05.567+02:00,1379,1.385177,0,0,1089.191,0,0,2022-06-30T09:44:05.799+02:00
2022-06-30T09:45:43.770+02:00,4643.487652291667,0.04339599609375,-0.22747802734375,-0.9420928955078125,4643.477700291667,0.1749709578212808,0.06396154375488856,0.1986184715311728,-0.08414242416620255,-0.01680830679833889,-0.06736131012439728,-0.01322324573993683,-0.01159311830997467,0.03647148609161377,XArbitraryZVertical,0.09593635621495158,0.04035444252291501,0.09005706790769047,0.990483450235533,0.06266131997108459,-0.1973151564598083,-0.978335440158844,0,0,0,-1,-1,4642.37182275,unknown,2,2022-06-30T09:45:42.656+02:00,2022-06-30T08:20:05.567+02:00,1379,1.385177,0,0,1089.191,0,0,2022-06-30T09:44:05.799+02:00
2022-06-30T09:45:43.780+02:00,4643.497603291667,0.0579376220703125,-0.21099853515625,-0.9540252685546875,4643.487652291667,0.1744196772855352,0.06414286157437005,0.1971457550898686,-0.1246693432331085,-0.00721107330173254,-0.05223136395215988,-0.04007630050182343,-0.02161253988742828,0.03877842426300049,XArbitraryZVertical,0.09520953740504047,0.04035633002029931,0.08977567205465313,0.9905790278152227,0.06285727024078369,-0.1958711743354797,-0.978613018989563,0,0,0,-1,-1,4642.37182275,unknown,2,2022-06-30T09:45:42.656+02:00,2022-06-30T08:20:05.567+02:00,1379,1.385177,0,0,1089.191,0,0,2022-06-30T09:44:05.799+02:00
2022-06-30T09:45:43.790+02:00,4643.507555291667,0.0471343994140625,-0.187774658203125,-0.9581451416015625,4643.497603291667,0.1740067900824391,0.06406307793061915,0.1952749204611543,-0.1471241861581802,-0.03496557101607323,-0.05023805797100067,-0.01940693706274033,-0.03344197571277618,0.03688913583755493,XArbitraryZVertical,0.09429425703642402,0.04021922729261337,0.08954562369625103,0.990693028404822,0.06280253827571869,-0.1940362304449081,-0.9789820313453674,0,0,0,-1,-1,4642.37182275,unknown,2,2022-06-30T09:45:42.656+02:00,2022-06-30T08:20:05.567+02:00,1379,1.385177,0,0,1089.191,0,0,2022-06-30T09:44:05.799+02:00
2022-06-30T09:45:43.800+02:00,4643.517507291667,0.0322265625,-0.182342529296875,-0.9553070068359375,4643.507555291667,0.1735072029144911,0.06373556782569728,0.1933882459678771,-0.1462253630161285,-0.05961818620562553,-0.06795872747898102,-0.004567891359329224,-0.01881365478038788,0.02534085512161255,XArbitraryZVertical,0.0933837918446792,0.03995503580194808,0.0892608350407649,0.9908156065220556,0.06250511854887009,-0.1921850740909576,-0.9793661236763,0,0,0,-1,-1,4642.37182275,unknown,2,2022-06-30T09:45:42.656+02:00,2022-06-30T08:20:05.567+02:00,1379,1.385177,0,0,1089.191,0,0,2022-06-30T09:44:05.799+02:00
2022-06-30T09:45:43.810+02:00,4643.527458291667,0.02655029296875,-0.1844940185546875,-0.9510345458984375,4643.517507291667,0.1728319483668806,0.0630859708618592,0.1920017756394855,-0.1394227296113968,-0.04940733686089516,-0.09108275920152664,-0.01475164666771889,0.003049418330192566,0.02152639627456665,XArbitraryZVertical,0.09273887294552871,0.0395442497317567,0.08888003937294355,0.9909268500191866,0.06188564747571945,-0.1908242702484131,-0.9796714782714844,0,0,0,-1,-1,4642.37182275,unknown,2,2022-06-30T09:45:42.656+02:00,2022-06-30T08:20:05.567+02:00,1379,1.385177,0,0,1089.191,0,0,2022-06-30T09:44:05.799+02:00
2022-06-30T09:45:43.821+02:00,4643.537410291667,0.0325927734375,-0.1925811767578125,-0.9560089111328125,4643.527458291667,0.1720632584891204,0.06186886570868642,0.1906891044858274,-0.1375372111797333,-0.03777172043919563,-0.1138064488768578,-0.02848251163959503,0.007192835211753845,0.02468830347061157,XArbitraryZVertical,0.09215712890237195,0.03885136340825471,0.08842796287569658,0.9910489939224605,0.0607086755335331,-0.1895355582237244,-0.9799952507019043,0,0,0,-1,-1,4642.37182275,unknown,2,2022-06-30T09:45:42.656+02:00,2022-06-30T08:20:05.567+02:00,1379,1.385177,0,0,1089.191,0,0,2022-06-30T09:44:05.799+02:00
2022-06-30T09:45:43.830+02:00,4643.547361291667,0.04290771484375,-0.196502685546875,-0.9574127197265625,4643.537410291667,0.1708519703162864,0.06196409976879497,0.1894538226931587,-0.1482896506786346,-0.03200840577483177,-0.1337692737579346,-0.03426656499505043,0.003828316926956177,0.02918791770935059,XArbitraryZVertical,0.09156398231230471,0.03879210545361342,0.08781812892139357,0.9911605720178558,0.0608164556324482,-0.188322514295578,-0.9802224040031433,0,0,0,-1,-1,4642.37182275,unknown,2,2022-06-30T09:45:42.656+02:00,2022-06-30T08:20:05.567+02:00,1379,1.385177,0,0,1089.191,0,0,2022-06-30T09:44:05.799+02:00
2022-06-30T09:45:43.840+02:00,4643.557313291667,0.04425048828125,-0.2043914794921875,-0.9609832763671875,4643.547361291667,0.1694570202745632,0.062321664674118,0.1880426965516026,-0.1678071618080139,-0.04301365464925766,-0.1436706334352493,-0.02859105914831161,-0.005644917488098145,0.0244559645652771,XArbitraryZVertical,0.09087569598686324,0.03884809150598564,0.08712698570670407,0.9912827515772076,0.06118343397974968,-0.1869364529848099,-0.9804648756980896,0,0,0,-1,-1,4642.37182275,unknown,2,2022-06-30T09:45:42.656+02:00,2022-06-30T08:20:05.567+02:00,1379,1.385177,0,0,1089.191,0,0,2022-06-30T09:44:05.799+02:00
2022-06-30T09:45:43.850+02:00,4643.567264291667,0.039764404296875,-0.1995849609375,-0.9611358642578125,4643.557313291667,0.1680737142435383,0.06201398235539741,0.1864453507376297,-0.197535827755928,-0.05249493196606636,-0.1591745913028717,-0.01799287274479866,-0.01113583147525787,0.02336776256561279,XArbitraryZVertical,0.09012366590721806,0.03856831610675476,0.08640906302055512,0.9914250747547503,0.06090018898248672,-0.1853670328855515,-0.9807804226875305,0,0,0,-1,-1,4642.37182275,unknown,2,2022-06-30T09:45:42.656+02:00,2022-06-30T08:20:05.567+02:00,1379,1.385177,0,0,1089.191,0,0,2022-06-30T09:44:05.799+02:00
2022-06-30T09:45:43.860+02:00,4643.577216291667,0.029815673828125,-0.18084716796875,-0.9557037353515625,4643.567264291667,0.1665921252826338,0.06133018367507776,0.1847624461904893,-0.2152173519134521,-0.05784682184457779,-0.1740004122257233,-0.01599846407771111,-0.02067862451076508,0.02014857530593872,XArbitraryZVertical,0.08934676867164427,0.03809526025137086,0.08562465733160103,0.9915816963140288,0.06024855375289917,-0.1837130337953568,-0.9811317920684814,0,0,0,-1,-1,4642.37182275,unknown,2,2022-06-30T09:45:42.656+02:00,2022-06-30T08:20:05.567+02:00,1379,1.385177,0,0,1089.191,0,0,2022-06-30T09:44:05.799+02:00
2022-06-30T09:45:43.870+02:00,4643.587168291667,0.0254364013671875,-0.17779541015625,-0.951507568359375,4643.577216291667,0.1649239696263494,0.06094691685101447,0.1830128663688261,-0.2353642284870148,-0.04377451911568642,-0.1901071816682816,-0.02012799307703972,-0.01759220659732819,0.02033829689025879,XArbitraryZVertical,0.08852682112542214,0.03776140794669591,0.08476059709054508,0.991742303386127,0.05989199876785278,-0.1819929480552673,-0.9814741611480713,0,0,0,-1,-1,4642.37182275,unknown,2,2022-06-30T09:45:42.656+02:00,2022-06-30T08:20:05.567+02:00,1379,1.385177,0,0,1089.191,0,0,2022-06-30T09:44:05.799+02:00
2022-06-30T09:45:43.880+02:00,4643.597119291667,0.030364990234375,-0.1846771240234375,-0.9441375732421875,4643.587168291667,0.1630665915191468,0.06093969343278789,0.1807710445104544,-0.2630544602870941,-0.02417072467505932,-0.2072307765483856,-0.03009433299303055,-0.001059263944625854,0.02617561817169189,XArbitraryZVertical,0.08744984471164483,0.03758781374861558,0.08381360963570238,0.9919249558796239,0.05990960821509361,-0.1797881126403809,-0.9818793535232544,0,0,0,-1,-1,4642.37182275,unknown,2,2022-06-30T09:45:42.656+02:00,2022-06-30T08:20:05.567+02:00,1379,1.385177,0,0,1089.191,0,0,2022-06-30T09:44:05.799+02:00
2022-06-30T09:45:43.890+02:00,4643.607071291667,0.0362548828125,-0.1895751953125,-0.9379119873046875,4643.597119291667,0.1610691061872134,0.06100647996648748,0.1779608338175707,-0.2974106967449188,-0.01630374789237976,-0.2271697968244553,-0.03456974029541016,-0.000772625207901001,0.03086823225021362,XArbitraryZVertical,0.08608999318569843,0.03742487632191369,0.08279338753650288,0.9921357344215431,0.06000575050711632,-0.1770229786634445,-0.9823758006095886,0,0,0,-1,-1,4642.37182275,unknown,2,2022-06-30T09:45:42.656+02:00,2022-06-30T08:20:05.567+02:00,1379,1.385177,0,0,1089.191,0,0,2022-06-30T09:44:05.799+02:00
2022-06-30T09:45:43.900+02:00,4643.6170215,0.038482666015625,-0.1968994140625,-0.9272308349609375,4643.6070705,0.1589075727506287,0.06099869140735651,0.1747662644391433,-0.3339127898216248,-0.01768539473414421,-0.2463669180870056,-0.02966766804456711,-0.0107993483543396,0.03879815340042114,XArbitraryZVertical,0.08454505616160828,0.037206003696755,0.08168354012552902,0.9923686768707461,0.06003226712346077,-0.1738779693841934,-0.9829356670379639,0,0,0,-1,-1,4642.37182275,unknown,2,2022-06-30T09:45:42.656+02:00,2022-06-30T08:20:05.567+02:00,1379,1.385177,0,0,1089.191,0,0,2022-06-30T09:44:05.799+02:00
2022-06-30T09:45:43.910+02:00,4643.626973500001,0.041351318359375,-0.19769287109375,-0.9310455322265625,4643.6170215,0.1566407316857566,0.06104978622806585,0.1711936840467037,-0.3805286884307861,-0.001149113522842526,-0.2555577754974365,-0.02386552095413208,-0.01921667158603668,0.04563444852828979,XArbitraryZVertical,0.08281141223875943,0.03700103052927327,0.08051879518064579,0.9926177070669538,0.06012000516057014,-0.1703587025403976,-0.9835463762283325,0,0,0,-1,-1,4642.37182275,unknown,2,2022-06-30T09:45:42.656+02:00,2022-06-30T08:20:05.567+02:00,1379,1.385177,0,0,1089.191,0,0,2022-06-30T09:44:05.799+02:00
2022-06-30T09:45:43.920+02:00,4643.6369255,0.042510986328125,-0.18017578125,-0.9412078857421875,4643.626973500001,0.1543808443675655,0.06135398296997632,0.1671613999307507,-0.4402194321155548,0.02374584972858429,-0.2509489059448242,-0.02197854965925217,-0.03051562607288361,0.05697488784790039,XArbitraryZVertical,0.08083867563824269,0.03690878639606308,0.07936143269850791,0.9928769900568282,0.06046082451939583,-0.1663839966058731,-0.9842057228088379,0,0,0,-1,-1,4642.37182275,unknown,2,2022-06-30T09:45:42.656+02:00,2022-06-30T08:20:05.567+02:00,1379,1.385177,0,0,1089.191,0,0,2022-06-30T09:44:05.799+02:00
2022-06-30T09:45:43.930+02:00,4643.6468765,0.0461578369140625,-0.1492462158203125,-0.9618988037109375,4643.6369255,0.1520757642147224,0.06207300819562445,0.1623083291720437,-0.5012988448143005,0.04741548374295235,-0.2712460458278656,-0.01986691728234291,-0.03609645366668701,0.05391079187393188,XArbitraryZVertical,0.07844240642561351,0.03699513439774205,0.07818645468157774,0.9931591595406385,0.06121784448623657,-0.1615966260433197,-0.9849563241004944,0,0,0,-1,-1,4642.37182275,unknown,2,2022-06-30T09:45:42.656+02:00,2022-06-30T08:20:05.567+02:00,1379,1.385177,0,0,1089.191,0,0,2022-06-30T09:44:05.799+02:00
2022-06-30T09:45:43.940+02:00,4643.6568285,0.0489654541015625,-0.115875244140625,-0.9710693359375,4643.6468765,0.1494963938726599,0.06299053616600228,0.1569928904431413,-0.5308143496513367,0.05938133224844933,-0.3077217638492584,-0.01966414228081703,-0.0238271951675415,0.04453516006469727,XArbitraryZVertical,0.07581371668485849,0.03715851504484817,0.07687415313323728,0.9934596138517691,0.06217473745346069,-0.1563487946987152,-0.9857430458068848,0,0,0,-1,-1,4642.37182275,unknown,2,2022-06-30T09:45:42.656+02:00,2022-06-30T08:20:05.567+02:00,1379,1.385177,0,0,1089.191,0,0,2022-06-30T09:44:05.799+02:00
2022-06-30T09:45:43.950+02:00,4643.6667795,0.0528411865234375,-0.097625732421875,-0.9811553955078125,4643.6568285,0.1465766417505391,0.06408100834237969,0.1514846585391994,-0.5322842001914978,0.07492014765739441,-0.3446743190288544,-0.01714637130498886,0.001659542322158813,0.02462035417556763,XArbitraryZVertical,0.0730891007001718,0.03739534203101316,0.07539290137181638,0.9937683362039356,0.06330381333827972,-0.1509059518575668,-0.9865191578865051,0,0,0,-1,-1,4642.37182275,unknown,2,2022-06-30T09:45:42.656+02:00,2022-06-30T08:20:05.567+02:00,1379,1.385177,0,0,1089.191,0,0,2022-06-30T09:44:05.799+02:00
2022-06-30T09:45:43.959+02:00,4643.676731500001,0.0690155029296875,-0.0919647216796875,-0.98052978515625,4643.6667795,0.1432793134195222,0.06543217889757681,0.1460309225919765,-0.5169699788093567,0.1023411229252815,-0.3815929293632507,-0.01572450250387192,0.02963700890541077,0.0161699652671814,XArbitraryZVertical,0.07038943455755189,0.03775831230982019,0.07372958752119074,0.9940742388056731,0.06468956172466278,-0.1455124616622925,-0.9872393012046814,0,0,0,-1,-1,4642.37182275,unknown,2,2022-06-30T09:45:42.656+02:00,2022-06-30T08:20:05.567+02:00,1379,1.385177,0,0,1089.191,0,0,2022-06-30T09:44:05.799+02:00
2022-06-30T09:45:43.969+02:00,4643.6866835,0.0840911865234375,-0.1014251708984375,-0.9685821533203125,4643.676731500001,0.1397115085501925,0.06700239194016579,0.1407101668131965,-0.5043473839759827,0.1154255419969559,-0.3973159492015839,-0.0134497657418251,0.04262036085128784,0.006739616394042969,XArbitraryZVertical,0.06775413051489257,0.03823448396964456,0.07193606086345491,0.9943705319463867,0.06629055738449097,-0.1402463018894196,-0.9878950119018555,0,0,0,-1,-1,4642.37182275,unknown,2,2022-06-30T09:45:42.656+02:00,2022-06-30T08:20:05.567+02:00,1379,1.385177,0,0,1089.191,0,0,2022-06-30T09:44:05.799+02:00
2022-06-30T09:45:43.979+02:00,4643.6966345,0.0924835205078125,-0.124053955078125,-0.947052001953125,4643.6866835,0.1359782720549848,0.06860470625246787,0.13544449888695,-0.503058135509491,0.1085415408015251,-0.4161178767681122,0.001092039048671722,0.04306583106517792,0.007980763912200928,XArbitraryZVertical,0.06514983801286432,0.0387325646738304,0.07005659995441878,0.9946594850534968,0.06792307645082474,-0.1350307464599609,-0.9885105490684509,0,0,0,-1,-1,4642.37182275,unknown,2,2022-06-30T09:45:42.656+02:00,2022-06-30T08:20:05.567+02:00,1379,1.385177,0,0,1089.191,0,0,2022-06-30T09:44:05.799+02:00
2022-06-30T09:45:43.989+02:00,4643.7065865,0.094757080078125,-0.153167724609375,-0.9233551025390625,4643.6966345,0.1321314023906945,0.07013461909062178,0.1300483767022601,-0.5247862339019775,0.1023556664586067,-0.4204919040203094,0.01460541784763336,0.02825672924518585,0.02053582668304443,XArbitraryZVertical,0.06248706622613781,0.03919678839124344,0.06811081408664722,0.994947179778608,0.0694853812456131,-0.1296821087598801,-0.9891179800033569,0,0,0,-1,-1,4642.37182275,unknown,2,2022-06-30T09:45:42.656+02:00,2022-06-30T08:20:05.567+02:00,1379,1.385177,0,0,1089.191,0,0,2022-06-30T09:44:05.799+02:00
2022-06-30T09:45:44.000+02:00,4643.7165375,0.0785980224609375,-0.166473388671875,-0.9156494140625,4643.7065865,0.1283824803745216,0.0715531394103559,0.1244085787935109,-0.558600127696991,0.09605516493320465,-0.4019371271133423,0.02154356986284256,3.375113010406494e-05,0.04268020391464233,XArbitraryZVertical,0.05970641378531382,0.0396113360636357,0.06620109690341507,0.9952304077965864,0.0709395557641983,-0.1240879073739052,-0.9897321462631226,0,0,0,-1,-1,4642.37182275,unknown,2,2022-06-30T09:45:42.656+02:00,2022-06-30T08:20:05.567+02:00,1379,1.385177,0,0,1089.191,0,0,2022-06-30T09:44:05.799+02:00
2022-06-30T09:45:44.009+02:00,4643.7264895,0.0576629638671875,-0.1681365966796875,-0.919189453125,4643.7165375,0.1248864437580482,0.07301791790375303,0.118165925566452,-0.6479567289352417,0.1166387125849724,-0.387892097234726,0.02231236547231674,-0.03527680039405823,0.06702542304992676,XArbitraryZVertical,0.05662046487513739,0.04004847858049006,0.06440337705008517,0.9955111437508525,0.07244431227445602,-0.1178911253809929,-0.9903804659843445,0,0,0,-1,-1,4642.37182275,unknown,2,2022-06-30T09:45:42.656+02:00,2022-06-30T08:20:05.567+02:00,1379,1.385177,0,0,1089.191,0,0,2022-06-30T09:44:05.799+02:00
2022-06-30T09:45:44.019+02:00,4643.7364415,0.0477752685546875,-0.164947509765625,-0.92388916015625,4643.7264895,0.1215142616954136,0.07469434837794806,0.1107193749961276,-0.8044845461845398,0.146192878484726,-0.397188127040863,0.004429660737514496,-0.05598030239343643,0.07545620203018188,XArbitraryZVertical,0.05292709722113108,0.04056987015587659,0.06264664138989534,0.995805294972823,0.07416797429323196,-0.1104933023452759,-0.9911056160926819,0,0,0,-1,-1,4642.37182275,unknown,2,2022-06-30T09:45:42.656+02:00,2022-06-30T08:20:05.567+02:00,1379,1.385177,0,0,1089.191,0,0,2022-06-30T09:44:05.799+02:00
2022-06-30T09:45:44.029+02:00,4643.7463925,0.0600738525390625,-0.1761932373046875,-0.9249114990234375,4643.7364415,0.1181070503972067,0.076696530018765,0.101369147686265,-1.025621175765991,0.1866346001625061,-0.4267657101154327,-0.01856546103954315,-0.06694117188453674,0.07275247573852539,XArbitraryZVertical,0.04827755643177554,0.04121077229928694,0.06083905255125918,0.9961272765796778,0.07622803002595901,-0.1011956334114075,-0.9919419288635254,0,0,0,-1,-1,4642.37182275,unknown,2,2022-06-30T09:45:42.656+02:00,2022-06-30T08:20:05.567+02:00,1379,1.385177,0,0,1089.191,0,0,2022-06-30T09:44:05.799+02:00
2022-06-30T09:45:44.039+02:00,4643.756344500001,0.0970611572265625,-0.2052001953125,-0.8739013671875,4643.7463925,0.1146941198451462,0.07905584874720162,0.08932569264328535,-1.346275806427002,0.226952463388443,-0.441837340593338,-0.0308837816119194,-0.07574076950550079,0.06901311874389648,XArbitraryZVertical,0.04227706594798122,0.04197035681157282,0.05897523454387389,0.99648030672947,0.07865867018699646,-0.08920694887638092,-0.9929022789001465,0,0,0,-1,-1,4642.37182275,unknown,2,2022-06-30T09:45:42.656+02:00,2022-06-30T08:20:05.567+02:00,1379,1.385177,0,0,1089.191,0,0,2022-06-30T09:44:05.799+02:00
2022-06-30T09:45:44.049+02:00,4643.766295500001,0.11383056640625,-0.2215423583984375,-0.815643310546875,4643.756344500001,0.1114782925492877,0.08150455698536381,0.0736145233901305,-1.758710980415344,0.2098710983991623,-0.453098326921463,-0.02112038433551788,-0.1026453971862793,0.069069504737854,XArbitraryZVertical,0.03444314081610452,0.04269855429142652,0.05712323025508009,0.9968587894769507,0.08119384944438934,-0.07354805618524551,-0.9939810037612915,0,0,0,-1,-1,4642.37182275,unknown,2,2022-06-30T09:45:42.656+02:00,2022-06-30T08:20:05.567+02:00,1379,1.385177,0,0,1089.191,0,0,2022-06-30T09:44:05.799+02:00
2022-06-30T09:45:44.059+02:00,4643.7762475,0.09246826171875,-0.1645355224609375,-0.8397216796875,4643.766295500001,0.1087401910149911,0.08359032839890448,0.05342058255011681,-2.239384651184082,0.1843598783016205,-0.422582745552063,0.01368685811758041,-0.1518052220344543,0.1211854219436646,XArbitraryZVertical,0.02437454501496803,0.04315645759675085,0.05539074064127822,0.9972338274312359,0.08337391167879105,-0.05339517816901207,-0.9950867891311646,0,0,0,-1,-1,4642.37182275,unknown,2,2022-06-30T09:45:42.656+02:00,2022-06-30T08:20:05.567+02:00,1379,1.385177,0,0,1089.191,0,0,2022-06-30T09:44:05.799+02:00
2022-06-30T09:45:44.069+02:00,4643.7861995,0.0454254150390625,0.038421630859375,-0.9200439453125,4643.7762475,0.1069036866410663,0.08562923762195367,0.02923671776033518,-2.521278142929077,0.2233840674161911,-0.3540896475315094,0.028342105448246,-0.1923100203275681,0.1802669167518616,XArbitraryZVertical,0.01229709686404736,0.04351610766814622,0.05399650514217642,0.9975166317206197,0.08548808097839355,-0.02923255227506161,-0.9959102869033813,0,0,0,-1,-1,4642.37182275,unknown,2,2022-06-30T09:45:42.656+02:00,2022-06-30T08:20:05.567+02:00,1379,1.385177,0,0,1089.191,0,0,2022-06-30T09:44:05.799+02:00
2022-06-30T09:45:44.079+02:00,4643.7961505,0.0190887451171875,0.266448974609375,-1.004165649414062,4643.7861995,0.1057547310650911,0.08838399217189298,0.003895241908303806,-2.504081726074219,0.3448271155357361,-0.3289110660552979,0.004199586808681488,-0.1606404930353165,0.1563674211502075,XArbitraryZVertical,-0.0003919038416351506,0.04421861688060853,0.05288694445214662,0.9976210085311159,0.08826829493045807,-0.003895231988281012,-0.9960891008377075,0,0,0,-1,-1,4642.37182275,unknown,2,2022-06-30T09:45:42.656+02:00,2022-06-30T08:20:05.567+02:00,1379,1.385177,0,0,1089.191,0,0,2022-06-30T09:44:05.799+02:00
2022-06-30T09:45:44.089+02:00,4643.806102500001,0.0404052734375,0.395751953125,-1.087234497070312,4643.7961505,0.1044990006170938,0.09271227084082108,-0.0200954252467826,-2.241064071655273,0.5366613268852234,-0.3619057238101959,-0.04713578522205353,0.01832734793424606,0.07546031475067139,XArbitraryZVertical,-0.01244304653478124,0.04574978249826056,0.05170202922060751,0.9975364906912417,0.09256081283092499,0.02009407244622707,-0.9955042600631714,0,0,0,-1,-1,4642.37182275,unknown,2,2022-06-30T09:45:42.656+02:00,2022-06-30T08:20:05.567+02:00,1379,1.385177,0,0,1089.191,0,0,2022-06-30T09:44:05.799+02:00
2022-06-30T09:45:44.099+02:00,4643.816053500001,0.1092071533203125,0.417724609375,-1.145278930664062,4643.806102500001,0.1025858106719789,0.09883824751108193,-0.04047487605639861,-1.784392356872559,0.7023392915725708,-0.4083789587020874,-0.0795082300901413,0.2259849309921265,-0.009861171245574951,XArbitraryZVertical,-0.02271695706052164,0.04828769268635058,0.05019900731174772,0.9973125850835366,0.09859658777713776,0.04046382755041122,-0.9943044781684875,0,0,0,-1,-1,4642.37182275,unknown,2,2022-06-30T09:45:42.656+02:00,2022-06-30T08:20:05.567+02:00,1379,1.385177,0,0,1089.191,0,0,2022-06-30T09:44:05.799+02:00
2022-06-30T09:45:44.109+02:00,4643.8260055,0.183349609375,0.35919189453125,-1.171249389648438,4643.816053500001,0.1000739100078204,0.1061954007663909,-0.05605504395089234,-1.283889651298523,0.7911801934242249,-0.4067113697528839,-0.06542453169822693,0.339726060628891,-0.09442979097366333,XArbitraryZVertical,-0.03060278103281922,0.05158584298671533,0.0484405307100429,0.9970235056877154,0.1058294251561165,0.05602569133043289,-0.9928047657012939,0,0,0,-1,-1,4642.37182275,unknown,2,2022-06-30T09:45:42.656+02:00,2022-06-30T08:20:05.567+02:00,1379,1.385177,0,0,1089.191,0,0,2022-06-30T09:44:05.799+02:00
2022-06-30T09:45:44.132+02:00,4643.8359565,0.23614501953125,0.2500457763671875,-1.136642456054688,4643.8260055,0.09726347397712008,0.1137742174420956,-0.06717685721151914,-0.8922984600067139,0.7536836862564087,-0.4072107374668121,-0.004066072404384613,0.3505980670452118,-0.1539852023124695,XArbitraryZVertical,-0.03625052655970764,0.05512730483595052,0.04659945388580632,0.9967323911732291,0.1132728531956673,0.06712634116411209,-0.9912937879562378,0,0,0,-1,-1,4642.37182275,unknown,2,2022-06-30T09:45:42.656+02:00,2022-06-30T08:20:05.567+02:00,1379,1.385177,0,0,1089.191,0,0,2022-06-30T09:44:05.799+02:00
2022-06-30T09:45:44.133+02:00,4643.8459085,0.2526702880859375,0.1361541748046875,-1.0721435546875,4643.8359565,0.09397549341076113,0.1203614494173565,-0.07531536733000448,-0.67191082239151,0.6158647537231445,-0.4451529979705811,0.06361857056617737,0.2839474976062775,-0.1812984943389893,XArbitraryZVertical,-0.04036215518633788,0.05827024792564222,0.04459032106005287,0.9964874530562416,0.1197306662797928,0.07524418085813522,-0.989950954914093,0,0,0,-1,-1,4642.37182275,unknown,2,2022-06-30T09:45:42.656+02:00,2022-06-30T08:20:05.567+02:00,1379,1.385177,0,0,1089.191,0,0,2022-06-30T09:44:05.799+02:00
2022-06-30T09:45:44.139+02:00,4643.8558605,0.235076904296875,0.0673828125,-1.010589599609375,4643.8459085,0.09015806308590706,0.1254250003932649,-0.08204318104012326,-0.5894513726234436,0.4749286770820618,-0.4714751243591309,0.1114690229296684,0.1680943965911865,-0.1478351354598999,XArbitraryZVertical,-0.04370972301384364,0.06071062854830569,0.04236979487436361,0.9962973892877167,0.1246756240725517,0.08195117115974426,-0.9888073801994324,0,0,0,-1,-1,4642.37182275,unknown,2,2022-06-30T09:45:42.656+02:00,2022-06-30T08:20:05.567+02:00,1379,1.385177,0,0,1089.191,0,0,2022-06-30T09:44:05.799+02:00
2022-06-30T09:45:44.149+02:00,4643.8658115,0.197906494140625,0.0454864501953125,-0.950531005859375,4643.8558605,0.08650903699469042,0.1293706043270053,-0.08874567563188004,-0.6792746186256409,0.3936062455177307,-0.4129364788532257,0.1241675764322281,0.04752472788095474,-0.08440274000167847,XArbitraryZVertical,-0.04701646485091961,0.06260209094842401,0.04024348015819226,0.9961178849333672,0.1285023391246796,0.08862923085689545,-0.9877408742904663,0,0,0,-1,-1,4642.37182275,unknown,2,2022-06-30T09:45:42.656+02:00,2022-06-30T08:20:05.567+02:00,1379,1.385177,0,0,1089.191,0,0,2022-06-30T09:44:05.799+02:00
2022-06-30T09:45:44.159+02:00,4643.8757635,0.1713104248046875,0.0404510498046875,-0.913909912109375,4643.8658115,0.0839704482337098,0.1328408759378772,-0.09727407376213733,-0.974923849105835,0.3577710092067719,-0.313313215970993,0.1032521426677704,-0.02973814308643341,-0.02408576011657715,XArbitraryZVertical,-0.05125042032857947,0.06419856650798551,0.03860680917325354,0.9958722688389986,0.1318243741989136,0.0971207395195961,-0.9865038990974426,0,0,0,-1,-1,4642.37182275,unknown,2,2022-06-30T09:45:42.656+02:00,2022-06-30T08:20:05.567+02:00,1379,1.385177,0,0,1089.191,0,0,2022-06-30T09:44:05.799+02:00
2022-06-30T09:45:44.169+02:00,4643.8857145,0.1582183837890625,0.079681396484375,-0.924774169921875,4643.8757635,0.08288059916123959,0.1361657389832339,-0.109029931803832,-1.323826789855957,0.3412522673606873,-0.2230655997991562,0.06296682357788086,-0.06332780420780182,0.03432977199554443,XArbitraryZVertical,-0.0571292621578148,0.06561877806607247,0.03756740787629195,0.995499457201283,0.1349393129348755,0.1088140457868576,-0.9848608374595642,0,0,0,-1,-1,4642.37182275,unknown,2,2022-06-30T09:45:42.656+02:00,2022-06-30T08:20:05.567+02:00,1379,1.385177,0,0,1089.191,0,0,2022-06-30T09:44:05.799+02:00
2022-06-30T09:45:44.178+02:00,4643.895666500001,0.1652374267578125,0.2027740478515625,-0.95452880859375,4643.8857145,0.08299865287809884,0.1395099802028487,-0.1233408046131191,-1.50142502784729,0.3389030992984772,-0.1416277289390564,0.03330859541893005,-0.08257746696472168,0.06885123252868652,XArbitraryZVertical,-0.06431460913022431,0.06695533205103382,0.03701593601506495,0.9949927632529664,0.1380014717578888,0.1230283156037331,-0.9827612042427063,0,0,0,-1,-1,4642.37182275,unknown,2,2022-06-30T09:45:42.656+02:00,2022-06-30T08:20:05.567+02:00,1379,1.385177,0,0,1089.191,0,0,2022-06-30T09:44:05.799+02:00
2022-06-30T09:45:44.188+02:00,4643.9056185,0.1844940185546875,0.3394622802734375,-0.9937744140625,4643.895666500001,0.08428093392094273,0.1431528881820403,-0.1381083057381994,-1.438848614692688,0.3615196645259857,-0.01709771156311035,0.01691198348999023,-0.0579884797334671,0.05557245016098022,XArbitraryZVertical,-0.07176712493622787,0.06838219905791762,0.03698985182348685,0.9943868805764217,0.1413060277700424,0.1376696825027466,-0.9803466796875,0,0,0,-1,-1,4642.37182275,unknown,2,2022-06-30T09:45:42.656+02:00,2022-06-30T08:20:05.567+02:00,1379,1.385177,0,0,1089.191,0,0,2022-06-30T09:44:05.799+02:00
2022-06-30T09:45:44.198+02:00,4643.9155695,0.207763671875,0.4166412353515625,-1.028656005859375,4643.9056185,0.08661758139566418,0.1471661734783959,-0.1508587882077159,-1.130634307861328,0.3759502768516541,0.100524790585041,0.02026696503162384,0.05248662829399109,0.02342683076858521,XArbitraryZVertical,-0.07825736568215275,0.06998510818292115,0.03752045069729585,0.9937656759267138,0.14497010409832,0.1502872258424759,-0.9779557585716248,0,0,0,-1,-1,4642.37182275,unknown,2,2022-06-30T09:45:42.656+02:00,2022-06-30T08:20:05.567+02:00,1379,1.385177,0,0,1089.191,0,0,2022-06-30T09:44:05.799+02:00
2022-06-30T09:45:44.208+02:00,4643.9255215,0.2389678955078125,0.411590576171875,-1.026168823242188,4643.9155695,0.08922846828890026,0.151201358259838,-0.1593509437158671,-0.6259425282478333,0.345542848110199,0.1502358168363571,0.03577610850334167,0.180784672498703,-0.01770865917205811,XArbitraryZVertical,-0.08264273414238496,0.07167457454654926,0.03832552150770988,0.9932593568516844,0.148717537522316,0.158677414059639,-0.9760658740997314,0,0,0,-1,-1,4642.37182275,unknown,2,2022-06-30T09:45:42.656+02:00,2022-06-30T08:20:05.567+02:00,1379,1.385177,0,0,1089.191,0,0,2022-06-30T09:44:05.799+02:00
2022-06-30T09:45:44.218+02:00,4643.9354725,0.259857177734375,0.32464599609375,-1.021377563476562,4643.9255215,0.09134509289055046,0.1545236059234036,-0.1629002534087335,-0.155720129609108,0.2518571019172668,0.1544561386108398,0.0558914989233017,0.2544602751731873,-0.05365234613418579,XArbitraryZVertical,-0.0845451216929716,0.0731453023088206,0.03909632882026082,0.9929618886562867,0.1518718004226685,0.1621807366609573,-0.9750037789344788,0,0,0,-1,-1,4642.37182275,unknown,2,2022-06-30T09:45:42.656+02:00,2022-06-30T08:20:05.567+02:00,1379,1.385177,0,0,1089.191,0,0,2022-06-30T09:44:05.799+02:00
2022-06-30T09:45:44.228+02:00,4643.945424500001,0.252044677734375,0.2220458984375,-0.9999847412109375,4643.9354725,0.09286581880235606,0.1566072712495073,-0.1626407674060112,0.1347692757844925,0.1223054677248001,0.1532164067029953,0.08505791425704956,0.249665692448616,-0.05144214630126953,XArbitraryZVertical,-0.08451344779182192,0.07412223411165285,0.03977376040417917,0.9928652187730963,0.1539096087217331,0.1619246900081635,-0.9747267365455627,0,0,0,-1,-1,4642.37182275,unknown,2,2022-06-30T09:45:42.656+02:00,2022-06-30T08:20:05.567+02:00,1379,1.385177,0,0,1089.191,0,0,2022-06-30T09:44:05.799+02:00
2022-06-30T09:45:44.238+02:00,4643.955375500001,0.21539306640625,0.1540985107421875,-0.9770660400390625,4643.945424500001,0.09416737467246072,0.157439785266402,-0.1606424201722841,0.1943417936563492,0.01249481737613678,0.1686805784702301,0.1050853431224823,0.1646934002637863,-0.04646176099777222,XArbitraryZVertical,-0.0835870459354221,0.0745335468139855,0.0404666961807861,0.9928849581137303,0.1547714620828629,0.159952387213707,-0.9749159216880798,0,0,0,-1,-1,4642.37182275,unknown,2,2022-06-30T09:45:42.656+02:00,2022-06-30T08:20:05.567+02:00,1379,1.385177,0,0,1089.191,0,0,2022-06-30T09:44:05.799+02:00
2022-06-30T09:45:44.248+02:00,4643.9653275,0.172515869140625,0.1334381103515625,-0.9664459228515625,4643.955375500001,0.09575951973293562,0.1574923113496057,-0.1589453474675587,0.08285362273454666,-0.0395410992205143,0.2001990973949432,0.09717929363250732,0.06376875936985016,-0.02481037378311157,XArbitraryZVertical,-0.08280544983094351,0.07453873547756994,0.0413245867295036,0.9929147276067027,0.1548650115728378,0.1582769304513931,-0.9751744866371155,0,0,0,-1,-1,4642.37182275,unknown,2,2022-06-30T09:45:42.656+02:00,2022-06-30T08:20:05.567+02:00,1379,1.385177,0,0,1089.191,0,0,2022-06-30T09:44:05.799+02:00
2022-06-30T09:45:44.258+02:00,4643.9752795,0.1468353271484375,0.1523895263671875,-0.9635162353515625,4643.9653275,0.09796599736449356,0.1573947818173826,-0.1585713301218803,-0.07531177997589111,-0.03659724071621895,0.2464510053396225,0.06061352789402008,-0.003809303045272827,-0.001818180084228516,XArbitraryZVertical,-0.08270000012411838,0.07440918146530247,0.04243938649026938,0.9928862297112597,0.1547791808843613,0.1579076200723648,-0.9752479791641235,0,0,0,-1,-1,4642.37182275,unknown,2,2022-06-30T09:45:42.656+02:00,2022-06-30T08:20:05.567+02:00,1379,1.385177,0,0,1089.191,0,0,2022-06-30T09:44:05.799+02:00
2022-06-30T09:45:44.268+02:00,4643.9852305,0.137786865234375,0.1942138671875,-0.981048583984375,4643.9752795,0.1008605155480707,0.1576185182595499,-0.1594345140919539,-0.1721104830503464,-0.003830069210380316,0.2976545393466949,0.01753957569599152,-0.02532202005386353,0.008632361888885498,XArbitraryZVertical,-0.08324072962272758,0.07437617013831739,0.04383149312646267,0.992782956034606,0.1549759209156036,0.1587599217891693,-0.9750783443450928,0,0,0,-1,-1,4642.37182275,unknown,2,2022-06-30T09:45:42.656+02:00,2022-06-30T08:20:05.567+02:00,1379,1.385177,0,0,1089.191,0,0,2022-06-30T09:44:05.799+02:00
2022-06-30T09:45:44.278+02:00,4643.9951825,0.1397705078125,0.2292327880859375,-1.00311279296875,4643.9852305,0.1042691625850271,0.1582917691818481,-0.1606465735978865,-0.160649836063385,0.03428082913160324,0.3316018581390381,-0.00876694917678833,-0.007567152380943298,0.01126670837402344,XArbitraryZVertical,-0.083983872297256,0.07453315410543826,0.04544517324990303,0.9926360145461579,0.155601903796196,0.1599564850330353,-0.9747830629348755,0,0,0,-1,-1,4642.37182275,unknown,2,2022-06-30T09:45:42.656+02:00,2022-06-30T08:20:05.567+02:00,1379,1.385177,0,0,1089.191,0,0,2022-06-30T09:44:05.799+02:00
2022-06-30T09:45:44.288+02:00,4644.0051335,0.1508941650390625,0.2264556884765625,-1.020736694335938,4643.9951825,0.1078920732611005,0.1592622446505415,-0.1613389714108434,-0.08860635012388229,0.04666447266936302,0.3541882634162903,-0.01874375343322754,0.03357373178005219,-0.006526708602905273,XArbitraryZVertical,-0.08448502719523217,0.07484175533790367,0.04717348429264474,0.9924896210517193,0.1565302312374115,0.1606399267911911,-0.9745219945907593,0,0,0,-1,-1,4642.37182275,unknown,2,2022-06-30T09:45:42.656+02:00,2022-06-30T08:20:05.567+02:00,1379,1.385177,0,0,1089.191,0,0,2022-06-30T09:44:05.799+02:00
2022-06-30T09:45:44.298+02:00,4644.0150855,0.1631011962890625,0.1894989013671875,-1.026580810546875,4644.0051335,0.1115166002171495,0.1602458274430426,-0.1612175283831503,-0.0001116348430514336,0.03686856478452682,0.3617471158504486,-0.01772165298461914,0.06871253252029419,-0.02872610092163086,XArbitraryZVertical,-0.08458437670097617,0.07518031954839451,0.04893554381534248,0.9923702914241689,0.1574918031692505,0.1605200618505478,-0.9743868112564087,0,0,0,-1,-1,4642.37182275,unknown,2,2022-06-30T09:45:42.656+02:00,2022-06-30T08:20:05.567+02:00,1379,1.385177,0,0,1089.191,0,0,2022-06-30T09:44:05.799+02:00
2022-06-30T09:45:44.308+02:00,4644.025037500001,0.162567138671875,0.1494903564453125,-1.010910034179688,4644.0150855,0.1150261159858555,0.160994164136649,-0.1602559616964472,0.07422018796205521,0.00600011833012104,0.3590871095657349,-0.007351785898208618,0.0668845921754837,-0.04631620645523071,XArbitraryZVertical,-0.0842584183869251,0.07543361368775636,0.05068582001103666,0.9922908956537522,0.1582455933094025,0.1595708876848221,-0.9744206070899963,0,0,0,-1,-1,4642.37182275,unknown,2,2022-06-30T09:45:42.656+02:00,2022-06-30T08:20:05.567+02:00,1379,1.385177,0,0,1089.191,0,0,2022-06-30T09:44:05.799+02:00
2022-06-30T09:45:44.318+02:00,4644.034988500001,0.152313232421875,0.115570068359375,-0.9698333740234375,4644.025037500001,0.1184542118643191,0.1613753315109229,-0.1588168159279245,0.09547088295221329,-0.03188308328390121,0.361615002155304,0.004447102546691895,0.03134869039058685,-0.05199503898620605,XArbitraryZVertical,-0.08368414851787603,0.07552510833036541,0.05243158929747401,0.9922418381339383,0.158653736114502,0.1581500172615051,-0.9745858311653137,0,0,0,-1,-1,4642.37182275,unknown,2,2022-06-30T09:45:42.656+02:00,2022-06-30T08:20:05.567+02:00,1379,1.385177,0,0,1089.191,0,0,2022-06-30T09:44:05.799+02:00
2022-06-30T09:45:44.328+02:00,4644.0449405,0.136016845703125,0.083404541015625,-0.9205780029296875,4644.034988500001,0.1219796584531702,0.16142914670575,-0.1575108792003175,0.04416348412632942,-0.06146382912993431,0.3737623691558838,0.003827512264251709,-0.007370233535766602,-0.03612977266311646,XArbitraryZVertical,-0.08317125120066549,0.075447868396941,0.05423381520140053,0.9921940379795166,0.1587392389774323,0.1568603813648224,-0.9747803211212158,0,0,0,-1,-1,4642.37182275,unknown,2,2022-06-30T09:45:42.656+02:00,2022-06-30T08:20:05.567+02:00,1379,1.385177,0,0,1089.191,0,0,2022-06-30T09:44:05.799+02:00
2022-06-30T09:45:44.338+02:00,4644.0548915,0.1225738525390625,0.0746307373046875,-0.88482666015625,4644.0449405,0.1257984253364695,0.1613220326784164,-0.1570875719641139,-0.09212591499090195,-0.07105147838592529,0.3935344517230988,-0.006332606077194214,-0.04087242484092712,0.00502932071685791,XArbitraryZVertical,-0.08310234614563344,0.07525035378037338,0.05615066831482691,0.9921081024390007,0.1586454808712006,0.1564422994852066,-0.9748627543449402,0,0,0,-1,-1,4642.37182275,unknown,2,2022-06-30T09:45:42.656+02:00,2022-06-30T08:20:05.567+02:00,1379,1.385177,0,0,1089.191,0,0,2022-06-30T09:44:05.799+02:00
2022-06-30T09:45:44.348+02:00,4644.0648435,0.105926513671875,0.0887451171875,-0.8775482177734375,4644.0548915,0.1301960377040996,0.1613501983654976,-0.1583544789557987,-0.3074328899383545,-0.05279850587248802,0.427849680185318,-0.02262449264526367,-0.07428912818431854,0.05408382415771484,XArbitraryZVertical,-0.0838962573067044,0.07503645289111079,0.05827679080231256,0.9919349268943854,0.1586409658193588,0.1576934903860092,-0.9746618866920471,0,0,0,-1,-1,4642.37182275,unknown,2,2022-06-30T09:45:42.656+02:00,2022-06-30T08:20:05.567+02:00,1379,1.385177,0,0,1089.191,0,0,2022-06-30T09:44:05.799+02:00
2022-06-30T09:45:44.358+02:00,4644.074795500001,0.1057586669921875,0.130584716796875,-0.9014129638671875,4644.0648435,0.1352015608158996,0.1618187914992377,-0.1618072714494293,-0.5263916254043579,-0.003100992646068335,0.440214991569519,-0.03643551468849182,-0.08647158741950989,0.08921754360198975,XArbitraryZVertical,-0.08580859401678219,0.07493162203193744,0.06059142128905825,0.9916405346588782,0.1590089946985245,0.1611021310091019,-0.9740442633628845,0,0,0,-1,-1,4642.37182275,unknown,2,2022-06-30T09:45:42.656+02:00,2022-06-30T08:20:05.567+02:00,1379,1.385177,0,0,1089.191,0,0,2022-06-30T09:44:05.799+02:00
2022-06-30T09:45:44.367+02:00,4644.084746500001,0.116241455078125,0.1781768798828125,-0.9296417236328125,4644.074795500001,0.1406003344592264,0.162912439795292,-0.1670783318074815,-0.6847271323204041,0.05181996151804924,0.4463872611522675,-0.05400808155536652,-0.07755714654922485,0.09547001123428345,XArbitraryZVertical,-0.08865534617307473,0.07504041156827897,0.06299263141822643,0.9912321872210962,0.1599342077970505,0.1663020849227905,-0.9730183482170105,0,0,0,-1,-1,4642.37182275,unknown,2,2022-06-30T09:45:42.656+02:00,2022-06-30T08:20:05.567+02:00,1379,1.385177,0,0,1089.191,0,0,2022-06-30T09:44:05.799+02:00
2022-06-30T09:45:44.377+02:00,4644.0946985,0.1378173828125,0.1949615478515625,-0.9552001953125,4644.084746500001,0.1462621624351372,0.164501988054008,-0.1735971942747126,-0.7788400650024414,0.07445203512907028,0.4460098743438721,-0.05554141104221344,-0.04214204847812653,0.070259690284729,XArbitraryZVertical,-0.09214601272916637,0.07531756719235329,0.06544152304672818,0.9907340204976605,0.1612997055053711,0.1727265864610672,-0.9716727733612061,0,0,0,-1,-1,4642.37182275,unknown,2,2022-06-30T09:45:42.656+02:00,2022-06-30T08:20:05.567+02:00,1379,1.385177,0,0,1089.191,0,0,2022-06-30T09:44:05.799+02:00
2022-06-30T09:45:44.387+02:00,4644.1046495,0.1543121337890625,0.19580078125,-0.96075439453125,4644.0946985,0.1519575999378772,0.1661466015741011,-0.1807420699285113,-0.814309298992157,0.0535079799592495,0.4258370697498322,-0.04644817113876343,-0.001582890748977661,0.04052245616912842,XArbitraryZVertical,-0.0959501645609229,0.0755740418120498,0.06786829102306845,0.990189896396764,0.1626892536878586,0.179759606719017,-0.9701642394065857,0,0,0,-1,-1,4642.37182275,unknown,2,2022-06-30T09:45:42.656+02:00,2022-06-30T08:20:05.567+02:00,1379,1.385177,0,0,1089.191,0,0,2022-06-30T09:44:05.799+02:00
2022-06-30T09:45:44.398+02:00,4644.1146015,0.1588897705078125,0.2021331787109375,-0.9443511962890625,4644.1046495,0.1573616925627612,0.1673734668843906,-0.1880597558354211,-0.8085336685180664,-0.002885518595576286,0.38221076130867,-0.02583888173103333,0.00800815224647522,0.01344066858291626,XArbitraryZVertical,-0.09981438299147798,0.07560836108412911,0.07015460061204523,0.9896457581047965,0.1636558622121811,0.186953216791153,-0.968640923500061,0,0,0,-1,-1,4642.37182275,unknown,2,2022-06-30T09:45:42.656+02:00,2022-06-30T08:20:05.567+02:00,1379,1.385177,0,0,1089.191,0,0,2022-06-30T09:44:05.799+02:00
2022-06-30T09:45:44.407+02:00,4644.124553500001,0.1490020751953125,0.206878662109375,-0.9384002685546875,4644.1146015,0.1623627407524965,0.1679097504758884,-0.1952765499385546,-0.7851387858390808,-0.07378227263689041,0.3547987043857574,-0.009633809328079224,0.001762762665748596,0.006443142890930176,XArbitraryZVertical,-0.1035876415085096,0.07530474265824733,0.0722740814996265,0.9891286038287893,0.1639455556869507,0.1940378397703171,-0.967197597026825,0,0,0,-1,-1,4642.37182275,unknown,2,2022-06-30T09:45:42.656+02:00,2022-06-30T08:20:05.567+02:00,1379,1.385177,0,0,1089.191,0,0,2022-06-30T09:44:05.799+02:00
2022-06-30T09:45:44.417+02:00,4644.134504500001,0.13214111328125,0.217254638671875,-0.9347381591796875,4644.124553500001,0.1671510581548531,0.1678463825001384,-0.202256675723837,-0.7534511685371399,-0.1205305978655815,0.3432099521160126,-0.004764631390571594,0.001252472400665283,0.02149778604507446,XArbitraryZVertical,-0.1072113890117164,0.07470737746618408,0.07432639296480752,0.988635522987429,0.1636539995670319,0.2008805125951767,-0.9658490419387817,0,0,0,-1,-1,4642.37182275,unknown,2,2022-06-30T09:45:42.656+02:00,2022-06-30T08:20:05.567+02:00,1379,1.385177,0,0,1089.191,0,0,2022-06-30T09:44:05.799+02:00
2022-06-30T09:45:44.427+02:00,4644.1444565,0.1211395263671875,0.2205810546875,-0.938751220703125,4644.134504500001,0.1718322631584466,0.167434822494378,-0.2088592949681325,-0.7055562138557434,-0.1416469514369965,0.345552384853363,-0.01403018832206726,-0.0004656165838241577,0.02618712186813354,XArbitraryZVertical,-0.1106280718184926,0.07394380619505257,0.07635974080824857,0.988161394456233,0.1630318909883499,0.207344114780426,-0.9645875096321106,0,0,0,-1,-1,4642.37182275,unknown,2,2022-06-30T09:45:42.656+02:00,2022-06-30T08:20:05.567+02:00,1379,1.385177,0,0,1089.191,0,0,2022-06-30T09:44:05.799+02:00
2022-06-30T09:45:44.437+02:00,4644.1544075,0.12445068359375,0.2241668701171875,-0.9287109375,4644.1444565,0.1765385986969506,0.1669581605609951,-0.2149794588939559,-0.6588870286941528,-0.1471839249134064,0.3597992360591888,-0.03021743893623352,0.003927111625671387,0.02865743637084961,XArbitraryZVertical,-0.1138011456722115,0.07315361178803322,0.07843007233019036,0.9876976408263506,0.1623581647872925,0.2133273631334305,-0.9633957147598267,0,0,0,-1,-1,4642.37182275,unknown,2,2022-06-30T09:45:42.656+02:00,2022-06-30T08:20:05.567+02:00,1379,1.385177,0,0,1089.191,0,0,2022-06-30T09:44:05.799+02:00
2022-06-30T09:45:44.447+02:00,4644.164359500001,0.1367034912109375,0.22845458984375,-0.912353515625,4644.1544075,0.1812477879513862,0.1664335336426518,-0.2207826732423456,-0.6472581624984741,-0.1585877239704132,0.3607908189296722,-0.04050575196743011,0.001587525010108948,0.02349233627319336,XArbitraryZVertical,-0.116812141936883,0.07234016267898737,0.08051815075353885,0.9872379420769229,0.1616449058055878,0.2189933657646179,-0.9622436761856079,0,0,0,-1,-1,4642.37182275,unknown,2,2022-06-30T09:45:42.656+02:00,2022-06-30T08:20:05.567+02:00,1379,1.385177,0,0,1089.191,0,0,2022-06-30T09:44:05.799+02:00
2022-06-30T09:45:44.457+02:00,4644.174310500001,0.1470489501953125,0.2235565185546875,-0.886810302734375,4644.164359500001,0.1858551250515318,0.165734529418149,-0.2267304176278419,-0.6810241341590881,-0.1850457042455673,0.3297090530395508,-0.03630420565605164,-0.0006261169910430908,0.03234368562698364,XArbitraryZVertical,-0.1198794226596555,0.07142524233995116,0.08255882212392382,0.9867681653521335,0.1607545167207718,0.2247928231954575,-0.9610547423362732,0,0,0,-1,-1,4642.37182275,unknown,2,2022-06-30T09:45:42.656+02:00,2022-06-30T08:20:05.567+02:00,1379,1.385177,0,0,1089.191,0,0,2022-06-30T09:44:05.799+02:00
2022-06-30T09:45:44.467+02:00,4644.1842625,0.1531524658203125,0.20257568359375,-0.8642425537109375,4644.174310500001,0.1900550683235447,0.1645727236240762,-0.2331435298452572,-0.7231506109237671,-0.2326444685459137,0.2673794031143188,-0.02269530296325684,-0.002582713961601257,0.04744535684585571,XArbitraryZVertical,-0.1231373880472269,0.07026889772391508,0.08440511570238279,0.9862936602468741,0.1593983918428421,0.2310371398925781,-0.9597989320755005,0,0,0,-1,-1,4642.37182275,unknown,2,2022-06-30T09:45:42.656+02:00,2022-06-30T08:20:05.567+02:00,1379,1.385177,0,0,1089.191,0,0,2022-06-30T09:44:05.799+02:00
2022-06-30T09:45:44.477+02:00,4644.1942145,0.1661376953125,0.1676177978515625,-0.8250732421875,4644.1842625,0.1936198482943039,0.1627360289250795,-0.2402025052562506,-0.7905194759368896,-0.3010256588459015,0.1941517740488052,-0.01031853258609772,-0.01434294879436493,0.07164645195007324,XArbitraryZVertical,-0.1266568285602929,0.06877229657303496,0.08595242476892243,0.9858197806258727,0.1573671102523804,0.2378993183374405,-0.958456814289093,0,0,0,-1,-1,4642.37182275,unknown,2,2022-06-30T09:45:42.656+02:00,2022-06-30T08:20:05.567+02:00,1379,1.385177,0,0,1089.191,0,0,2022-06-30T09:44:05.799+02:00
2022-06-30T09:45:44.487+02:00,4644.2041655,0.1615753173828125,0.122222900390625,-0.7914886474609375,4644.1942145,0.1967928914784986,0.1600086411777151,-0.2483735178463967,-0.9406634569168091,-0.4002743363380432,0.1562042385339737,-0.00128549337387085,-0.04325218498706818,0.09268879890441895,XArbitraryZVertical,-0.1306649345095687,0.06679035426692796,0.08731786833199588,0.9853129212758525,0.1544375717639923,0.2458277195692062,-0.956931471824646,0,0,0,-1,-1,4642.37182275,unknown,2,2022-06-30T09:45:42.656+02:00,2022-06-30T08:20:05.567+02:00,1379,1.385177,0,0,1089.191,0,0,2022-06-30T09:44:05.799+02:00
2022-06-30T09:45:44.497+02:00,4644.214117500001,0.1318359375,0.1182861328125,-0.7982025146484375,4644.2041655,0.1999174479685472,0.1563108661162138,-0.2583831649937361,-1.132238149642944,-0.4899062216281891,0.1292807459831238,0.01562991738319397,-0.0879000723361969,0.1299440264701843,XArbitraryZVertical,-0.1355245371045732,0.06422149635058499,0.08865012175670493,0.984708068540346,0.150507390499115,0.2555177211761475,-0.9550173878669739,0,0,0,-1,-1,4642.37182275,unknown,2,2022-06-30T09:45:42.656+02:00,2022-06-30T08:20:05.567+02:00,1379,1.385177,0,0,1089.191,0,0,2022-06-30T09:44:05.799+02:00
2022-06-30T09:45:44.507+02:00,4644.224068500001,0.0727386474609375,0.186920166015625,-0.841400146484375,4644.214117500001,0.2029645148354477,0.1519721634222532,-0.2698872559727727,-1.23246443271637,-0.5231804847717285,0.1034043356776237,0.0156671553850174,-0.1444000601768494,0.161203920841217,XArbitraryZVertical,-0.1410767569146433,0.06124572402050794,0.08993711559207426,0.9840008700764498,0.1459077596664429,0.26662278175354,-0.9526926279067993,0,0,0,-1,-1,4642.37182275,unknown,2,2022-06-30T09:45:42.656+02:00,2022-06-30T08:20:05.567+02:00,1379,1.385177,0,0,1089.191,0,0,2022-06-30T09:44:05.799+02:00
2022-06-30T09:45:44.517+02:00,4644.2340205,0.0113525390625,0.2621917724609375,-0.940277099609375,4644.224068500001,0.2057495752456106,0.1477583448693524,-0.2820073822365707,-1.230603456497192,-0.4515390694141388,0.0668196901679039,-0.009570300579071045,-0.1599983274936676,0.1518301367759705,XArbitraryZVertical,-0.1469173409381486,0.05830021524617577,0.09107842071583948,0.9832198068111676,0.14140585064888,0.2782842814922333,-0.9500327706336975,0,0,0,-1,-1,4642.37182275,unknown,2,2022-06-30T09:45:42.656+02:00,2022-06-30T08:20:05.567+02:00,1379,1.385177,0,0,1089.191,0,0,2022-06-30T09:44:05.799+02:00
2022-06-30T09:45:44.527+02:00,4644.2439725,-0.00494384765625,0.2572021484375,-1.0513916015625,4644.2340205,0.2077328192516175,0.1445557156829263,-0.2934508979940158,-1.0678870677948,-0.2776859700679779,-0.03870527073740959,-0.0651564747095108,-0.1023373007774353,0.1058670282363892,XArbitraryZVertical,-0.1524387728487059,0.05593564084451122,0.09179704599050394,0.9824494298420192,0.1378947347402573,0.2892573177814484,-0.9472672343254089,0,0,0,-1,-1,4642.37182275,unknown,2,2022-06-30T09:45:42.656+02:00,2022-06-30T08:20:05.567+02:00,1379,1.385177,0,0,1089.191,0,0,2022-06-30T09:44:05.799+02:00
2022-06-30T09:45:44.537+02:00,4644.2539235,0.068389892578125,0.280914306640625,-1.107147216796875,4644.2439725,0.2076685730659922,0.1426102321095638,-0.301657303531242,-0.5258274674415588,-0.1119377389550209,-0.1936306655406952,-0.1243574768304825,-0.03491145372390747,0.004875004291534424,XArbitraryZVertical,-0.1563689030273233,0.05452221862713547,0.0915632979361819,0.9819329322483873,0.1357096284627914,0.297103077173233,-0.9451521635055542,0,0,0,-1,-1,4642.37182275,unknown,2,2022-06-30T09:45:42.656+02:00,2022-06-30T08:20:05.567+02:00,1379,1.385177,0,0,1089.191,0,0,2022-06-30T09:44:05.799+02:00
2022-06-30T09:45:44.547+02:00,4644.263875500001,0.09698486328125,0.263397216796875,-1.10101318359375,4644.2539235,0.2061670133529376,0.1413771089152137,-0.3048141595137812,-0.1082553490996361,-0.05382774770259857,-0.1671195328235626,-0.1393554359674454,-0.04291391372680664,-0.1070061326026917,XArbitraryZVertical,-0.1578183314264971,0.05385722169338263,0.0907883378494598,0.9818096513872623,0.1344112008810043,0.3001159131526947,-0.9443855285644531,0,0,0,-1,-1,4642.37182275,unknown,2,2022-06-30T09:45:42.656+02:00,2022-06-30T08:20:05.567+02:00,1379,1.385177,0,0,1089.191,0,0,2022-06-30T09:44:05.799+02:00
2022-06-30T09:45:44.557+02:00,4644.273826500001,0.0886688232421875,0.18756103515625,-1.070068359375,4644.263875500001,0.2041566195747969,0.1401842964069439,-0.3052890420329789,0.04856595769524574,-0.05311481654644012,-0.2511185705661774,-0.06487520039081573,-0.01965469121932983,-0.1627433300018311,XArbitraryZVertical,-0.157943144377293,0.0534038404502692,0.08987543150148793,0.9818984298279658,0.1332647055387497,0.3005688786506653,-0.9444040060043335,0,0,0,-1,-1,4642.37182275,unknown,2,2022-06-30T09:45:42.656+02:00,2022-06-30T08:20:05.567+02:00,1379,1.385177,0,0,1089.191,0,0,2022-06-30T09:44:05.799+02:00
2022-06-30T09:45:44.567+02:00,4644.2837785,0.0964202880859375,0.15673828125,-1.008590698242188,4644.273826500001,0.2005469917427273,0.1386065360686742,-0.3051997507584924,0.03536107018589973,-0.04224183410406113,-0.4209102094173431,-0.03479373455047607,-0.03708663582801819,-0.1563736200332642,XArbitraryZVertical,-0.1577332057594377,0.05291894310407233,0.08823135778614739,0.9821074763015603,0.131778210401535,0.3004837036132812,-0.9446396231651306,0,0,0,-1,-1,4642.37182275,unknown,2,2022-06-30T09:45:42.656+02:00,2022-06-30T08:20:05.567+02:00,1379,1.385177,0,0,1089.191,0,0,2022-06-30T09:44:05.799+02:00
2022-06-30T09:45:44.576+02:00,4644.2937305,0.0890960693359375,0.1617279052734375,-0.9366607666015625,4644.2837785,0.1956996042529225,0.1366846927620596,-0.3068041351402265,-0.2543738186359406,-0.04230788350105286,-0.5356290340423584,-0.04122821986675262,-0.1144526600837708,-0.1256561279296875,XArbitraryZVertical,-0.1583082766096768,0.05227154585458524,0.08593637774970408,0.9822531570972138,0.1298966556787491,0.3020135462284088,-0.9444123506546021,0,0,0,-1,-1,4642.37182275,unknown,2,2022-06-30T09:45:42.656+02:00,2022-06-30T08:20:05.567+02:00,1379,1.385177,0,0,1089.191,0,0,2022-06-30T09:44:05.799+02:00
2022-06-30T09:45:44.586+02:00,4644.3036815,0.1014862060546875,0.1927490234375,-0.875885009765625,4644.2937305,0.1902259946506396,0.1346035179423287,-0.3118291513637424,-0.5984684824943542,-0.03496938198804855,-0.633270263671875,-0.0313057154417038,-0.1500619649887085,-0.06542599201202393,XArbitraryZVertical,-0.160541151921039,0.05142107886245978,0.08320949534122819,0.9821703895201864,0.1277256160974503,0.3068000972270966,-0.9431648254394531,0,0,0,-1,-1,4642.37182275,unknown,2,2022-06-30T09:45:42.656+02:00,2022-06-30T08:20:05.567+02:00,1379,1.385177,0,0,1089.191,0,0,2022-06-30T09:44:05.799+02:00
2022-06-30T09:45:44.596+02:00,4644.3136335,0.1126861572265625,0.211517333984375,-0.8124847412109375,4644.3036815,0.1846676247020154,0.1324930246957967,-0.3204003798767688,-0.9536689519882202,-0.03372808173298836,-0.6348013281822205,-0.0362870991230011,-0.1532188355922699,0.004130184650421143,XArbitraryZVertical,-0.1645134126854273,0.0503965256373289,0.0803077309809829,0.9818076414740471,0.1253827810287476,0.3149465918540955,-0.9407910704612732,0,0,0,-1,-1,4642.37182275,unknown,2,2022-06-30T09:45:42.656+02:00,2022-06-30T08:20:05.567+02:00,1379,1.385177,0,0,1089.191,0,0,2022-06-30T09:44:05.799+02:00
2022-06-30T09:45:44.606+02:00,4644.3235845,0.115142822265625,0.21075439453125,-0.803985595703125,4644.3136335,0.1795606321190845,0.1304903190150389,-0.3318305404224979,-1.182526350021362,-0.03612509742379189,-0.6414918303489685,-0.02153611183166504,-0.1330253779888153,0.06152451038360596,XArbitraryZVertical,-0.1699053623334118,0.04926829543391722,0.07751579317818801,0.9811709020950339,0.1230219304561615,0.3257742524147034,-0.9374095797538757,0,0,0,-1,-1,4642.37182275,unknown,2,2022-06-30T09:45:42.656+02:00,2022-06-30T08:20:05.567+02:00,1379,1.385177,0,0,1089.191,0,0,2022-06-30T09:44:05.799+02:00
2022-06-30T09:45:44.622+02:00,4644.3335365,0.1360931396484375,0.197723388671875,-0.8771209716796875,4644.3235845,0.1743850233658568,0.128339199360683,-0.3451734842096342,-1.345732927322388,-0.03940504789352417,-0.66094571352005,-0.007752314209938049,-0.126842737197876,0.1207928657531738,XArbitraryZVertical,-0.1762279623556842,0.04800899160954204,0.07464127011535734,0.980340558590708,0.1204380840063095,0.338359922170639,-0.9332776665687561,0,0,0,-1,-1,4642.37182275,unknown,2,2022-06-30T09:45:42.656+02:00,2022-06-30T08:20:05.567+02:00,1379,1.385177,0,0,1089.191,0,0,2022-06-30T09:44:05.799+02:00
2022-06-30T09:45:44.626+02:00,4644.3434875,0.1245269775390625,0.1532745361328125,-0.9564971923828125,4644.3335365,0.1698519427764542,0.1265081468697657,-0.3603286405857086,-1.582154035568237,-0.005540823563933372,-0.5688039064407349,-0.002925954759120941,-0.1418275535106659,0.1243169903755188,XArbitraryZVertical,-0.1834634477183869,0.04679533267027831,0.07199789567953931,0.979268958897859,0.1180683970451355,0.352581799030304,-0.9283027052879333,0,0,0,-1,-1,4642.37182275,unknown,2,2022-06-30T09:45:42.656+02:00,2022-06-30T08:20:05.567+02:00,1379,1.385177,0,0,1089.191,0,0,2022-06-30T09:44:05.799+02:00
2022-06-30T09:45:44.636+02:00,4644.353439500001,0.0860748291015625,0.173004150390625,-0.9610748291015625,4644.3434875,0.1665278831023954,0.1250625337816307,-0.3773192016596406,-1.697965860366821,-0.05487268790602684,-0.4664918780326843,0.02013050019741058,-0.1707063615322113,0.04527384042739868,XArbitraryZVertical,-0.1916324144260989,0.04560206692249237,0.0698533882598675,0.9779151816080915,0.1159622520208359,0.368429571390152,-0.9223949313163757,0,0,0,-1,-1,4642.37182275,unknown,2,2022-06-30T09:45:42.656+02:00,2022-06-30T08:20:05.567+02:00,1379,1.385177,0,0,1089.191,0,0,2022-06-30T09:44:05.799+02:00
2022-06-30T09:45:44.646+02:00,4644.3633915,0.0234222412109375,0.160888671875,-1.001617431640625,4644.353439500001,0.1643535682018121,0.1231604035718957,-0.3952900424318064,-1.857593894004822,-0.1486456841230392,-0.4139916598796844,0.01115084439516068,-0.2318014800548553,-0.0406029224395752,XArbitraryZVertical,-0.2002803852740739,0.04405196287393252,0.0682902099771671,0.9763625026000229,0.1133757457137108,0.3850758671760559,-0.9158943891525269,0,0,0,-1,-1,4642.37182275,unknown,2,2022-06-30T09:45:42.656+02:00,2022-06-30T08:20:05.567+02:00,1379,1.385177,0,0,1089.191,0,0,2022-06-30T09:44:05.799+02:00
2022-06-30T09:45:44.656+02:00,4644.3733425,0.02935791015625,0.0811004638671875,-1.036056518554688,4644.3633915,0.1615759466221555,0.1204183691440413,-0.4151999145848512,-2.041788816452026,-0.1690710633993149,-0.5893344879150391,-0.02384655177593231,-0.2303688526153564,-0.05266547203063965,XArbitraryZVertical,-0.2098191448016806,0.04208564003758437,0.06646238117199264,0.9745704842936065,0.109921008348465,0.4033728539943695,-0.9084094762802124,0,0,0,-1,-1,4642.37182275,unknown,2,2022-06-30T09:45:42.656+02:00,2022-06-30T08:20:05.567+02:00,1379,1.385177,0,0,1089.191,0,0,2022-06-30T09:44:05.799+02:00
2022-06-30T09:45:44.666+02:00,4644.3832945,0.0301361083984375,-0.034515380859375,-1.110519409179688,4644.3733425,0.1572521110613554,0.1168344884275287,-0.4373779086232663,-2.299268245697021,-0.1834069788455963,-0.7034355998039246,-0.08217384666204453,-0.2626771330833435,-0.1019277572631836,XArbitraryZVertical,-0.2203873378569266,0.03980611300709657,0.06391626207539018,0.9725018280937314,0.1055957078933716,0.4235656559467316,-0.899689793586731,0,0,0,-1,-1,4642.37182275,unknown,2,2022-06-30T09:45:42.656+02:00,2022-06-30T08:20:05.567+02:00,1379,1.385177,0,0,1089.191,0,0,2022-06-30T09:44:05.799+02:00
2022-06-30T09:45:44.676+02:00,4644.3932455,-0.0134735107421875,-0.0530548095703125,-1.137985229492188,4644.3832945,0.1523876404130821,0.1125964574727946,-0.4619376730714664,-2.4760901927948,-0.2413989007472992,-0.7310709357261658,-0.07122492045164108,-0.3645831942558289,-0.1465346217155457,XArbitraryZVertical,-0.2320643277115237,0.03721750245927392,0.06113769951736688,0.9700635997353182,0.1005824506282806,0.4456835389137268,-0.8895220160484314,0,0,0,-1,-1,4642.37182275,unknown,2,2022-06-30T09:45:42.656+02:00,2022-06-30T08:20:05.567+02:00,1379,1.385177,0,0,1089.191,0,0,2022-06-30T09:44:05.799+02:00
2022-06-30T09:45:44.686+02:00,4644.403197500001,-0.08258056640625,0.0447540283203125,-1.044418334960938,4644.3932455,0.1469535106530819,0.1071629553304291,-0.4869365078946032,-2.366179704666138,-0.3461765348911285,-0.7951570153236389,-0.06439056992530823,-0.5024361610412598,-0.2318187355995178,XArbitraryZVertical,-0.2438901375903224,0.03416440421826993,0.05826748654011983,0.9674479190391455,0.09452629089355469,0.4679206609725952,-0.8787007927894592,0,0,0,-1,-1,4642.37182275,unknown,2,2022-06-30T09:45:42.656+02:00,2022-06-30T08:20:05.567+02:00,1379,1.385177,0,0,1089.191,0,0,2022-06-30T09:44:05.799+02:00
2022-06-30T09:45:44.696+02:00,4644.4131495,-0.11932373046875,0.1644744873046875,-0.852264404296875,4644.403197500001,0.1397814379947158,0.0998271013516648,-0.5093291908636132,-1.964511871337891,-0.4281598329544067,-0.9257768392562866,-0.1004854366183281,-0.5406466722488403,-0.2692602276802063,XArbitraryZVertical,-0.2543646726433072,0.03059511088727905,0.05495901873555976,0.9650605989114013,0.08701153844594955,0.4875916838645935,-0.8687251210212708,0,0,0,-1,-1,4642.37182275,unknown,2,2022-06-30T09:45:42.656+02:00,2022-06-30T08:20:05.567+02:00,1379,1.385177,0,0,1089.191,0,0,2022-06-30T09:44:05.799+02:00
2022-06-30T09:45:44.706+02:00,4644.4231005,-0.1673126220703125,0.2359619140625,-0.75128173828125,4644.4131495,0.1311016493321943,0.09123143540313133,-0.5279903311520967,-1.661962985992432,-0.4039961993694305,-0.9029157757759094,-0.1612793207168579,-0.4590445160865784,-0.1841895580291748,XArbitraryZVertical,-0.2629916003842248,0.02685079409885651,0.05129548843092691,0.9630593020288367,0.07869838178157806,0.5037983655929565,-0.8602288961410522,0,0,0,-1,-1,4642.37182275,unknown,2,2022-06-30T09:45:42.656+02:00,2022-06-30T08:20:05.567+02:00,1379,1.385177,0,0,1089.191,0,0,2022-06-30T09:44:05.799+02:00
2022-06-30T09:45:44.716+02:00,4644.4330525,-0.2054443359375,0.258026123046875,-0.77923583984375,4644.4231005,0.1230342922749257,0.08394610120336309,-0.5459974900944629,-1.87349808216095,-0.2022340595722198,-0.8011299967765808,-0.1909810304641724,-0.3547965288162231,-0.0006641745567321777,XArbitraryZVertical,-0.2713574526297996,0.02376913544079753,0.04785740063879952,0.9609941913819952,0.07165692746639252,0.5192708373069763,-0.8516003489494324,0,0,0,-1,-1,4642.37182275,unknown,2,2022-06-30T09:45:42.656+02:00,2022-06-30T08:20:05.567+02:00,1379,1.385177,0,0,1089.191,0,0,2022-06-30T09:44:05.799+02:00
2022-06-30T09:45:44.726+02:00,4644.4430035,-0.2865447998046875,0.318206787109375,-1.057723999023438,4644.4330525,0.1157070729488477,0.07932413095238315,-0.5670281612535041,-2.227193355560303,0.06054981425404549,-0.8190897703170776,-0.2341528236865997,-0.3011659383773804,0.08956670761108398,XArbitraryZVertical,-0.2812447162516041,0.02184332709594106,0.04439604234156409,0.958359675598029,0.06683982908725739,0.537127673625946,-0.8408485651016235,0,0,0,-1,-1,4642.37182275,unknown,2,2022-06-30T09:45:42.656+02:00,2022-06-30T08:20:05.567+02:00,1379,1.385177,0,0,1089.191,0,0,2022-06-30T09:44:05.799+02:00
2022-06-30T09:45:44.736+02:00,4644.4529555,-0.3125457763671875,0.4146270751953125,-1.34576416015625,4644.4430035,0.1053151364796654,0.07559284782055656,-0.5900098624897496,-2.120221853256226,0.3425295650959015,-1.335989713668823,-0.2681976556777954,-0.298343300819397,0.04932630062103271,XArbitraryZVertical,-0.2920371647391304,0.02081302292454806,0.03935229088891487,0.9553703529359331,0.06275295466184616,0.5563692450523376,-0.8285622000694275,0,0,0,-1,-1,4642.37182275,unknown,2,2022-06-30T09:45:42.656+02:00,2022-06-30T08:20:05.567+02:00,1379,1.385177,0,0,1089.191,0,0,2022-06-30T09:44:05.799+02:00
2022-06-30T09:45:44.746+02:00,4644.4629075,-0.2975006103515625,0.53668212890625,-1.664901733398438,4644.4529555,0.08803664319334223,0.07077606656754906,-0.6080330892150921,-1.234465479850769,0.692889928817749,-1.695101141929626,-0.3445878028869629,-0.2530475854873657,-0.2390057444572449,XArbitraryZVertical,-0.3003632428970057,0.02056085491326323,0.0313787588808731,0.9530868710371757,0.05804261192679405,0.5712541937828064,-0.8187183737754822,0,0,0,-1,-1,4642.37182275,unknown,2,2022-06-30T09:45:42.656+02:00,2022-06-30T08:20:05.567+02:00,1379,1.385177,0,0,1089.191,0,0,2022-06-30T09:44:05.799+02:00
2022-06-30T09:45:44.756+02:00,4644.4728585,-0.3356170654296875,0.630584716796875,-1.629653930664062,4644.4629075,0.06859560330480352,0.06888279714672293,-0.6153444465415103,-0.02123855799436569,1.184592485427856,-1.576084494590759,-0.3687496185302734,-0.1626129150390625,-0.531126081943512,XArbitraryZVertical,-0.3036087356021752,0.02241969348528353,0.02223935269269924,0.9522733603780247,0.05620347708463669,0.5772398114204407,-0.8146381974220276,0,0,0,-1,-1,4642.37182275,unknown,2,2022-06-30T09:45:42.656+02:00,2022-06-30T08:20:05.567+02:00,1379,1.385177,0,0,1089.191,0,0,2022-06-30T09:44:05.799+02:00
2022-06-30T09:45:44.766+02:00,4644.482810500001,-0.3648529052734375,0.4337005615234375,-1.442581176757812,4644.4728585,0.04957541667433397,0.07147497960188984,-0.6143012689192631,0.28525510430336,1.510342240333557,-1.557762861251831,-0.3558589220046997,-0.03970575332641602,-0.8498119115829468,XArbitraryZVertical,-0.3029021208196708,0.02655836516352775,0.01281072000583864,0.9525653674758263,0.05835794657468796,0.5763877034187317,-0.8150899410247803,0,0,0,-1,-1,4642.37182275,unknown,2,2022-06-30T09:45:42.656+02:00,2022-06-30T08:20:05.567+02:00,1379,1.385177,0,0,1089.191,0,0,2022-06-30T09:44:05.799+02:00
2022-06-30T09:45:44.775+02:00,4644.492761500001,-0.3562164306640625,0.218536376953125,-1.351303100585938,4644.482810500001,0.02962214055294577,0.07586698985109892,-0.6152858944037884,-0.3005324602127075,1.703474164009094,-1.724841594696045,-0.3975116312503815,0.05339252948760986,-0.8153945803642273,XArbitraryZVertical,-0.3030973465742136,0.03165828451426916,0.002622276574374865,0.9524300521634328,0.06189421191811562,0.5771920084953308,-0.8142595291137695,0,0,0,-1,-1,4642.37182275,unknown,2,2022-06-30T09:45:42.656+02:00,2022-06-30T08:20:05.567+02:00,1379,1.385177,0,0,1089.191,0,0,2022-06-30T09:44:05.799+02:00
2022-06-30T09:45:44.785+02:00,4644.5027135,-0.3005828857421875,0.2553863525390625,-1.211273193359375,4644.492761500001,0.008282697421230865,0.0818349605768776,-0.6239051723713512,-1.164307832717896,1.996084690093994,-1.882194876670837,-0.4311966598033905,-0.1505087018013,-0.6336942315101624,XArbitraryZVertical,-0.3068192584029268,0.03766145650150374,-0.008616519138507662,0.9509833889538739,0.06634341180324554,0.5842090845108032,-0.8088871240615845,0,0,0,-1,-1,4642.37182275,unknown,2,2022-06-30T09:45:42.656+02:00,2022-06-30T08:20:05.567+02:00,1379,1.385177,0,0,1089.191,0,0,2022-06-30T09:44:05.799+02:00
2022-06-30T09:45:44.796+02:00,4644.5126645,-0.2283477783203125,0.44952392578125,-1.061172485351562,4644.5027135,-0.01358631888569727,0.09005706895083818,-0.6416176232034961,-2.07719612121582,2.250077724456787,-1.931292414665222,-0.4282665848731995,-0.3799559473991394,-0.5534210801124573,XArbitraryZVertical,-0.3147171306023331,0.04485571224404981,-0.02063390456591556,0.947900500444198,0.0720498189330101,0.5984921455383301,-0.7978821992874146,0,0,0,-1,-1,4642.37182275,unknown,2,2022-06-30T09:45:42.656+02:00,2022-06-30T08:20:05.567+02:00,1379,1.385177,0,0,1089.191,0,0,2022-06-30T09:44:05.799+02:00
2022-06-30T09:45:44.805+02:00,4644.5226165,-0.17620849609375,0.6425628662109375,-0.97802734375,4644.5126645,-0.03423152428202052,0.1008561744260257,-0.6680527771238082,-2.866565465927124,2.455190420150757,-1.837104201316833,-0.3796241283416748,-0.3640723824501038,-0.4302331805229187,XArbitraryZVertical,-0.3265697430222251,0.05321774257138918,-0.03267182154225047,0.9431080300899279,0.07904090732336044,0.6194585561752319,-0.7810401320457458,0,0,0,-1,-1,4642.37182275,unknown,2,2022-06-30T09:45:42.656+02:00,2022-06-30T08:20:05.567+02:00,1379,1.385177,0,0,1089.191,0,0,2022-06-30T09:44:05.799+02:00
2022-06-30T09:45:44.815+02:00,4644.532568500001,-0.1398468017578125,0.851287841796875,-0.9351348876953125,4644.5226165,-0.0525431321795321,0.114797424175668,-0.7005844918568868,-3.273666858673096,2.684370279312134,-1.695842504501343,-0.3159141540527344,-0.1951408982276917,-0.3017388582229614,XArbitraryZVertical,-0.3410734706723255,0.0628646210629293,-0.04431272082137735,0.9368849695859398,0.08756604790687561,0.6446646451950073,-0.7594338655471802,0,0,0,-1,-1,4642.37182275,unknown,2,2022-06-30T09:45:42.656+02:00,2022-06-30T08:20:05.567+02:00,1379,1.385177,0,0,1089.191,0,0,2022-06-30T09:44:05.799+02:00
2022-06-30T09:45:44.825+02:00,4644.542519500001,-0.1065826416015625,1.059600830078125,-0.9305267333984375,4644.532568500001,-0.0686023284243833,0.1322459298871503,-0.7351288007793141,-3.271842479705811,2.958513975143433,-1.570786952972412,-0.2740158140659332,-0.02812004089355469,-0.2427598834037781,XArbitraryZVertical,-0.3562327372583398,0.07392162915674155,-0.05566339677151918,0.9298039893881069,0.09780700504779816,0.6706826686859131,-0.7352676391601562,0,0,0,-1,-1,4642.37182275,unknown,2,2022-06-30T09:45:42.656+02:00,2022-06-30T08:20:05.567+02:00,1379,1.385177,0,0,1089.191,0,0,2022-06-30T09:44:05.799+02:00
2022-06-30T09:45:44.835+02:00,4644.5524715,-0.050506591796875,1.195114135742188,-0.909423828125,4644.542519500001,-0.08306649204979973,0.1531988665347793,-0.7680517538880367,-2.946962594985962,3.242610454559326,-1.459733366966248,-0.2496072500944138,0.1565524339675903,-0.22429358959198,XArbitraryZVertical,-0.3702894130336614,0.08640020129427559,-0.0670298333586611,0.9224574690209991,0.1097601503133774,0.6947352290153503,-0.7108415365219116,0,0,0,-1,-1,4642.37182275,unknown,2,2022-06-30T09:45:42.656+02:00,2022-06-30T08:20:05.567+02:00,1379,1.385177,0,0,1089.191,0,0,2022-06-30T09:44:05.799+02:00
2022-06-30T09:45:44.845+02:00,4644.5624225,0.0074310302734375,1.20001220703125,-0.8673248291015625,4644.5524715,-0.09618532101220532,0.1774035192391283,-0.7969818632051873,-2.475827932357788,3.476436138153076,-1.327959418296814,-0.2299154102802277,0.3443505764007568,-0.2426268458366394,XArbitraryZVertical,-0.3821305174349164,0.1001309480126351,-0.07846708864035389,0.915310438219768,0.1233324632048607,0.7152500748634338,-0.6879001259803772,0,0,0,-1,-1,4642.37182275,unknown,2,2022-06-30T09:45:42.656+02:00,2022-06-30T08:20:05.567+02:00,1379,1.385177,0,0,1089.191,0,0,2022-06-30T09:44:05.799+02:00
2022-06-30T09:45:44.855+02:00,4644.5723745,0.0662841796875,1.131439208984375,-0.761566162109375,4644.5624225,-0.1081643428198094,0.2039591040334167,-0.8211076310910227,-1.985483288764954,3.593244075775146,-1.219914793968201,-0.1885252594947815,0.4632129669189453,-0.2421371936798096,XArbitraryZVertical,-0.3914173620747946,0.114669095043589,-0.08987813960180562,0.9086062724142511,0.1380183845758438,0.7319010496139526,-0.6672868728637695,0,0,0,-1,-1,4642.37182275,unknown,2,2022-06-30T09:45:42.656+02:00,2022-06-30T08:20:05.567+02:00,1379,1.385177,0,0,1089.191,0,0,2022-06-30T09:44:05.799+02:00
2022-06-30T09:45:44.865+02:00,4644.5823265,0.1261138916015625,1.075546264648438,-0.61041259765625,4644.5723745,-0.1193944118890663,0.2317152710482694,-0.8411994154710005,-1.657601714134216,3.655942916870117,-1.126561522483826,-0.1456450521945953,0.4545689225196838,-0.2185706496238708,XArbitraryZVertical,-0.3985524759354908,0.1295326080322895,-0.1012125258401279,0.9022933590292759,0.1530758142471313,0.7454431653022766,-0.6487544775009155,0,0,0,-1,-1,4642.37182275,unknown,2,2022-06-30T09:45:42.656+02:00,2022-06-30T08:20:05.567+02:00,1379,1.385177,0,0,1089.191,0,0,2022-06-30T09:44:05.799+02:00
2022-06-30T09:45:44.875+02:00,4644.5922775,0.1744537353515625,1.09185791015625,-0.4539642333984375,4644.5823265,-0.129497539152628,0.2605392586462678,-0.8590681873240021,-1.523339509963989,3.664623975753784,-1.043730854988098,-0.1019668728113174,0.374204695224762,-0.1304658651351929,XArbitraryZVertical,-0.4044118539395857,0.1445710512295066,-0.1123111916415526,0.8960671940388752,0.1682507991790771,0.7572342753410339,-0.6311005353927612,0,0,0,-1,-1,4642.37182275,unknown,2,2022-06-30T09:45:42.656+02:00,2022-06-30T08:20:05.567+02:00,1379,1.385177,0,0,1089.191,0,0,2022-06-30T09:44:05.799+02:00
2022-06-30T09:45:44.885+02:00,4644.6022295,0.218994140625,1.160568237304688,-0.31622314453125,4644.5922775,-0.1383207545020755,0.2901275122689708,-0.8759787269658812,-1.429309487342834,3.642966985702515,-0.9711001515388489,-0.05704414844512939,0.3073756098747253,0.003075003623962402,XArbitraryZVertical,-0.4096149561664394,0.1595984610017953,-0.1230870705995848,0.8897154149061256,0.183157816529274,0.7681704759597778,-0.6134878396987915,0,0,0,-1,-1,4642.37182275,unknown,2,2022-06-30T09:45:42.656+02:00,2022-06-30T08:20:05.567+02:00,1379,1.385177,0,0,1089.191,0,0,2022-06-30T09:44:05.799+02:00
2022-06-30T09:45:44.895+02:00,4644.612181666667,0.2575836181640625,1.205245971679688,-0.2473602294921875,4644.6022295,-0.1457606542618262,0.3206401977943656,-0.8915395278883697,-1.264585256576538,3.650521993637085,-0.8627353310585022,-0.02354362607002258,0.3138178586959839,0.1422327160835266,XArbitraryZVertical,-0.4140057048651844,0.1746443854994355,-0.1335016675796098,0.8833322604438659,0.1979971379041672,0.778039813041687,-0.596197247505188,0,0,0,-1,-1,4642.37182275,unknown,2,2022-06-30T09:45:42.656+02:00,2022-06-30T08:20:05.567+02:00,1379,1.385177,0,0,1089.191,0,0,2022-06-30T09:44:05.799+02:00
2022-06-30T09:45:44.905+02:00,4644.622133666667,0.293792724609375,1.210800170898438,-0.2041473388671875,4644.612181666667,-0.1521805827968872,0.3517270207430524,-0.9047208952276227,-0.95555180311203,3.601522207260132,-0.7613022923469543,0.006113499402999878,0.3743153810501099,0.2638530135154724,XArbitraryZVertical,-0.4171407100812807,0.1896190749911022,-0.1435675993961779,0.8771697377554983,0.2128804475069046,0.7862527370452881,-0.5800764560699463,0,0,0,-1,-1,4642.37182275,unknown,2,2022-06-30T09:45:42.656+02:00,2022-06-30T08:20:05.567+02:00,1379,1.385177,0,0,1089.191,0,0,2022-06-30T09:44:05.799+02:00
2022-06-30T09:45:44.915+02:00,4644.632085666667,0.330718994140625,1.1824951171875,-0.1261138916015625,4644.622133666667,-0.1582929331454082,0.3822767013112722,-0.9144967251317082,-0.6258314251899719,3.519155502319336,-0.6313586831092834,0.02996212244033813,0.4129902720451355,0.3187840580940247,XArbitraryZVertical,-0.4186066762379752,0.2041963311290146,-0.1532581947361485,0.8715413698609618,0.2276212871074677,0.7922555804252625,-0.5661446452140808,0,0,0,-1,-1,4642.37182275,unknown,2,2022-06-30T09:45:42.656+02:00,2022-06-30T08:20:05.567+02:00,1379,1.385177,0,0,1089.191,0,0,2022-06-30T09:44:05.799+02:00
2022-06-30T09:45:44.925+02:00,4644.642036666667,0.3674774169921875,1.131927490234375,0.0020294189453125,4644.632085666667,-0.1635122843810654,0.4126779303859955,-0.9212167932618994,-0.3863027393817902,3.423156023025513,-0.469855934381485,0.05120836198329926,0.4144618511199951,0.3499268293380737,XArbitraryZVertical,-0.4186234782299339,0.2184425160283022,-0.1623649682415571,0.8664150509103734,0.2425841987133026,0.7963382005691528,-0.5540745258331299,0,0,0,-1,-1,4642.37182275,unknown,2,2022-06-30T09:45:42.656+02:00,2022-06-30T08:20:05.567+02:00,1379,1.385177,0,0,1089.191,0,0,2022-06-30T09:44:05.799+02:00
2022-06-30T09:45:44.935+02:00,4644.651988666667,0.413543701171875,1.077590942382812,0.1339874267578125,4644.642036666667,-0.1671911044986844,0.4431910907128244,-0.9259432366458237,-0.325905442237854,3.310774803161621,-0.328789621591568,0.07296052575111389,0.3833069205284119,0.4168951511383057,XArbitraryZVertical,-0.4177470204471284,0.2323418159964281,-0.1706972858697655,0.8616073966877635,0.2577582895755768,0.7991880774497986,-0.5430094003677368,0,0,0,-1,-1,4642.37182275,unknown,2,2022-06-30T09:45:42.656+02:00,2022-06-30T08:20:05.567+02:00,1379,1.385177,0,0,1089.191,0,0,2022-06-30T09:44:05.799+02:00
2022-06-30T09:45:44.945+02:00,4644.661939666667,0.4678497314453125,1.059814453125,0.2897186279296875,4644.651988666667,-0.1688889964671538,0.4739179539910514,-0.9301338981445271,-0.3479276597499847,3.127907991409302,-0.2182665765285492,0.09468919038772583,0.3302273750305176,0.5338785648345947,XArbitraryZVertical,-0.4167002235947491,0.2458376944321811,-0.1781846223178631,0.8568401798905444,0.2727880775928497,0.8016999959945679,-0.5318495035171509,0,0,0,-1,-1,4642.37182275,unknown,2,2022-06-30T09:45:42.656+02:00,2022-06-30T08:20:05.567+02:00,1379,1.385177,0,0,1089.191,0,0,2022-06-30T09:44:05.799+02:00
2022-06-30T09:45:44.955+02:00,4644.671891666667,0.50372314453125,1.078903198242188,0.4615325927734375,4644.661939666667,-0.1681581244701452,0.5044453317894495,-0.9341751253141247,-0.4254868924617767,2.894890546798706,-0.07559490948915482,0.126217395067215,0.2734818458557129,0.6544219851493835,XArbitraryZVertical,-0.4157874565927119,0.2586568052683758,-0.1845873251177978,0.8521414388479109,0.2873261868953705,0.8041089773178101,-0.5204349160194397,0,0,0,-1,-1,4642.37182275,unknown,2,2022-06-30T09:45:42.656+02:00,2022-06-30T08:20:05.567+02:00,1379,1.385177,0,0,1089.191,0,0,2022-06-30T09:44:05.799+02:00
2022-06-30T09:45:44.965+02:00,4644.681843666667,0.5401763916015625,1.0799560546875,0.5973968505859375,4644.671891666667,-0.1643149676513137,0.5352600728678676,-0.9384099028345002,-0.5528767108917236,2.681255102157593,0.05169240385293961,0.1663648784160614,0.25319504737854,0.7981201410293579,XArbitraryZVertical,-0.4152525262821278,0.2708586585096419,-0.1897637686442688,0.8474613583921601,0.3014847338199615,0.8066192865371704,-0.5084018707275391,0,0,0,-1,-1,4642.37182275,unknown,2,2022-06-30T09:45:42.656+02:00,2022-06-30T08:20:05.567+02:00,1379,1.385177,0,0,1089.191,0,0,2022-06-30T09:44:05.799+02:00
2022-06-30T09:45:44.974+02:00,4644.691794666667,0.5794525146484375,1.064773559570312,0.71392822265625,4644.681843666667,-0.1573457221561645,0.5662068698429182,-0.9431427251027987,-0.6977377533912659,2.401983737945557,0.1630495637655258,0.188703179359436,0.26949542760849,0.9571347832679749,XArbitraryZVertical,-0.4152962788092745,0.2823610199957018,-0.1937333367837047,0.8427744257906409,0.315019816160202,0.809407651424408,-0.4956025183200836,0,0,0,-1,-1,4642.37182275,unknown,2,2022-06-30T09:45:42.656+02:00,2022-06-30T08:20:05.567+02:00,1379,1.385177,0,0,1089.191,0,0,2022-06-30T09:44:05.799+02:00
2022-06-30T09:45:44.984+02:00,4644.701746666667,0.5916900634765625,1.037017822265625,0.7883148193359375,4644.691794666667,-0.1467956275782417,0.5970100668361747,-0.9484610370218807,-0.8957015872001648,2.072409629821777,0.2900978624820709,0.2124667763710022,0.2674366235733032,1.079494953155518,XArbitraryZVertical,-0.4160979978492216,0.2929389598205179,-0.1962907894209054,0.8381642274278291,0.3277094960212708,0.812519371509552,-0.4820984303951263,0,0,0,-1,-1,4642.37182275,unknown,2,2022-06-30T09:45:42.656+02:00,2022-06-30T08:20:05.567+02:00,1379,1.385177,0,0,1089.191,0,0,2022-06-30T09:44:05.799+02:00
2022-06-30T09:45:44.994+02:00,4644.711697666667,0.578887939453125,0.99493408203125,0.8239898681640625,4644.701746666667,-0.1321782540121013,0.6275575968488913,-0.9549114913253817,-1.151305675506592,1.665408611297607,0.3582998216152191,0.2402557134628296,0.2485107779502869,1.181540012359619,XArbitraryZVertical,-0.4180258504999452,0.3024042836129772,-0.197315363553467,0.8335903039331072,0.3391967117786407,0.8162626028060913,-0.467612087726593,0,0,0,-1,-1,4642.37182275,unknown,2,2022-06-30T09:45:42.656+02:00,2022-06-30T08:20:05.567+02:00,1379,1.385177,0,0,1089.191,0,0,2022-06-30T09:44:05.799+02:00
2022-06-30T09:45:45.004+02:00,4644.721649666667,0.54693603515625,0.9646759033203125,0.849578857421875,4644.711697666667,-0.1137115131758954,0.6567167187305436,-0.9627926251301748,-1.398783683776855,1.158109903335571,0.4072934687137604,0.2429426610469818,0.2162277698516846,1.240729331970215,XArbitraryZVertical,-0.4213286148532421,0.3102817587734369,-0.1967528590438583,0.829153690590832,0.3487473130226135,0.8207899928092957,-0.452414870262146,0,0,0,-1,-1,4642.37182275,unknown,2,2022-06-30T09:45:42.656+02:00,2022-06-30T08:20:05.567+02:00,1379,1.385177,0,0,1089.191,0,0,2022-06-30T09:44:05.799+02:00
2022-06-30T09:45:45.014+02:00,4644.731600666667,0.51397705078125,0.98370361328125,0.89276123046875,4644.721649666667,-0.09127679644332301,0.6841307753656337,-0.9716285767481287,-1.582354664802551,0.6489466428756714,0.5065947771072388,0.222468227148056,0.1691286563873291,1.261037230491638,XArbitraryZVertical,-0.4258858788458721,0.3163816515211614,-0.1944668754124639,0.8250493679004024,0.356419563293457,0.8258052468299866,-0.4370477497577667,0,0,0,-1,-1,4642.37182275,unknown,2,2022-06-30T09:45:42.656+02:00,2022-06-30T08:20:05.567+02:00,1379,1.385177,0,0,1089.191,0,0,2022-06-30T09:44:05.799+02:00
2022-06-30T09:45:45.024+02:00,4644.741552666667,0.481201171875,1.032867431640625,0.9333038330078125,4644.731600666667,-0.0648194185203213,0.71005112976345,-0.980748021652772,-1.73429799079895,0.1592398434877396,0.60157710313797,0.1842333376407623,0.1337618827819824,1.271513342857361,XArbitraryZVertical,-0.4314173420867355,0.3207984963473707,-0.1904278614593642,0.8214039986973077,0.3627025783061981,0.830913782119751,-0.4219348132610321,0,0,0,-1,-1,4642.37182275,unknown,2,2022-06-30T09:45:42.656+02:00,2022-06-30T08:20:05.567+02:00,1379,1.385177,0,0,1089.191,0,0,2022-06-30T09:44:05.799+02:00
2022-06-30T09:45:45.034+02:00,4644.751504666667,0.4406890869140625,1.074966430664062,0.954986572265625,4644.741552666667,-0.03533155082054994,0.7334087432461452,-0.9898445081044183,-1.794278264045715,-0.4066027998924255,0.6485704183578491,0.1465937495231628,0.1477627754211426,1.300477385520935,XArbitraryZVertical,-0.4377420979309922,0.3233010983857693,-0.1847788232003419,0.8183611560961823,0.3673831820487976,0.8359406590461731,-0.4077165126800537,0,0,0,-1,-1,4642.37182275,unknown,2,2022-06-30T09:45:42.656+02:00,2022-06-30T08:20:05.567+02:00,1379,1.385177,0,0,1089.191,0,0,2022-06-30T09:44:05.799+02:00
2022-06-30T09:45:45.044+02:00,4644.761455666667,0.398193359375,1.103591918945312,1.037704467773438,4644.751504666667,-0.004806251734189299,0.7519401586294797,-0.9983507994974573,-1.716440916061401,-1.004803061485291,0.6712495684623718,0.1111962199211121,0.1922885775566101,1.328934550285339,XArbitraryZVertical,-0.4444892718393255,0.3234405078250994,-0.1777292572057969,0.8162279019923935,0.3700048327445984,0.8405787944793701,-0.3956310451030731,0,0,0,-1,-1,4642.37182275,unknown,2,2022-06-30T09:45:42.656+02:00,2022-06-30T08:20:05.567+02:00,1379,1.385177,0,0,1089.191,0,0,2022-06-30T09:44:05.799+02:00
2022-06-30T09:45:45.054+02:00,4644.771407666667,0.362396240234375,1.117507934570312,1.178131103515625,4644.761455666667,0.02548361530527972,0.7644314740894416,-1.005519543760416,-1.604570388793945,-1.614268779754639,0.7289906144142151,0.06995156407356262,0.2305259108543396,1.341605186462402,XArbitraryZVertical,-0.4512038237928259,0.321100658315798,-0.1693437399868816,0.8152497413390767,0.3707373738288879,0.8444404006004333,-0.3866189420223236,0,0,0,-1,-1,4642.37182275,unknown,2,2022-06-30T09:45:42.656+02:00,2022-06-30T08:20:05.567+02:00,1379,1.385177,0,0,1089.191,0,0,2022-06-30T09:44:05.799+02:00
2022-06-30T09:45:45.064+02:00,4644.781358666667,0.3214111328125,1.077194213867188,1.28741455078125,4644.771407666667,0.05663374320937552,0.7715910223657592,-1.012082588531921,-1.699713230133057,-2.249561786651611,0.7558214068412781,0.02856972813606262,0.2556541562080383,1.417678117752075,XArbitraryZVertical,-0.4582301786573215,0.3162880516872986,-0.1593802559836466,0.8152207645207307,0.3696234822273254,0.8479376435279846,-0.3799739480018616,0,0,0,-1,-1,4642.37182275,unknown,2,2022-06-30T09:45:42.656+02:00,2022-06-30T08:20:05.567+02:00,1379,1.385177,0,0,1089.191,0,0,2022-06-30T09:44:05.799+02:00
2022-06-30T09:45:45.074+02:00,4644.791310666667,0.251953125,1.012237548828125,1.279098510742188,4644.781358666667,0.09081835695052613,0.7747623723123417,-1.01994536011044,-1.975422382354736,-2.957409381866455,0.722208559513092,-0.003755301237106323,0.2654285430908203,1.552154779434204,XArbitraryZVertical,-0.4664821517552967,0.3088403574452814,-0.1475350826887344,0.8156258988791562,0.3661514222621918,0.852079451084137,-0.3740240633487701,0,0,0,-1,-1,4642.37182275,unknown,2,2022-06-30T09:45:42.656+02:00,2022-06-30T08:20:05.567+02:00,1379,1.385177,0,0,1089.191,0,0,2022-06-30T09:44:05.799+02:00
2022-06-30T09:45:45.084+02:00,4644.801262666667,0.1673431396484375,1.01141357421875,1.216537475585938,4644.791310666667,0.1285137028920385,0.7735940616098298,-1.030364917939292,-2.276820659637451,-3.753052949905396,0.6379381418228149,-0.03808006644248962,0.2197073698043823,1.655493974685669,XArbitraryZVertical,-0.4764312338210521,0.298284064237217,-0.1337223762431803,0.8161852496186853,0.3594910800457001,0.8574867844581604,-0.3680797815322876,0,0,0,-1,-1,4642.37182275,unknown,2,2022-06-30T09:45:42.656+02:00,2022-06-30T08:20:05.567+02:00,1379,1.385177,0,0,1089.191,0,0,2022-06-30T09:44:05.799+02:00
2022-06-30T09:45:45.094+02:00,4644.811213666667,0.0641326904296875,1.027069091796875,1.10784912109375,4644.801262666667,0.1706851940745328,0.7688147350180179,-1.043684355730587,-2.657758474349976,-4.487541675567627,0.5995734930038452,-0.09780228137969971,0.1479740738868713,1.640650391578674,XArbitraryZVertical,-0.4881285752208698,0.2845247932831613,-0.1177525385982325,0.8166459333235913,0.3497552871704102,0.8642634749412537,-0.3615522682666779,0,0,0,-1,-1,4642.37182275,unknown,2,2022-06-30T09:45:42.656+02:00,2022-06-30T08:20:05.567+02:00,1379,1.385177,0,0,1089.191,0,0,2022-06-30T09:44:05.799+02:00
2022-06-30T09:45:45.104+02:00,4644.821165666667,-0.02618408203125,1.0216064453125,0.9686279296875,4644.811213666667,0.2182428743270454,0.7619296312034665,-1.060196050451627,-3.010812282562256,-5.188289165496826,0.5258939266204834,-0.1700165569782257,0.1389621496200562,1.570114850997925,XArbitraryZVertical,-0.5015119583686182,0.2677627503957616,-0.09965645730454992,0.8166133641471537,0.3373594582080841,0.8724513053894043,-0.353577733039856,0,0,0,-1,-1,4642.37182275,unknown,2,2022-06-30T09:45:42.656+02:00,2022-06-30T08:20:05.567+02:00,1379,1.385177,0,0,1089.191,0,0,2022-06-30T09:44:05.799+02:00
2022-06-30T09:45:45.116+02:00,4644.831116666667,-0.1339111328125,1.00726318359375,0.86456298828125,4644.821165666667,0.2701037549216962,0.7522428143397668,-1.079595826583965,-3.244471549987793,-5.894153594970703,0.4398176372051239,-0.2581594586372375,0.145301878452301,1.452253341674805,XArbitraryZVertical,-0.5161059015161877,0.2478555815939175,-0.07964386497119648,0.8160019881950831,0.3222919702529907,0.881767213344574,-0.3444046080112457,0,0,0,-1,-1,4642.37182275,unknown,2,2022-06-30T09:45:42.656+02:00,2022-06-30T08:20:05.567+02:00,1379,1.385177,0,0,1089.191,0,0,2022-06-30T09:44:05.799+02:00
2022-06-30T09:45:45.125+02:00,4644.841068666667,-0.2767181396484375,0.9733734130859375,0.875823974609375,4644.831116666667,0.3247308050419871,0.7382588119651251,-1.101169387895921,-3.402517318725586,-6.647725105285645,0.365462064743042,-0.3307533860206604,0.1298691630363464,1.303354978561401,XArbitraryZVertical,-0.5312328135571408,0.2245617750524649,-0.05780038259358707,0.8148759313084762,0.3045690655708313,0.891737163066864,-0.33472740650177,0,0,0,-1,-1,4642.37182275,unknown,2,2022-06-30T09:45:42.656+02:00,2022-06-30T08:20:05.567+02:00,1379,1.385177,0,0,1089.191,0,0,2022-06-30T09:44:05.799+02:00
2022-06-30T09:45:45.134+02:00,4644.851020666667,-0.462860107421875,0.8829345703125,0.878448486328125,4644.841068666667,0.3835294832778815,0.7211567315254735,-1.124926254449329,-3.636020183563232,-7.374404907226562,0.3513861894607544,-0.4186412394046783,0.1050273180007935,1.188444495201111,XArbitraryZVertical,-0.5467162043416054,0.1978901195937251,-0.03383600282139418,0.8128935688641408,0.2847298383712769,0.9022358059883118,-0.3238817751407623,0,0,0,-1,-1,4642.37182275,unknown,2,2022-06-30T09:45:42.656+02:00,2022-06-30T08:20:05.567+02:00,1379,1.385177,0,0,1089.191,0,0,2022-06-30T09:44:05.799+02:00
2022-06-30T09:45:45.144+02:00,4644.860971666667,-0.662261962890625,0.820831298828125,0.85467529296875,4644.851020666667,0.4469154630793369,0.7021017642458255,-1.150933583850353,-3.803132057189941,-7.999718189239502,0.2748983204364777,-0.5399789810180664,0.06022852659225464,1.187047719955444,XArbitraryZVertical,-0.5622611857237642,0.1680784677319405,-0.007925407468586061,0.8096599428708864,0.2632605135440826,0.9131448864936829,-0.3112239837646484,0,0,0,-1,-1,4642.37182275,unknown,2,2022-06-30T09:45:42.656+02:00,2022-06-30T08:20:05.567+02:00,1379,1.385177,0,0,1089.191,0,0,2022-06-30T09:44:05.799+02:00
2022-06-30T09:45:45.154+02:00,4644.870923666667,-0.9364471435546875,0.865570068359375,0.6180877685546875,4644.860971666667,0.5126219193087185,0.6802103089184803,-1.178929702441204,-3.831034421920776,-8.516366004943848,0.1660583913326263,-0.7030680179595947,-0.0412631630897522,1.175364017486572,XArbitraryZVertical,-0.5772492751358868,0.1353713598004896,0.01927186404041928,0.8050382537548142,0.2402075827121735,0.924197793006897,-0.296915739774704,0,0,0,-1,-1,4642.37182275,unknown,2,2022-06-30T09:45:42.656+02:00,2022-06-30T08:20:05.567+02:00,1379,1.385177,0,0,1089.191,0,0,2022-06-30T09:44:05.799+02:00
2022-06-30T09:45:45.163+02:00,4644.880874666667,-1.330490112304688,1.137054443359375,-0.0008087158203125,4644.870923666667,0.5779085828987945,0.6549564845680996,-1.207497061442581,-3.648766279220581,-8.687222480773926,0.07786275446414948,-0.8787211179733276,-0.1138980984687805,1.136502265930176,XArbitraryZVertical,-0.5907273067034451,0.1006361262028064,0.04706467834188777,0.7991862649933572,0.216458797454834,0.9347294569015503,-0.2818272411823273,0,0,0,-1,-1,4642.37182275,unknown,2,2022-06-30T09:45:42.656+02:00,2022-06-30T08:20:05.567+02:00,1379,1.385177,0,0,1089.191,0,0,2022-06-30T09:44:05.799+02:00
2022-06-30T09:45:45.173+02:00,4644.890826666667,-1.70013427734375,1.645843505859375,-0.819366455078125,4644.880874666667,0.6381452425270642,0.6266483237000986,-1.235187104761571,-3.245449542999268,-8.312252998352051,-0.09136968106031418,-1.129586219787598,-0.07863962650299072,0.884856104850769,XArbitraryZVertical,-0.6019021653302059,0.06579878149830357,0.07381409369091547,0.7924241270044522,0.1931388080120087,0.9442098140716553,-0.266768604516983,0,0,0,-1,-1,4642.37182275,unknown,2,2022-06-30T09:45:42.656+02:00,2022-06-30T08:20:05.567+02:00,1379,1.385177,0,0,1089.191,0,0,2022-06-30T09:44:05.799+02:00
2022-06-30T09:45:45.183+02:00,4644.900777666667,-3.9996337890625,2.0438232421875,-4.015594482421875,4644.890826666667,0.6813150820769106,0.5878735740948253,-1.258387547463927,-1.788036942481995,-7.773585319519043,-0.2363143563270569,-1.500945568084717,0.1854584813117981,0.2549452483654022,XArbitraryZVertical,-0.6091474224921739,0.03259384315373592,0.09783877330981527,0.7863235045630979,0.1704550832509995,0.9515959620475769,-0.2557541131973267,0,0,0,-1,-1,4642.37182275,unknown,2,2022-06-30T09:45:42.656+02:00,2022-06-30T08:20:05.567+02:00,1379,1.385177,0,0,1089.191,0,0,2022-06-30T09:44:05.799+02:00
2022-06-30T09:45:45.193+02:00,4644.910729666667,-5.339630126953125,4.997161865234375,-12.33934020996094,4644.900777666667,0.6587519485983,0.5313869136490157,-1.264914237617194,1.777980923652649,3.106351852416992,-1.070467829704285,-1.852728247642517,0.6922617554664612,-0.5597572326660156,XArbitraryZVertical,-0.6082286902956975,0.01591204437300267,0.1048613436860599,0.7866439286176535,0.152593582868576,0.953581690788269,-0.2596093416213989,0,0,0,-1,-1,4642.37182275,unknown,2,2022-06-30T09:45:42.656+02:00,2022-06-30T08:20:05.567+02:00,1379,1.385177,0,0,1089.191,0,0,2022-06-30T09:44:05.799+02:00
2022-06-30T09:45:45.203+02:00,4644.920681666666,0.20672607421875,-0.7955169677734375,-5.860733032226562,4644.910729666667,0.6523324528588836,0.5863251843288375,-1.251542844982304,0.1843225210905075,4.689911842346191,0.4612061679363251,-4.173292636871338,1.094353199005127,-3.754157781600952,XArbitraryZVertical,-0.606217836627345,0.04220740923641232,0.08827986105087068,0.7892559851002268,0.173658549785614,0.9494699835777283,-0.261436939239502,0,0,0,-1,-1,4642.37182275,unknown,2,2022-06-30T09:45:42.656+02:00,2022-06-30T08:20:05.567+02:00,1379,1.385177,0,0,1089.191,0,0,2022-06-30T09:44:05.799+02:00
2022-06-30T09:45:45.213+02:00,4644.930632666666,0.0085906982421875,-1.185653686523438,-2.714950561523438,4644.920681666666,0.6309658631953693,0.5756693779264439,-1.258539511500398,-0.3648282885551453,-1.617929577827454,-2.071500062942505,-5.50687313079834,4.045519351959229,-12.08164691925049,XArbitraryZVertical,-0.607698685194544,0.04307398000935526,0.0816939903339268,0.7887794380869205,0.1672424077987671,0.9516426920890808,-0.257693886756897,0,0,0,-1,-1,4644.923110666667,unknown,2,2022-06-30T09:45:45.207+02:00,2022-06-30T08:20:05.567+02:00,1379,1.385177,0,0,1089.191,0,0,2022-06-30T09:44:05.799+02:00
2022-06-30T09:45:45.223+02:00,4644.940584666667,1.146255493164062,0.4312286376953125,-1.23150634765625,4644.930632666666,0.5703576187639575,0.5257208334696986,-1.277421763336658,-1.136900186538696,3.364781141281128,-2.148442268371582,0.06160236895084381,-1.752790451049805,-5.610599517822266,XArbitraryZVertical,-0.6111228019760279,0.03823723100400392,0.06945864202901028,0.7875546997277735,0.1451233476400375,0.9572734832763672,-0.2501336634159088,0,0,0,-1,-1,4644.923110666667,unknown,2,2022-06-30T09:45:45.207+02:00,2022-06-30T08:20:05.567+02:00,1379,1.385177,0,0,1089.191,0,0,2022-06-30T09:44:05.799+02:00
2022-06-30T09:45:45.233+02:00,4644.950535666667,0.197723388671875,0.7587432861328125,-0.1396636962890625,4644.940584666667,0.600035095906177,0.579584230135635,-1.302093026349141,-3.903741359710693,1.19663417339325,0.765668511390686,-0.1368076801300049,-2.14976954460144,-2.492824792861938,XArbitraryZVertical,-0.6219849548363472,0.04551585106937601,0.05984622696596375,0.7794110234627892,0.1453980207443237,0.9641159772872925,-0.2221260517835617,0,0,0,-1,-1,4644.923110666667,unknown,2,2022-06-30T09:45:45.207+02:00,2022-06-30T08:20:05.567+02:00,1379,1.385177,0,0,1089.191,0,0,2022-06-30T09:44:05.799+02:00
2022-06-30T09:45:45.243+02:00,4644.960487666667,-0.487396240234375,1.047607421875,-0.29937744140625,4644.950535666667,0.7252142827325544,0.7011050769991211,-1.327943819954582,-3.572180271148682,-0.6459329128265381,0.9054582715034485,0.9911351203918457,-0.5394272208213806,-1.047754049301147,XArbitraryZVertical,-0.6370718184080955,0.04757400210304818,0.06449584484364376,0.7666267744934304,0.1551199704408646,0.9706559777259827,-0.1837524324655533,0,0,0,-1,-1,4644.923110666667,unknown,2,2022-06-30T09:45:45.207+02:00,2022-06-30T08:20:05.567+02:00,1379,1.385177,0,0,1089.191,0,0,2022-06-30T09:44:05.799+02:00
2022-06-30T09:45:45.253+02:00,4644.970439666667,-0.7212371826171875,1.642776489257812,-0.558441162109375,4644.960487666667,0.8135982566669656,0.7825236886147334,-1.344693208485401,-1.756061315536499,-0.07129227370023727,-0.1152797043323517,0.03965900838375092,-0.2158041000366211,0.01931144297122955,XArbitraryZVertical,-0.6468214311518129,0.04619922874981894,0.06803112173284342,0.7581948624294329,0.1580640077590942,0.9745473861694336,-0.1589753329753876,0,0,0,-1,-1,4644.923110666667,unknown,2,2022-06-30T09:45:45.207+02:00,2022-06-30T08:20:05.567+02:00,1379,1.385177,0,0,1089.191,0,0,2022-06-30T09:44:05.799+02:00
2022-06-30T09:45:45.263+02:00,4644.980390666667,-0.77203369140625,1.7998046875,-0.8861236572265625,4644.970439666667,0.8353380040196032,0.8067252450252783,-1.353994716052262,-0.1572434604167938,0.6560761332511902,-0.4623752534389496,-0.6427095532417297,0.07101702690124512,-0.1505520343780518,XArbitraryZVertical,-0.6507515502413048,0.04593074916855677,0.0660435816129442,0.7550172580142208,0.1553129404783249,0.9765904545783997,-0.1488255709409714,0,0,0,-1,-1,4644.923110666667,unknown,2,2022-06-30T09:45:45.207+02:00,2022-06-30T08:20:05.567+02:00,1379,1.385177,0,0,1089.191,0,0,2022-06-30T09:44:05.799+02:00
2022-06-30T09:45:45.273+02:00,4644.990342666667,-0.6068267822265625,1.694183349609375,-0.75921630859375,4644.980390666667,0.7809155783989401,0.7608518638524034,-1.35004983810545,2.514894485473633,0.7723391056060791,-0.6838002800941467,-0.8722179532051086,0.6670423150062561,-0.3998608589172363,XArbitraryZVertical,-0.6469003628148408,0.04721931138725863,0.06131992931255923,0.7586371082675506,0.1509804129600525,0.9757342934608459,-0.1585805118083954,0,0,0,-1,-1,4644.923110666667,unknown,2,2022-06-30T09:45:45.207+02:00,2022-06-30T08:20:05.567+02:00,1379,1.385177,0,0,1089.191,0,0,2022-06-30T09:44:05.799+02:00
2022-06-30T09:45:45.283+02:00,4645.000293666667,-0.3761138916015625,1.45025634765625,-0.325042724609375,4644.990342666667,0.6478450969381715,0.6389447077138146,-1.326461610046291,4.893702507019043,0.8161556124687195,-0.9610830545425415,-0.9162975549697876,0.8295063972473145,-0.6919354200363159,XArbitraryZVertical,-0.632887469341422,0.04857188037641764,0.05481847565481492,0.7707718979078136,0.1442635357379913,0.9702984690666199,-0.1941884458065033,0,0,0,-1,-1,4644.923110666667,unknown,2,2022-06-30T09:45:45.207+02:00,2022-06-30T08:20:05.567+02:00,1379,1.385177,0,0,1089.191,0,0,2022-06-30T09:44:05.799+02:00
2022-06-30T09:45:45.293+02:00,4645.010245666667,-0.1645660400390625,1.124557495117188,-0.020050048828125,4645.000293666667,0.503329770780387,0.5089158330905108,-1.286750637175214,5.750041484832764,1.163383364677429,-1.06561267375946,-0.7433693408966064,0.7342537641525269,-0.5144892930984497,XArbitraryZVertical,-0.6124446680313304,0.05047671939140383,0.046566550409585,0.7875246784349669,0.1365422010421753,0.9599295258522034,-0.2447272539138794,0,0,0,-1,-1,4644.923110666667,unknown,2,2022-06-30T09:45:45.207+02:00,2022-06-30T08:20:05.567+02:00,1379,1.385177,0,0,1089.191,0,0,2022-06-30T09:44:05.799+02:00
2022-06-30T09:45:45.303+02:00,4645.020196666667,0.025054931640625,0.922821044921875,0.1490325927734375,4645.010245666667,0.3866292008459299,0.411407186877617,-1.24018129161622,5.680275917053223,1.607502579689026,-1.136769890785217,-0.5059317350387573,0.5044136643409729,-0.02750471234321594,XArbitraryZVertical,-0.5901959958057518,0.05384761731212243,0.03656623293456853,0.8046317516003602,0.1298175007104874,0.9458428621292114,-0.2975382506847382,0,0,0,-1,-1,4644.923110666667,unknown,2,2022-06-30T09:45:45.207+02:00,2022-06-30T08:20:05.567+02:00,1379,1.385177,0,0,1089.191,0,0,2022-06-30T09:44:05.799+02:00
2022-06-30T09:45:45.313+02:00,4645.030148666667,0.1907958984375,0.8655242919921875,0.226654052734375,4645.020196666667,0.299613713456477,0.3472867681969009,-1.195013729059599,4.895558834075928,1.893471479415894,-1.102299213409424,-0.2894743680953979,0.1943368315696716,0.3250405788421631,XArbitraryZVertical,-0.5692345915202115,0.05853670540971288,0.02542320047944318,0.8196946282223434,0.1249079778790474,0.9302206635475159,-0.3450908660888672,0,0,0,-1,-1,4644.923110666667,unknown,2,2022-06-30T09:45:45.207+02:00,2022-06-30T08:20:05.567+02:00,1379,1.385177,0,0,1089.191,0,0,2022-06-30T09:44:05.799+02:00
2022-06-30T09:45:45.323+02:00,4645.040100666667,0.3022308349609375,0.9506072998046875,0.12420654296875,4645.030148666667,0.2382606623323503,0.3094963672196015,-1.158230239778711,3.58305549621582,1.866572499275208,-0.9916535615921021,-0.09706984460353851,0.006726086139678955,0.5309430360794067,XArbitraryZVertical,-0.5522425590222428,0.06381875384786605,0.01452585376909353,0.831110321873293,0.1221244409680367,0.916094958782196,-0.381910651922226,0,0,0,-1,-1,4644.923110666667,unknown,2,2022-06-30T09:45:45.207+02:00,2022-06-30T08:20:05.567+02:00,1379,1.385177,0,0,1089.191,0,0,2022-06-30T09:44:05.799+02:00
2022-06-30T09:45:45.333+02:00,4645.050051666667,0.3573760986328125,1.100540161132812,-0.0822906494140625,4645.040100666667,0.195378482016668,0.2878292131758117,-1.133813651469709,2.173058748245239,1.626949191093445,-0.9700654745101929,0.07065901905298233,-0.04050856828689575,0.6324516534805298,XArbitraryZVertical,-0.5407396323525084,0.06856931394517488,0.004773691056960327,0.8383770520814066,0.1201365292072296,0.9060327410697937,-0.4057978093624115,0,0,0,-1,-1,4644.923110666667,unknown,2,2022-06-30T09:45:45.207+02:00,2022-06-30T08:20:05.567+02:00,1379,1.385177,0,0,1089.191,0,0,2022-06-30T09:44:05.799+02:00
2022-06-30T09:45:45.343+02:00,4645.060003666667,0.378265380859375,1.226715087890625,-0.2697906494140625,4645.050051666667,0.1615820337726435,0.2723344887771735,-1.120778346914462,1.23275101184845,1.410215139389038,-1.109841704368591,0.1852287948131561,0.05016797780990601,0.543157160282135,XArbitraryZVertical,-0.5341577877257386,0.07211112642417929,-0.004189530104636489,0.8422933061969926,0.1170016974210739,0.9004392623901367,-0.4189508855342865,0,0,0,-1,-1,4644.923110666667,unknown,2,2022-06-30T09:45:45.207+02:00,2022-06-30T08:20:05.567+02:00,1379,1.385177,0,0,1089.191,0,0,2022-06-30T09:44:05.799+02:00
2022-06-30T09:45:45.353+02:00,4645.069954666667,0.375152587890625,1.307373046875,-0.381195068359375,4645.060003666667,0.1293568884692295,0.2567281452669729,-1.113633246217671,0.9726576209068298,1.29426109790802,-1.226547479629517,0.2452955543994904,0.2032318115234375,0.3446469306945801,XArbitraryZVertical,-0.5300663345622408,0.07457055377194352,-0.01309251808864552,0.8445694850360116,0.1120802238583565,0.897308349609375,-0.4269378185272217,0,0,0,-1,-1,4644.923110666667,unknown,2,2022-06-30T09:45:45.207+02:00,2022-06-30T08:20:05.567+02:00,1379,1.385177,0,0,1089.191,0,0,2022-06-30T09:44:05.799+02:00
2022-06-30T09:45:45.363+02:00,4645.079906666667,0.33758544921875,1.331329345703125,-0.4191436767578125,4645.069954666667,0.09715141909077403,0.2404476129495211,-1.106465424406045,1.163180708885193,1.245303153991699,-1.175444841384888,0.2716212570667267,0.3325936198234558,0.1651505529880524,XArbitraryZVertical,-0.5259873231339253,0.07659401909452165,-0.02192882428509399,0.8467525084559253,0.1066437885165215,0.8941214084625244,-0.4349413812160492,0,0,0,-1,-1,4644.923110666667,unknown,2,2022-06-30T09:45:45.207+02:00,2022-06-30T08:20:05.567+02:00,1379,1.385177,0,0,1089.191,0,0,2022-06-30T09:44:05.799+02:00
2022-06-30T09:45:45.373+02:00,4645.089858666667,0.283050537109375,1.25726318359375,-0.39410400390625,4645.079906666667,0.06657960249611133,0.2255798478178407,-1.096431654309105,1.425957798957825,1.254502773284912,-1.058331727981567,0.27298504114151,0.4177899360656738,0.06400561332702637,XArbitraryZVertical,-0.5207640065239211,0.0787679451593619,-0.03039950115911009,0.8495154026202012,0.1021672338247299,0.8895831108093262,-0.4452009201049805,0,0,0,-1,-1,4644.923110666667,unknown,2,2022-06-30T09:45:45.207+02:00,2022-06-30T08:20:05.567+02:00,1379,1.385177,0,0,1089.191,0,0,2022-06-30T09:44:05.799+02:00
2022-06-30T09:45:45.383+02:00,4645.099809666667,0.254364013671875,1.098495483398438,-0.3513031005859375,4645.089858666667,0.03729771247203195,0.2121380038421372,-1.084414165510677,1.494926333427429,1.264542460441589,-1.081000804901123,0.2391673624515533,0.447299599647522,0.03780853748321533,XArbitraryZVertical,-0.5147294546122637,0.08110098593282793,-0.0387390643336662,0.8526286660425315,0.09841777384281158,0.884029746055603,-0.4569524228572845,0,0,0,-1,-1,4644.923110666667,unknown,2,2022-06-30T09:45:45.207+02:00,2022-06-30T08:20:05.567+02:00,1379,1.385177,0,0,1089.191,0,0,2022-06-30T09:44:05.799+02:00
2022-06-30T09:45:45.392+02:00,4645.109761666667,0.2777099609375,0.9157867431640625,-0.295135498046875,4645.099809666667,0.007450362964515934,0.198220167638941,-1.072722695085793,1.352390170097351,1.217360019683838,-1.202900409698486,0.1889726221561432,0.3787585496902466,0.07427510619163513,XArbitraryZVertical,-0.508817298817676,0.08315817391143317,-0.04737684815945752,0.8555378726633481,0.09407761693000793,0.8785044550895691,-0.4683793485164642,0,0,0,-1,-1,4644.923110666667,unknown,2,2022-06-30T09:45:45.207+02:00,2022-06-30T08:20:05.567+02:00,1379,1.385177,0,0,1089.191,0,0,2022-06-30T09:44:05.799+02:00
2022-06-30T09:45:45.402+02:00,4645.119712666667,0.33465576171875,0.76959228515625,-0.2122039794921875,4645.109761666667,-0.0224257274732766,0.1836065702472854,-1.063484008577066,0.9905236959457397,1.100332140922546,-1.255727767944336,0.1656624972820282,0.2244419455528259,0.1263604760169983,XArbitraryZVertical,-0.5039827305979978,0.08467274799282365,-0.05610299740317932,0.857720489767969,0.08870121836662292,0.874053418636322,-0.4776638746261597,0,0,0,-1,-1,4644.923110666667,unknown,2,2022-06-30T09:45:45.207+02:00,2022-06-30T08:20:05.567+02:00,1379,1.385177,0,0,1089.191,0,0,2022-06-30T09:44:05.799+02:00
2022-06-30T09:45:45.412+02:00,4645.129664666667,0.3820953369140625,0.6721038818359375,-0.1199798583984375,4645.119712666667,-0.05001841614914281,0.1693550694496585,-1.058359751295601,0.4851737022399902,0.8676679730415344,-1.206656694412231,0.1950708329677582,0.04423421621322632,0.1881521940231323,XArbitraryZVertical,-0.5010337588564694,0.08556404020844409,-0.06419184647624243,0.8587918425942443,0.08263883739709854,0.8715524077415466,-0.4832879304885864,0,0,0,-1,-1,4644.923110666667,unknown,2,2022-06-30T09:45:45.207+02:00,2022-06-30T08:20:05.567+02:00,1379,1.385177,0,0,1089.191,0,0,2022-06-30T09:44:05.799+02:00
2022-06-30T09:45:45.423+02:00,4645.139616666667,0.3864288330078125,0.6282958984375,-0.146636962890625,4645.129664666667,-0.07408451028546569,0.155379271885483,-1.058216967158809,-0.07580792903900146,0.5361943244934082,-1.115005016326904,0.2587595582008362,-0.1018902063369751,0.2723143696784973,XArbitraryZVertical,-0.5004149396106579,0.08558967576826731,-0.07102186514611446,0.858612399720867,0.07589590549468994,0.8714824318885803,-0.4845185875892639,0,0,0,-1,-1,4644.923110666667,unknown,2,2022-06-30T09:45:45.207+02:00,2022-06-30T08:20:05.567+02:00,1379,1.385177,0,0,1089.191,0,0,2022-06-30T09:44:05.799+02:00
2022-06-30T09:45:45.432+02:00,4645.149567666667,0.3621826171875,0.6763916015625,-0.24627685546875,4645.139616666667,-0.09444498675958356,0.1411681648323161,-1.062970954773615,-0.5569723844528198,0.1924372315406799,-0.9840413928031921,0.3136758208274841,-0.2017003297805786,0.3614607453346252,XArbitraryZVertical,-0.5021190168610778,0.08459366852847897,-0.07629543692295379,0.8572627169961443,0.06841921806335449,0.8738040328025818,-0.4814408123493195,0,0,0,-1,-1,4644.923110666667,unknown,2,2022-06-30T09:45:45.207+02:00,2022-06-30T08:20:05.567+02:00,1379,1.385177,0,0,1089.191,0,0,2022-06-30T09:44:05.799+02:00
2022-06-30T09:45:45.442+02:00,4645.159519666667,0.334197998046875,0.81915283203125,-0.3227386474609375,4645.149567666667,-0.1116110017598497,0.1263697264878423,-1.071135786578028,-0.8172395825386047,-0.1384087651968002,-0.8892076015472412,0.3260422945022583,-0.2494494318962097,0.3286700248718262,XArbitraryZVertical,-0.5054894404761855,0.08262455983205112,-0.08004439230243204,0.8551296252963991,0.06038622930645943,0.8777452707290649,-0.4753072261810303,0,0,0,-1,-1,4644.923110666667,unknown,2,2022-06-30T09:45:45.207+02:00,2022-06-30T08:20:05.567+02:00,1379,1.385177,0,0,1089.191,0,0,2022-06-30T09:44:05.799+02:00
2022-06-30T09:45:45.452+02:00,4645.169470666667,0.32281494140625,0.985015869140625,-0.40020751953125,4645.159519666667,-0.1283643756139729,0.108733560744515,-1.080500477229268,-0.8442032933235168,-0.4257260262966156,-0.919800877571106,0.3110819160938263,-0.2058020830154419,0.2218290567398071,XArbitraryZVertical,-0.5095441879859823,0.07944566491598749,-0.08281454848833111,0.8527573194680093,0.05110039934515953,0.8821935653686523,-0.468106210231781,0,0,0,-1,-1,4644.923110666667,unknown,2,2022-06-30T09:45:45.207+02:00,2022-06-30T08:20:05.567+02:00,1379,1.385177,0,0,1089.191,0,0,2022-06-30T09:44:05.799+02:00
2022-06-30T09:45:45.462+02:00,4645.179422666667,0.3066558837890625,1.087966918945312,-0.48681640625,4645.169470666667,-0.1472030337779843,0.08687063523536648,-1.089188908976437,-0.7074590921401978,-0.5978045463562012,-0.9991574287414551,0.2940094470977783,-0.06709879636764526,0.1387188136577606,XArbitraryZVertical,-0.5134502203276134,0.07510009828505532,-0.08527259555239573,0.8505630243450683,0.040188267827034,0.8862515091896057,-0.4614576995372772,0,0,0,-1,-1,4644.923110666667,unknown,2,2022-06-30T09:45:45.207+02:00,2022-06-30T08:20:05.567+02:00,1379,1.385177,0,0,1089.191,0,0,2022-06-30T09:44:05.799+02:00
2022-06-30T09:45:45.472+02:00,4645.189374666667,0.2645721435546875,1.074722290039062,-0.546112060546875,4645.179422666667,-0.1690967254787572,0.06108846807167665,-1.09611458008576,-0.5362908244132996,-0.668432891368866,-1.115979194641113,0.2949111759662628,0.09557753801345825,0.05599510669708252,XArbitraryZVertical,-0.5167254182241441,0.06995274826567964,-0.08790084475398563,0.848749049092812,0.02790345624089241,0.8894382119178772,-0.4562029242515564,0,0,0,-1,-1,4644.923110666667,unknown,2,2022-06-30T09:45:45.207+02:00,2022-06-30T08:20:05.567+02:00,1379,1.385177,0,0,1089.191,0,0,2022-06-30T09:44:05.799+02:00
2022-06-30T09:45:45.482+02:00,4645.199325666667,0.208770751953125,1.00860595703125,-0.53875732421875,4645.189374666667,-0.1947631080281044,0.03116921380424576,-1.101075883362282,-0.3466700315475464,-0.751122772693634,-1.268233895301819,0.2925495207309723,0.1962718367576599,-0.03439950942993164,XArbitraryZVertical,-0.5193126730281102,0.06407651306915865,-0.0909656686667592,0.8473097044255967,0.01410605385899544,0.8916948437690735,-0.4524171054363251,0,0,0,-1,-1,4644.923110666667,unknown,2,2022-06-30T09:45:45.207+02:00,2022-06-30T08:20:05.567+02:00,1379,1.385177,0,0,1089.191,0,0,2022-06-30T09:44:05.799+02:00
2022-06-30T09:45:45.492+02:00,4645.209277666667,0.1543121337890625,0.9751739501953125,-0.5103759765625,4645.199325666667,-0.2246655793758509,-0.003525886588973036,-1.103767073624553,-0.1703932881355286,-0.8479098081588745,-1.44438362121582,0.266159325838089,0.1818123459815979,-0.09587952494621277,XArbitraryZVertical,-0.5211551412247493,0.05727958294090073,-0.0945360402264411,0.84627371278879,-0.00158747611567378,0.8929097652435303,-0.4502327442169189,0,0,0,-1,-1,4644.923110666667,unknown,2,2022-06-30T09:45:45.207+02:00,2022-06-30T08:20:05.567+02:00,1379,1.385177,0,0,1089.191,0,0,2022-06-30T09:44:05.799+02:00
2022-06-30T09:45:45.502+02:00,4645.219228666667,0.126861572265625,0.9954071044921875,-0.44036865234375,4645.209277666667,-0.2587921540560327,-0.04261953880937062,-1.104893112131178,-0.1539711058139801,-0.8610326647758484,-1.619491219520569,0.2279106378555298,0.1151896715164185,-0.08993548154830933,XArbitraryZVertical,-0.5226066208998041,0.04971185458907396,-0.09872703699312546,0.8453780869521652,-0.01914018206298351,0.893416166305542,-0.4488221108913422,0,0,0,-1,-1,4644.923110666667,unknown,2,2022-06-30T09:45:45.207+02:00,2022-06-30T08:20:05.567+02:00,1379,1.385177,0,0,1089.191,0,0,2022-06-30T09:44:05.799+02:00
2022-06-30T09:45:45.512+02:00,4645.229180666667,0.147369384765625,1.042037963867188,-0.3232574462890625,4645.219228666667,-0.2968756211833118,-0.08484434448842883,-1.106378312763607,-0.4085527956485748,-0.7700838446617126,-1.77703583240509,0.1922682523727417,0.08109146356582642,-0.06408476829528809,XArbitraryZVertical,-0.5244947840736788,0.04194630908137723,-0.1036852421303716,0.8440350509251618,-0.03795642778277397,0.8940823674201965,-0.446291446685791,0,0,0,-1,-1,4644.923110666667,unknown,2,2022-06-30T09:45:45.207+02:00,2022-06-30T08:20:05.567+02:00,1379,1.385177,0,0,1089.191,0,0,2022-06-30T09:44:05.799+02:00
2022-06-30T09:45:45.522+02:00,4645.239131666667,0.2182769775390625,1.066329956054688,-0.1834869384765625,4645.229180666667,-0.340676547355613,-0.1310714707413656,-1.110771394083902,-0.904621422290802,-0.6467873454093933,-2.039322376251221,0.1848866492509842,0.09936553239822388,-0.0002066195011138916,XArbitraryZVertical,-0.5279574466489372,0.03434853463106811,-0.1096972075686338,0.8414556489263517,-0.05802537873387337,0.8960414528846741,-0.4401622116565704,0,0,0,-1,-1,4644.923110666667,unknown,2,2022-06-30T09:45:45.207+02:00,2022-06-30T08:20:05.567+02:00,1379,1.385177,0,0,1089.191,0,0,2022-06-30T09:44:05.799+02:00
2022-06-30T09:45:45.532+02:00,4645.249083666667,0.33135986328125,1.117584228515625,-0.0675811767578125,4645.239131666667,-0.3947190850921288,-0.1861797232609318,-1.118215058028192,-1.280997395515442,-0.6970545053482056,-2.436800003051758,0.2283137887716293,0.1427164673805237,0.1064737141132355,XArbitraryZVertical,-0.5333323327286035,0.0262854671770371,-0.1171544537308443,0.8373413413463415,-0.08094470202922821,0.8993213176727295,-0.4297313988208771,0,0,0,-1,-1,4644.923110666667,unknown,2,2022-06-30T09:45:45.207+02:00,2022-06-30T08:20:05.567+02:00,1379,1.385177,0,0,1089.191,0,0,2022-06-30T09:44:05.799+02:00
2022-06-30T09:45:45.542+02:00,4645.259035666667,0.39129638671875,1.260269165039062,-0.0117340087890625,4645.249083666667,-0.4587000034021522,-0.2517422793769625,-1.125196297552203,-1.247471451759338,-0.8975046873092651,-2.651817321777344,0.3256350159645081,0.1639775037765503,0.2339269518852234,XArbitraryZVertical,-0.5394511590501416,0.01689372721234163,-0.1255757621439391,0.832428770614791,-0.1073583289980888,0.9023522138595581,-0.4174140989780426,0,0,0,-1,-1,4644.923110666667,unknown,2,2022-06-30T09:45:45.207+02:00,2022-06-30T08:20:05.567+02:00,1379,1.385177,0,0,1089.191,0,0,2022-06-30T09:44:05.799+02:00
2022-06-30T09:45:45.552+02:00,4645.268986666667,0.348968505859375,1.430343627929688,-0.02142333984375,4645.259035666667,-0.5236702562356506,-0.3203423474954962,-1.127534310339175,-0.7301620244979858,-1.080461263656616,-2.556276082992554,0.4664129614830017,0.2142266631126404,0.339488685131073,XArbitraryZVertical,-0.5444489984401144,0.006342481778223441,-0.1336738510333821,0.8280498129116767,-0.1350534111261368,0.9033574461936951,-0.407070130109787,0,0,0,-1,-1,4644.923110666667,unknown,2,2022-06-30T09:45:45.207+02:00,2022-06-30T08:20:05.567+02:00,1379,1.385177,0,0,1089.191,0,0,2022-06-30T09:44:05.799+02:00
2022-06-30T09:45:45.562+02:00,4645.278938666667,0.244354248046875,1.574005126953125,-0.09326171875,4645.268986666667,-0.5789111610407287,-0.3811796821893013,-1.121982374013477,0.160316988825798,-1.090113520622253,-2.304773569107056,0.5527127385139465,0.3593066930770874,0.3910208344459534,XArbitraryZVertical,-0.5464440570498456,-0.004623113287208444,-0.14071265898293,0.825577118139634,-0.1614166647195816,0.9009623527526855,-0.4027550518512726,0,0,0,-1,-1,4644.923110666667,unknown,2,2022-06-30T09:45:45.207+02:00,2022-06-30T08:20:05.567+02:00,1379,1.385177,0,0,1089.191,0,0,2022-06-30T09:44:05.799+02:00
2022-06-30T09:45:45.572+02:00,4645.288889666667,0.134185791015625,1.67620849609375,-0.2068939208984375,4645.278938666667,-0.618715302384601,-0.4270417171529595,-1.107364328837744,1.151092052459717,-0.9195139408111572,-2.089637279510498,0.5341153144836426,0.5358198881149292,0.3854526281356812,XArbitraryZVertical,-0.5443617645348754,-0.01523679220427707,-0.1469463090306888,0.8257390890771191,-0.1851471364498138,0.8945236206054688,-0.4068762063980103,0,0,0,-1,-1,4644.923110666667,unknown,2,2022-06-30T09:45:45.207+02:00,2022-06-30T08:20:05.567+02:00,1379,1.385177,0,0,1089.191,0,0,2022-06-30T09:44:05.799+02:00
2022-06-30T09:45:45.582+02:00,4645.298841666667,0.0668487548828125,1.736343383789062,-0.3053436279296875,4645.288889666667,-0.6442429699169837,-0.4579221560448891,-1.084532227831645,1.934202551841736,-0.7238564491271973,-1.997258067131042,0.450952023267746,0.6899199485778809,0.3259170651435852,XArbitraryZVertical,-0.5383037257486692,-0.02529041078597148,-0.1529793537801824,0.8283638842436597,-0.2065980434417725,0.8840848803520203,-0.4191789925098419,0,0,0,-1,-1,4644.923110666667,unknown,2,2022-06-30T09:45:45.207+02:00,2022-06-30T08:20:05.567+02:00,1379,1.385177,0,0,1089.191,0,0,2022-06-30T09:44:05.799+02:00
2022-06-30T09:45:45.592+02:00,4645.308793666667,0.039764404296875,1.745285034179688,-0.470977783203125,4645.298841666667,-0.6608769060436752,-0.4790353734814967,-1.056646008467029,2.287645101547241,-0.5842085480690002,-1.95496678352356,0.3608653545379639,0.805497407913208,0.2295445799827576,XArbitraryZVertical,-0.5296804386631294,-0.03491822393135769,-0.1591028720739555,0.8324095256189581,-0.2266798764467239,0.8707109093666077,-0.4364387094974518,0,0,0,-1,-1,4644.923110666667,unknown,2,2022-06-30T09:45:45.207+02:00,2022-06-30T08:20:05.567+02:00,1379,1.385177,0,0,1089.191,0,0,2022-06-30T09:44:05.799+02:00
2022-06-30T09:45:45.602+02:00,4645.318744666667,0.05511474609375,1.734588623046875,-0.5892333984375,4645.308793666667,-0.6732737884808062,-0.4953158360913258,-1.026899846415233,2.407238960266113,-0.5557905435562134,-1.951095819473267,0.3128088712692261,0.8806443214416504,0.1499395072460175,XArbitraryZVertical,-0.5200006883937527,-0.04424482724055302,-0.1652957055023301,0.8368506367620103,-0.2459603846073151,0.8556988835334778,-0.4552833437919617,0,0,0,-1,-1,4644.923110666667,unknown,2,2022-06-30T09:45:45.207+02:00,2022-06-30T08:20:05.567+02:00,1379,1.385177,0,0,1089.191,0,0,2022-06-30T09:44:05.799+02:00
2022-06-30T09:45:45.615+02:00,4645.328696666667,0.0161895751953125,1.715087890625,-0.6891632080078125,4645.318744666667,-0.6829502947705557,-0.509600382063267,-0.9961726116131707,2.517059803009033,-0.678497850894928,-1.890101671218872,0.3049081563949585,0.9058879613876343,0.003481268882751465,XArbitraryZVertical,-0.5097779650651088,-0.05382178759268823,-0.1712270020149843,0.841374505404607,-0.2651440799236298,0.8393968939781189,-0.4744592905044556,0,0,0,-1,-1,4644.923110666667,unknown,2,2022-06-30T09:45:45.207+02:00,2022-06-30T08:20:05.567+02:00,1379,1.385177,0,0,1089.191,0,0,2022-06-30T09:44:05.799+02:00
2022-06-30T09:45:45.625+02:00,4645.338647666667,-0.1577911376953125,1.83355712890625,-0.8733062744140625,4645.328696666667,-0.686917539668482,-0.5206600049586037,-0.9642030342087838,2.894832134246826,-0.8741160035133362,-1.619357228279114,0.3386983275413513,0.9129935503005981,-0.09470131993293762,XArbitraryZVertical,-0.4986522793162912,-0.06387309474570868,-0.175939876134536,0.8463517900043845,-0.2835838496685028,0.8215948343276978,-0.4945322573184967,0,0,0,-1,-1,4644.923110666667,unknown,2,2022-06-30T09:45:45.207+02:00,2022-06-30T08:20:05.567+02:00,1379,1.385177,0,0,1089.191,0,0,2022-06-30T09:44:05.799+02:00
2022-06-30T09:45:45.631+02:00,4645.348599666667,-0.4401092529296875,2.069778442382812,-1.123367309570312,4645.338647666667,-0.6808394054280793,-0.5251229559112727,-0.9298471107128045,3.442216157913208,-0.9853924512863159,-1.179501533508301,0.3159564733505249,0.9135591387748718,-0.17177414894104,XArbitraryZVertical,-0.4856037977922919,-0.07412372787646367,-0.1785202922735956,0.8525403960985102,-0.2997671961784363,0.8015285134315491,-0.5173892378807068,0,0,0,-1,-1,4644.923110666667,unknown,2,2022-06-30T09:45:45.207+02:00,2022-06-30T08:20:05.567+02:00,1379,1.385177,0,0,1089.191,0,0,2022-06-30T09:44:05.799+02:00
2022-06-30T09:45:45.641+02:00,4645.358550666667,-0.765350341796875,2.235382080078125,-1.348861694335938,4645.348599666667,-0.6640936102154782,-0.5214653963696347,-0.893297967381287,3.944221019744873,-0.903271496295929,-0.6954568028450012,0.1544726490974426,1.054413557052612,-0.3297746181488037,XArbitraryZVertical,-0.4703397194095236,-0.08375351935962988,-0.1787949077912158,0.8601152213061848,-0.3122640550136566,0.7791432738304138,-0.5435317754745483,0,0,0,-1,-1,4644.923110666667,unknown,2,2022-06-30T09:45:45.207+02:00,2022-06-30T08:20:05.567+02:00,1379,1.385177,0,0,1089.191,0,0,2022-06-30T09:44:05.799+02:00
2022-06-30T09:45:45.651+02:00,4645.368502666667,-1.09954833984375,2.286773681640625,-1.487777709960938,4645.358550666667,-0.6387014498530997,-0.5101315960723639,-0.8547048716644249,4.411166191101074,-0.7272916436195374,-0.2764289081096649,-0.1195744872093201,1.315400958061218,-0.550504207611084,XArbitraryZVertical,-0.4528646560497783,-0.09209754156279641,-0.177186155647218,0.8689285228527976,-0.3205350637435913,0.7543771862983704,-0.5728632807731628,0,0,0,-1,-1,4644.923110666667,unknown,2,2022-06-30T09:45:45.207+02:00,2022-06-30T08:20:05.567+02:00,1379,1.385177,0,0,1089.191,0,0,2022-06-30T09:44:05.799+02:00
2022-06-30T09:45:45.661+02:00,4645.378454666667,-1.442169189453125,2.231536865234375,-1.546966552734375,4645.368502666667,-0.6076220391264424,-0.4940482816006104,-0.8140699734931615,4.73609447479248,-0.6767421364784241,0.01719741150736809,-0.4397951364517212,1.508294343948364,-0.7444136142730713,XArbitraryZVertical,-0.4334645280553788,-0.09942032078253273,-0.1740087850468819,0.8786041040731982,-0.3255554735660553,0.7270873785018921,-0.6044481992721558,0,0,0,-1,-1,4644.923110666667,unknown,2,2022-06-30T09:45:45.207+02:00,2022-06-30T08:20:05.567+02:00,1379,1.385177,0,0,1089.191,0,0,2022-06-30T09:44:05.799+02:00
2022-06-30T09:45:45.671+02:00,4645.388405666667,-1.758102416992188,2.077972412109375,-1.485321044921875,4645.378454666667,-0.5743506163326064,-0.4765909553584972,-0.772277752037796,4.856587886810303,-0.5184065699577332,0.2345606237649918,-0.7709333896636963,1.589004755020142,-0.8512788414955139,XArbitraryZVertical,-0.4129206366261564,-0.1060521666492614,-0.1697164726038907,0.8885076066227885,-0.3286151885986328,0.6977686285972595,-0.6364989876747131,0,0,0,-1,-1,4644.923110666667,unknown,2,2022-06-30T09:45:45.207+02:00,2022-06-30T08:20:05.567+02:00,1379,1.385177,0,0,1089.191,0,0,2022-06-30T09:44:05.799+02:00
