loggingTime(txt),accelerometerTimestamp_sinceReboot(s),accelerometerAccelerationX(G),accelerometerAccelerationY(G),accelerometerAccelerationZ(G),motionTimestamp_sinceReboot(s),motionYaw(rad),motionRoll(rad),motionPitch(rad),motionRotationRateX(rad/s),motionRotationRateY(rad/s),motionRotationRateZ(rad/s),motionUserAccelerationX(G),motionUserAccelerationY(G),motionUserAccelerationZ(G),motionAttitudeReferenceFrame(txt),motionQuaternionX(R),motionQuaternionY(R),motionQuaternionZ(R),motionQuaternionW(R),motionGravityX(G),motionGravityY(G),motionGravityZ(G),motionMagneticFieldX(µT),motionMagneticFieldY(µT),motionMagneticFieldZ(µT),motionHeading(°),motionMagneticFieldCalibrationAccuracy(Z),activityTimestamp_sinceReboot(s),activity(txt),activityActivityConfidence(Z),activityActivityStartDate(txt),pedometerStartDate(txt),pedometerNumberofSteps(N),pedometerAverageActivePace(s/m),pedometerCurrentPace(s/m),pedometerCurrentCadence(steps/s),pedometerDistance(m),pedometerFloorAscended(N),pedometerFloorDescended(N),pedometerEndDate(txt)
2022-06-30T09:45:53.916+02:00,4653.608423541667,0.1783905029296875,-0.386138916015625,-0.94830322265625,4653.598472541667,0.2556576973390102,0.02363105381338103,0.3127937287628844,-0.08503378182649612,0.4031985402107239,0.04074065387248993,-0.1406315416097641,0.02370598912239075,-0.01520341634750366,XArbitraryZVertical,0.1529905884966253,0.03143087993874096,0.1277416197063731,0.9794326046809009,0.02248232625424862,-0.3077180087566376,-0.9512119889259338,0,0,0,-1,-1,4652.565836791667,unknown,2,2022-06-30T09:45:52.850+02:00,2022-06-30T08:20:05.567+02:00,1379,1.385177,0,0,1089.191,0,0,2022-06-30T09:44:05.799+02:00
2022-06-30T09:45:53.917+02:00,4653.618374875,0.099700927734375,-0.3302001953125,-0.9529266357421875,4653.608423541667,0.2566130187101736,0.02575431311611427,0.3104915039292132,-0.3266214430332184,0.09898994117975235,0.1116619929671288,0.09333835542201996,-0.0718233585357666,0.003335714340209961,XArbitraryZVertical,0.1517113468862654,0.0324004560200135,0.1283801110185497,0.9795164735096805,0.02452012151479721,-0.3055266737937927,-0.9518677592277527,0,0,0,-1,-1,4652.565836791667,unknown,2,2022-06-30T09:45:52.850+02:00,2022-06-30T08:20:05.567+02:00,1379,1.385177,0,0,1089.191,0,0,2022-06-30T09:44:05.799+02:00
2022-06-30T09:45:53.917+02:00,4653.628326875,0.0259857177734375,-0.2569732666015625,-0.9299774169921875,4653.618374875,0.2574396127994713,0.02567284291266343,0.307698001370084,-0.2228929251432419,-0.02629687078297138,0.009575576521456242,0.1539257019758224,-0.08327353000640869,0.004416048526763916,XArbitraryZVertical,0.1503342704947339,0.03224885621892311,0.1287887884209759,0.9796800699991586,0.02446438558399677,-0.3028655648231506,-0.9527192115783691,0,0,0,-1,-1,4652.565836791667,unknown,2,2022-06-30T09:45:52.850+02:00,2022-06-30T08:20:05.567+02:00,1379,1.385177,0,0,1089.191,0,0,2022-06-30T09:44:05.799+02:00
2022-06-30T09:45:53.921+02:00,4653.638277875,0.0083770751953125,-0.27032470703125,-0.91552734375,4653.628326875,0.2571683283894653,0.02560290016706699,0.3061224447561344,-0.09712140262126923,0.01788044348359108,-0.04934872314333916,0.07529057562351227,-0.02883672714233398,0.0002701878547668457,XArbitraryZVertical,0.1495709133086153,0.03209590940164442,0.1286561985878775,0.9798193527610116,0.02440993674099445,-0.301363617181778,-0.9531967639923096,0,0,0,-1,-1,4652.565836791667,unknown,2,2022-06-30T09:45:52.850+02:00,2022-06-30T08:20:05.567+02:00,1379,1.385177,0,0,1089.191,0,0,2022-06-30T09:44:05.799+02:00
2022-06-30T09:45:53.931+02:00,4653.648229875001,0.01165771484375,-0.30169677734375,-0.9131011962890625,4653.638277875,0.2569664363596232,0.02611311048556561,0.3057137632744037,0.01520167477428913,0.08455614000558853,0.009992893785238266,0.001085825264453888,0.04400050640106201,0.02332985401153564,XArbitraryZVertical,0.1493410244062911,0.03230529762248997,0.1285968138144866,0.9798553480483849,0.02489947713911533,-0.3009739220142365,-0.9533072710037231,0,0,0,-1,-1,4652.565836791667,unknown,2,2022-06-30T09:45:52.850+02:00,2022-06-30T08:20:05.567+02:00,1379,1.385177,0,0,1089.191,0,0,2022-06-30T09:44:05.799+02:00
2022-06-30T09:45:53.941+02:00,4653.658180875001,0.03363037109375,-0.3065643310546875,-0.9290313720703125,4653.648229875001,0.2572315504838737,0.02693005008972161,0.3061790028449575,0.06507948786020279,0.1032760143280029,0.03514938056468964,-0.01729783043265343,0.03109270334243774,0.03761923313140869,XArbitraryZVertical,0.1495121945678893,0.03275433804071332,0.1287862143098342,0.9797894444608257,0.02567449025809765,-0.3014175593852997,-0.9531465172767639,0,0,0,-1,-1,4652.565836791667,unknown,2,2022-06-30T09:45:52.850+02:00,2022-06-30T08:20:05.567+02:00,1379,1.385177,0,0,1089.191,0,0,2022-06-30T09:44:05.799+02:00
2022-06-30T09:45:53.951+02:00,4653.668132875,0.0478363037109375,-0.2922821044921875,-0.9342193603515625,4653.658180875001,0.2576300613164423,0.02767586609288156,0.3069848064355401,0.09306424856185913,0.08335396647453308,0.04669205471873283,-0.01472132466733456,0.0004888772964477539,0.03978288173675537,XArbitraryZVertical,0.1498525074391887,0.03319978885462452,0.1290347460511192,0.9796897509772273,0.02637862600386143,-0.3021857738494873,-0.9528840184211731,0,0,0,-1,-1,4652.565836791667,unknown,2,2022-06-30T09:45:52.850+02:00,2022-06-30T08:20:05.567+02:00,1379,1.385177,0,0,1089.191,0,0,2022-06-30T09:44:05.799+02:00
2022-06-30T09:45:53.961+02:00,4653.678084875,0.056182861328125,-0.2836151123046875,-0.93548583984375,4653.668132875,0.258144517671396,0.0281965382560777,0.3080874310698429,0.1202647164463997,0.06650044023990631,0.05058905854821205,0.006764600053429604,-0.003327786922454834,0.02350521087646484,XArbitraryZVertical,0.1503506748477778,0.03356230996782,0.1293225003836402,0.9795631201121735,0.02686535194516182,-0.3032366633415222,-0.9525364637374878,0,0,0,-1,-1,4652.565836791667,unknown,2,2022-06-30T09:45:52.850+02:00,2022-06-30T08:20:05.567+02:00,1379,1.385177,0,0,1089.191,0,0,2022-06-30T09:44:05.799+02:00
2022-06-30T09:45:53.971+02:00,4653.688035875,0.050628662109375,-0.3008575439453125,-0.94384765625,4653.678084875,0.2588207920049164,0.02848780035733025,0.3093329871354709,0.1342420428991318,0.04325450956821442,0.08606475591659546,0.02070388197898865,0.01214107871055603,0.01793104410171509,XArbitraryZVertical,0.1509307745599686,0.03383384750036982,0.1296719473550135,0.9794183756263647,0.02713200822472572,-0.3044233620166779,-0.9521503448486328,0,0,0,-1,-1,4652.565836791667,unknown,2,2022-06-30T09:45:52.850+02:00,2022-06-30T08:20:05.567+02:00,1379,1.385177,0,0,1089.191,0,0,2022-06-30T09:44:05.799+02:00
2022-06-30T09:45:53.981+02:00,4653.697987875,0.0561981201171875,-0.3323822021484375,-0.9438323974609375,4653.688035875,0.2597189078725163,0.02854223451880619,0.3108566399652108,0.1577273309230804,0.03068418428301811,0.08043114095926285,0.02901187539100647,0.02225905656814575,0.01619833707809448,XArbitraryZVertical,0.151658506764952,0.03402406568274585,0.1301112665228355,0.9792411556339878,0.02717057056725025,-0.3058743178844452,-0.9516841173171997,0,0,0,-1,-1,4652.565836791667,unknown,2,2022-06-30T09:45:52.850+02:00,2022-06-30T08:20:05.567+02:00,1379,1.385177,0,0,1089.191,0,0,2022-06-30T09:44:05.799+02:00
2022-06-30T09:45:53.991+02:00,4653.707938875,0.066741943359375,-0.3415374755859375,-0.93402099609375,4653.697987875,0.2604538194709147,0.02845097413220062,0.3124334852554179,0.1621146202087402,0.011101427488029,0.07140648365020752,0.02355828136205673,0.006517529487609863,0.007355690002441406,XArbitraryZVertical,0.1524243779214614,0.03413452156261036,0.1304592705525606,0.9790720326497784,0.02706996537744999,-0.3073752224445343,-0.9512032866477966,0,0,0,-1,-1,4652.565836791667,unknown,2,2022-06-30T09:45:52.850+02:00,2022-06-30T08:20:05.567+02:00,1379,1.385177,0,0,1089.191,0,0,2022-06-30T09:44:05.799+02:00
2022-06-30T09:45:54.001+02:00,4653.717890875,0.0709228515625,-0.326751708984375,-0.919189453125,4653.707938875,0.2611895186829876,0.02819102043390992,0.3142226223762684,0.1854861974716187,-0.007768169976770878,0.07066202908754349,0.02939055487513542,-0.02330508828163147,0.006826698780059814,XArbitraryZVertical,0.153305070522422,0.03417644288070953,0.1307937756022262,0.9788884243489439,0.0268071498721838,-0.309077262878418,-0.9506590366363525,0,0,0,-1,-1,4652.565836791667,unknown,2,2022-06-30T09:45:52.850+02:00,2022-06-30T08:20:05.567+02:00,1379,1.385177,0,0,1089.191,0,0,2022-06-30T09:44:05.799+02:00
2022-06-30T09:45:54.011+02:00,4653.727842875001,0.05950927734375,-0.3349151611328125,-0.9160614013671875,4653.717890875,0.2618480884990813,0.02773524118593007,0.3160281743040757,0.1716715842485428,-0.03614841401576996,0.06732375919818878,0.04038319364190102,-0.03074374794960022,0.01609081029891968,XArbitraryZVertical,0.1542078216671847,0.03411829322941639,0.1310749338602364,0.9787110095330972,0.026358338072896,-0.3107939064502716,-0.9501118063926697,0,0,0,-1,-1,4652.565836791667,unknown,2,2022-06-30T09:45:52.850+02:00,2022-06-30T08:20:05.567+02:00,1379,1.385177,0,0,1089.191,0,0,2022-06-30T09:44:05.799+02:00
2022-06-30T09:45:54.021+02:00,4653.737793875001,0.0360107421875,-0.3270416259765625,-0.9125823974609375,4653.727842875001,0.2627218438526436,0.02695767258628215,0.3177675485215693,0.1719296425580978,-0.04939553141593933,0.101519413292408,0.04531749337911606,-0.0143052339553833,0.03040075302124023,XArbitraryZVertical,0.1550955676796588,0.0339158124291975,0.1314360372558442,0.9785293708214348,0.02560494281351566,-0.312446653842926,-0.9495901465415955,0,0,0,-1,-1,4652.565836791667,unknown,2,2022-06-30T09:45:52.850+02:00,2022-06-30T08:20:05.567+02:00,1379,1.385177,0,0,1089.191,0,0,2022-06-30T09:44:05.799+02:00
2022-06-30T09:45:54.031+02:00,4653.747745875,0.027435302734375,-0.32415771484375,-0.919036865234375,4653.737793875001,0.2636933152229587,0.02608080654199985,0.319628165217443,0.1969862580299377,-0.05411571636795998,0.08753196150064468,0.03475179150700569,-0.02070173621177673,0.03296810388565063,XArbitraryZVertical,0.156047623836649,0.0336809858983269,0.1318357958282808,0.9783322983887986,0.02475706674158573,-0.3142135739326477,-0.9490294456481934,0,0,0,-1,-1,4652.565836791667,unknown,2,2022-06-30T09:45:52.850+02:00,2022-06-30T08:20:05.567+02:00,1379,1.385177,0,0,1089.191,0,0,2022-06-30T09:44:05.799+02:00
2022-06-30T09:45:54.041+02:00,4653.757696875,0.0293426513671875,-0.3392181396484375,-0.9261322021484375,4653.747745875,0.2645109995244631,0.0254759072786806,0.3217633089898196,0.2223194390535355,-0.03458627685904503,0.08682176470756531,0.01184447109699249,-0.01080194115638733,0.03578907251358032,XArbitraryZVertical,0.1571186947455117,0.03358570793615593,0.132179393716214,0.9781178157488319,0.02416585013270378,-0.3162398636341095,-0.948371410369873,0,0,0,-1,-1,4652.565836791667,unknown,2,2022-06-30T09:45:52.850+02:00,2022-06-30T08:20:05.567+02:00,1379,1.385177,0,0,1089.191,0,0,2022-06-30T09:44:05.799+02:00
2022-06-30T09:45:54.050+02:00,4653.767648875,0.0294342041015625,-0.34869384765625,-0.9380340576171875,4653.757696875,0.265209651374085,0.02546987286058705,0.3234814290454877,0.2010785937309265,-0.02435947023332119,0.09582617878913879,0.003288630396127701,-0.006288528442382812,0.0287901759147644,XArbitraryZVertical,0.1579479904722435,0.03374800229424189,0.1325130643845918,0.9779334325317557,0.02414625510573387,-0.3178693354129791,-0.9478269815444946,0,0,0,-1,-1,4652.565836791667,unknown,2,2022-06-30T09:45:52.850+02:00,2022-06-30T08:20:05.567+02:00,1379,1.385177,0,0,1089.191,0,0,2022-06-30T09:44:05.799+02:00
2022-06-30T09:45:54.060+02:00,4653.777600875001,0.0240936279296875,-0.342254638671875,-0.9540252685546875,4653.767648875,0.2659517880453126,0.02573576506279248,0.3247608594043943,0.1904071122407913,-0.02732137776911259,0.1098570078611374,0.004954449832439423,-0.02013614773750305,0.02128106355667114,XArbitraryZVertical,0.158543676738193,0.0340189980872227,0.1328913016525399,0.9777762931794293,0.02438778802752495,-0.3190821409225464,-0.9474132061004639,0,0,0,-1,-1,4652.565836791667,unknown,2,2022-06-30T09:45:52.850+02:00,2022-06-30T08:20:05.567+02:00,1379,1.385177,0,0,1089.191,0,0,2022-06-30T09:44:05.799+02:00
2022-06-30T09:45:54.070+02:00,4653.787551875001,0.015228271484375,-0.3408966064453125,-0.9676513671875,4653.777600875001,0.2668355157659528,0.02637161728661172,0.3257363028777143,0.1502192169427872,-0.01664609648287296,0.1500608921051025,0.004451805725693703,-0.02868753671646118,0.009051978588104248,XArbitraryZVertical,0.1589633380888168,0.03446287253585582,0.1333695099617425,0.9776275086080628,0.02498197928071022,-0.3200064599514008,-0.9470859169960022,0,0,0,-1,-1,4652.565836791667,unknown,2,2022-06-30T09:45:52.850+02:00,2022-06-30T08:20:05.567+02:00,1379,1.385177,0,0,1089.191,0,0,2022-06-30T09:44:05.799+02:00
2022-06-30T09:45:54.081+02:00,4653.797503875,0.0152435302734375,-0.3445281982421875,-0.974212646484375,4653.787551875001,0.2680959067273656,0.02717094728640244,0.3276347455042253,0.112052321434021,-0.002715427428483963,0.1782840341329575,-0.001629240810871124,-0.02045029401779175,-0.007568538188934326,XArbitraryZVertical,0.1598164019207715,0.03507681122907828,0.1340410714262082,0.9773747333949024,0.02572245523333549,-0.3218044936656952,-0.9464566707611084,0,0,0,-1,-1,4652.565836791667,unknown,2,2022-06-30T09:45:52.850+02:00,2022-06-30T08:20:05.567+02:00,1379,1.385177,0,0,1089.191,0,0,2022-06-30T09:44:05.799+02:00
2022-06-30T09:45:54.090+02:00,4653.807454875,0.0281982421875,-0.350830078125,-0.9789886474609375,4653.797503875,0.2690908156583477,0.02918254236484007,0.3299152522804807,0.07680352032184601,0.02578199282288551,0.1630384922027588,-0.01237694919109344,-0.01693391799926758,-0.02198433876037598,XArbitraryZVertical,0.1607785129976699,0.03628744478575179,0.134679153805855,0.9770849404162124,0.02760480344295502,-0.3239628374576569,-0.9456669688224792,0,0,0,-1,-1,4652.565836791667,unknown,2,2022-06-30T09:45:52.850+02:00,2022-06-30T08:20:05.567+02:00,1379,1.385177,0,0,1089.191,0,0,2022-06-30T09:44:05.799+02:00
2022-06-30T09:45:54.100+02:00,4653.817406875,0.0276031494140625,-0.3404388427734375,-0.9760894775390625,4653.807454875,0.2695103994825343,0.0326531534317371,0.3314264491904521,0.04961797222495079,0.02334110997617245,0.16200852394104,-0.01562753692269325,-0.01913616061210632,-0.02913749217987061,XArbitraryZVertical,0.1612752931864861,0.03811470924862756,0.1351582633044555,0.9768673724150037,0.03087065555155277,-0.3253921866416931,-0.9450750946998596,0,0,0,-1,-1,4652.565836791667,unknown,2,2022-06-30T09:45:52.850+02:00,2022-06-30T08:20:05.567+02:00,1379,1.385177,0,0,1089.191,0,0,2022-06-30T09:44:05.799+02:00
2022-06-30T09:45:54.115+02:00,4653.827358875,0.0241851806640625,-0.32696533203125,-0.96551513671875,4653.817406875,0.2704559999306316,0.0347073352993361,0.3335161214707307,0.07628393173217773,0.02777740359306335,0.1620466113090515,-0.004590447992086411,-0.02346280217170715,-0.03466051816940308,XArbitraryZVertical,0.1621391613915391,0.03933013225558306,0.1357800872619186,0.9765898563678169,0.03278827667236328,-0.3273674249649048,-0.9443280696868896,0,0,0,-1,-1,4652.565836791667,unknown,2,2022-06-30T09:45:52.850+02:00,2022-06-30T08:20:05.567+02:00,1379,1.385177,0,0,1089.191,0,0,2022-06-30T09:44:05.799+02:00
2022-06-30T09:45:54.132+02:00,4653.837309875,0.02362060546875,-0.3390960693359375,-0.9548797607421875,4653.827358875,0.2720037806393603,0.03475977955326197,0.3349430714595595,0.06245134025812149,0.03241892904043198,0.1567987948656082,-0.005218807607889175,-0.01172357797622681,-0.03223085403442383,XArbitraryZVertical,0.1628023024582836,0.03957453009144846,0.136536090788648,0.9763642693418702,0.03282153606414795,-0.3287154138088226,-0.9438585042953491,0,0,0,-1,-1,4652.565836791667,unknown,2,2022-06-30T09:45:52.850+02:00,2022-06-30T08:20:05.567+02:00,1379,1.385177,0,0,1089.191,0,0,2022-06-30T09:44:05.799+02:00
2022-06-30T09:45:54.134+02:00,4653.847261875,0.0228118896484375,-0.350982666015625,-0.9399871826171875,4653.837309875,0.2736428052395862,0.03434228449758343,0.3357321952576752,0.03706183284521103,0.0371316596865654,0.1354082822799683,-0.008233796805143356,0.002495110034942627,-0.02190250158309937,XArbitraryZVertical,0.1631839638926273,0.03955607371990843,0.1372998372359134,0.9761942346145415,0.03241856023669243,-0.3294605612754822,-0.9436126351356506,0,0,0,-1,-1,4652.565836791667,unknown,2,2022-06-30T09:45:52.850+02:00,2022-06-30T08:20:05.567+02:00,1379,1.385177,0,0,1089.191,0,0,2022-06-30T09:44:05.799+02:00
2022-06-30T09:45:54.141+02:00,4653.857212875,0.0204620361328125,-0.352508544921875,-0.9405364990234375,4653.847261875,0.2749925114822839,0.03415672322200519,0.3368143339219519,0.009839133359491825,0.04337822645902634,0.1184671744704247,-0.008611075580120087,-0.008614122867584229,-0.01161795854568481,XArbitraryZVertical,0.1636985696574507,0.03964719828384337,0.1379400690082615,0.9760141142549847,0.03223126754164696,-0.3304820954799652,-0.9432617425918579,0,0,0,-1,-1,4652.565836791667,unknown,2,2022-06-30T09:45:52.850+02:00,2022-06-30T08:20:05.567+02:00,1379,1.385177,0,0,1089.191,0,0,2022-06-30T09:44:05.799+02:00
2022-06-30T09:45:54.150+02:00,4653.867164875001,0.0132904052734375,-0.346771240234375,-0.93255615234375,4653.857212875,0.2762960766407407,0.03405564262593876,0.3379347970422049,0.0138637013733387,0.04923771321773529,0.1171310693025589,-0.009311821311712265,-0.01944342255592346,0.002907216548919678,XArbitraryZVertical,0.1642268587936184,0.03977902026883555,0.1385642822858309,0.9758315484959357,0.03212329372763634,-0.3315393924713135,-0.9428943395614624,0,0,0,-1,-1,4652.565836791667,unknown,2,2022-06-30T09:45:52.850+02:00,2022-06-30T08:20:05.567+02:00,1379,1.385177,0,0,1089.191,0,0,2022-06-30T09:44:05.799+02:00
2022-06-30T09:45:54.160+02:00,4653.877116875,0.0121002197265625,-0.3535003662109375,-0.9286346435546875,4653.867164875001,0.2776022106929943,0.03376808697485729,0.3384448160050772,0.01967079192399979,0.05670295283198357,0.1024664714932442,-0.01138482242822647,-0.02048817276954651,0.002197980880737305,XArbitraryZVertical,0.16446988181461,0.03978003134992762,0.1391761965455542,0.9757034601560991,0.03184644505381584,-0.3320205211639404,-0.94273442029953,0,0,0,-1,-1,4652.565836791667,unknown,2,2022-06-30T09:45:52.850+02:00,2022-06-30T08:20:05.567+02:00,1379,1.385177,0,0,1089.191,0,0,2022-06-30T09:44:05.799+02:00
2022-06-30T09:45:54.170+02:00,4653.887067875,0.0173797607421875,-0.360809326171875,-0.930023193359375,4653.877116875,0.278790628023164,0.03323238479606627,0.3387414103641733,0.03269258514046669,0.06666690111160278,0.07221882045269012,-0.01804815605282784,-0.01447105407714844,0.01009678840637207,XArbitraryZVertical,0.1646284453831937,0.03963633086610873,0.1397108302479026,0.975606120008373,0.03133814036846161,-0.3323002755641937,-0.9426528811454773,0,0,0,-1,-1,4652.565836791667,unknown,2,2022-06-30T09:45:52.850+02:00,2022-06-30T08:20:05.567+02:00,1379,1.385177,0,0,1089.191,0,0,2022-06-30T09:44:05.799+02:00
2022-06-30T09:45:54.180+02:00,4653.897019875,0.021697998046875,-0.3629913330078125,-0.929534912109375,4653.887067875,0.2797863274559004,0.03287308755217047,0.3391431338477147,0.02866548672318459,0.0773489847779274,0.06655500084161758,-0.01889525726437569,-0.02082136273384094,0.01389598846435547,XArbitraryZVertical,0.1648299619208499,0.03957007485039236,0.1401654297388878,0.975509665871629,0.03099505603313446,-0.3326791524887085,-0.9425305724143982,0,0,0,-1,-1,4652.565836791667,unknown,2,2022-06-30T09:45:52.850+02:00,2022-06-30T08:20:05.567+02:00,1379,1.385177,0,0,1089.191,0,0,2022-06-30T09:44:05.799+02:00
2022-06-30T09:45:54.190+02:00,4653.906970875,0.029022216796875,-0.3630218505859375,-0.934661865234375,4653.897019875,0.2805538492269532,0.03325698915604685,0.3395755939323609,0.002564109861850739,0.08771160989999771,0.06358344852924347,-0.01397275924682617,-0.02772250771522522,0.01235157251358032,XArbitraryZVertical,0.1649988797944961,0.03984976377198148,0.1405698274280066,0.9754114782067052,0.03135210648179054,-0.3330869376659393,-0.9423747062683105,0,0,0,-1,-1,4652.565836791667,unknown,2,2022-06-30T09:45:52.850+02:00,2022-06-30T08:20:05.567+02:00,1379,1.385177,0,0,1089.191,0,0,2022-06-30T09:44:05.799+02:00
2022-06-30T09:45:54.200+02:00,4653.916922875001,0.0347900390625,-0.356231689453125,-0.9297027587890625,4653.906970875,0.2812844799322566,0.03362675713831408,0.3392739101997309,-0.01921282522380352,0.08098262548446655,0.06182416900992393,-0.01000636070966721,-0.03018900752067566,0.01292860507965088,XArbitraryZVertical,0.1648110131671936,0.04006995478137806,0.140957752718507,0.9753781983753743,0.03170394152402878,-0.3328024744987488,-0.9424634575843811,0,0,0,-1,-1,4652.565836791667,unknown,2,2022-06-30T09:45:52.850+02:00,2022-06-30T08:20:05.567+02:00,1379,1.385177,0,0,1089.191,0,0,2022-06-30T09:44:05.799+02:00
2022-06-30T09:45:54.210+02:00,4653.926874875,0.0379638671875,-0.3592987060546875,-0.9234619140625,4653.916922875001,0.2820525933699551,0.03378729274771609,0.3384696891071289,-0.02952671609818935,0.07398384064435959,0.05389886721968651,-0.00284247100353241,-0.03097802400588989,0.008063733577728271,XArbitraryZVertical,0.1643917329796905,0.04015696017385902,0.1413484600335733,0.9753889070584452,0.03186427056789398,-0.3320440053939819,-0.9427255392074585,0,0,0,-1,-1,4652.565836791667,unknown,2,2022-06-30T09:45:52.850+02:00,2022-06-30T08:20:05.567+02:00,1379,1.385177,0,0,1089.191,0,0,2022-06-30T09:44:05.799+02:00
2022-06-30T09:45:54.220+02:00,4653.936825875,0.03643798828125,-0.365875244140625,-0.91168212890625,4653.926874875,0.2827467110412756,0.03388950132676927,0.3383053610434994,-0.02711622230708599,0.06258133798837662,0.05354942753911018,0.002827145159244537,-0.02434283494949341,0.01307410001754761,XArbitraryZVertical,0.164290340154751,0.04025267679405668,0.1416959588755405,0.9753516296074094,0.03196247294545174,-0.3318889737129211,-0.9427767992019653,0,0,0,-1,-1,4652.565836791667,unknown,2,2022-06-30T09:45:52.850+02:00,2022-06-30T08:20:05.567+02:00,1379,1.385177,0,0,1089.191,0,0,2022-06-30T09:44:05.799+02:00
2022-06-30T09:45:54.230+02:00,4653.946777875,0.038726806640625,-0.3607025146484375,-0.9070281982421875,4653.936825875,0.2833349279748069,0.03389118064713116,0.3389790760842428,-0.008144128136336803,0.0548563040792942,0.02925953269004822,0.006006978452205658,-0.02677443623542786,0.01909118890762329,XArbitraryZVertical,0.1646071781728912,0.04034773660271654,0.1419805065802588,0.9752528933678282,0.03195647150278091,-0.332524448633194,-0.9425531029701233,0,0,0,-1,-1,4652.565836791667,unknown,2,2022-06-30T09:45:52.850+02:00,2022-06-30T08:20:05.567+02:00,1379,1.385177,0,0,1089.191,0,0,2022-06-30T09:44:05.799+02:00
2022-06-30T09:45:54.239+02:00,4653.956728875,0.0373992919921875,-0.3433074951171875,-0.9073638916015625,4653.946777875,0.2836575035667601,0.03382716152131308,0.3398343974867609,0.01626946963369846,0.04469382390379906,0.006504353135824203,0.00455106794834137,-0.03254440426826477,0.03058844804763794,XArbitraryZVertical,0.1650226130337205,0.04040143203986823,0.1421293787531824,0.9751587925948216,0.0318864993751049,-0.3333309590816498,-0.9422705173492432,0,0,0,-1,-1,4652.565836791667,unknown,2,2022-06-30T09:45:52.850+02:00,2022-06-30T08:20:05.567+02:00,1379,1.385177,0,0,1089.191,0,0,2022-06-30T09:44:05.799+02:00
2022-06-30T09:45:54.249+02:00,4653.966680875,0.0284881591796875,-0.3353424072265625,-0.905975341796875,4653.956728875,0.2839525489729418,0.03345095975034405,0.3407068162622521,0.03258559107780457,0.02969676814973354,0.008871369995176792,0.007204107940196991,-0.02654927968978882,0.03496330976486206,XArbitraryZVertical,0.1654691162860944,0.04030195530790455,0.1422388664817988,0.9750712443313172,0.03152227774262428,-0.3341533541679382,-0.9419914484024048,0,0,0,-1,-1,4652.565836791667,unknown,2,2022-06-30T09:45:52.850+02:00,2022-06-30T08:20:05.567+02:00,1379,1.385177,0,0,1089.191,0,0,2022-06-30T09:44:05.799+02:00
2022-06-30T09:45:54.260+02:00,4653.976632875,0.0232391357421875,-0.3556671142578125,-0.9075469970703125,4653.966680875,0.2843049227863981,0.03293830298459686,0.3418176386007243,0.007258263416588306,0.03017918765544891,0.0002395993797108531,0.006371766328811646,-0.008107513189315796,0.03427207469940186,XArbitraryZVertical,0.1660404867012973,0.04015717391039807,0.1423638089369775,0.9749618226964828,0.03102711029350758,-0.3352001309394836,-0.9416359066963196,0,0,0,-1,-1,4652.565836791667,unknown,2,2022-06-30T09:45:52.850+02:00,2022-06-30T08:20:05.567+02:00,1379,1.385177,0,0,1089.191,0,0,2022-06-30T09:44:05.799+02:00
2022-06-30T09:45:54.269+02:00,4653.986583875,0.0332183837890625,-0.3678436279296875,-0.9143218994140625,4653.976632875,0.2842468484895354,0.03276640671941435,0.3426847120298548,-0.05617610365152359,0.03163567185401917,-0.05108590424060822,-0.00236796960234642,0.0006743669509887695,0.03537511825561523,XArbitraryZVertical,0.1664768940693721,0.04012786033152634,0.142317696616699,0.9748953588074857,0.03085571341216564,-0.3360169231891632,-0.9413504004478455,0,0,0,-1,-1,4652.565836791667,unknown,2,2022-06-30T09:45:52.850+02:00,2022-06-30T08:20:05.567+02:00,1379,1.385177,0,0,1089.191,0,0,2022-06-30T09:44:05.799+02:00
2022-06-30T09:45:54.279+02:00,4653.996535875001,0.041290283203125,-0.3594970703125,-0.9174652099609375,4653.986583875,0.2836584002440428,0.03295341910441887,0.3428981933153733,-0.1330133527517319,0.02880238369107246,-0.08714204281568527,-0.007790679112076759,-0.01944926381111145,0.03372597694396973,XArbitraryZVertical,0.1665795688459945,0.04018461226244199,0.1420455696354735,0.9749151201173767,0.03102939203381538,-0.3362179696559906,-0.9412729144096375,0,0,0,-1,-1,4652.565836791667,unknown,2,2022-06-30T09:45:52.850+02:00,2022-06-30T08:20:05.567+02:00,1379,1.385177,0,0,1089.191,0,0,2022-06-30T09:44:05.799+02:00
2022-06-30T09:45:54.289+02:00,4654.006486875001,0.0363006591796875,-0.3587188720703125,-0.9290008544921875,4653.996535875001,0.2828035444965435,0.03343321421083916,0.3421506622362852,-0.2157614976167679,0.02170266024768353,-0.08418167382478714,0.001728564500808716,-0.03232991695404053,0.02718698978424072,XArbitraryZVertical,0.1661980210553384,0.04029645416436299,0.1416716878470528,0.9750300598616757,0.03148939833045006,-0.3355138599872589,-0.9415088295936584,0,0,0,-1,-1,4652.565836791667,unknown,2,2022-06-30T09:45:52.850+02:00,2022-06-30T08:20:05.567+02:00,1379,1.385177,0,0,1089.191,0,0,2022-06-30T09:44:05.799+02:00
2022-06-30T09:45:54.299+02:00,4654.016438875,0.027130126953125,-0.340789794921875,-0.929412841796875,4654.006486875001,0.2820758820784777,0.03400601990408254,0.3406488477015219,-0.2310173511505127,0.02337482199072838,-0.0593344159424305,0.009244073182344437,-0.02539849281311035,0.02452796697616577,XArbitraryZVertical,0.1654393402696663,0.04041338555643578,0.14136999677121,0.9751980550663542,0.03204579278826714,-0.3340987265110016,-0.9419931769371033,0,0,0,-1,-1,4652.565836791667,unknown,2,2022-06-30T09:45:52.850+02:00,2022-06-30T08:20:05.567+02:00,1379,1.385177,0,0,1089.191,0,0,2022-06-30T09:44:05.799+02:00
2022-06-30T09:45:54.309+02:00,4654.026390875,0.0359039306640625,-0.318939208984375,-0.9257354736328125,4654.016438875,0.2813325026497684,0.03477221597769368,0.3394928107171344,-0.190608948469162,0.03576331585645676,-0.08869496732950211,0.003519300371408463,-0.02571010589599609,0.01335287094116211,XArbitraryZVertical,0.1648361201930035,0.04064733500726487,0.1410748059611191,0.9753331491631151,0.03278093785047531,-0.333008885383606,-0.9423536658287048,0,0,0,-1,-1,4652.565836791667,unknown,2,2022-06-30T09:45:52.850+02:00,2022-06-30T08:20:05.567+02:00,1379,1.385177,0,0,1089.191,0,0,2022-06-30T09:44:05.799+02:00
2022-06-30T09:45:54.319+02:00,4654.036341875,0.0384063720703125,-0.310455322265625,-0.9274139404296875,4654.026390875,0.2803102666209964,0.03557837718610715,0.3391215570794979,-0.1164779961109161,0.03195148333907127,-0.1042122766375542,-0.006415307521820068,-0.008131116628646851,0.01303768157958984,XArbitraryZVertical,0.1646189793689773,0.04093123896449754,0.1406438704882319,0.9754201881924836,0.03354501351714134,-0.3326587975025177,-0.9424504637718201,0,0,0,-1,-1,4652.565836791667,unknown,2,2022-06-30T09:45:52.850+02:00,2022-06-30T08:20:05.567+02:00,1379,1.385177,0,0,1089.191,0,0,2022-06-30T09:44:05.799+02:00
2022-06-30T09:45:54.329+02:00,4654.046293875001,0.03961181640625,-0.31964111328125,-0.91937255859375,4654.036341875,0.2790615432795132,0.03638742793882924,0.3393157398326092,-0.04989736899733543,0.01413760054856539,-0.1252328753471375,0.00159836933016777,0.01390260457992554,0.01662302017211914,XArbitraryZVertical,0.1646826381625241,0.04123607684624692,0.1401008667073844,0.9754747313616923,0.034305140376091,-0.3328419327735901,-0.9423584342002869,0,0,0,-1,-1,4652.565836791667,unknown,2,2022-06-30T09:45:52.850+02:00,2022-06-30T08:20:05.567+02:00,1379,1.385177,0,0,1089.191,0,0,2022-06-30T09:44:05.799+02:00
2022-06-30T09:45:54.339+02:00,4654.056244875001,0.030731201171875,-0.3402557373046875,-0.9242095947265625,4654.046293875001,0.277720276761641,0.03701696716194173,0.3393976672259949,-0.03900863602757454,0.004873939789831638,-0.1169209405779839,0.003508575260639191,0.02246370911598206,0.01489549875259399,XArbitraryZVertical,0.1647063514986772,0.04143816407261035,0.1394982712208088,0.9755485208112905,0.03489737585186958,-0.332919180393219,-0.9423093795776367,0,0,0,-1,-1,4652.565836791667,unknown,2,2022-06-30T09:45:52.850+02:00,2022-06-30T08:20:05.567+02:00,1379,1.385177,0,0,1089.191,0,0,2022-06-30T09:44:05.799+02:00
2022-06-30T09:45:54.349+02:00,4654.066196875,0.0245819091796875,-0.3387603759765625,-0.92718505859375,4654.056244875001,0.276683135844751,0.0373061468364546,0.3391400547319249,-0.06672415137290955,0.007834576070308685,-0.09206113219261169,0.004438329488039017,0.01303496956825256,0.02301239967346191,XArbitraryZVertical,0.1645819456835931,0.04147671106083924,0.139016835595578,0.9756365679731152,0.03517306968569756,-0.3326762616634369,-0.9423849582672119,0,0,0,-1,-1,4652.565836791667,unknown,2,2022-06-30T09:45:52.850+02:00,2022-06-30T08:20:05.567+02:00,1379,1.385177,0,0,1089.191,0,0,2022-06-30T09:44:05.799+02:00
2022-06-30T09:45:54.359+02:00,4654.076148875,0.0260772705078125,-0.320037841796875,-0.9236602783203125,4654.066196875,0.2757808789636915,0.0375397978754945,0.3391168249339246,-0.06444048881530762,0.01903236843645573,-0.1017276123166084,-0.004662763327360153,-0.007601529359817505,0.01817488670349121,XArbitraryZVertical,0.1645730983272691,0.04151490367165659,0.1385959611597029,0.9756963686224543,0.03539354726672173,-0.3326543569564819,-0.9423844218254089,0,0,0,-1,-1,4652.565836791667,unknown,2,2022-06-30T09:45:52.850+02:00,2022-06-30T08:20:05.567+02:00,1379,1.385177,0,0,1089.191,0,0,2022-06-30T09:44:05.799+02:00
2022-06-30T09:45:54.369+02:00,4654.086099875,0.0336456298828125,-0.3128662109375,-0.9209747314453125,4654.076148875,0.274651033259261,0.03807438316990391,0.3392469148686359,-0.05584194138646126,0.01482404302805662,-0.1151057332754135,-0.01131419464945793,-0.005983471870422363,0.01513713598251343,XArbitraryZVertical,0.1646231394076395,0.04169130608337474,0.1380884368758345,0.9757524054625245,0.03589567914605141,-0.3327770233154297,-0.9423221349716187,0,0,0,-1,-1,4652.565836791667,unknown,2,2022-06-30T09:45:52.850+02:00,2022-06-30T08:20:05.567+02:00,1379,1.385177,0,0,1089.191,0,0,2022-06-30T09:44:05.799+02:00
2022-06-30T09:45:54.379+02:00,4654.096051875,0.03857421875,-0.3204498291015625,-0.917572021484375,4654.086099875,0.2734240021599308,0.03871637375276611,0.3393083943095551,-0.03249547258019447,0.008839628659188747,-0.1127170771360397,-0.01042298972606659,0.01279699802398682,0.01861816644668579,XArbitraryZVertical,0.164634575604205,0.04190756927172413,0.137542496404094,0.9758182732090214,0.03649984300136566,-0.3328349888324738,-0.9422784447669983,0,0,0,-1,-1,4652.565836791667,unknown,2,2022-06-30T09:45:52.850+02:00,2022-06-30T08:20:05.567+02:00,1379,1.385177,0,0,1089.191,0,0,2022-06-30T09:44:05.799+02:00
2022-06-30T09:45:54.389+02:00,4654.106002875,0.0377197265625,-0.3289337158203125,-0.9051361083984375,4654.096051875,0.272204119620786,0.03913197921122651,0.3394990922637338,-0.009744621813297272,-0.01196764875203371,-0.1213382631540298,-0.003243755549192429,0.02014845609664917,0.02122503519058228,XArbitraryZVertical,0.164724784017952,0.04202237741418152,0.1369811339467939,0.975877046419768,0.0368889719247818,-0.3330148160457611,-0.94219970703125,0,0,0,-1,-1,4652.565836791667,unknown,2,2022-06-30T09:45:52.850+02:00,2022-06-30T08:20:05.567+02:00,1379,1.385177,0,0,1089.191,0,0,2022-06-30T09:44:05.799+02:00
2022-06-30T09:45:54.399+02:00,4654.115954875,0.0255126953125,-0.37322998046875,-0.8970489501953125,4654.106002875,0.2710294295873403,0.03916737440522215,0.3394394759969153,-0.03505703434348106,-0.03294594958424568,-0.1047466993331909,0.001650702208280563,0.01250860095024109,0.02464628219604492,XArbitraryZVertical,0.1647178913923289,0.04193901361544906,0.136410947345989,0.9759617467384947,0.03692309930920601,-0.3329586088657379,-0.9422182440757751,0,0,0,-1,-1,4652.565836791667,unknown,2,2022-06-30T09:45:52.850+02:00,2022-06-30T08:20:05.567+02:00,1379,1.385177,0,0,1089.191,0,0,2022-06-30T09:44:05.799+02:00
2022-06-30T09:45:54.409+02:00,4654.125906875001,-0.023162841796875,-0.4269561767578125,-0.8744049072265625,4654.115954875,0.270834433994324,0.03867846618652572,0.3387535670926801,-0.06705784797668457,-0.03325727209448814,0.1011622548103333,0.001248054206371307,0.00337788462638855,0.03732812404632568,XArbitraryZVertical,0.1644202701712866,0.0416398543675417,0.1362768583658527,0.9760434511758361,0.03647125884890556,-0.332311749458313,-0.9424641728401184,0,0,0,-1,-1,4652.565836791667,unknown,2,2022-06-30T09:45:52.850+02:00,2022-06-30T08:20:05.567+02:00,1379,1.385177,0,0,1089.191,0,0,2022-06-30T09:44:05.799+02:00
2022-06-30T09:45:54.419+02:00,4654.135857875001,0.01165771484375,-0.43328857421875,-0.8575592041015625,4654.125906875001,0.2716697482657026,0.03851691566928561,0.3375156445043658,-0.1696754992008209,0.05519205704331398,0.0005856771604157984,-0.01082253456115723,-0.04208621382713318,0.04583150148391724,XArbitraryZVertical,0.1638092388189802,0.04154907096841081,0.1366736859338203,0.9760945128133018,0.0363348163664341,-0.3311439156532288,-0.942880392074585,0,0,0,-1,-1,4652.565836791667,unknown,2,2022-06-30T09:45:52.850+02:00,2022-06-30T08:20:05.567+02:00,1379,1.385177,0,0,1089.191,0,0,2022-06-30T09:44:05.799+02:00
2022-06-30T09:45:54.429+02:00,4654.145809875,0.0579833984375,-0.4522247314453125,-0.8460540771484375,4654.135857875001,0.2705580491820816,0.03956892546295072,0.3349076942050743,-0.326496809720993,0.05143992975354195,-0.2102743685245514,-0.06052400544285774,-0.0982743501663208,0.06929653882980347,XArbitraryZVertical,0.1624865032480556,0.04180240484631925,0.1362214824124083,0.9763679335615925,0.03736075013875961,-0.328682005405426,-0.9437013864517212,0,0,0,-1,-1,4652.565836791667,unknown,2,2022-06-30T09:45:52.850+02:00,2022-06-30T08:20:05.567+02:00,1379,1.385177,0,0,1089.191,0,0,2022-06-30T09:44:05.799+02:00
2022-06-30T09:45:54.439+02:00,4654.155760875,0.0294189453125,-0.456787109375,-0.828643798828125,4654.145809875,0.2681500515405626,0.04029932099526493,0.3309892571585279,-0.4831402897834778,-0.05138049274682999,-0.2677774131298065,-0.02644431591033936,-0.1083099544048309,0.08739429712295532,XArbitraryZVertical,0.1605720974105382,0.04171161882760595,0.135109986324581,0.976842930384599,0.03810161352157593,-0.3249787390232086,-0.9449535012245178,0,0,0,-1,-1,4652.565836791667,unknown,2,2022-06-30T09:45:52.850+02:00,2022-06-30T08:20:05.567+02:00,1379,1.385177,0,0,1089.191,0,0,2022-06-30T09:44:05.799+02:00
2022-06-30T09:45:54.448+02:00,4654.165712875,-0.01629638671875,-0.462646484375,-0.8131866455078125,4654.155760875,0.2655669933866998,0.04020703889165705,0.3252885890027397,-0.6709825992584229,-0.1045656874775887,-0.2824477255344391,0.01989472284913063,-0.1326426267623901,0.1007387042045593,XArbitraryZVertical,0.1578440353072557,0.04109617412945105,0.1338464363911149,0.9774873678975048,0.03808825835585594,-0.3195822536945343,-0.9467927217483521,0,0,0,-1,-1,4652.565836791667,unknown,2,2022-06-30T09:45:52.850+02:00,2022-06-30T08:20:05.567+02:00,1379,1.385177,0,0,1089.191,0,0,2022-06-30T09:44:05.799+02:00
2022-06-30T09:45:54.458+02:00,4654.175664875001,-0.0243377685546875,-0.4822235107421875,-0.7866668701171875,4654.165712875,0.2626327600404792,0.04015657726387541,0.3174299724735591,-0.9008014798164368,-0.07680658996105194,-0.3489178121089935,-0.008721601217985153,-0.1446613073348999,0.1206310987472534,XArbitraryZVertical,0.15406132981971,0.04034463165817533,0.1324133221656449,0.9783169800626308,0.03814013302326202,-0.312125951051712,-0.9492748379707336,0,0,0,-1,-1,4652.565836791667,unknown,2,2022-06-30T09:45:52.850+02:00,2022-06-30T08:20:05.567+02:00,1379,1.385177,0,0,1089.191,0,0,2022-06-30T09:44:05.799+02:00
2022-06-30T09:45:54.468+02:00,4654.185615875001,-0.0108489990234375,-0.51287841796875,-0.74884033203125,4654.175664875001,0.2591041124263274,0.04057449735989336,0.3069291647683358,-1.204050540924072,-0.05368076264858246,-0.4068602025508881,-0.05496447160840034,-0.1605139076709747,0.1392946839332581,XArbitraryZVertical,0.1489607687542379,0.03962373214814652,0.1307203393797731,0.9793635271171477,0.03866767138242722,-0.3021327555179596,-0.9524812698364258,0,0,0,-1,-1,4652.565836791667,unknown,2,2022-06-30T09:45:52.850+02:00,2022-06-30T08:20:05.567+02:00,1379,1.385177,0,0,1089.191,0,0,2022-06-30T09:44:05.799+02:00
2022-06-30T09:45:54.478+02:00,4654.195567875,-0.0062103271484375,-0.542266845703125,-0.706878662109375,4654.185615875001,0.2552391228016442,0.04111031840432912,0.2927913504307872,-1.616410374641418,-0.06879674643278122,-0.4494215250015259,-0.06368783861398697,-0.1935977637767792,0.1699661612510681,XArbitraryZVertical,0.1420685044863931,0.03873036835601459,0.1288592748415204,0.9806690396112802,0.03934965655207634,-0.2886258959770203,-0.9566329717636108,0,0,0,-1,-1,4652.565836791667,unknown,2,2022-06-30T09:45:52.850+02:00,2022-06-30T08:20:05.567+02:00,1379,1.385177,0,0,1089.191,0,0,2022-06-30T09:44:05.799+02:00
2022-06-30T09:45:54.488+02:00,4654.205519875,-0.0188446044921875,-0.5312347412109375,-0.698089599609375,4654.195567875,0.2510680444151164,0.04140131552524628,0.2740517230599361,-2.12055516242981,-0.1022910624742508,-0.5142708420753479,-0.05069433897733688,-0.2422444224357605,0.2130170464515686,XArbitraryZVertical,0.1329261996389078,0.03744276778555857,0.126809621095157,0.9822667152829516,0.03984492644667625,-0.2706341743469238,-0.9618573188781738,0,0,0,-1,-1,4652.565836791667,unknown,2,2022-06-30T09:45:52.850+02:00,2022-06-30T08:20:05.567+02:00,1379,1.385177,0,0,1089.191,0,0,2022-06-30T09:44:05.799+02:00
2022-06-30T09:45:54.498+02:00,4654.215470875,-0.0476837158203125,-0.4227752685546875,-0.764678955078125,4654.205519875,0.2463986354627975,0.04137680363663925,0.2502935597858167,-2.586107969284058,-0.1366530954837799,-0.5898756980895996,-0.04628679156303406,-0.2945786118507385,0.2611318826675415,XArbitraryZVertical,0.1213254856660584,0.03570519503656082,0.1244633099691837,0.9841312708844834,0.04007605463266373,-0.2476883828639984,-0.9680105447769165,0,0,0,-1,-1,4652.565836791667,unknown,2,2022-06-30T09:45:52.850+02:00,2022-06-30T08:20:05.567+02:00,1379,1.385177,0,0,1089.191,0,0,2022-06-30T09:44:05.799+02:00
2022-06-30T09:45:54.508+02:00,4654.225422875001,-0.077606201171875,-0.2379302978515625,-0.7899627685546875,4654.215470875,0.2410535248014304,0.04127898416635217,0.2230742994453167,-2.814112663269043,-0.1187270954251289,-0.6815241575241089,-0.05908975377678871,-0.3100061416625977,0.2763016223907471,XArbitraryZVertical,0.1080090142739306,0.03374104056220362,0.1217430592143462,0.9860904411446304,0.04024473950266838,-0.2212287932634354,-0.9743911623954773,0,0,0,-1,-1,4652.565836791667,unknown,2,2022-06-30T09:45:52.850+02:00,2022-06-30T08:20:05.567+02:00,1379,1.385177,0,0,1089.191,0,0,2022-06-30T09:44:05.799+02:00
2022-06-30T09:45:54.518+02:00,4654.235373875001,-0.0842742919921875,-0.1324310302734375,-0.8022308349609375,4654.225422875001,0.2349184799865551,0.04182274199914229,0.1943112637881796,-2.888180017471313,-0.01276151183992624,-0.7598458528518677,-0.08870784193277359,-0.2296846061944962,0.2156440019607544,XArbitraryZVertical,0.09387454714252047,0.03203305251967945,0.118625513897464,0.9879724430929903,0.04102371260523796,-0.1930908113718033,-0.9803228974342346,0,0,0,-1,-1,4652.565836791667,unknown,2,2022-06-30T09:45:52.850+02:00,2022-06-30T08:20:05.567+02:00,1379,1.385177,0,0,1089.191,0,0,2022-06-30T09:44:05.799+02:00
2022-06-30T09:45:54.528+02:00,4654.245325875,-0.0618438720703125,-0.1264495849609375,-0.7902679443359375,4654.235373875001,0.2281425982221443,0.04355650396727666,0.1654052966366323,-2.850682973861694,0.1256424337625504,-0.8252589702606201,-0.1205550581216812,-0.07327835261821747,0.1954534649848938,XArbitraryZVertical,0.07958183426992484,0.0309616469535911,0.1151953538269595,0.9896657649580317,0.04294844716787338,-0.1646521091461182,-0.9854162335395813,0,0,0,-1,-1,4652.565836791667,unknown,2,2022-06-30T09:45:52.850+02:00,2022-06-30T08:20:05.567+02:00,1379,1.385177,0,0,1089.191,0,0,2022-06-30T09:44:05.799+02:00
2022-06-30T09:45:54.538+02:00,4654.255277875001,-0.034698486328125,-0.1435546875,-0.758514404296875,4654.245325875,0.2207323178574101,0.04638522060730674,0.1366641784882186,-2.87259316444397,0.2181563675403595,-0.905296266078949,-0.1302109360694885,0.003807961940765381,0.1873795986175537,XArbitraryZVertical,0.06529695526503404,0.03051401448144417,0.1114294316030123,0.9911552648031948,0.04593624547123909,-0.136239156126976,-0.9896104335784912,0,0,0,-1,-1,4652.565836791667,unknown,2,2022-06-30T09:45:52.850+02:00,2022-06-30T08:20:05.567+02:00,1379,1.385177,0,0,1089.191,0,0,2022-06-30T09:44:05.799+02:00
2022-06-30T09:45:54.548+02:00,4654.265228875001,-0.027862548828125,-0.1510772705078125,-0.727996826171875,4654.255277875001,0.2125806162873288,0.04968462849081922,0.1067653959997653,-3.070998907089233,0.2459626942873001,-1.010394334793091,-0.1112256795167923,-0.01988707482814789,0.202811062335968,XArbitraryZVertical,0.05040835185374924,0.03032334083732067,0.1072243724600213,0.9924930266791593,0.04938140138983727,-0.1065626814961433,-0.9930790066719055,0,0,0,-1,-1,4652.565836791667,unknown,2,2022-06-30T09:45:52.850+02:00,2022-06-30T08:20:05.567+02:00,1379,1.385177,0,0,1089.191,0,0,2022-06-30T09:44:05.799+02:00
2022-06-30T09:45:54.558+02:00,4654.275180875,-0.0309295654296875,-0.1585235595703125,-0.717315673828125,4654.265228875001,0.2034592412576717,0.0530412214147525,0.07408041250598126,-3.39964747428894,0.2691516876220703,-1.157490611076355,-0.08756983280181885,-0.06954218447208405,0.2373403906822205,XArbitraryZVertical,0.03413620809351905,0.03012171656230487,0.1024258056871929,0.9936984065840493,0.05287094786763191,-0.07401267439126968,-0.9958547949790955,0,0,0,-1,-1,4652.565836791667,unknown,2,2022-06-30T09:45:52.850+02:00,2022-06-30T08:20:05.567+02:00,1379,1.385177,0,0,1089.191,0,0,2022-06-30T09:44:05.799+02:00
2022-06-30T09:45:54.568+02:00,4654.285131875,-0.0208282470703125,-0.158050537109375,-0.7003173828125,4654.275180875,0.1930438595952083,0.05658968633497299,0.03802171014046889,-3.719928979873657,0.3343716859817505,-1.323998689651489,-0.08438156545162201,-0.1130648925900459,0.2696808576583862,XArbitraryZVertical,0.01618767545797851,0.02998556760179079,0.09685144352865338,0.9947153578256408,0.05651861056685448,-0.0380125492811203,-0.9976776242256165,0,0,0,-1,-1,4652.565836791667,unknown,2,2022-06-30T09:45:52.850+02:00,2022-06-30T08:20:05.567+02:00,1379,1.385177,0,0,1089.191,0,0,2022-06-30T09:44:05.799+02:00
2022-06-30T09:45:54.578+02:00,4654.295083875,0.001708984375,-0.1491851806640625,-0.645782470703125,4654.285131875,0.1816105288721876,0.06045644706156537,-0.001362527692008634,-4.054466247558594,0.4097391366958618,-1.420804500579834,-0.0913495346903801,-0.1598862707614899,0.2808564305305481,XArbitraryZVertical,-0.003418839193358325,0.03003734054067227,0.09061856249381524,0.9954268287190126,0.06041957065463066,0.001362527254968882,-0.9981721639633179,0,0,0,-1,-1,4652.565836791667,unknown,2,2022-06-30T09:45:52.850+02:00,2022-06-30T08:20:05.567+02:00,1379,1.385177,0,0,1089.191,0,0,2022-06-30T09:44:05.799+02:00
2022-06-30T09:45:54.588+02:00,4654.305035875001,0.0229034423828125,-0.124755859375,-0.5774993896484375,4654.295083875,0.1701352528140925,0.06447277928895277,-0.0446313459963038,-4.494555950164795,0.4506697952747345,-1.410732865333557,-0.08519260585308075,-0.2026672512292862,0.2966111898422241,XArbitraryZVertical,-0.02495939126058859,0.03021135091590412,0.08418318333508371,0.9956794428925727,0.06436396390199661,0.04461653158068657,-0.9969286322593689,0,0,0,-1,-1,4652.565836791667,unknown,2,2022-06-30T09:45:52.850+02:00,2022-06-30T08:20:05.567+02:00,1379,1.385177,0,0,1089.191,0,0,2022-06-30T09:44:05.799+02:00
2022-06-30T09:45:54.598+02:00,4654.314986875001,0.0280609130859375,-0.0660552978515625,-0.4989471435546875,4654.305035875001,0.1596433217145383,0.0683018773552051,-0.09289284683998004,-5.053317070007324,0.4651384353637695,-1.33240807056427,-0.06624594330787659,-0.2419446706771851,0.3475844264030457,XArbitraryZVertical,-0.04897452942704629,0.03029887301234286,0.07802422570823279,0.9952867457109145,0.06795453280210495,0.09275931119918823,-0.9933669567108154,0,0,0,-1,-1,4652.565836791667,unknown,2,2022-06-30T09:45:52.850+02:00,2022-06-30T08:20:05.567+02:00,1379,1.385177,0,0,1089.191,0,0,2022-06-30T09:44:05.799+02:00
2022-06-30T09:45:54.608+02:00,4654.324938875,0.0158233642578125,0.01507568359375,-0.43096923828125,4654.314986875001,0.1504814510151228,0.071822806508252,-0.147130940886288,-5.701034545898438,0.4675581753253937,-1.264614939689636,-0.04808269441127777,-0.2713567316532135,0.4091460108757019,XArbitraryZVertical,-0.07593550629452901,0.03018392087019731,0.07228668487968919,0.9940308372384364,0.07098574936389923,0.146600678563118,-0.9866454601287842,0,0,0,-1,-1,4652.565836791667,unknown,2,2022-06-30T09:45:52.850+02:00,2022-06-30T08:20:05.567+02:00,1379,1.385177,0,0,1089.191,0,0,2022-06-30T09:44:05.799+02:00
2022-06-30T09:45:54.622+02:00,4654.334889875,0.00115966796875,0.111846923828125,-0.377105712890625,4654.324938875,0.1423157420515349,0.07512870433879967,-0.2080036709792222,-6.380993843078613,0.4938457608222961,-1.251668810844421,-0.04537966102361679,-0.2725625038146973,0.476737916469574,XArbitraryZVertical,-0.1061343644097998,0.029882291289698,0.06677484480700425,0.9916570667350577,0.07344017922878265,0.2065070122480392,-0.9756851196289062,0,0,0,-1,-1,4652.565836791667,unknown,2,2022-06-30T09:45:52.850+02:00,2022-06-30T08:20:05.567+02:00,1379,1.385177,0,0,1089.191,0,0,2022-06-30T09:44:05.799+02:00
2022-06-30T09:45:54.628+02:00,4654.344841875,-0.0115203857421875,0.2061004638671875,-0.342010498046875,4654.334889875,0.1347639860514454,0.078476076508702,-0.275691986765827,-7.072855949401855,0.5533055663108826,-1.25931179523468,-0.05961212515830994,-0.2571373581886292,0.5283063054084778,XArbitraryZVertical,-0.1396087124856799,0.02952286456610067,0.06126291947448348,0.9878687591424982,0.07543510943651199,0.2722128629684448,-0.9592756032943726,0,0,0,-1,-1,4652.565836791667,unknown,2,2022-06-30T09:45:52.850+02:00,2022-06-30T08:20:05.567+02:00,1379,1.385177,0,0,1089.191,0,0,2022-06-30T09:44:05.799+02:00
2022-06-30T09:45:54.638+02:00,4654.354793875001,-0.023529052734375,0.276275634765625,-0.314361572265625,4654.344841875,0.1277757683996354,0.08231603349395693,-0.350308370672031,-7.769362449645996,0.6572974324226379,-1.276150584220886,-0.0760701522231102,-0.2313407063484192,0.5589807033538818,XArbitraryZVertical,-0.1763439408980391,0.02931807771354631,0.05565880653582412,0.9823163835647336,0.07722944021224976,0.3431874513626099,-0.9360865354537964,0,0,0,-1,-1,4652.565836791667,unknown,2,2022-06-30T09:45:52.850+02:00,2022-06-30T08:20:05.567+02:00,1379,1.385177,0,0,1089.191,0,0,2022-06-30T09:44:05.799+02:00
2022-06-30T09:45:54.648+02:00,4654.364744875001,-0.025970458984375,0.3260955810546875,-0.25189208984375,4654.354793875001,0.1212941242448352,0.08700082202320827,-0.4319887544175872,-8.486130714416504,0.7826681137084961,-1.308276891708374,-0.09042961895465851,-0.2125774025917053,0.5626896023750305,XArbitraryZVertical,-0.2162968805219434,0.02942058327995575,0.04984265796179894,0.9746106499951364,0.07890885323286057,0.4186776876449585,-0.9047001600265503,0,0,0,-1,-1,4652.565836791667,unknown,2,2022-06-30T09:45:52.850+02:00,2022-06-30T08:20:05.567+02:00,1379,1.385177,0,0,1089.191,0,0,2022-06-30T09:44:05.799+02:00
2022-06-30T09:45:54.658+02:00,4654.374696875,-0.0215606689453125,0.36492919921875,-0.1746063232421875,4654.364744875001,0.1154348556216614,0.09256650716130146,-0.520840757583703,-9.205563545227051,0.8776024580001831,-1.328377366065979,-0.1037071049213409,-0.2213341295719147,0.5493258833885193,XArbitraryZVertical,-0.259361647323025,0.02979493757285446,0.04378741507565773,0.9643269917873374,0.0801776796579361,0.4976095855236053,-0.8636875748634338,0,0,0,-1,-1,4652.565836791667,unknown,2,2022-06-30T09:45:52.850+02:00,2022-06-30T08:20:05.567+02:00,1379,1.385177,0,0,1089.191,0,0,2022-06-30T09:44:05.799+02:00
2022-06-30T09:45:54.667+02:00,4654.384647875,-0.0197601318359375,0.403045654296875,-0.1099090576171875,4654.374696875,0.1105187007610651,0.09896227417003989,-0.6169797644235232,-9.952510833740234,0.9388455748558044,-1.349271535873413,-0.1065557077527046,-0.2524789571762085,0.5597467422485352,XArbitraryZVertical,-0.3053884536830088,0.03030532941929244,0.03756511191419153,0.9510039569834233,0.08058487623929977,0.5785744190216064,-0.8116389513015747,0,0,0,-1,-1,4652.565836791667,unknown,2,2022-06-30T09:45:52.850+02:00,2022-06-30T08:20:05.567+02:00,1379,1.385177,0,0,1089.191,0,0,2022-06-30T09:44:05.799+02:00
2022-06-30T09:45:54.677+02:00,4654.394599875,-0.0201263427734375,0.4368133544921875,-0.0833587646484375,4654.384647875,0.1066075209574299,0.1060995386028955,-0.7205895340152804,-10.68932151794434,0.9857243895530701,-1.394062042236328,-0.1011365205049515,-0.2948986887931824,0.5725849866867065,XArbitraryZVertical,-0.3541977864684986,0.03079291865210653,0.03112014640693098,0.9341452120335034,0.07957548648118973,0.6598277688026428,-0.7471914291381836,0,0,0,-1,-1,4652.565836791667,unknown,2,2022-06-30T09:45:52.850+02:00,2022-06-30T08:20:05.567+02:00,1379,1.385177,0,0,1089.191,0,0,2022-06-30T09:44:05.799+02:00
2022-06-30T09:45:54.687+02:00,4654.404551875,-0.038116455078125,0.4887542724609375,-0.1180419921875,4654.394599875,0.1036498372132864,0.1140243813080563,-0.8309821749627559,-11.28729343414307,1.016429305076599,-1.462614178657532,-0.096463643014431,-0.3355483412742615,0.5598636269569397,XArbitraryZVertical,-0.4051430317195098,0.03118800517870386,0.02434831886335303,0.9133966947389993,0.07670314610004425,0.7385938763618469,-0.6697728633880615,0,0,0,-1,-1,4652.565836791667,unknown,2,2022-06-30T09:45:52.850+02:00,2022-06-30T08:20:05.567+02:00,1379,1.385177,0,0,1089.191,0,0,2022-06-30T09:44:05.799+02:00
2022-06-30T09:45:54.697+02:00,4654.414502875,-0.0789794921875,0.5795745849609375,-0.21435546875,4654.404551875,0.1012971843051393,0.1222341964524071,-0.9461241112220385,-11.61582088470459,0.9950727820396423,-1.562083601951599,-0.09143522381782532,-0.3743415474891663,0.4971089363098145,XArbitraryZVertical,-0.4569329655661122,0.03127818434743856,0.017190016589862,0.8887848633547091,0.07130852341651917,0.811154842376709,-0.5804678797721863,0,0,0,-1,-1,4652.565836791667,unknown,2,2022-06-30T09:45:52.850+02:00,2022-06-30T08:20:05.567+02:00,1379,1.385177,0,0,1089.191,0,0,2022-06-30T09:44:05.799+02:00
2022-06-30T09:45:54.709+02:00,4654.424454875,-0.1605987548828125,0.708831787109375,-0.3620147705078125,4654.414502875,0.09857250814143066,0.1294708389076894,-1.063062340586277,-11.61896228790283,0.9199308753013611,-1.679964423179626,-0.1008896082639694,-0.3850942850112915,0.364086925983429,XArbitraryZVertical,-0.5079253000016355,0.03077880872563548,0.009631508648541639,0.8607972226465275,0.06277280300855637,0.8738484978675842,-0.4821290969848633,0,0,0,-1,-1,4652.565836791667,unknown,2,2022-06-30T09:45:52.850+02:00,2022-06-30T08:20:05.567+02:00,1379,1.385177,0,0,1089.191,0,0,2022-06-30T09:44:05.799+02:00
2022-06-30T09:45:54.717+02:00,4654.434405875,-0.2598114013671875,0.8862762451171875,-0.583465576171875,4654.424454875,0.09299883904329349,0.1330972690722773,-1.178626360967194,-11.27635478973389,0.8393963575363159,-1.841052532196045,-0.1296988278627396,-0.3445073962211609,0.1644585430622101,XArbitraryZVertical,-0.5565302248123988,0.02944537797064941,0.001636714080068437,0.8303037581598804,0.05071897804737091,0.9240818619728088,-0.378814160823822,0,0,0,-1,-1,4652.565836791667,unknown,2,2022-06-30T09:45:52.850+02:00,2022-06-30T08:20:05.567+02:00,1379,1.385177,0,0,1089.191,0,0,2022-06-30T09:44:05.799+02:00
2022-06-30T09:45:54.727+02:00,4654.444357875001,-0.3574371337890625,1.096649169921875,-0.77349853515625,4654.434405875,0.07883883076408293,0.1278788698483403,-1.288624324053555,-10.47156715393066,0.8146076798439026,-1.96540892124176,-0.1961090713739395,-0.2516211271286011,-0.08584588766098022,XArbitraryZVertical,-0.6009687350581265,0.02742319254783473,-0.006905348859834575,0.7987721633356686,0.03550996631383896,0.9604529142379761,-0.276169091463089,0,0,0,-1,-1,4652.565836791667,unknown,2,2022-06-30T09:45:52.850+02:00,2022-06-30T08:20:05.567+02:00,1379,1.385177,0,0,1089.191,0,0,2022-06-30T09:44:05.799+02:00
2022-06-30T09:45:54.737+02:00,4654.454309875,-0.443939208984375,1.283157348632812,-0.928955078125,4654.444357875001,0.03861222174443268,0.09702927794094872,-1.388671405879877,-9.227148056030273,0.8824776411056519,-2.139740467071533,-0.2773580849170685,-0.09718489646911621,-0.4031981825828552,XArbitraryZVertical,-0.6397226192992251,0.02492271213547278,-0.01620739546592374,0.7680306699129394,0.01754633896052837,0.9834610223770142,-0.1802676618099213,0,0,0,-1,-1,4652.565836791667,unknown,2,2022-06-30T09:45:52.850+02:00,2022-06-30T08:20:05.567+02:00,1379,1.385177,0,0,1089.191,0,0,2022-06-30T09:44:05.799+02:00
2022-06-30T09:45:54.747+02:00,4654.464260875,-0.502716064453125,1.452682495117188,-1.00164794921875,4654.454309875,-0.09927223316996783,-0.03009299234425579,-1.472746777331701,-7.4353928565979,1.061342000961304,-2.256896734237671,-0.3544920086860657,0.1014522314071655,-0.6756494641304016,XArbitraryZVertical,-0.6712549471130568,0.02218443333485396,-0.02666410459197964,0.7404146076270186,-0.002945467131212354,0.9951969981193542,-0.0978492945432663,0,0,0,-1,-1,4652.565836791667,unknown,2,2022-06-30T09:45:52.850+02:00,2022-06-30T08:20:05.567+02:00,1379,1.385177,0,0,1089.191,0,0,2022-06-30T09:44:05.799+02:00
2022-06-30T09:45:54.757+02:00,4654.474212875,-0.562835693359375,1.6199951171875,-0.976806640625,4654.464260875,-0.6970636702934447,-0.6144316853893274,-1.528944611085243,-5.438647747039795,1.429608106613159,-2.130387544631958,-0.4198180735111237,0.2840330600738525,-0.8947664499282837,XArbitraryZVertical,-0.6946210656763118,0.02017786980615117,-0.03822225500599333,0.7180763056973889,-0.02412146702408791,0.9991243481636047,-0.03418885916471481,0,0,0,-1,-1,4652.565836791667,unknown,2,2022-06-30T09:45:52.850+02:00,2022-06-30T08:20:05.567+02:00,1379,1.385177,0,0,1089.191,0,0,2022-06-30T09:44:05.799+02:00
2022-06-30T09:45:54.767+02:00,4654.484163875,-0.6253509521484375,1.729461669921875,-0.909210205078125,4654.474212875,-1.912781093790776,-1.812774389644229,-1.525707888444181,-3.788838624954224,1.882391571998596,-1.845824122428894,-0.4589546322822571,0.4536988139152527,-1.012449264526367,XArbitraryZVertical,-0.7106319575669139,0.02006822501489341,-0.05059980455146128,0.7014550791135817,-0.04376175999641418,0.9989836812019348,0.01080102566629648,0,0,0,-1,-1,4652.565836791667,unknown,2,2022-06-30T09:45:52.850+02:00,2022-06-30T08:20:05.567+02:00,1379,1.385177,0,0,1089.191,0,0,2022-06-30T09:44:05.799+02:00
2022-06-30T09:45:54.777+02:00,4654.494115875001,-0.6918792724609375,1.790374755859375,-0.8605194091796875,4654.484163875,-2.283394897200534,-2.162251192692327,-1.496337630426988,-2.667386293411255,2.226353645324707,-1.686776995658875,-0.5010807514190674,0.6227660179138184,-1.018285751342773,XArbitraryZVertical,-0.7212917697010867,0.02185446811330252,-0.06369549650653923,0.6893501431170875,-0.06175531446933746,0.9972292184829712,0.04147886857390404,0,0,0,-1,-1,4652.565836791667,unknown,2,2022-06-30T09:45:52.850+02:00,2022-06-30T08:20:05.567+02:00,1379,1.385177,0,0,1089.191,0,0,2022-06-30T09:44:05.799+02:00
2022-06-30T09:45:54.787+02:00,4654.504067875,-0.7478790283203125,1.8681640625,-0.8051605224609375,4654.494115875001,-2.380685012370362,-2.235879624794174,-1.469356704409583,-1.955329418182373,2.449636697769165,-1.691051959991455,-0.5456682443618774,0.7346022725105286,-0.9717044830322266,XArbitraryZVertical,-0.7284532927539378,0.02455178583634102,-0.07762013214177703,0.6802412700741246,-0.07968300580978394,0.9948593974113464,0.06249397993087769,0,0,0,-1,-1,4652.565836791667,unknown,2,2022-06-30T09:45:52.850+02:00,2022-06-30T08:20:05.567+02:00,1379,1.385177,0,0,1089.191,0,0,2022-06-30T09:44:05.799+02:00
2022-06-30T09:45:54.797+02:00,4654.514018875,-0.77789306640625,1.946090698242188,-0.71343994140625,4654.504067875,-2.411488763961647,-2.241069006567027,-1.445224815185718,-1.64924156665802,2.665004253387451,-1.658031344413757,-0.5937338471412659,0.7982484102249146,-0.9383195638656616,XArbitraryZVertical,-0.7335728275173735,0.02776450008420108,-0.09235751141161888,0.672733295759287,-0.09814571589231491,0.9921262264251709,0.07779992371797562,0,0,0,-1,-1,4652.565836791667,unknown,2,2022-06-30T09:45:52.850+02:00,2022-06-30T08:20:05.567+02:00,1379,1.385177,0,0,1089.191,0,0,2022-06-30T09:44:05.799+02:00
2022-06-30T09:45:54.807+02:00,4654.523970875,-0.7852935791015625,2.003631591796875,-0.590087890625,4654.514018875,-2.4337782440899,-2.235208645791012,-1.422959953990055,-1.626400709152222,2.956466436386108,-1.458744525909424,-0.6319142580032349,0.8790719509124756,-0.8959845304489136,XArbitraryZVertical,-0.7378186155662422,0.03218025536669861,-0.1076163036378753,0.6655876056437741,-0.1159650683403015,0.9890921115875244,0.09082375466823578,0,0,0,-1,-1,4652.565836791667,unknown,2,2022-06-30T09:45:52.850+02:00,2022-06-30T08:20:05.567+02:00,1379,1.385177,0,0,1089.191,0,0,2022-06-30T09:44:05.799+02:00
2022-06-30T09:45:54.817+02:00,4654.533921875,-0.749359130859375,2.054336547851562,-0.435760498046875,4654.523970875,-2.465513532275727,-2.235343376248733,-1.40221331173209,-1.746991634368896,3.319863319396973,-1.19659161567688,-0.645812451839447,0.9602672457695007,-0.8169145584106445,XArbitraryZVertical,-0.7417879965230544,0.03857156587907337,-0.1232478044744243,0.658082760286742,-0.1320809125900269,0.9858235120773315,0.1034743934869766,0,0,0,-1,-1,4652.565836791667,unknown,2,2022-06-30T09:45:52.850+02:00,2022-06-30T08:20:05.567+02:00,1379,1.385177,0,0,1089.191,0,0,2022-06-30T09:44:05.799+02:00
2022-06-30T09:45:54.827+02:00,4654.543873875,-0.6697540283203125,2.130111694335938,-0.2653656005859375,4654.533921875,-2.508900429847991,-2.243193521174286,-1.382846839022837,-1.881121754646301,3.68055248260498,-0.8861564993858337,-0.6391187310218811,1.021242260932922,-0.7064675092697144,XArbitraryZVertical,-0.7456237492915336,0.04727442814169155,-0.1392300515658441,0.6499426732568007,-0.1461751312017441,0.9823894500732422,0.1163792908191681,0,0,0,-1,-1,4652.565836791667,unknown,2,2022-06-30T09:45:52.850+02:00,2022-06-30T08:20:05.567+02:00,1379,1.385177,0,0,1089.191,0,0,2022-06-30T09:44:05.799+02:00
2022-06-30T09:45:54.837+02:00,4654.553825875,-0.5915374755859375,2.191574096679688,-0.13739013671875,4654.543873875,-2.563737808407113,-2.258864984097784,-1.365365776852703,-2.008663654327393,3.967433214187622,-0.4759672880172729,-0.5917826890945435,1.075363516807556,-0.5653036832809448,XArbitraryZVertical,-0.7492371073836788,0.05843997935887712,-0.155172072502234,0.6412100609074467,-0.1575767397880554,0.9789732694625854,0.1295429468154907,0,0,0,-1,-1,4652.565836791667,unknown,2,2022-06-30T09:45:52.850+02:00,2022-06-30T08:20:05.567+02:00,1379,1.385177,0,0,1089.191,0,0,2022-06-30T09:44:05.799+02:00
2022-06-30T09:45:54.846+02:00,4654.563776875,-0.5304107666015625,2.204574584960938,-0.0192718505859375,4654.553825875,-2.629779252438386,-2.282807125087669,-1.350307285460297,-2.079974412918091,4.179399490356445,-0.02417160011827946,-0.5041823387145996,1.154321074485779,-0.4082596302032471,XArbitraryZVertical,-0.7524967606760803,0.07207975087843389,-0.1705557462934458,0.632031543277466,-0.1655719429254532,0.9757906198501587,0.1428937315940857,0,0,0,-1,-1,4652.565836791667,unknown,2,2022-06-30T09:45:52.850+02:00,2022-06-30T08:20:05.567+02:00,1379,1.385177,0,0,1089.191,0,0,2022-06-30T09:44:05.799+02:00
2022-06-30T09:45:54.856+02:00,4654.573728875001,-0.4762115478515625,2.191482543945312,0.122833251953125,4654.563776875,-2.703688364787882,-2.312447469795443,-1.338055100593519,-2.049402952194214,4.332325458526611,0.4096628725528717,-0.4214695692062378,1.218536496162415,-0.2931935787200928,XArbitraryZVertical,-0.7550980982710974,0.08791151742362323,-0.1851174771433294,0.6227600659618296,-0.1700681447982788,0.9730377793312073,0.1558031439781189,0,0,0,-1,-1,4652.565836791667,unknown,2,2022-06-30T09:45:52.850+02:00,2022-06-30T08:20:05.567+02:00,1379,1.385177,0,0,1089.191,0,0,2022-06-30T09:44:05.799+02:00
2022-06-30T09:45:54.866+02:00,4654.583679875001,-0.4362640380859375,2.113082885742188,0.254608154296875,4654.573728875001,-2.785633419622005,-2.348115919274388,-1.328706758310347,-2.080075979232788,4.509907245635986,0.9152080416679382,-0.3595309257507324,1.23373556137085,-0.1874133348464966,XArbitraryZVertical,-0.7568698181328921,0.1059182482860515,-0.1987461316543793,0.6135384528720969,-0.170880064368248,0.9708391427993774,0.1681412011384964,0,0,0,-1,-1,4652.565836791667,unknown,2,2022-06-30T09:45:52.850+02:00,2022-06-30T08:20:05.567+02:00,1379,1.385177,0,0,1089.191,0,0,2022-06-30T09:44:05.799+02:00
2022-06-30T09:45:54.876+02:00,4654.593631875,-0.399505615234375,1.9862060546875,0.3773040771484375,4654.583679875001,-2.879967937629123,-2.393922723011212,-1.321616028732073,-2.161064624786377,4.665411472320557,1.396821022033691,-0.3085336685180664,1.222367763519287,-0.05800008773803711,XArbitraryZVertical,-0.7579259185955985,0.1263520379445401,-0.2113230389920006,0.6040911637480747,-0.1676781177520752,0.9691148996353149,0.1808330714702606,0,0,0,-1,-1,4652.565836791667,unknown,2,2022-06-30T09:45:52.850+02:00,2022-06-30T08:20:05.567+02:00,1379,1.385177,0,0,1089.191,0,0,2022-06-30T09:44:05.799+02:00
2022-06-30T09:45:54.886+02:00,4654.603583875,-0.3645782470703125,1.84832763671875,0.4736480712890625,4654.593631875,-2.985991154373499,-2.449717856560577,-1.315550923006001,-2.261979341506958,4.737777233123779,1.802025318145752,-0.2751847505569458,1.145481586456299,0.06018304824829102,XArbitraryZVertical,-0.7583324823185207,0.1488092653190346,-0.2228184400977858,0.5942554808385808,-0.1610794812440872,0.9676013588905334,0.1944247037172318,0,0,0,-1,-1,4652.565836791667,unknown,2,2022-06-30T09:45:52.850+02:00,2022-06-30T08:20:05.567+02:00,1379,1.385177,0,0,1089.191,0,0,2022-06-30T09:44:05.799+02:00
2022-06-30T09:45:54.896+02:00,4654.613534875,-0.3425445556640625,1.726547241210938,0.527801513671875,4654.603583875,-3.101376120621551,-2.514228787118688,-1.309892970392964,-2.25871467590332,4.703077793121338,2.183859348297119,-0.2480834424495697,1.020048856735229,0.1684697866439819,XArbitraryZVertical,-0.758008084731376,0.1727446588358414,-0.2330161955080673,0.5841974247626058,-0.1514223515987396,0.9661573767662048,0.2088339477777481,0,0,0,-1,-1,4652.565836791667,unknown,2,2022-06-30T09:45:52.850+02:00,2022-06-30T08:20:05.567+02:00,1379,1.385177,0,0,1089.191,0,0,2022-06-30T09:44:05.799+02:00
2022-06-30T09:45:54.906+02:00,4654.6234875,-0.3427581787109375,1.616928100585938,0.551361083984375,4654.613534875,3.059530001743069,-2.585874544192313,-1.305068110682982,-2.084035158157349,4.618843078613281,2.593804597854614,-0.2260366827249527,0.8834260702133179,0.25055330991745,XArbitraryZVertical,-0.7565975226693138,0.1977558064929707,-0.2417108601565379,0.5744811740936897,-0.1385416984558105,0.9649015069007874,0.2230943441390991,0,0,0,-1,-1,4652.565836791667,unknown,2,2022-06-30T09:45:52.850+02:00,2022-06-30T08:20:05.567+02:00,1379,1.385177,0,0,1089.191,0,0,2022-06-30T09:44:05.799+02:00
2022-06-30T09:45:54.916+02:00,4654.6334385,-0.3454132080078125,1.512161254882812,0.614776611328125,4654.6234875,2.932814781993955,-2.662655714474353,-1.302454284334718,-1.684228777885437,4.502583980560303,2.994931936264038,-0.2203618139028549,0.762335479259491,0.2924993932247162,XArbitraryZVertical,-0.7534577560141134,0.2235000358084824,-0.2489764192156586,0.5660034135383863,-0.1221828609704971,0.9642118215560913,0.2353017181158066,0,0,0,-1,-1,4652.565836791667,unknown,2,2022-06-30T09:45:52.850+02:00,2022-06-30T08:20:05.567+02:00,1379,1.385177,0,0,1089.191,0,0,2022-06-30T09:44:05.799+02:00
2022-06-30T09:45:54.926+02:00,4654.6433905,-0.3655548095703125,1.38433837890625,0.7150115966796875,4654.6334385,2.801923557651007,-2.74482197470879,-1.303090558527968,-1.147973299026489,4.339423656463623,3.368376016616821,-0.2405366897583008,0.6525479555130005,0.3073903322219849,XArbitraryZVertical,-0.7481355933645094,0.2495562537618388,-0.2549439707809097,0.5594805179990731,-0.1022215932607651,0.9643803238868713,0.2439703792333603,0,0,0,-1,-1,4652.565836791667,unknown,2,2022-06-30T09:45:52.850+02:00,2022-06-30T08:20:05.567+02:00,1379,1.385177,0,0,1089.191,0,0,2022-06-30T09:44:05.799+02:00
2022-06-30T09:45:54.936+02:00,4654.653342500001,-0.3834228515625,1.259384155273438,0.848236083984375,4654.6433905,2.665932012674682,-2.833770746801237,-1.307363988114214,-0.5400715470314026,4.151969432830811,3.653209924697876,-0.2665174901485443,0.5466594696044922,0.3666198253631592,XArbitraryZVertical,-0.7404209196858217,0.2754180529474426,-0.2598494282374794,0.555337802337162,-0.07889579236507416,0.9655019044876099,0.2481564879417419,0,0,0,-1,-1,4652.565836791667,unknown,2,2022-06-30T09:45:52.850+02:00,2022-06-30T08:20:05.567+02:00,1379,1.385177,0,0,1089.191,0,0,2022-06-30T09:44:05.799+02:00
2022-06-30T09:45:54.946+02:00,4654.663293500001,-0.37738037109375,1.137176513671875,0.9643707275390625,4654.653342500001,2.522585361165133,-2.931798283322783,-1.314392517687995,-0.0236278809607029,3.992779016494751,3.863422393798828,-0.3127395808696747,0.417030394077301,0.4669676125049591,XArbitraryZVertical,-0.7304626022837933,0.3007427664216848,-0.2640056413085121,0.5534250908684049,-0.05281531065702438,0.9673082232475281,0.2480436563491821,0,0,0,-1,-1,4652.565836791667,unknown,2,2022-06-30T09:45:52.850+02:00,2022-06-30T08:20:05.567+02:00,1379,1.385177,0,0,1089.191,0,0,2022-06-30T09:44:05.799+02:00
2022-06-30T09:45:54.956+02:00,4654.6732455,-0.3503570556640625,1.009429931640625,1.087875366210938,4654.663293500001,2.368313353286474,-3.04204060234803,-1.322018640191451,0.3043595850467682,3.866604566574097,4.035818099975586,-0.3589516580104828,0.2901701927185059,0.6032350063323975,XArbitraryZVertical,-0.7186790610736706,0.3255775837782431,-0.267583251134582,0.5530812913151161,-0.02447121776640415,0.9692140817642212,0.2450007051229477,0,0,0,-1,-1,4652.565836791667,unknown,2,2022-06-30T09:45:52.850+02:00,2022-06-30T08:20:05.567+02:00,1379,1.385177,0,0,1089.191,0,0,2022-06-30T09:44:05.799+02:00
2022-06-30T09:45:54.966+02:00,4654.6831975,-0.3255615234375,0.8600921630859375,1.237411499023438,4654.6732455,2.201201008240941,3.116645488791613,-1.327299315226919,0.3969196081161499,3.678497791290283,4.183050632476807,-0.3833945095539093,0.1666759252548218,0.7233468294143677,XArbitraryZVertical,-0.7056889824868033,0.3500211833701707,-0.2703024874310716,0.5535566055162356,0.006014101672917604,0.9705007672309875,0.2410235404968262,0,0,0,-1,-1,4652.565836791667,unknown,2,2022-06-30T09:45:52.850+02:00,2022-06-30T08:20:05.567+02:00,1379,1.385177,0,0,1089.191,0,0,2022-06-30T09:44:05.799+02:00
2022-06-30T09:45:54.976+02:00,4654.6931485,-0.304840087890625,0.6934661865234375,1.3934326171875,4654.6831975,2.02568715607025,2.981653278613092,-1.326997637991483,0.2886823713779449,3.412391662597656,4.2880859375,-0.3888006210327148,0.03900206089019775,0.849564790725708,XArbitraryZVertical,-0.6922712226958836,0.3740530503676018,-0.2716428988412513,0.5541255186608777,0.03844355791807175,0.9704279899597168,0.2383102625608444,0,0,0,-1,-1,4652.565836791667,unknown,2,2022-06-30T09:45:52.850+02:00,2022-06-30T08:20:05.567+02:00,1379,1.385177,0,0,1089.191,0,0,2022-06-30T09:44:05.799+02:00
2022-06-30T09:45:54.986+02:00,4654.7031005,-0.2745513916015625,0.5428009033203125,1.523605346679688,4654.6931485,1.852724775586745,2.8464142100473,-1.319160779402795,0.06826981902122498,3.117332935333252,4.371716499328613,-0.3979949057102203,-0.1084142327308655,0.9991912841796875,XArbitraryZVertical,-0.6790235703911363,0.39753859815869,-0.2712238082289338,0.5543714922947132,0.07243341207504272,0.9685064554214478,0.2382198870182037,0,0,0,-1,-1,4652.565836791667,unknown,2,2022-06-30T09:45:52.850+02:00,2022-06-30T08:20:05.567+02:00,1379,1.385177,0,0,1089.191,0,0,2022-06-30T09:44:05.799+02:00
2022-06-30T09:45:54.996+02:00,4654.7130515,-0.244049072265625,0.4042510986328125,1.667953491210938,4654.7031005,1.692990885810135,2.721629455562516,-1.303173836427742,-0.2166701704263687,2.83323073387146,4.470826625823975,-0.4126593470573425,-0.2709358930587769,1.151970982551575,XArbitraryZVertical,-0.6661968883223747,0.4206094591147483,-0.2688830365379083,0.5540500445593236,0.1078192964196205,0.9644023180007935,0.2414612174034119,0,0,0,-1,-1,4652.565836791667,unknown,2,2022-06-30T09:45:52.850+02:00,2022-06-30T08:20:05.567+02:00,1379,1.385177,0,0,1089.191,0,0,2022-06-30T09:44:05.799+02:00
2022-06-30T09:45:55.006+02:00,4654.7230035,-0.20770263671875,0.2296905517578125,1.812652587890625,4654.7130515,1.554705954851993,2.615265512576108,-1.2795270875421,-0.5280954241752625,2.501391887664795,4.502707004547119,-0.4188134670257568,-0.4150791764259338,1.275302648544312,XArbitraryZVertical,-0.6540086211597885,0.4431973184286963,-0.2645042561506589,0.5530699324809285,0.1442620903253555,0.9578801393508911,0.2483022809028625,0,0,0,-1,-1,4652.565836791667,unknown,2,2022-06-30T09:45:52.850+02:00,2022-06-30T08:20:05.567+02:00,1379,1.385177,0,0,1089.191,0,0,2022-06-30T09:44:05.799+02:00
2022-06-30T09:45:55.016+02:00,4654.732955500001,-0.161895751953125,0.055450439453125,1.888717651367188,4654.7230035,1.440920649813779,2.529781664327746,-1.250609583851376,-0.6330242156982422,2.131340980529785,4.407891750335693,-0.4248226583003998,-0.5449253916740417,1.410300493240356,XArbitraryZVertical,-0.6425417969843242,0.4647217842016914,-0.2583769382824907,0.551738329135412,0.1807736754417419,0.9491766691207886,0.2576525807380676,0,0,0,-1,-1,4652.565836791667,unknown,2,2022-06-30T09:45:52.850+02:00,2022-06-30T08:20:05.567+02:00,1379,1.385177,0,0,1089.191,0,0,2022-06-30T09:44:05.799+02:00
2022-06-30T09:45:55.026+02:00,4654.742906500001,-0.114776611328125,-0.04693603515625,1.906021118164062,4654.732955500001,1.346716208658446,2.460116395310453,-1.22018111027927,-0.49289670586586,1.748388171195984,4.252215385437012,-0.4240716695785522,-0.7094709873199463,1.545894145965576,XArbitraryZVertical,-0.6314035142243399,0.4844674120122082,-0.2513320832322661,0.5508657737757195,0.2163691073656082,0.9391615986824036,0.266758143901825,0,0,0,-1,-1,4652.565836791667,unknown,2,2022-06-30T09:45:52.850+02:00,2022-06-30T08:20:05.567+02:00,1379,1.385177,0,0,1089.191,0,0,2022-06-30T09:44:05.799+02:00
2022-06-30T09:45:55.036+02:00,4654.7528585,-0.0937957763671875,-0.0355224609375,1.84765625,4654.742906500001,1.266036639955172,2.400125924191141,-1.190165094553895,-0.3148129284381866,1.327924251556396,4.072597980499268,-0.4128002524375916,-0.8729797601699829,1.614738941192627,XArbitraryZVertical,-0.6203530585606157,0.5021466149305451,-0.2437708096602647,0.550986998778077,0.2509045898914337,0.9284303188323975,0.2739782929420471,0,0,0,-1,-1,4652.565836791667,unknown,2,2022-06-30T09:45:52.850+02:00,2022-06-30T08:20:05.567+02:00,1379,1.385177,0,0,1089.191,0,0,2022-06-30T09:44:05.799+02:00
2022-06-30T09:45:55.046+02:00,4654.7628095,-0.0842742919921875,0.0546112060546875,1.743499755859375,4654.7528585,1.19762047574412,2.347823699321258,-1.16094326699765,-0.270888090133667,0.851270318031311,3.809500217437744,-0.3988893926143646,-0.9641152620315552,1.626625061035156,XArbitraryZVertical,-0.6098026191381407,0.5175312977101663,-0.2355926672635014,0.5520853845813068,0.2841128706932068,0.9171794056892395,0.2793957591056824,0,0,0,-1,-1,4652.565836791667,unknown,2,2022-06-30T09:45:52.850+02:00,2022-06-30T08:20:05.567+02:00,1379,1.385177,0,0,1089.191,0,0,2022-06-30T09:44:05.799+02:00
2022-06-30T09:45:55.056+02:00,4654.7727615,-0.084228515625,0.163299560546875,1.637969970703125,4654.7628095,1.141793857768408,2.303034314434776,-1.132551942225086,-0.2818229496479034,0.3813889920711517,3.509908437728882,-0.4093768000602722,-0.9410203695297241,1.563962340354919,XArbitraryZVertical,-0.6003062288010675,0.5305461461564496,-0.2266609241289693,0.5538755579743746,0.3155811429023743,0.9054980278015137,0.2836935520172119,0,0,0,-1,-1,4652.565836791667,unknown,2,2022-06-30T09:45:52.850+02:00,2022-06-30T08:20:05.567+02:00,1379,1.385177,0,0,1089.191,0,0,2022-06-30T09:44:05.799+02:00
2022-06-30T09:45:55.065+02:00,4654.782713500001,-0.1105499267578125,0.2431640625,1.547393798828125,4654.7727615,1.096770044979916,2.263944806177749,-1.105651513298271,-0.2807813882827759,-0.09656105935573578,3.163387775421143,-0.4293179512023926,-0.8391451835632324,1.456891059875488,XArbitraryZVertical,-0.5920077188282261,0.5411386034880455,-0.2171427127507056,0.5563677541179611,0.345043808221817,0.893756628036499,0.2866082489490509,0,0,0,-1,-1,4652.565836791667,unknown,2,2022-06-30T09:45:52.850+02:00,2022-06-30T08:20:05.567+02:00,1379,1.385177,0,0,1089.191,0,0,2022-06-30T09:44:05.799+02:00
2022-06-30T09:45:55.075+02:00,4654.792664500001,-0.1518707275390625,0.2560272216796875,1.4505615234375,4654.782713500001,1.061397957960655,2.229303670223531,-1.080637592720196,-0.3307343721389771,-0.5416591167449951,2.801302433013916,-0.4565605223178864,-0.71895831823349,1.349890232086182,XArbitraryZVertical,-0.5850829845837021,0.5492882430565963,-0.2071058743726353,0.5595244748690317,0.3723321855068207,0.8822581171989441,0.2880793511867523,0,0,0,-1,-1,4652.565836791667,unknown,2,2022-06-30T09:45:52.850+02:00,2022-06-30T08:20:05.567+02:00,1379,1.385177,0,0,1089.191,0,0,2022-06-30T09:44:05.799+02:00
2022-06-30T09:45:55.085+02:00,4654.8026165,-0.163970947265625,0.237884521484375,1.380203247070312,4654.792664500001,1.035163950360002,2.198778921448826,-1.057901523502285,-0.386517733335495,-0.9714488387107849,2.373905181884766,-0.5076329112052917,-0.6281633377075195,1.25909948348999,XArbitraryZVertical,-0.5797260350806362,0.5550357944438647,-0.196708686207896,0.5631685592945068,0.3970831334590912,0.8713276982307434,0.2882940173149109,0,0,0,-1,-1,4652.565836791667,unknown,2,2022-06-30T09:45:52.850+02:00,2022-06-30T08:20:05.567+02:00,1379,1.385177,0,0,1089.191,0,0,2022-06-30T09:44:05.799+02:00
2022-06-30T09:45:55.095+02:00,4654.8125675,-0.141876220703125,0.227447509765625,1.338302612304688,4654.8026165,1.017143912947205,2.171258573245225,-1.038194122186586,-0.4292675256729126,-1.427561640739441,1.912109851837158,-0.5708244442939758,-0.6054612994194031,1.163655042648315,XArbitraryZVertical,-0.5760722501050362,0.5582059144369609,-0.1861366144561224,0.5673624543542763,0.4189538657665253,0.8614886403083801,0.2869061529636383,0,0,0,-1,-1,4652.565836791667,unknown,2,2022-06-30T09:45:52.850+02:00,2022-06-30T08:20:05.567+02:00,1379,1.385177,0,0,1089.191,0,0,2022-06-30T09:44:05.799+02:00
2022-06-30T09:45:55.105+02:00,4654.8225195,-0.1255645751953125,0.2212677001953125,1.330825805664062,4654.8125675,1.006549358963422,2.145360601119639,-1.021817575515917,-0.4983166456222534,-1.954500913619995,1.435877203941345,-0.6019989252090454,-0.6151732206344604,1.096611738204956,XArbitraryZVertical,-0.5742344797927281,0.5586146744311895,-0.175289315050296,0.5722570891093743,0.4380280673503876,0.853057861328125,0.2835911810398102,0,0,0,-1,-1,4652.565836791667,unknown,2,2022-06-30T09:45:52.850+02:00,2022-06-30T08:20:05.567+02:00,1379,1.385177,0,0,1089.191,0,0,2022-06-30T09:44:05.799+02:00
2022-06-30T09:45:55.123+02:00,4654.8324715,-0.122528076171875,0.21746826171875,1.331985473632812,4654.8225195,1.003080973829172,2.120285880759395,-1.009024565678991,-0.5660424828529358,-2.484143733978271,0.9395750761032104,-0.5961465835571289,-0.6188650727272034,1.060105562210083,XArbitraryZVertical,-0.5743388055838403,0.5560874454981325,-0.1640739001240017,0.5779113026932676,0.4542704224586487,0.8463126420974731,0.2781966328620911,0,0,0,-1,-1,4652.565836791667,unknown,2,2022-06-30T09:45:52.850+02:00,2022-06-30T08:20:05.567+02:00,1379,1.385177,0,0,1089.191,0,0,2022-06-30T09:44:05.799+02:00
2022-06-30T09:45:55.125+02:00,4654.8424225,-0.132904052734375,0.2255096435546875,1.322189331054688,4654.8324715,1.005569715905029,2.095288784392619,-1.00011792617896,-0.5797076821327209,-2.950216770172119,0.4697431325912476,-0.593152642250061,-0.620266854763031,1.060305833816528,XArbitraryZVertical,-0.5762132037559291,0.5506706423416736,-0.1526760823419706,0.5843203676060454,0.4675881862640381,0.8415346741676331,0.2705196142196655,0,0,0,-1,-1,4652.565836791667,unknown,2,2022-06-30T09:45:52.850+02:00,2022-06-30T08:20:05.567+02:00,1379,1.385177,0,0,1089.191,0,0,2022-06-30T09:44:05.799+02:00
2022-06-30T09:45:55.135+02:00,4654.8523745,-0.15069580078125,0.256500244140625,1.275466918945312,4654.8424225,1.012116817862727,2.069377790054057,-0.9952261929632906,-0.528020441532135,-3.355088472366333,0.05424401164054871,-0.6005776524543762,-0.6214135885238647,1.071705222129822,XArbitraryZVertical,-0.5794454277136214,0.5425706939326439,-0.1413567830572139,0.591505238368694,0.4780497252941132,0.8388820886611938,0.2602799236774445,0,0,0,-1,-1,4652.565836791667,unknown,2,2022-06-30T09:45:52.850+02:00,2022-06-30T08:20:05.567+02:00,1379,1.385177,0,0,1089.191,0,0,2022-06-30T09:44:05.799+02:00
2022-06-30T09:45:55.145+02:00,4654.8623255,-0.177734375,0.2851104736328125,1.227127075195312,4654.8523745,1.021542942321831,2.041972010855448,-0.9939717979415917,-0.5158897042274475,-3.734828233718872,-0.304496556520462,-0.6188433170318604,-0.6126890182495117,1.074629187583923,XArbitraryZVertical,-0.5837137069360269,0.532032125709282,-0.1300933172656842,0.5994128691365435,0.4859392940998077,0.8381986618041992,0.2475597560405731,0,0,0,-1,-1,4652.565836791667,unknown,2,2022-06-30T09:45:52.850+02:00,2022-06-30T08:20:05.567+02:00,1379,1.385177,0,0,1089.191,0,0,2022-06-30T09:44:05.799+02:00
2022-06-30T09:45:55.155+02:00,4654.872277500001,-0.2095947265625,0.3248748779296875,1.201507568359375,4654.8623255,1.033855943023836,2.013378785270507,-0.9957360176021822,-0.549538791179657,-4.086134433746338,-0.5952037572860718,-0.6421770453453064,-0.5826592445373535,1.042534351348877,XArbitraryZVertical,-0.588909657572912,0.5192798150928027,-0.1186768751606118,0.6078236974661091,0.4914812445640564,0.8391594886779785,0.2329322248697281,0,0,0,-1,-1,4652.565836791667,unknown,2,2022-06-30T09:45:52.850+02:00,2022-06-30T08:20:05.567+02:00,1379,1.385177,0,0,1089.191,0,0,2022-06-30T09:44:05.799+02:00
2022-06-30T09:45:55.165+02:00,4654.8822295,-0.2570343017578125,0.3574981689453125,1.14874267578125,4654.872277500001,1.049629826563816,1.984135691395039,-0.9998288714907154,-0.6990382671356201,-4.449466228485107,-0.8645784854888916,-0.6726667284965515,-0.556268036365509,1.010045766830444,XArbitraryZVertical,-0.5950283772176863,0.5044617599296651,-0.1067673500173669,0.6164902791728358,0.4949323236942291,0.8413785099983215,0.2170808762311935,0,0,0,-1,-1,4652.565836791667,unknown,2,2022-06-30T09:45:52.850+02:00,2022-06-30T08:20:05.567+02:00,1379,1.385177,0,0,1089.191,0,0,2022-06-30T09:44:05.799+02:00
2022-06-30T09:45:55.175+02:00,4654.8921805,-0.30169677734375,0.388427734375,1.048828125,4654.8822295,1.070682075173839,1.955888968022082,-1.006112454559026,-0.9004513025283813,-4.787131786346436,-1.186765074729919,-0.7055513858795166,-0.5198827385902405,1.000481128692627,XArbitraryZVertical,-0.6023464953128308,0.4875363841136743,-0.09417982096081158,0.6249937910704991,0.4959566593170166,0.8447577953338623,0.201026052236557,0,0,0,-1,-1,4652.565836791667,unknown,2,2022-06-30T09:45:52.850+02:00,2022-06-30T08:20:05.567+02:00,1379,1.385177,0,0,1089.191,0,0,2022-06-30T09:44:05.799+02:00
2022-06-30T09:45:55.185+02:00,4654.9021325,-0.316436767578125,0.4574432373046875,1.006271362304688,4654.8921805,1.096420442258995,1.928618264218076,-1.015227451645182,-0.990288257598877,-5.070015907287598,-1.497534394264221,-0.7510549426078796,-0.4921021461486816,0.9640189409255981,XArbitraryZVertical,-0.6106835959025168,0.468430594218279,-0.08127512817482437,0.6332714926622481,0.4940207004547119,0.8496005535125732,0.1847233474254608,0,0,0,-1,-1,4652.565836791667,unknown,2,2022-06-30T09:45:52.850+02:00,2022-06-30T08:20:05.567+02:00,1379,1.385177,0,0,1089.191,0,0,2022-06-30T09:44:05.799+02:00
2022-06-30T09:45:55.195+02:00,4654.9120835,-0.3240509033203125,0.5227813720703125,0.9752349853515625,4654.9021325,1.125157417562252,1.901074425619927,-1.026892570196719,-1.063353896141052,-5.406765937805176,-1.717044591903687,-0.7912086844444275,-0.4672672152519226,0.8810056447982788,XArbitraryZVertical,-0.6195513235512359,0.4472887332501222,-0.06804550596773981,0.6414505810125497,0.4895118772983551,0.8556950688362122,0.1678221076726913,0,0,0,-1,-1,4652.565836791667,unknown,2,2022-06-30T09:45:52.850+02:00,2022-06-30T08:20:05.567+02:00,1379,1.385177,0,0,1089.191,0,0,2022-06-30T09:44:05.799+02:00
2022-06-30T09:45:55.205+02:00,4654.922035500001,-0.3387451171875,0.599456787109375,0.985382080078125,4654.9120835,1.15672710477888,1.872425607661834,-1.040738907087748,-1.162408113479614,-5.809399127960205,-1.92503821849823,-0.7991947531700134,-0.4053345918655396,0.8560742139816284,XArbitraryZVertical,-0.6287810730870497,0.423948987339469,-0.05409930991760441,0.6495960050090952,0.4827578961849213,0.8627780675888062,0.150196760892868,0,0,0,-1,-1,4652.565836791667,unknown,2,2022-06-30T09:45:52.850+02:00,2022-06-30T08:20:05.567+02:00,1379,1.385177,0,0,1089.191,0,0,2022-06-30T09:44:05.799+02:00
2022-06-30T09:45:55.215+02:00,4654.9319875,-0.4163360595703125,0.566680908203125,1.123214721679688,4654.922035500001,1.193143986719172,1.844183740135116,-1.05580773207431,-1.544765472412109,-6.202532768249512,-1.980237245559692,-0.7982847690582275,-0.3475167751312256,0.8422554731369019,XArbitraryZVertical,-0.6385012237001095,0.3985044122877467,-0.03885232545376955,0.6572678816754458,0.4742337763309479,0.8702983260154724,0.132979154586792,0,0,0,-1,-1,4652.565836791667,unknown,2,2022-06-30T09:45:52.850+02:00,2022-06-30T08:20:05.567+02:00,1379,1.385177,0,0,1089.191,0,0,2022-06-30T09:44:05.799+02:00
2022-06-30T09:45:55.226+02:00,4654.9419385,-0.5292510986328125,0.4134979248046875,1.15203857421875,4654.9319875,1.24102770545491,1.822610699808371,-1.069917781981056,-2.229439735412598,-6.535760402679443,-1.982127785682678,-0.8037971258163452,-0.277704119682312,0.8657352924346924,XArbitraryZVertical,-0.6494587439016185,0.3715192712940318,-0.02130154043317855,0.6631161478511437,0.4650519192218781,0.8771610260009766,0.1196464598178864,0,0,0,-1,-1,4652.565836791667,unknown,2,2022-06-30T09:45:52.850+02:00,2022-06-30T08:20:05.567+02:00,1379,1.385177,0,0,1089.191,0,0,2022-06-30T09:44:05.799+02:00
2022-06-30T09:45:55.235+02:00,4654.9518905,-0.6323089599609375,0.4461212158203125,0.9896087646484375,4654.9419385,1.301594446215059,1.809435998097649,-1.083888139180253,-2.656885623931885,-6.831402778625488,-2.149290323257446,-0.8709719777107239,-0.3171026706695557,1.012612700462341,XArbitraryZVertical,-0.6616456044462338,0.3428205611768833,-0.00195524076412083,0.6668548287778421,0.4546357393264771,0.8837836980819702,0.1106016859412193,0,0,0,-1,-1,4652.565836791667,unknown,2,2022-06-30T09:45:52.850+02:00,2022-06-30T08:20:05.567+02:00,1379,1.385177,0,0,1089.191,0,0,2022-06-30T09:44:05.799+02:00
2022-06-30T09:45:55.245+02:00,4654.9618415,-0.7834930419921875,0.716339111328125,0.6671295166015625,4654.9518905,1.371952550643047,1.802293453740496,-1.099064229466516,-2.964861869812012,-7.166459083557129,-2.31957221031189,-0.9715590476989746,-0.47728431224823,1.047776103019714,XArbitraryZVertical,-0.674371920950419,0.3120153879770191,0.01842146316904816,0.6689765987903543,0.4423078298568726,0.8907825350761414,0.1042621806263924,0,0,0,-1,-1,4652.565836791667,unknown,2,2022-06-30T09:45:52.850+02:00,2022-06-30T08:20:05.567+02:00,1379,1.385177,0,0,1089.191,0,0,2022-06-30T09:44:05.799+02:00
2022-06-30T09:45:55.265+02:00,4654.9717935,-1.001144409179688,1.112380981445312,0.18841552734375,4654.9618415,1.450860286735016,1.79961636674074,-1.115229822214208,-3.184378623962402,-7.555412769317627,-2.458837985992432,-1.060812711715698,-0.4518904685974121,0.8898104429244995,XArbitraryZVertical,-0.6870841006963617,0.2789524490475217,0.03993034396300355,0.669706415987961,0.4285035133361816,0.8980119228363037,0.0997980609536171,0,0,0,-1,-1,4652.565836791667,unknown,2,2022-06-30T09:45:52.850+02:00,2022-06-30T08:20:05.567+02:00,1379,1.385177,0,0,1089.191,0,0,2022-06-30T09:44:05.799+02:00
2022-06-30T09:45:55.266+02:00,4654.9817455,-1.193206787109375,1.539810180664062,-0.3417510986328125,4654.9717935,1.535964261287726,1.79980744799631,-1.132969473758146,-3.150233268737793,-7.806729793548584,-2.698941707611084,-1.196396470069885,-0.189335823059082,0.5708813667297363,XArbitraryZVertical,-0.6991193399421116,0.2436311113439949,0.06204613383813058,0.6693477342026045,0.4129031598567963,0.9056751728057861,0.09624794125556946,0,0,0,-1,-1,4652.565836791667,unknown,2,2022-06-30T09:45:52.850+02:00,2022-06-30T08:20:05.567+02:00,1379,1.385177,0,0,1089.191,0,0,2022-06-30T09:44:05.799+02:00
2022-06-30T09:45:55.274+02:00,4654.9916965,-1.27288818359375,1.819168090820312,-0.9072723388671875,4654.9817455,1.621731317557257,1.800239393720683,-1.154116444840439,-2.830812454223633,-7.753030776977539,-3.065034627914429,-1.395265221595764,0.1979435682296753,0.09636617451906204,XArbitraryZVertical,-0.7094985285696597,0.2064859580294629,0.08315509260386086,0.6686260773013499,0.3941206336021423,0.9144377112388611,0.09204922616481781,0,0,0,-1,-1,4652.565836791667,unknown,2,2022-06-30T09:45:52.850+02:00,2022-06-30T08:20:05.567+02:00,1379,1.385177,0,0,1089.191,0,0,2022-06-30T09:44:05.799+02:00
2022-06-30T09:45:55.284+02:00,4655.001648500001,-1.203582763671875,1.843612670898438,-1.30023193359375,4654.9916965,1.705075095092576,1.801476020190111,-1.179432020542725,-2.414206266403198,-7.36342191696167,-3.365691900253296,-1.564553260803223,0.6154209971427917,-0.4289658069610596,XArbitraryZVertical,-0.7177557443969084,0.1686237409517432,0.1017847974521434,0.6678568440073883,0.3713462948799133,0.9243894815444946,0.08721455186605453,0,0,0,-1,-1,4652.565836791667,unknown,2,2022-06-30T09:45:52.850+02:00,2022-06-30T08:20:05.567+02:00,1379,1.385177,0,0,1089.191,0,0,2022-06-30T09:44:05.799+02:00
2022-06-30T09:45:55.294+02:00,4655.011599500001,-1.0535888671875,1.772064208984375,-1.445831298828125,4655.001648500001,1.784710691903462,1.805323837556862,-1.207367049287747,-2.0402512550354,-6.717054843902588,-3.413408756256104,-1.618638515472412,0.8844848871231079,-0.9898804426193237,XArbitraryZVertical,-0.7238402702106382,0.1317546017913756,0.1174191456910167,0.6670147698364134,0.3457499444484711,0.9346832633018494,0.08260802179574966,0,0,0,-1,-1,4652.565836791667,unknown,2,2022-06-30T09:45:52.850+02:00,2022-06-30T08:20:05.567+02:00,1379,1.385177,0,0,1089.191,0,0,2022-06-30T09:44:05.799+02:00
2022-06-30T09:45:55.304+02:00,4655.0215515,-1.259765625,1.96942138671875,-1.741134643554688,4655.011599500001,1.860570170396838,1.81421561252883,-1.235122012759885,-1.717315912246704,-5.78676176071167,-3.202150821685791,-1.52327823638916,0.8994244337081909,-1.379626512527466,XArbitraryZVertical,-0.7281028652791668,0.09779253330475478,0.1301066868779063,0.6658642429048134,0.3196952044963837,0.9441884160041809,0.07939432561397552,0,0,0,-1,-1,4652.565836791667,unknown,2,2022-06-30T09:45:52.850+02:00,2022-06-30T08:20:05.567+02:00,1379,1.385177,0,0,1089.191,0,0,2022-06-30T09:44:05.799+02:00
2022-06-30T09:45:55.314+02:00,4655.0315035,-2.060104370117188,3.774139404296875,-6.957061767578125,4655.0215515,1.930482319079324,1.84123930130244,-1.263675050182314,-1.621394395828247,-0.3860165476799011,-3.768471002578735,-1.344917058944702,0.8188565969467163,-1.526597738265991,XArbitraryZVertical,-0.7316061404915398,0.07166322230073834,0.1340043161030537,0.6645749061268066,0.2913279235363007,0.953207790851593,0.08076632767915726,0,0,0,-1,-1,4652.565836791667,unknown,2,2022-06-30T09:45:52.850+02:00,2022-06-30T08:20:05.567+02:00,1379,1.385177,0,0,1089.191,0,0,2022-06-30T09:44:05.799+02:00
2022-06-30T09:45:55.324+02:00,4655.0414545,-1.259994506835938,2.975570678710938,-5.683609008789062,4655.0315035,1.975326395278876,1.897435211868871,-1.277410855112727,-1.473896622657776,1.777677416801453,0.220029354095459,-1.533669948577881,1.01215124130249,-1.833926200866699,XArbitraryZVertical,-0.7359311721774334,0.06928953986356283,0.1237616170245858,0.6620327488638375,0.2739039659500122,0.9572703242301941,0.09279146045446396,0,0,0,-1,-1,4652.565836791667,unknown,2,2022-06-30T09:45:52.850+02:00,2022-06-30T08:20:05.567+02:00,1379,1.385177,0,0,1089.191,0,0,2022-06-30T09:44:05.799+02:00
2022-06-30T09:45:55.334+02:00,4655.051406500001,-0.5070343017578125,1.547683715820312,-3.803787231445312,4655.0414545,2.034398180490931,1.959349824057579,-1.278977554686419,-1.031768679618835,0.05792868509888649,-1.744749426841736,-2.326354026794434,2.816417217254639,-7.066055297851562,XArbitraryZVertical,-0.7415913632240858,0.06737065598947128,0.1198616491894006,0.6566099425696608,0.2662492096424103,0.9577221870422363,0.1089931130409241,0,0,0,-1,-1,4652.565836791667,unknown,2,2022-06-30T09:45:52.850+02:00,2022-06-30T08:20:05.567+02:00,1379,1.385177,0,0,1089.191,0,0,2022-06-30T09:44:05.799+02:00
2022-06-30T09:45:55.344+02:00,4655.061357500001,0.596435546875,1.529541015625,-1.948532104492188,4655.051406500001,2.076623148405714,2.005633037065129,-1.293200294944563,-0.3239209353923798,1.046590685844421,-1.549446821212769,-1.508536219596863,2.013853788375854,-5.79905366897583,XArbitraryZVertical,-0.7442002860412581,0.06235530831680405,0.1120597023409958,0.6555305498593192,0.2485413402318954,0.9617170095443726,0.115444503724575,0,0,0,-1,-1,4652.565836791667,unknown,2,2022-06-30T09:45:52.850+02:00,2022-06-30T08:20:05.567+02:00,1379,1.385177,0,0,1089.191,0,0,2022-06-30T09:44:05.799+02:00
2022-06-30T09:45:55.354+02:00,4655.0713095,0.2182464599609375,0.9838409423828125,-1.06317138671875,4655.061357500001,2.110930136471338,2.049356686730222,-1.298439491199129,-0.7904095649719238,1.043532371520996,-0.2950944900512695,-0.7458167672157288,0.5845441818237305,-3.927663326263428,XArbitraryZVertical,-0.7470364640750278,0.06224542368032696,0.1053745306679732,0.6534204082727815,0.2387820929288864,0.9631395936012268,0.1238759458065033,0,0,0,-1,-1,4652.565836791667,unknown,2,2022-06-30T09:45:52.850+02:00,2022-06-30T08:20:05.567+02:00,1379,1.385177,0,0,1089.191,0,0,2022-06-30T09:44:05.799+02:00
2022-06-30T09:45:55.364+02:00,4655.0812615,-0.1133270263671875,1.480087280273438,-0.8430938720703125,4655.0713095,2.126340965614679,2.075588672225414,-1.297428507554236,0.01873202808201313,1.34733510017395,-0.05585525929927826,0.3601323366165161,0.5666739344596863,-2.079099416732788,XArbitraryZVertical,-0.7490081108530847,0.06534835065733424,0.1008971124046493,0.6515644054990009,0.2363028228282928,0.9628671407699585,0.1305671185255051,0,0,0,-1,-1,4652.565836791667,unknown,2,2022-06-30T09:45:52.850+02:00,2022-06-30T08:20:05.567+02:00,1379,1.385177,0,0,1089.191,0,0,2022-06-30T09:44:05.799+02:00
2022-06-30T09:45:55.374+02:00,4655.0912125,-0.52508544921875,1.89190673828125,-1.207763671875,4655.0812615,2.127899604622216,2.09156182828712,-1.299083712850185,-0.120141439139843,1.497369408607483,-0.272422730922699,-0.01455812156200409,0.02052825689315796,-1.19670307636261,XArbitraryZVertical,-0.7496266889435118,0.06946652119751764,0.09492304518314913,0.6513246106912678,0.2328042089939117,0.9633126854896545,0.1335315406322479,0,0,0,-1,-1,4652.565836791667,unknown,2,2022-06-30T09:45:52.850+02:00,2022-06-30T08:20:05.567+02:00,1379,1.385177,0,0,1089.191,0,0,2022-06-30T09:44:05.799+02:00
2022-06-30T09:45:55.384+02:00,4655.1011645,-0.7690277099609375,1.684844970703125,-1.423919677734375,4655.0912125,2.142883218116453,2.120376094116382,-1.30155045476822,-0.115444153547287,1.399722933769226,-0.6091411113739014,-0.3401613831520081,0.516115665435791,-0.9820359945297241,XArbitraryZVertical,-0.7511440374404393,0.07248190290281234,0.08825251355719342,0.6501850134479914,0.2268339991569519,0.9639717936515808,0.1389419883489609,0,0,0,-1,-1,4652.565836791667,unknown,2,2022-06-30T09:45:52.850+02:00,2022-06-30T08:20:05.567+02:00,1379,1.385177,0,0,1089.191,0,0,2022-06-30T09:44:05.799+02:00
2022-06-30T09:45:55.394+02:00,4655.1111155,-0.6483154296875,1.630935668945312,-1.106948852539062,4655.1011645,2.144830036605203,2.136483907784557,-1.311820957742712,1.171159863471985,1.467486619949341,-1.177506804466248,-0.7412826418876648,0.9252540469169617,-1.345027446746826,XArbitraryZVertical,-0.7504418640287071,0.07395145248335191,0.07980363361895582,0.6519199685057098,0.2161968350410461,0.9666528701782227,0.137263610959053,0,0,0,-1,-1,4652.565836791667,unknown,2,2022-06-30T09:45:52.850+02:00,2022-06-30T08:20:05.567+02:00,1379,1.385177,0,0,1089.191,0,0,2022-06-30T09:44:05.799+02:00
2022-06-30T09:45:55.404+02:00,4655.1210675,-0.42156982421875,1.634963989257812,-0.73919677734375,4655.1111155,2.117279195175261,2.125074760754038,-1.332242901755864,2.043413877487183,1.599584579467773,-1.536414504051208,-0.9699475765228271,0.7131643295288086,-1.548290491104126,XArbitraryZVertical,-0.7460845322709651,0.07445273561013828,0.06897961531479962,0.6580703745681347,0.2009195238351822,0.9716808199882507,0.1243706792593002,0,0,0,-1,-1,4655.112890500001,unknown,2,2022-06-30T09:45:55.397+02:00,2022-06-30T08:20:05.567+02:00,1379,1.385177,0,0,1089.191,0,0,2022-06-30T09:44:05.799+02:00
2022-06-30T09:45:55.414+02:00,4655.131019500001,-0.199676513671875,1.595443725585938,-0.4939727783203125,4655.1210675,2.074358399239332,2.10005518533129,-1.357774074217292,2.199003934860229,1.762009739875793,-1.859542608261108,-0.830805778503418,0.6535394191741943,-1.213691473007202,XArbitraryZVertical,-0.7401589976079386,0.07440342656719835,0.05633651521154705,0.6659242765916984,0.1824900507926941,0.9773964285850525,0.1067424267530441,0,0,0,-1,-1,4655.112890500001,unknown,2,2022-06-30T09:45:55.397+02:00,2022-06-30T08:20:05.567+02:00,1379,1.385177,0,0,1089.191,0,0,2022-06-30T09:44:05.799+02:00
2022-06-30T09:45:55.424+02:00,4655.140970500001,-0.0264892578125,1.59716796875,-0.32904052734375,4655.131019500001,2.030890345656918,2.075615784696278,-1.386047307341996,2.079594612121582,1.864993572235107,-2.207115650177002,-0.582356333732605,0.6519817709922791,-0.8280436992645264,XArbitraryZVertical,-0.7341780542942723,0.0735251381907253,0.04203692499306842,0.6736539742137038,0.1607861816883087,0.9829823970794678,0.08884672075510025,0,0,0,-1,-1,4655.112890500001,unknown,2,2022-06-30T09:45:55.397+02:00,2022-06-30T08:20:05.567+02:00,1379,1.385177,0,0,1089.191,0,0,2022-06-30T09:44:05.799+02:00
2022-06-30T09:45:55.434+02:00,4655.1509225,0.061248779296875,1.607589721679688,-0.2247161865234375,4655.140970500001,1.997776047477589,2.06164376180951,-1.415776312976877,1.740115284919739,1.860222458839417,-2.469209671020508,-0.3358480334281921,0.6074355244636536,-0.5667533874511719,XArbitraryZVertical,-0.728878617019704,0.07159723630459855,0.02657916938910762,0.6803700971772392,0.1361712068319321,0.988008439540863,0.07278040796518326,0,0,0,-1,-1,4655.112890500001,unknown,2,2022-06-30T09:45:55.397+02:00,2022-06-30T08:20:05.567+02:00,1379,1.385177,0,0,1089.191,0,0,2022-06-30T09:44:05.799+02:00
2022-06-30T09:45:55.444+02:00,4655.1608735,0.057769775390625,1.604354858398438,-0.124664306640625,4655.1509225,1.988501504848933,2.070616751027152,-1.445555842393198,1.328477025032043,1.765369534492493,-2.647618055343628,-0.1361224353313446,0.605000376701355,-0.3889079093933105,XArbitraryZVertical,-0.7247219044946128,0.06864203719156044,0.01070786653799106,0.6855303183152696,0.1096328496932983,0.9921676516532898,0.05986713618040085,0,0,0,-1,-1,4655.112890500001,unknown,2,2022-06-30T09:45:55.397+02:00,2022-06-30T08:20:05.567+02:00,1379,1.385177,0,0,1089.191,0,0,2022-06-30T09:44:05.799+02:00
2022-06-30T09:45:55.454+02:00,4655.1708255,0.057037353515625,1.52606201171875,0.2881927490234375,4655.1608735,2.015886199484391,2.115006953463944,-1.474950094602387,1.133445143699646,1.668650507926941,-2.755625009536743,-0.0206262543797493,0.6121794581413269,-0.2742643356323242,XArbitraryZVertical,-0.7215084651042298,0.06480351803453184,-0.005176324780195824,0.6893469897674098,0.08187469840049744,0.9954102635383606,0.04954792186617851,0,0,0,-1,-1,4655.112890500001,unknown,2,2022-06-30T09:45:55.397+02:00,2022-06-30T08:20:05.567+02:00,1379,1.385177,0,0,1089.191,0,0,2022-06-30T09:44:05.799+02:00
2022-06-30T09:45:55.464+02:00,4655.180777500001,-0.014556884765625,1.462371826171875,0.6055450439453125,4655.1708255,2.077377867284536,2.191333714323582,-1.505021315969508,1.40998375415802,1.320778489112854,-2.822763681411743,0.004295229911804199,0.6065173149108887,-0.1628836393356323,XArbitraryZVertical,-0.7179981826649932,0.05990135377842883,-0.02059048163392691,0.6931569134390128,0.05347421765327454,0.9978376030921936,0.03821912407875061,0,0,0,-1,-1,4655.112890500001,unknown,2,2022-06-30T09:45:55.397+02:00,2022-06-30T08:20:05.567+02:00,1379,1.385177,0,0,1089.191,0,0,2022-06-30T09:44:05.799+02:00
2022-06-30T09:45:55.473+02:00,4655.190728500001,-0.20989990234375,1.621231079101562,0.5759429931640625,4655.180777500001,2.151207432378969,2.275837770611932,-1.537883398033103,2.144643306732178,0.8458757400512695,-2.799572706222534,0.03197344765067101,0.5266036987304688,0.2668647766113281,XArbitraryZVertical,-0.712613679760265,0.05334403240985488,-0.03471412107691924,0.6986638513504905,0.02506357990205288,0.9994584321975708,0.02132768556475639,0,0,0,-1,-1,4655.112890500001,unknown,2,2022-06-30T09:45:55.397+02:00,2022-06-30T08:20:05.567+02:00,1379,1.385177,0,0,1089.191,0,0,2022-06-30T09:44:05.799+02:00
2022-06-30T09:45:55.483+02:00,4655.2006805,-0.4817962646484375,2.218475341796875,0.3480377197265625,4655.190728500001,-0.4905247221442012,-0.3585579089144639,-1.565151625829677,3.188898086547852,0.7045173048973083,-2.573818683624268,-0.01257160305976868,0.4623878002166748,0.6108431816101074,XArbitraryZVertical,-0.7037423448563803,0.0457986949123388,-0.04744671256545176,0.7073882088864785,-0.001985607901588082,0.999984085559845,-0.005298383068293333,0,0,0,-1,-1,4655.112890500001,unknown,2,2022-06-30T09:45:55.397+02:00,2022-06-30T08:20:05.567+02:00,1379,1.385177,0,0,1089.191,0,0,2022-06-30T09:44:05.799+02:00
2022-06-30T09:45:55.493+02:00,4655.2106325,-0.7209625244140625,2.771209716796875,0.084197998046875,4655.2006805,-0.7218904646954598,-0.5809682888040716,-1.523896577603826,3.469818353652954,1.141225695610046,-2.254549026489258,-0.1841679513454437,0.6223307251930237,0.6151357889175415,XArbitraryZVertical,-0.6919727056631626,0.03971501034019324,-0.05982197861399365,0.7183439022987036,-0.02573228254914284,0.9989004135131836,-0.03919298574328423,0,0,0,-1,-1,4655.112890500001,unknown,2,2022-06-30T09:45:55.397+02:00,2022-06-30T08:20:05.567+02:00,1379,1.385177,0,0,1089.191,0,0,2022-06-30T09:44:05.799+02:00
2022-06-30T09:45:55.503+02:00,4655.2205835,-0.816650390625,2.952011108398438,-0.1925506591796875,4655.2106325,-0.7329564897151866,-0.5781198159699898,-1.483413262005015,3.25960898399353,1.622238159179688,-2.378760576248169,-0.434106320142746,1.222290754318237,0.4211277365684509,XArbitraryZVertical,-0.6798327615389635,0.03580901896696535,-0.07346324129256601,0.7287992662521003,-0.0476902611553669,0.9961845278739929,-0.07309026271104813,0,0,0,-1,-1,4655.112890500001,unknown,2,2022-06-30T09:45:55.397+02:00,2022-06-30T08:20:05.567+02:00,1379,1.385177,0,0,1089.191,0,0,2022-06-30T09:44:05.799+02:00
2022-06-30T09:45:55.513+02:00,4655.2305355,-0.7957763671875,3.021087646484375,-0.32135009765625,4655.2205835,-0.7620750265611426,-0.5895276674572024,-1.44255812991578,3.247154951095581,1.884179472923279,-2.623408079147339,-0.6498618125915527,1.779420852661133,0.1904977709054947,XArbitraryZVertical,-0.6676797073183779,0.03246272176968409,-0.08914499559139534,0.738378713153277,-0.07110104709863663,0.9917887449264526,-0.1062999591231346,0,0,0,-1,-1,4655.112890500001,unknown,2,2022-06-30T09:45:55.397+02:00,2022-06-30T08:20:05.567+02:00,1379,1.385177,0,0,1089.191,0,0,2022-06-30T09:44:05.799+02:00
2022-06-30T09:45:55.523+02:00,4655.2404865,-0.83441162109375,3.104660034179688,-0.455169677734375,4655.2305355,-0.7854248705744015,-0.5929395454477333,-1.401620659976316,3.172170400619507,2.073807001113892,-2.473052263259888,-0.722565233707428,1.966287136077881,-0.05292122066020966,XArbitraryZVertical,-0.6552115224155005,0.02971590772597664,-0.1056958211160361,0.7474244321189379,-0.0940854474902153,0.9857239127159119,-0.1396296471357346,0,0,0,-1,-1,4655.112890500001,unknown,2,2022-06-30T09:45:55.397+02:00,2022-06-30T08:20:05.567+02:00,1379,1.385177,0,0,1089.191,0,0,2022-06-30T09:44:05.799+02:00
2022-06-30T09:45:55.533+02:00,4655.2504385,-1.00335693359375,3.222930908203125,-0.61578369140625,4655.2404865,-0.7943968212404318,-0.580151942096135,-1.363167572704609,3.036995649337769,2.27298641204834,-2.027781248092651,-0.6827805042266846,2.042565107345581,-0.1489385962486267,XArbitraryZVertical,-0.642627469952918,0.02870632093319833,-0.1216839890677062,0.7559093879797846,-0.1129961907863617,0.9785224795341492,-0.1724117696285248,0,0,0,-1,-1,4655.112890500001,unknown,2,2022-06-30T09:45:55.397+02:00,2022-06-30T08:20:05.567+02:00,1379,1.385177,0,0,1089.191,0,0,2022-06-30T09:44:05.799+02:00
2022-06-30T09:45:55.543+02:00,4655.260390500001,-1.286056518554688,3.255752563476562,-0.740081787109375,4655.2504385,-0.7903395540995949,-0.5525620623391145,-1.329218463067247,2.811030387878418,2.48298978805542,-1.439358472824097,-0.7088447213172913,2.133698225021362,-0.2515372633934021,XArbitraryZVertical,-0.6302924269677637,0.030251269066102,-0.1362648440913903,0.7637068869871679,-0.1255671977996826,0.9709616899490356,-0.2036326378583908,0,0,0,-1,-1,4655.112890500001,unknown,2,2022-06-30T09:45:55.397+02:00,2022-06-30T08:20:05.567+02:00,1379,1.385177,0,0,1089.191,0,0,2022-06-30T09:44:05.799+02:00
2022-06-30T09:45:55.553+02:00,4655.270341500001,-1.564224243164062,3.162002563476562,-0.714752197265625,4655.260390500001,-0.7762045206545565,-0.5132465145212558,-1.29879091400547,2.780800342559814,2.695144653320312,-0.9227076768875122,-0.871441125869751,2.25969672203064,-0.3817362189292908,XArbitraryZVertical,-0.6179033160754303,0.03422881324911985,-0.1494632682126824,0.7711579843621221,-0.1319160461425781,0.9632340669631958,-0.2340477555990219,0,0,0,-1,-1,4655.112890500001,unknown,2,2022-06-30T09:45:55.397+02:00,2022-06-30T08:20:05.567+02:00,1379,1.385177,0,0,1089.191,0,0,2022-06-30T09:44:05.799+02:00
2022-06-30T09:45:55.563+02:00,4655.2802935,-1.71099853515625,2.914276123046875,-0.3724822998046875,4655.270341500001,-0.750890782075159,-0.46110347976962,-1.269708683934895,3.036489963531494,2.924962759017944,-0.43951815366745,-1.154106616973877,2.300737857818604,-0.4744946956634521,XArbitraryZVertical,-0.6046179932233477,0.04053875688561314,-0.1613459982535569,0.7789488419485542,-0.1319501549005508,0.9550145268440247,-0.2655873894691467,0,0,0,-1,-1,4655.112890500001,unknown,2,2022-06-30T09:45:55.397+02:00,2022-06-30T08:20:05.567+02:00,1379,1.385177,0,0,1089.191,0,0,2022-06-30T09:44:05.799+02:00
2022-06-30T09:45:55.573+02:00,4655.2902445,-1.738754272460938,2.535476684570312,0.0901947021484375,4655.2802935,-0.7121370889675669,-0.3945862740780132,-1.238648217446465,3.694504737854004,3.018277645111084,0.1123373806476593,-1.438872814178467,2.216658353805542,-0.4137347340583801,XArbitraryZVertical,-0.5891577953729387,0.04882860683669259,-0.1716949941968177,0.7880544347094277,-0.125351682305336,0.945344090461731,-0.3010177314281464,0,0,0,-1,-1,4655.112890500001,unknown,2,2022-06-30T09:45:55.397+02:00,2022-06-30T08:20:05.567+02:00,1379,1.385177,0,0,1089.191,0,0,2022-06-30T09:44:05.799+02:00
2022-06-30T09:45:55.583+02:00,4655.3001965,-1.845779418945312,2.340423583984375,0.224884033203125,4655.2902445,-0.6559347335068889,-0.3110258452240938,-1.201822529889607,4.546206951141357,3.225924968719482,1.062354207038879,-1.600624561309814,1.98157799243927,-0.02912858128547668,XArbitraryZVertical,-0.5699509597199912,0.05898220624753787,-0.1795799896350656,0.7996423920203246,-0.1103742271661758,0.9326979517936707,-0.3433540165424347,0,0,0,-1,-1,4655.112890500001,unknown,2,2022-06-30T09:45:55.397+02:00,2022-06-30T08:20:05.567+02:00,1379,1.385177,0,0,1089.191,0,0,2022-06-30T09:44:05.799+02:00
2022-06-30T09:45:55.593+02:00,4655.310148500001,-2.00775146484375,2.251388549804688,0.2465057373046875,4655.3001965,-0.582638509279631,-0.2088747293541919,-1.160135924185002,4.859248638153076,3.69108510017395,2.181941032409668,-1.655973672866821,1.618619203567505,0.4807324111461639,XArbitraryZVertical,-0.5471712669118763,0.07303847622710453,-0.1841971966660207,0.8132283883304465,-0.08278090506792068,0.9168573617935181,-0.3905379772186279,0,0,0,-1,-1,4655.112890500001,unknown,2,2022-06-30T09:45:55.397+02:00,2022-06-30T08:20:05.567+02:00,1379,1.385177,0,0,1089.191,0,0,2022-06-30T09:44:05.799+02:00
2022-06-30T09:45:55.603+02:00,4655.320099500001,-2.077239990234375,2.094482421875,0.2401275634765625,4655.310148500001,-0.5051792976061122,-0.0991051890738795,-1.118527476656013,4.289478778839111,4.247920989990234,2.912102460861206,-1.80254077911377,1.44096565246582,0.6597469449043274,XArbitraryZVertical,-0.5235888240761301,0.09177760843183355,-0.1861310104573679,0.8263092680768411,-0.04323885589838028,0.8994579315185547,-0.4348632395267487,0,0,0,-1,-1,4655.112890500001,unknown,2,2022-06-30T09:45:55.397+02:00,2022-06-30T08:20:05.567+02:00,1379,1.385177,0,0,1089.191,0,0,2022-06-30T09:44:05.799+02:00
2022-06-30T09:45:55.613+02:00,4655.3300515,-1.998626708984375,1.924911499023438,0.2326507568359375,4655.320099500001,-0.4335408698471112,0.01030080781080769,-1.08211398883752,3.289217948913574,4.914334774017334,3.261906623840332,-2.012587547302246,1.368436217308044,0.7159435749053955,XArbitraryZVertical,-0.5020325986704878,0.1150835254734172,-0.1869443402248421,0.8365231591291673,0.004835762549191713,0.8829522132873535,-0.4694381058216095,0,0,0,-1,-1,4655.112890500001,unknown,2,2022-06-30T09:45:55.397+02:00,2022-06-30T08:20:05.567+02:00,1379,1.385177,0,0,1089.191,0,0,2022-06-30T09:44:05.799+02:00
2022-06-30T09:45:55.623+02:00,4655.3400025,-1.849273681640625,1.83074951171875,0.2251739501953125,4655.3300515,-0.3668440698449513,0.1206246441593485,-1.052323596510012,2.270719766616821,5.497371673583984,3.598726511001587,-2.136871337890625,1.225905179977417,0.7320805788040161,XArbitraryZVertical,-0.4833886113727546,0.1426841992960887,-0.1872016608059403,0.8431679811192349,0.05963119491934776,0.8685770630836487,-0.4919533431529999,0,0,0,-1,-1,4655.112890500001,unknown,2,2022-06-30T09:45:55.397+02:00,2022-06-30T08:20:05.567+02:00,1379,1.385177,0,0,1089.191,0,0,2022-06-30T09:44:05.799+02:00
2022-06-30T09:45:55.633+02:00,4655.3499545,-1.760498046875,1.748443603515625,0.2662506103515625,4655.3400025,-0.2993310609701322,0.2350560993699962,-1.027638037595573,1.403987646102905,5.768319606781006,4.066567897796631,-2.118998289108276,1.068830728530884,0.7352803349494934,XArbitraryZVertical,-0.4674330403999805,0.1737567724553571,-0.1859465775455634,0.8466043191780501,0.1203713193535805,0.8560805916786194,-0.5026298761367798,0,0,0,-1,-1,4655.112890500001,unknown,2,2022-06-30T09:45:55.397+02:00,2022-06-30T08:20:05.567+02:00,1379,1.385177,0,0,1089.191,0,0,2022-06-30T09:44:05.799+02:00
2022-06-30T09:45:55.643+02:00,4655.3599065,-1.75616455078125,1.546051025390625,0.3514251708984375,4655.3499545,-0.2268560102049342,0.3543895047176824,-1.004814706873954,0.7874152660369873,5.817732334136963,4.607235431671143,-2.035360336303711,0.9866867661476135,0.7280952930450439,XArbitraryZVertical,-0.453465379789851,0.2071432047841753,-0.1819794704924964,0.8475520200397523,0.186086505651474,0.8440626263618469,-0.5029217004776001,0,0,0,-1,-1,4655.112890500001,unknown,2,2022-06-30T09:45:55.397+02:00,2022-06-30T08:20:05.567+02:00,1379,1.385177,0,0,1089.191,0,0,2022-06-30T09:44:05.799+02:00
2022-06-30T09:45:55.653+02:00,4655.3698575,-1.779083251953125,1.28851318359375,0.4569091796875,4655.3599065,-0.1509665622158068,0.4755690709892022,-0.979396957410303,0.5590041875839233,5.762848854064941,5.08389949798584,-2.015757083892822,0.918282151222229,0.7619065642356873,XArbitraryZVertical,-0.4401476454135866,0.2417475894168885,-0.1751540794606715,0.8468466956252062,0.2552589774131775,0.8301613330841064,-0.4956563115119934,0,0,0,-1,-1,4655.112890500001,unknown,2,2022-06-30T09:45:55.397+02:00,2022-06-30T08:20:05.567+02:00,1379,1.385177,0,0,1089.191,0,0,2022-06-30T09:44:05.799+02:00
2022-06-30T09:45:55.663+02:00,4655.3798095,-1.797286987304688,1.102188110351562,0.53204345703125,4655.3698575,-0.07639697102409454,0.5939238514307923,-0.9474331983402333,0.6294048428535461,5.731667518615723,5.557415008544922,-2.082851886749268,0.7341311573982239,0.8352242112159729,XArbitraryZVertical,-0.4259665166297739,0.2768624900917678,-0.1658895573073177,0.8452102944536202,0.3266872465610504,0.8119197487831116,-0.4837993681430817,0,0,0,-1,-1,4655.112890500001,unknown,2,2022-06-30T09:45:55.397+02:00,2022-06-30T08:20:05.567+02:00,1379,1.385177,0,0,1089.191,0,0,2022-06-30T09:44:05.799+02:00
2022-06-30T09:45:55.673+02:00,4655.3897605,-1.7930908203125,1.028427124023438,0.607086181640625,4655.3798095,-0.007684197774021315,0.7060480756957002,-0.90641234948489,0.9218876361846924,5.762259483337402,6.041986465454102,-2.179136276245117,0.5012162923812866,0.9260798692703247,XArbitraryZVertical,-0.4096514088816656,0.3124102777782052,-0.1546210852679963,0.8430171492730107,0.4000529646873474,0.7872967720031738,-0.4691710770130157,0,0,0,-1,-1,4655.112890500001,unknown,2,2022-06-30T09:45:55.397+02:00,2022-06-30T08:20:05.567+02:00,1379,1.385177,0,0,1089.191,0,0,2022-06-30T09:44:05.799+02:00
2022-06-30T09:45:55.683+02:00,4655.399712500001,-1.777374267578125,0.9949188232421875,0.689453125,4655.3897605,0.05134194191661393,0.8089596237255773,-0.8554043555977321,1.339488387107849,5.760859489440918,6.482720375061035,-2.271885871887207,0.3473517298698425,0.9847883582115173,XArbitraryZVertical,-0.390377146270187,0.3481854270007462,-0.1417080937686797,0.8404114073533331,0.4745987951755524,0.7548362016677856,-0.4527451694011688,0,0,0,-1,-1,4655.112890500001,unknown,2,2022-06-30T09:45:55.397+02:00,2022-06-30T08:20:05.567+02:00,1379,1.385177,0,0,1089.191,0,0,2022-06-30T09:44:05.799+02:00
2022-06-30T09:45:55.692+02:00,4655.4096645,-1.76959228515625,0.9562530517578125,0.724609375,4655.399712500001,0.09724119382694986,0.8996545304896658,-0.7952049497489047,1.894201159477234,5.676867008209229,6.741178512573242,-2.341377735137939,0.3144198060035706,1.042488217353821,XArbitraryZVertical,-0.3677621226030738,0.3834707362503473,-0.1278108616309785,0.8374756736058363,0.5482868552207947,0.7140071392059326,-0.4354024231433868,0,0,0,-1,-1,4655.112890500001,unknown,2,2022-06-30T09:45:55.397+02:00,2022-06-30T08:20:05.567+02:00,1379,1.385177,0,0,1089.191,0,0,2022-06-30T09:44:05.799+02:00
2022-06-30T09:45:55.702+02:00,4655.4196155,-1.79443359375,0.9027557373046875,0.69158935546875,4655.4096645,0.1280439384883953,0.9768549335452692,-0.7275759172745734,2.516567707061768,5.574779510498047,6.877914905548096,-2.39626932144165,0.3298574090003967,1.107379555702209,XArbitraryZVertical,-0.3416243795591246,0.4175277155138689,-0.1138206559203002,0.8342711912156217,0.6188948750495911,0.6650612950325012,-0.4179267883300781,0,0,0,-1,-1,4655.112890500001,unknown,2,2022-06-30T09:45:55.397+02:00,2022-06-30T08:20:05.567+02:00,1379,1.385177,0,0,1089.191,0,0,2022-06-30T09:44:05.799+02:00
2022-06-30T09:45:55.712+02:00,4655.4295675,-1.84368896484375,0.8349609375,0.6244659423828125,4655.4196155,0.1444099719816495,1.042602075060546,-0.6543340875758291,3.174443006515503,5.560081958770752,6.943569183349609,-2.454912662506104,0.3476219177246094,1.124489307403564,XArbitraryZVertical,-0.3119714369908954,0.4502595677228046,-0.100382540893041,0.8305802189734793,0.6853204369544983,0.6086310148239136,-0.3998802900314331,0,0,0,-1,-1,4655.112890500001,unknown,2,2022-06-30T09:45:55.397+02:00,2022-06-30T08:20:05.567+02:00,1379,1.385177,0,0,1089.191,0,0,2022-06-30T09:44:05.799+02:00
2022-06-30T09:45:55.722+02:00,4655.4395185,-1.880172729492188,0.750823974609375,0.5723876953125,4655.4295675,0.1471995152223831,1.099703297454255,-0.5770045038288999,3.861218452453613,5.607022762298584,6.93278169631958,-2.541242122650146,0.3572396636009216,1.071969747543335,XArbitraryZVertical,-0.2787603392166368,0.4817699709721469,-0.08817118673636147,0.8260848769094197,0.7468085289001465,0.5455158352851868,-0.3803807497024536,0,0,0,-1,-1,4655.112890500001,unknown,2,2022-06-30T09:45:55.397+02:00,2022-06-30T08:20:05.567+02:00,1379,1.385177,0,0,1089.191,0,0,2022-06-30T09:44:05.799+02:00
2022-06-30T09:45:55.732+02:00,4655.449470500001,-1.906829833984375,0.656829833984375,0.5420379638671875,4655.4395185,0.1372369841692091,1.151006181361842,-0.4970323369785121,4.61424732208252,5.7614426612854,6.855000972747803,-2.646370887756348,0.3581417202949524,0.9827191829681396,XArbitraryZVertical,-0.2420301928404462,0.5121470250163125,-0.07780058043472637,0.8204108455771763,0.8026817440986633,0.4768190681934357,-0.3582536280155182,0,0,0,-1,-1,4655.112890500001,unknown,2,2022-06-30T09:45:55.397+02:00,2022-06-30T08:20:05.567+02:00,1379,1.385177,0,0,1089.191,0,0,2022-06-30T09:44:05.799+02:00
2022-06-30T09:45:55.742+02:00,4655.4594225,-1.94354248046875,0.501922607421875,0.549346923828125,4655.449470500001,0.1158287521199549,1.199798792053324,-0.4157885766881168,5.189479351043701,5.987052917480469,6.763962745666504,-2.732733726501465,0.3469123542308807,0.9040430784225464,XArbitraryZVertical,-0.2020495536867728,0.5416161818383105,-0.069583017521921,0.8130106248908553,0.8525609970092773,0.4039114415645599,-0.3316557705402374,0,0,0,-1,-1,4655.112890500001,unknown,2,2022-06-30T09:45:55.397+02:00,2022-06-30T08:20:05.567+02:00,1379,1.385177,0,0,1089.191,0,0,2022-06-30T09:44:05.799+02:00
2022-06-30T09:45:55.752+02:00,4655.4693735,-1.969924926757812,0.307525634765625,0.586822509765625,4655.4594225,0.08561678800413897,1.24879104342494,-0.3354244216292391,5.561760902404785,6.25531530380249,6.608701705932617,-2.802567481994629,0.3276596367359161,0.8408704996109009,XArbitraryZVertical,-0.1599740763202628,0.5700806110304729,-0.06326394266593577,0.8033766474637345,0.8957377076148987,0.3291699588298798,-0.2988327741622925,0,0,0,-1,-1,4655.112890500001,unknown,2,2022-06-30T09:45:55.397+02:00,2022-06-30T08:20:05.567+02:00,1379,1.385177,0,0,1089.191,0,0,2022-06-30T09:44:05.799+02:00
2022-06-30T09:45:55.762+02:00,4655.4793255,-1.97662353515625,0.10614013671875,0.70343017578125,4655.4693735,0.04888346183519095,1.301350148756618,-0.2573242535766342,5.729892730712891,6.601010799407959,6.420285224914551,-2.875723361968994,0.2474285662174225,0.8067795038223267,XArbitraryZVertical,-0.116741641556049,0.5980425763622441,-0.05841062919226042,0.7907621108981686,0.9321809411048889,0.2544938325881958,-0.2574329376220703,0,0,0,-1,-1,4655.112890500001,unknown,2,2022-06-30T09:45:55.397+02:00,2022-06-30T08:20:05.567+02:00,1379,1.385177,0,0,1089.191,0,0,2022-06-30T09:44:05.799+02:00
2022-06-30T09:45:55.772+02:00,4655.4892765,-1.931564331054688,-0.0322265625,0.9705047607421875,4655.4793255,0.006910555388649571,1.35906247135245,-0.1827430313326141,5.8215012550354,6.860854148864746,6.202408790588379,-2.931313753128052,0.1257977783679962,0.79347825050354,XArbitraryZVertical,-0.07313797467151864,0.6255580066077151,-0.05466372269568283,0.7748160397600148,0.9613887667655945,0.1817276179790497,-0.2066560387611389,0,0,0,-1,-1,4655.112890500001,unknown,2,2022-06-30T09:45:55.397+02:00,2022-06-30T08:20:05.567+02:00,1379,1.385177,0,0,1089.191,0,0,2022-06-30T09:44:05.799+02:00
2022-06-30T09:45:55.782+02:00,4655.4992285,-1.876556396484375,-0.12603759765625,1.207534790039062,4655.4892765,-0.0389550786272236,1.421292690357689,-0.1125437507111341,5.645348072052002,7.012090682983398,6.058087825775146,-2.959212779998779,-0.006166443228721619,0.8514349460601807,XArbitraryZVertical,-0.02993538810948543,0.6519979716403915,-0.05141966791079505,0.7558826521001973,0.9825893640518188,0.1123063191771507,-0.1480050384998322,0,0,0,-1,-1,4655.112890500001,unknown,2,2022-06-30T09:45:55.397+02:00,2022-06-30T08:20:05.567+02:00,1379,1.385177,0,0,1089.191,0,0,2022-06-30T09:44:05.799+02:00
2022-06-30T09:45:55.792+02:00,4655.5091805,-1.8026123046875,-0.10687255859375,1.39996337890625,4655.4992285,-0.08664602318209433,1.488186642781718,-0.04664405786141811,5.385740280151367,7.218131065368652,5.986437320709229,-2.927070140838623,-0.07885397970676422,1.052930474281311,XArbitraryZVertical,0.01218531694954547,0.6772285486786379,-0.04763407793600395,0.7341281714039384,0.9955059885978699,0.04662714526057243,-0.08242601901292801,0,0,0,-1,-1,4655.112890500001,unknown,2,2022-06-30T09:45:55.397+02:00,2022-06-30T08:20:05.567+02:00,1379,1.385177,0,0,1089.191,0,0,2022-06-30T09:44:05.799+02:00
2022-06-30T09:45:55.802+02:00,4655.5191315,-1.692855834960938,0.014434814453125,1.480331420898438,4655.5091805,-0.1357476036446697,1.560473288761772,0.01451988691400032,5.032857894897461,7.48100757598877,5.827112197875977,-2.876397609710693,-0.1115185171365738,1.217856287956238,XArbitraryZVertical,0.05285581046615565,0.7014594639934986,-0.0431076196262993,0.7094382961354018,0.9998413920402527,-0.01451937668025494,-0.01032176706939936,0,0,0,-1,-1,4655.112890500001,unknown,2,2022-06-30T09:45:55.397+02:00,2022-06-30T08:20:05.567+02:00,1379,1.385177,0,0,1089.191,0,0,2022-06-30T09:44:05.799+02:00
2022-06-30T09:45:55.812+02:00,4655.529083500001,-1.5948486328125,0.0976409912109375,1.49005126953125,4655.5191315,-0.1853747960201956,1.638092170001462,0.07002407659488127,4.631280899047852,7.691874504089355,5.602657794952393,-2.797903537750244,-0.03690598905086517,1.332882881164551,XArbitraryZVertical,0.09137218678371985,0.7247008020802033,-0.03770746918859576,0.6819368982287972,0.9952912330627441,-0.0699668675661087,0.06708025932312012,0,0,0,-1,-1,4655.112890500001,unknown,2,2022-06-30T09:45:55.397+02:00,2022-06-30T08:20:05.567+02:00,1379,1.385177,0,0,1089.191,0,0,2022-06-30T09:44:05.799+02:00
2022-06-30T09:45:55.822+02:00,4655.539034500001,-1.520187377929688,0.097900390625,1.477737426757812,4655.529083500001,-0.2358838024175296,1.72002384230611,0.1192657570640655,4.371732711791992,7.810101509094238,5.316091537475586,-2.674717426300049,0.1334177106618881,1.33271312713623,XArbitraryZVertical,0.1276297278082598,0.7466724316186456,-0.03178167225109568,0.6520589372757302,0.981861412525177,-0.1189832091331482,0.1476181298494339,0,0,0,-1,-1,4655.112890500001,unknown,2,2022-06-30T09:45:55.397+02:00,2022-06-30T08:20:05.567+02:00,1379,1.385177,0,0,1089.191,0,0,2022-06-30T09:44:05.799+02:00
2022-06-30T09:45:55.832+02:00,4655.5489865,-1.438491821289062,-0.002593994140625,1.580459594726562,4655.539034500001,-0.2879612201743624,1.805375711407101,0.1613655918483334,4.211918354034424,7.887133121490479,4.971060276031494,-2.554825305938721,0.2583068609237671,1.260636806488037,XArbitraryZVertical,0.1616798716570344,0.7671810495686896,-0.02598703864386022,0.6201753263500562,0.9599766731262207,-0.160666212439537,0.2294142842292786,0,0,0,-1,-1,4655.112890500001,unknown,2,2022-06-30T09:45:55.397+02:00,2022-06-30T08:20:05.567+02:00,1379,1.385177,0,0,1089.191,0,0,2022-06-30T09:44:05.799+02:00
