loggingTime(txt),accelerometerTimestamp_sinceReboot(s),accelerometerAccelerationX(G),accelerometerAccelerationY(G),accelerometerAccelerationZ(G),motionTimestamp_sinceReboot(s),motionYaw(rad),motionRoll(rad),motionPitch(rad),motionRotationRateX(rad/s),motionRotationRateY(rad/s),motionRotationRateZ(rad/s),motionUserAccelerationX(G),motionUserAccelerationY(G),motionUserAccelerationZ(G),motionAttitudeReferenceFrame(txt),motionQuaternionX(R),motionQuaternionY(R),motionQuaternionZ(R),motionQuaternionW(R),motionGravityX(G),motionGravityY(G),motionGravityZ(G),motionMagneticFieldX(µT),motionMagneticFieldY(µT),motionMagneticFieldZ(µT),motionHeading(°),motionMagneticFieldCalibrationAccuracy(Z),activityTimestamp_sinceReboot(s),activity(txt),activityActivityConfidence(Z),activityActivityStartDate(txt),pedometerStartDate(txt),pedometerNumberofSteps(N),pedometerAverageActivePace(s/m),pedometerCurrentPace(s/m),pedometerCurrentCadence(steps/s),pedometerDistance(m),pedometerFloorAscended(N),pedometerFloorDescended(N),pedometerEndDate(txt)
2022-06-30T09:46:12.121+02:00,4671.819856291667,0.0395660400390625,-0.3456573486328125,-0.8911285400390625,4671.809904291666,0.3090065188066553,0.02288829649658972,0.3063174411139113,-0.1284805834293365,-0.03455379605293274,0.2485180795192719,0.118483193218708,-0.006357699632644653,0.0661005973815918,XArbitraryZVertical,0.1489929858772822,0.03465111953502338,0.1538030052597751,0.9761891040789527,0.02182095311582088,-0.3015495538711548,-0.9532007575035095,0,0,0,-1,-1,4670.396876166667,unknown,2,2022-06-30T09:46:10.681+02:00,2022-06-30T08:20:05.567+02:00,1379,1.385177,0,0,1089.191,0,0,2022-06-30T09:44:05.799+02:00
2022-06-30T09:46:12.123+02:00,4671.829807291667,0.051727294921875,-0.315399169921875,-0.910247802734375,4671.819856291667,0.3117094337535429,0.02193831951957387,0.3045326185671495,-0.2359340190887451,0.03047487325966358,0.2523020207881927,0.06574229896068573,-0.04448261857032776,0.06912940740585327,XArbitraryZVertical,0.1481481837968315,0.03425343665916809,0.1550629040036679,0.9761323086718899,0.0209271963685751,-0.2998473346233368,-0.953757643699646,0,0,0,-1,-1,4670.396876166667,unknown,2,2022-06-30T09:46:10.681+02:00,2022-06-30T08:20:05.567+02:00,1379,1.385177,0,0,1089.191,0,0,2022-06-30T09:44:05.799+02:00
2022-06-30T09:46:12.124+02:00,4671.839759291667,0.0724334716796875,-0.2836761474609375,-0.930694580078125,4671.829807291667,0.3143780853951544,0.02153162755996519,0.3019160168517826,-0.2915298938751221,0.05929506570100784,0.2441543191671371,0.01900948956608772,-0.0483073890209198,0.0634186863899231,XArbitraryZVertical,0.1468565305901251,0.03405228925599214,0.1563523016134302,0.9761288624885747,0.0205561313778162,-0.2973501086235046,-0.9545472264289856,0,0,0,-1,-1,4670.396876166667,unknown,2,2022-06-30T09:46:10.681+02:00,2022-06-30T08:20:05.567+02:00,1379,1.385177,0,0,1089.191,0,0,2022-06-30T09:44:05.799+02:00
2022-06-30T09:46:12.132+02:00,4671.849710291667,0.072113037109375,-0.2891082763671875,-0.959320068359375,4671.839759291667,0.3167668274468517,0.02134708516705431,0.2987726796486089,-0.3487098217010498,0.060776486992836,0.1826118677854538,0.03132704645395279,-0.02105182409286499,0.04523295164108276,XArbitraryZVertical,0.1452954539286596,0.03389501195840337,0.1575252113624889,0.9761793468101895,0.02039982751011848,-0.2943474948406219,-0.955480694770813,0,0,0,-1,-1,4670.396876166667,unknown,2,2022-06-30T09:46:10.681+02:00,2022-06-30T08:20:05.567+02:00,1379,1.385177,0,0,1089.191,0,0,2022-06-30T09:44:05.799+02:00
2022-06-30T09:46:12.142+02:00,4671.859662291667,0.0779876708984375,-0.2693634033203125,-0.9718170166015625,4671.849710291667,0.3188531013042216,0.02114791059117619,0.2953192827395792,-0.3317297697067261,0.09169925004243851,0.1456466615200043,0.05220215022563934,0.007369071245193481,0.02580082416534424,XArbitraryZVertical,0.1435894279738985,0.03368093487779043,0.1585516681005007,0.9762730893506761,0.02023089490830898,-0.2910453379154205,-0.9564953446388245,0,0,0,-1,-1,4670.396876166667,unknown,2,2022-06-30T09:46:10.681+02:00,2022-06-30T08:20:05.567+02:00,1379,1.385177,0,0,1089.191,0,0,2022-06-30T09:44:05.799+02:00
2022-06-30T09:46:12.152+02:00,4671.869614291667,0.075408935546875,-0.2635650634765625,-0.9725494384765625,4671.859662291667,0.3202239404573489,0.02116197956050938,0.2921418968593044,-0.3155465424060822,0.01684365049004555,0.1068031266331673,0.05184879153966904,-0.001104354858398438,-0.001905202865600586,XArbitraryZVertical,0.1420134070002421,0.03353810580975285,0.159242458361918,0.9763960043297046,0.02026381716132164,-0.2880040407180786,-0.9574147462844849,0,0,0,-1,-1,4670.396876166667,unknown,2,2022-06-30T09:46:10.681+02:00,2022-06-30T08:20:05.567+02:00,1379,1.385177,0,0,1089.191,0,0,2022-06-30T09:44:05.799+02:00
2022-06-30T09:46:12.162+02:00,4671.879565291667,0.05712890625,-0.306915283203125,-0.9740753173828125,4671.869614291667,0.3212832624241151,0.02067252083073811,0.2890136822810685,-0.3128871023654938,-0.02157990448176861,0.08123038709163666,0.0581735223531723,0.0156434178352356,-0.01349633932113647,XArbitraryZVertical,0.1405067092458623,0.03312915737619304,0.1597452528269697,0.976545901206796,0.01981372572481632,-0.2850069403648376,-0.9583206176757812,0,0,0,-1,-1,4670.396876166667,unknown,2,2022-06-30T09:46:10.681+02:00,2022-06-30T08:20:05.567+02:00,1379,1.385177,0,0,1089.191,0,0,2022-06-30T09:44:05.799+02:00
2022-06-30T09:46:12.172+02:00,4671.889517291667,0.022705078125,-0.266876220703125,-0.9799346923828125,4671.879565291667,0.3223312510899389,0.02022671649879345,0.2863520636081165,-0.2076921910047531,0.01384719554334879,0.1044322177767754,0.05600673705339432,0.01888954639434814,-0.01346498727798462,XArbitraryZVertical,0.1392248160061419,0.03277569311686217,0.1602430888818999,0.9766597963594849,0.01940177381038666,-0.2824547290802002,-0.9590843915939331,0,0,0,-1,-1,4670.396876166667,unknown,2,2022-06-30T09:46:10.681+02:00,2022-06-30T08:20:05.567+02:00,1379,1.385177,0,0,1089.191,0,0,2022-06-30T09:44:05.799+02:00
2022-06-30T09:46:12.182+02:00,4671.899469291667,0.0221710205078125,-0.2332305908203125,-0.9701385498046875,4671.889517291667,0.323350951650262,0.02029284031997492,0.2849249261090307,-0.09195813536643982,0.07604692131280899,0.07316111028194427,0.03765513002872467,-0.0258299708366394,-0.01459008455276489,XArbitraryZVertical,0.1385055507932421,0.03276628841276872,0.1607548970893191,0.9766782658734494,0.0194733515381813,-0.2810854017734528,-0.9594851732254028,0,0,0,-1,-1,4670.396876166667,unknown,2,2022-06-30T09:46:10.681+02:00,2022-06-30T08:20:05.567+02:00,1379,1.385177,0,0,1089.191,0,0,2022-06-30T09:44:05.799+02:00
2022-06-30T09:46:12.192+02:00,4671.909420291667,0.02197265625,-0.26275634765625,-0.9661407470703125,4671.899469291667,0.3242036211756223,0.02084061263046091,0.2843292547010722,-0.02833461761474609,0.1009555459022522,0.09505093097686768,0.002702243626117706,0.01363733410835266,-0.02029305696487427,XArbitraryZVertical,0.1381563999445045,0.03304566445907799,0.1612129772427615,0.9766428473772797,0.02000241540372372,-0.2805137038230896,-0.9596415758132935,0,0,0,-1,-1,4670.396876166667,unknown,2,2022-06-30T09:46:10.681+02:00,2022-06-30T08:20:05.567+02:00,1379,1.385177,0,0,1089.191,0,0,2022-06-30T09:44:05.799+02:00
2022-06-30T09:46:12.202+02:00,4671.919372291667,0.05523681640625,-0.315093994140625,-0.9733734130859375,4671.909420291667,0.3251892305381651,0.0217241591327891,0.2841818475876389,-0.01931742019951344,0.1587293744087219,0.06514549255371094,0.00131940096616745,0.04714149236679077,-0.01047366857528687,XArbitraryZVertical,0.1379966340457411,0.03353345886348959,0.1617561628688024,0.9765590385007991,0.02085119299590588,-0.2803722023963928,-0.9596648812294006,0,0,0,-1,-1,4670.396876166667,unknown,2,2022-06-30T09:46:10.681+02:00,2022-06-30T08:20:05.567+02:00,1379,1.385177,0,0,1089.191,0,0,2022-06-30T09:44:05.799+02:00
2022-06-30T09:46:12.212+02:00,4671.929323291667,0.0920257568359375,-0.335357666015625,-0.9816131591796875,4671.919372291667,0.3255500266181793,0.02325851669393772,0.2835901910810147,-0.09126737713813782,0.1767255514860153,0.01153067033737898,-0.0003552548587322235,0.01704776287078857,-0.006343305110931396,XArbitraryZVertical,0.1375772693823162,0.03426053995762108,0.1620415661821803,0.9765456564082297,0.0223274901509285,-0.2798042297363281,-0.9597974419593811,0,0,0,-1,-1,4670.396876166667,unknown,2,2022-06-30T09:46:10.681+02:00,2022-06-30T08:20:05.567+02:00,1379,1.385177,0,0,1089.191,0,0,2022-06-30T09:44:05.799+02:00
2022-06-30T09:46:12.222+02:00,4671.939275291667,0.0864715576171875,-0.300384521484375,-0.9789886474609375,4671.929323291667,0.3256806935546206,0.02467686393876184,0.2824762738745152,-0.1286373883485794,0.1412088423967361,-0.004088236950337887,0.0315399244427681,-0.03635948896408081,-0.01329761743545532,XArbitraryZVertical,0.1369158387867188,0.03487363294289286,0.1622089316169806,0.9765890060506603,0.02369646914303303,-0.2787346243858337,-0.9600757360458374,0,0,0,-1,-1,4670.396876166667,unknown,2,2022-06-30T09:46:10.681+02:00,2022-06-30T08:20:05.567+02:00,1379,1.385177,0,0,1089.191,0,0,2022-06-30T09:44:05.799+02:00
2022-06-30T09:46:12.232+02:00,4671.949227291667,0.06536865234375,-0.2983551025390625,-0.96710205078125,4671.939275291667,0.325615924366694,0.02585389980347951,0.2810160300730064,-0.1639410406351089,0.1232684105634689,0.007102498784661293,0.06718833744525909,-0.05802583694458008,-0.0211600661277771,XArbitraryZVertical,0.1361080032120261,0.03532807312180734,0.1622652342143703,0.9766763327167265,0.02483699098229408,-0.2773319780826569,-0.9604530930519104,0,0,0,-1,-1,4670.396876166667,unknown,2,2022-06-30T09:46:10.681+02:00,2022-06-30T08:20:05.567+02:00,1379,1.385177,0,0,1089.191,0,0,2022-06-30T09:44:05.799+02:00
2022-06-30T09:46:12.242+02:00,4671.959178291667,0.0147552490234375,-0.3106231689453125,-0.9666595458984375,4671.949227291667,0.3272126872110457,0.02602300070318558,0.2789043283718303,-0.2628119587898254,0.1175609901547432,0.3165077567100525,0.06145654991269112,-0.02508217096328735,-0.0179564356803894,XArbitraryZVertical,0.1350341829542935,0.03535090925712175,0.1630670193496886,0.9766910168129621,0.02501458674669266,-0.2753024697303772,-0.9610321521759033,0,0,0,-1,-1,4670.396876166667,unknown,2,2022-06-30T09:46:10.681+02:00,2022-06-30T08:20:05.567+02:00,1379,1.385177,0,0,1089.191,0,0,2022-06-30T09:44:05.799+02:00
2022-06-30T09:46:12.252+02:00,4671.969130291667,0.0756378173828125,-0.240325927734375,-0.9654388427734375,4671.959178291667,0.3300119480615108,0.02661887868328811,0.2764374412803857,-0.2330621927976608,0.2089362442493439,0.1523572355508804,0.03976298496127129,-0.02542513608932495,-0.005408942699432373,XArbitraryZVertical,0.1337303296112704,0.03563240425640805,0.1644860786149337,0.9766221974911866,0.02560523897409439,-0.2729300856590271,-0.9616930484771729,0,0,0,-1,-1,4670.396876166667,unknown,2,2022-06-30T09:46:10.681+02:00,2022-06-30T08:20:05.567+02:00,1379,1.385177,0,0,1089.191,0,0,2022-06-30T09:44:05.799+02:00
2022-06-30T09:46:12.262+02:00,4671.979081291667,0.11602783203125,-0.214874267578125,-0.9731903076171875,4671.969130291667,0.3308948375051667,0.02838981645301032,0.2742224666251928,-0.2149407118558884,0.2057987749576569,0.03178980201482773,-0.01257055997848511,-0.03982475399971008,-0.004411399364471436,XArbitraryZVertical,0.1324862321351938,0.03637760256927123,0.1650451950589019,0.9766699378578769,0.02732538990676403,-0.270798534154892,-0.9622481465339661,0,0,0,-1,-1,4670.396876166667,unknown,2,2022-06-30T09:46:10.681+02:00,2022-06-30T08:20:05.567+02:00,1379,1.385177,0,0,1089.191,0,0,2022-06-30T09:44:05.799+02:00
2022-06-30T09:46:12.272+02:00,4671.989033291667,0.0883026123046875,-0.207244873046875,-0.970733642578125,4671.979081291667,0.3312589265784024,0.02970794043020553,0.2724824859698445,-0.1182101145386696,0.1027976498007774,0.01909927278757095,0.04702971503138542,0.02879711985588074,-0.002758026123046875,XArbitraryZVertical,0.1315204068580428,0.03690502963962244,0.165317179326052,0.9767346961364325,0.0286076795309782,-0.2691231667995453,-0.9626808166503906,0,0,0,-1,-1,4670.396876166667,unknown,2,2022-06-30T09:46:10.681+02:00,2022-06-30T08:20:05.567+02:00,1379,1.385177,0,0,1089.191,0,0,2022-06-30T09:44:05.799+02:00
2022-06-30T09:46:12.282+02:00,4671.998985291667,0.0471954345703125,-0.2184295654296875,-0.9562225341796875,4671.989033291667,0.3314780267976794,0.03018436496632808,0.2719899754545303,0.0106274951249361,0.03992840275168419,0.02438484877347946,0.08695708215236664,0.0537743866443634,-0.01039087772369385,XArbitraryZVertical,0.1312362625778056,0.03711235204840118,0.1654573836623753,0.9767413264578727,0.02907031774520874,-0.268648773431778,-0.9627994298934937,0,0,0,-1,-1,4670.396876166667,unknown,2,2022-06-30T09:46:10.681+02:00,2022-06-30T08:20:05.567+02:00,1379,1.385177,0,0,1089.191,0,0,2022-06-30T09:44:05.799+02:00
2022-06-30T09:46:12.292+02:00,4672.008936291667,0.02862548828125,-0.2548980712890625,-0.9400634765625,4671.998985291667,0.3320200411996636,0.03032662103583681,0.2723661823313768,0.08451589941978455,0.04845108464360237,0.0754084512591362,0.05909797176718712,0.06176614761352539,-0.008039414882659912,XArbitraryZVertical,0.1313982517994849,0.03724779470968823,0.1657299780289223,0.9766682190381505,0.02920421585440636,-0.2690111398696899,-0.9626942276954651,0,0,0,-1,-1,4670.396876166667,unknown,2,2022-06-30T09:46:10.681+02:00,2022-06-30T08:20:05.567+02:00,1379,1.385177,0,0,1089.191,0,0,2022-06-30T09:44:05.799+02:00
2022-06-30T09:46:12.302+02:00,4672.018888291667,0.0387420654296875,-0.279998779296875,-0.926605224609375,4672.008936291667,0.3330810813259921,0.03106289088963154,0.2739809837627847,0.08576252311468124,0.07881538569927216,0.1565469801425934,0.01729552634060383,0.05213639140129089,0.006014525890350342,XArbitraryZVertical,0.1321062623228903,0.03780790640823079,0.1662904770237592,0.9764559041933775,0.02989947982132435,-0.2705660760402679,-0.9622370004653931,0,0,0,-1,-1,4670.396876166667,unknown,2,2022-06-30T09:46:10.681+02:00,2022-06-30T08:20:05.567+02:00,1379,1.385177,0,0,1089.191,0,0,2022-06-30T09:44:05.799+02:00
2022-06-30T09:46:12.312+02:00,4672.028839291667,0.064910888671875,-0.30657958984375,-0.927581787109375,4672.018888291667,0.3347738182442327,0.03243076552132966,0.2753861056814191,-0.001976313535124063,0.1037377193570137,0.2212913185358047,-0.0025782510638237,0.01702031493186951,0.021750807762146,XArbitraryZVertical,0.1326462809251004,0.03870183220398476,0.1672022612271209,0.9761918880062612,0.03120331279933453,-0.2719185054302216,-0.961814284324646,0,0,0,-1,-1,4670.396876166667,unknown,2,2022-06-30T09:46:10.681+02:00,2022-06-30T08:20:05.567+02:00,1379,1.385177,0,0,1089.191,0,0,2022-06-30T09:44:05.799+02:00
2022-06-30T09:46:12.322+02:00,4672.038791291667,0.085601806640625,-0.310760498046875,-0.9413604736328125,4672.028839291667,0.3369166534546283,0.03366108550913451,0.2752762181663528,-0.1018272787332535,0.08844664692878723,0.2360963672399521,0.006354011595249176,-0.008186131715774536,0.03519982099533081,XArbitraryZVertical,0.1324475433322942,0.03943532456378283,0.1683299711710415,0.9759957237353813,0.0323876328766346,-0.27181276679039,-0.961804986000061,0,0,0,-1,-1,4670.396876166667,unknown,2,2022-06-30T09:46:10.681+02:00,2022-06-30T08:20:05.567+02:00,1379,1.385177,0,0,1089.191,0,0,2022-06-30T09:44:05.799+02:00
2022-06-30T09:46:12.332+02:00,4672.048743291667,0.077239990234375,-0.2763671875,-0.9600372314453125,4672.038791291667,0.3393328383624104,0.0341444368088376,0.2744366753750004,-0.1463958024978638,0.04640158265829086,0.2473812401294708,0.03205017000436783,-0.03557497262954712,0.0344352126121521,XArbitraryZVertical,0.1319488937336164,0.03976190013584269,0.1695436566504342,0.9758398608354973,0.03286029770970345,-0.2710047364234924,-0.9620169401168823,0,0,0,-1,-1,4670.396876166667,unknown,2,2022-06-30T09:46:10.681+02:00,2022-06-30T08:20:05.567+02:00,1379,1.385177,0,0,1089.191,0,0,2022-06-30T09:44:05.799+02:00
2022-06-30T09:46:12.341+02:00,4672.058694291667,0.066131591796875,-0.249237060546875,-0.9692230224609375,4672.048743291667,0.341925071769533,0.03353549238086702,0.2736324248263564,-0.1429507434368134,0.02850726619362831,0.2215613722801208,0.05331960693001747,-0.04053011536598206,0.02089387178421021,XArbitraryZVertical,0.1315566009638483,0.03956898441099494,0.1707709167782659,0.9756866218007635,0.0322817750275135,-0.2702305018901825,-0.9622542858123779,0,0,0,-1,-1,4670.396876166667,unknown,2,2022-06-30T09:46:10.681+02:00,2022-06-30T08:20:05.567+02:00,1379,1.385177,0,0,1089.191,0,0,2022-06-30T09:44:05.799+02:00
2022-06-30T09:46:12.352+02:00,4672.068646291667,0.05657958984375,-0.250091552734375,-0.9768218994140625,4672.058694291667,0.3438072601788159,0.03390326744319407,0.2718172702689395,-0.1346105933189392,0.02066013030707836,0.1698977947235107,0.04458732530474663,-0.007884889841079712,0.002693831920623779,XArbitraryZVertical,0.1306016005987455,0.03972043538954757,0.1717193204277542,0.9756423120843548,0.03265224024653435,-0.2684824168682098,-0.9627310037612915,0,0,0,-1,-1,4670.396876166667,unknown,2,2022-06-30T09:46:10.681+02:00,2022-06-30T08:20:05.567+02:00,1379,1.385177,0,0,1089.191,0,0,2022-06-30T09:44:05.799+02:00
2022-06-30T09:46:12.361+02:00,4672.078597291667,0.058197021484375,-0.24774169921875,-0.9783782958984375,4672.068646291667,0.3449251825031058,0.03506276185495275,0.2700756555329858,-0.05418872088193893,0.02681629359722137,0.09855838119983673,0.03234632685780525,0.01756718754768372,-0.006064653396606445,XArbitraryZVertical,0.129629230122484,0.04021297574261454,0.1723455864262204,0.975641421748164,0.03378483653068542,-0.2668043375015259,-0.9631583690643311,0,0,0,-1,-1,4670.396876166667,unknown,2,2022-06-30T09:46:10.681+02:00,2022-06-30T08:20:05.567+02:00,1379,1.385177,0,0,1089.191,0,0,2022-06-30T09:44:05.799+02:00
2022-06-30T09:46:12.372+02:00,4672.088549291667,0.069854736328125,-0.26483154296875,-0.980682373046875,4672.078597291667,0.3454025947094231,0.03604567385107607,0.2689775363287749,0.009044846519827843,0.03719109669327736,0.04022170230746269,0.02183710411190987,0.01565420627593994,-0.0134049654006958,XArbitraryZVertical,0.1289986699652673,0.04063120683885227,0.1726451728829152,0.9756546843325719,0.03474206104874611,-0.2657458782196045,-0.9634168744087219,0,0,0,-1,-1,4670.396876166667,unknown,2,2022-06-30T09:46:10.681+02:00,2022-06-30T08:20:05.567+02:00,1379,1.385177,0,0,1089.191,0,0,2022-06-30T09:44:05.799+02:00
2022-06-30T09:46:12.382+02:00,4672.098501291667,0.06201171875,-0.2791748046875,-0.984466552734375,4672.088549291667,0.3457003740530726,0.03651439095109416,0.2684982999089919,0.02875383570790291,0.02938111312687397,0.03449137881398201,0.02299832552671432,0.0175420343875885,-0.01485061645507812,XArbitraryZVertical,0.128718131785346,0.04083879710221875,0.1728219009221835,0.9756518411963543,0.03519827127456665,-0.2652838528156281,-0.9635276794433594,0,0,0,-1,-1,4670.396876166667,unknown,2,2022-06-30T09:46:10.681+02:00,2022-06-30T08:20:05.567+02:00,1379,1.385177,0,0,1089.191,0,0,2022-06-30T09:44:05.799+02:00
2022-06-30T09:46:12.391+02:00,4672.108452291667,0.0529327392578125,-0.277618408203125,-0.97674560546875,4672.098501291667,0.3461278096513861,0.03648751697412362,0.2687028046942712,0.02541463077068329,0.01495612319558859,0.04633971676230431,0.03468391671776772,0.0006493330001831055,-0.01720798015594482,XArbitraryZVertical,0.1288115652103678,0.04087039303153493,0.1730281380778184,0.9756016748665259,0.03517039865255356,-0.265481024980545,-0.9634743928909302,0,0,0,-1,-1,4670.396876166667,unknown,2,2022-06-30T09:46:10.681+02:00,2022-06-30T08:20:05.567+02:00,1379,1.385177,0,0,1089.191,0,0,2022-06-30T09:44:05.799+02:00
2022-06-30T09:46:12.401+02:00,4672.118404291667,0.055755615234375,-0.2721710205078125,-0.96307373046875,4672.108452291667,0.3466716390354704,0.03661558776643444,0.2695278306513327,0.03584703430533409,0.02144198678433895,0.06061132997274399,0.02672553434967995,-0.01289859414100647,-0.02121585607528687,XArbitraryZVertical,0.1291921129463997,0.04103737805395878,0.1732994840528566,0.9754962019762541,0.03528575971722603,-0.2662763297557831,-0.9632506370544434,0,0,0,-1,-1,4670.396876166667,unknown,2,2022-06-30T09:46:10.681+02:00,2022-06-30T08:20:05.567+02:00,1379,1.385177,0,0,1089.191,0,0,2022-06-30T09:44:05.799+02:00
2022-06-30T09:46:12.411+02:00,4672.128356291667,0.0529937744140625,-0.2785491943359375,-0.9449920654296875,4672.118404291667,0.3471705698158374,0.03737614311304811,0.2711367173913937,0.05914369598031044,0.02362161502242088,0.0811944305896759,0.01693001016974449,-0.009791702032089233,-0.01395136117935181,XArbitraryZVertical,0.1299012091634852,0.04157619963417536,0.1735878982964604,0.975327907535356,0.03600230067968369,-0.2678267955780029,-0.9627941846847534,0,0,0,-1,-1,4670.396876166667,unknown,2,2022-06-30T09:46:10.681+02:00,2022-06-30T08:20:05.567+02:00,1379,1.385177,0,0,1089.191,0,0,2022-06-30T09:44:05.799+02:00
2022-06-30T09:46:12.421+02:00,4672.138307291667,0.053741455078125,-0.298583984375,-0.9353485107421875,4672.128356291667,0.3477954064933009,0.03871213051054972,0.2729554443510511,0.05135608464479446,0.02935779467225075,0.1116575300693512,0.01848555356264114,-0.002592504024505615,-0.0008168220520019531,XArbitraryZVertical,0.1306596591226902,0.04242176409845572,0.173975185681395,0.9751210589039574,0.03726963326334953,-0.2695786356925964,-0.962256908416748,0,0,0,-1,-1,4670.396876166667,unknown,2,2022-06-30T09:46:10.681+02:00,2022-06-30T08:20:05.567+02:00,1379,1.385177,0,0,1089.191,0,0,2022-06-30T09:44:05.799+02:00
2022-06-30T09:46:12.431+02:00,4672.148259291667,0.06103515625,-0.298187255859375,-0.9320068359375,4672.138307291667,0.3487098318311353,0.03977466895863602,0.2734879102678537,0.003883839584887028,0.0350354015827179,0.128339484333992,0.01470701396465302,-0.008457988500595093,0.01708114147186279,XArbitraryZVertical,0.1308073922997737,0.04304453577095176,0.1744892600679797,0.9749821127809875,0.03828633576631546,-0.2700913548469543,-0.9620732069015503,0,0,0,-1,-1,4670.396876166667,unknown,2,2022-06-30T09:46:10.681+02:00,2022-06-30T08:20:05.567+02:00,1379,1.385177,0,0,1089.191,0,0,2022-06-30T09:44:05.799+02:00
2022-06-30T09:46:12.441+02:00,4672.158210291667,0.0589141845703125,-0.2884674072265625,-0.9380340576171875,4672.148259291667,0.3500210355967417,0.04048278207221907,0.2725111682958984,-0.08221776038408279,0.0269180852919817,0.1613373756408691,0.01476278901100159,-0.02943333983421326,0.02696049213409424,XArbitraryZVertical,0.1302405572522317,0.04339253868469824,0.1751766420281103,0.9749192993004677,0.03897824138402939,-0.2691507935523987,-0.962308943271637,0,0,0,-1,-1,4670.396876166667,unknown,2,2022-06-30T09:46:10.681+02:00,2022-06-30T08:20:05.567+02:00,1379,1.385177,0,0,1089.191,0,0,2022-06-30T09:44:05.799+02:00
2022-06-30T09:46:12.451+02:00,4672.168162291667,0.0604248046875,-0.27001953125,-0.9468536376953125,4672.158210291667,0.3515615742332486,0.04090847051657348,0.2706529745352307,-0.135395884513855,0.02063239552080631,0.1594704240560532,0.02162646502256393,-0.03082668781280518,0.03078353404998779,XArbitraryZVertical,0.1292630261541566,0.0435419057875369,0.1759587012911699,0.9749019141193482,0.03940826654434204,-0.2673606872558594,-0.9627903699874878,0,0,0,-1,-1,4670.396876166667,unknown,2,2022-06-30T09:46:10.681+02:00,2022-06-30T08:20:05.567+02:00,1379,1.385177,0,0,1089.191,0,0,2022-06-30T09:44:05.799+02:00
2022-06-30T09:46:12.461+02:00,4672.178114291667,0.0508575439453125,-0.2625274658203125,-0.9549407958984375,4672.168162291667,0.3530937528796491,0.04154531216773341,0.2681534315994601,-0.1423507332801819,0.02046142145991325,0.1735923737287521,0.01886472105979919,-0.0235162079334259,0.02539569139480591,XArbitraryZVertical,0.1279537998355365,0.04373726522502044,0.1767507851362021,0.9749226769723379,0.04004903510212898,-0.2649513185024261,-0.9634297490119934,0,0,0,-1,-1,4670.396876166667,unknown,2,2022-06-30T09:46:10.681+02:00,2022-06-30T08:20:05.567+02:00,1379,1.385177,0,0,1089.191,0,0,2022-06-30T09:44:05.799+02:00
2022-06-30T09:46:12.471+02:00,4672.188065291667,0.0456085205078125,-0.26104736328125,-0.9565277099609375,4672.178114291667,0.3545906820988468,0.04266224061685806,0.2667742784294639,-0.09894753247499466,0.0239704642444849,0.1729742288589478,0.01928374543786049,-0.006398439407348633,0.01689493656158447,XArbitraryZVertical,0.1271489958080286,0.04425882731576661,0.1775537108195648,0.9748585042929125,0.04114063456654549,-0.2636212110519409,-0.963748574256897,0,0,0,-1,-1,4670.396876166667,unknown,2,2022-06-30T09:46:10.681+02:00,2022-06-30T08:20:05.567+02:00,1379,1.385177,0,0,1089.191,0,0,2022-06-30T09:44:05.799+02:00
2022-06-30T09:46:12.481+02:00,4672.198017291667,0.044403076171875,-0.27020263671875,-0.9554595947265625,4672.188065291667,0.3561132230613899,0.04341917534995285,0.2665468998552602,-0.04593891277909279,0.03310723602771759,0.1666710525751114,0.00898439809679985,0.0008742809295654297,0.008836269378662109,XArbitraryZVertical,0.1269368480665319,0.04470487764932859,0.1783441567697775,0.9747214933895859,0.04187272116541862,-0.2634018659591675,-0.9637770056724548,0,0,0,-1,-1,4670.396876166667,unknown,2,2022-06-30T09:46:10.681+02:00,2022-06-30T08:20:05.567+02:00,1379,1.385177,0,0,1089.191,0,0,2022-06-30T09:44:05.799+02:00
2022-06-30T09:46:12.491+02:00,4672.207968291667,0.047760009765625,-0.28973388671875,-0.9502105712890625,4672.198017291667,0.3577460274304199,0.04381678779917452,0.2668617294628886,-0.001217512413859367,0.04907317832112312,0.1701850891113281,0.003355804830789566,0.002658069133758545,0.007149696350097656,XArbitraryZVertical,0.1270182707677441,0.04502955078404602,0.179164736848212,0.9745453848168477,0.04225229099392891,-0.2637055516242981,-0.9636774063110352,0,0,0,-1,-1,4670.396876166667,unknown,2,2022-06-30T09:46:10.681+02:00,2022-06-30T08:20:05.567+02:00,1379,1.385177,0,0,1089.191,0,0,2022-06-30T09:44:05.799+02:00
2022-06-30T09:46:12.501+02:00,4672.217920291667,0.0632171630859375,-0.3067626953125,-0.95526123046875,4672.207968291667,0.3592806025170314,0.04456422862197092,0.2673329382968244,0.00672323489561677,0.07148899883031845,0.1546495407819748,0.001435615122318268,-0.006042659282684326,0.008061766624450684,XArbitraryZVertical,0.1271462477372151,0.04553216890425307,0.1799593899755774,0.9743589620533086,0.04296703264117241,-0.2641600668430328,-0.9635213017463684,0,0,0,-1,-1,4670.396876166667,unknown,2,2022-06-30T09:46:10.681+02:00,2022-06-30T08:20:05.567+02:00,1379,1.385177,0,0,1089.191,0,0,2022-06-30T09:44:05.799+02:00
2022-06-30T09:46:12.511+02:00,4672.227872291667,0.07086181640625,-0.318328857421875,-0.9547576904296875,4672.217920291667,0.3607103842819077,0.04539567537621332,0.2681630200799683,-0.02079880423843861,0.0777067095041275,0.1480056792497635,0.004001416265964508,-0.02477344870567322,0.01305532455444336,XArbitraryZVertical,0.1274433297286222,0.04610058841888592,0.1807079854359281,0.9741548320579494,0.04375816881656647,-0.2649605572223663,-0.9632658958435059,0,0,0,-1,-1,4670.396876166667,unknown,2,2022-06-30T09:46:10.681+02:00,2022-06-30T08:20:05.567+02:00,1379,1.385177,0,0,1089.191,0,0,2022-06-30T09:44:05.799+02:00
2022-06-30T09:46:12.521+02:00,4672.237823291667,0.0673828125,-0.317535400390625,-0.9542388916015625,4672.227872291667,0.3621348418587869,0.04616087381037057,0.2693136155964831,-0.08639059960842133,0.06140043959021568,0.1460285484790802,0.01873559132218361,-0.04069295525550842,0.007665693759918213,XArbitraryZVertical,0.1279020144026827,0.04666489382915977,0.1814495645688722,0.9739299589173779,0.04448114708065987,-0.2660698592662811,-0.9629269242286682,0,0,0,-1,-1,4670.396876166667,unknown,2,2022-06-30T09:46:10.681+02:00,2022-06-30T08:20:05.567+02:00,1379,1.385177,0,0,1089.191,0,0,2022-06-30T09:44:05.799+02:00
2022-06-30T09:46:12.531+02:00,4672.247775291667,0.0572052001953125,-0.2935791015625,-0.9532318115234375,4672.237823291667,0.3634506650315207,0.04705759430138993,0.2699375239539997,-0.1165498346090317,0.05212758108973503,0.1337833404541016,0.02552459761500359,-0.05165770649909973,0.007963001728057861,XArbitraryZVertical,0.128093760821187,0.04724052867584056,0.182147181028458,0.9737467450288032,0.04533678665757179,-0.26667121052742,-0.9627206325531006,0,0,0,-1,-1,4670.396876166667,unknown,2,2022-06-30T09:46:10.681+02:00,2022-06-30T08:20:05.567+02:00,1379,1.385177,0,0,1089.191,0,0,2022-06-30T09:44:05.799+02:00
2022-06-30T09:46:12.540+02:00,4672.257726291667,0.0516510009765625,-0.269683837890625,-0.9542083740234375,4672.247775291667,0.364646673153293,0.04781946448022612,0.2698643298251108,-0.1266589164733887,0.05188789591193199,0.1174336671829224,0.02131121233105659,-0.05093482136726379,0.008466422557830811,XArbitraryZVertical,0.1279602013310696,0.04768155686396934,0.1827782724806777,0.9736245000042669,0.04607117548584938,-0.2666006684303284,-0.9627053141593933,0,0,0,-1,-1,4670.396876166667,unknown,2,2022-06-30T09:46:10.681+02:00,2022-06-30T08:20:05.567+02:00,1379,1.385177,0,0,1089.191,0,0,2022-06-30T09:44:05.799+02:00
2022-06-30T09:46:12.551+02:00,4672.267678291667,0.0451202392578125,-0.2572784423828125,-0.95867919921875,4672.257726291667,0.3658065011713761,0.04860390040456722,0.2690114236908676,-0.1082795858383179,0.05861624330282211,0.1287886798381805,0.01036739349365234,-0.02780064940452576,0.009663879871368408,XArbitraryZVertical,0.1274449275959743,0.04806210245250463,0.1833933246065901,0.9735578049303546,0.04683737084269524,-0.2657785415649414,-0.9628956317901611,0,0,0,-1,-1,4670.396876166667,unknown,2,2022-06-30T09:46:10.681+02:00,2022-06-30T08:20:05.567+02:00,1379,1.385177,0,0,1089.191,0,0,2022-06-30T09:44:05.799+02:00
2022-06-30T09:46:12.560+02:00,4672.277630291667,0.0465087890625,-0.2601776123046875,-0.9610443115234375,4672.267678291667,0.3671411449121535,0.04905107492456694,0.2680845590907773,-0.08639851957559586,0.06915277242660522,0.1261345893144608,0.004370559006929398,-0.004799008369445801,0.00891190767288208,XArbitraryZVertical,0.1269199966523772,0.04828248014542796,0.1840717070259046,0.9734873611194826,0.04728000611066818,-0.264884889125824,-0.9631202220916748,0,0,0,-1,-1,4670.396876166667,unknown,2,2022-06-30T09:46:10.681+02:00,2022-06-30T08:20:05.567+02:00,1379,1.385177,0,0,1089.191,0,0,2022-06-30T09:44:05.799+02:00
2022-06-30T09:46:12.570+02:00,4672.287581291667,0.0493621826171875,-0.27349853515625,-0.968658447265625,4672.277630291667,0.3684582786932966,0.04941323028640263,0.2672403967068219,-0.07926637679338455,0.08231823891401291,0.1184848174452782,-0.002520021051168442,0.006792247295379639,0.004646837711334229,XArbitraryZVertical,0.1264433567681292,0.04846706410771169,0.1847358888889112,0.9734144720741585,0.04763983190059662,-0.2640708088874817,-0.9633260369300842,0,0,0,-1,-1,4670.396876166667,unknown,2,2022-06-30T09:46:10.681+02:00,2022-06-30T08:20:05.567+02:00,1379,1.385177,0,0,1089.191,0,0,2022-06-30T09:44:05.799+02:00
2022-06-30T09:46:12.580+02:00,4672.297533291667,0.0555267333984375,-0.26763916015625,-0.969757080078125,4672.287581291667,0.3696414454480987,0.04980394417245093,0.2668690574860197,-0.06089189276099205,0.07790032774209976,0.09754011780023575,-0.001512724906206131,0.003534913063049316,0.002360939979553223,XArbitraryZVertical,0.126197510837267,0.04869879071978676,0.1853364300415891,0.9733207149672902,0.0480210930109024,-0.263712614774704,-0.9634052515029907,0,0,0,-1,-1,4670.396876166667,unknown,2,2022-06-30T09:46:10.681+02:00,2022-06-30T08:20:05.567+02:00,1379,1.385177,0,0,1089.191,0,0,2022-06-30T09:44:05.799+02:00
2022-06-30T09:46:12.592+02:00,4672.307484291667,0.047821044921875,-0.2592010498046875,-0.9708099365234375,4672.297533291667,0.3706711853728072,0.05028875303614575,0.2673490818018825,-0.0494389720261097,0.07266205549240112,0.099474236369133,0.0008799657225608826,-0.009323000907897949,-0.005403101444244385,XArbitraryZVertical,0.1263612495525114,0.04904270788739595,0.1858681176714434,0.9731807572880797,0.048481784760952,-0.2641756236553192,-0.9632552862167358,0,0,0,-1,-1,4670.396876166667,unknown,2,2022-06-30T09:46:10.681+02:00,2022-06-30T08:20:05.567+02:00,1379,1.385177,0,0,1089.191,0,0,2022-06-30T09:44:05.799+02:00
2022-06-30T09:46:12.608+02:00,4672.317436291667,0.0501556396484375,-0.2736053466796875,-0.9702301025390625,4672.307484291667,0.371526257744513,0.05123135418798458,0.2684165997938357,-0.04174323379993439,0.06775065511465073,0.07787253707647324,0.006151046603918076,-0.002434194087982178,-0.006830096244812012,XArbitraryZVertical,0.1267725083396118,0.049651222398505,0.1863438550864385,0.9730053888261299,0.0493752583861351,-0.265205055475235,-0.962926983833313,0,0,0,-1,-1,4670.396876166667,unknown,2,2022-06-30T09:46:10.681+02:00,2022-06-30T08:20:05.567+02:00,1379,1.385177,0,0,1089.191,0,0,2022-06-30T09:44:05.799+02:00
2022-06-30T09:46:12.610+02:00,4672.327388291667,0.06219482421875,-0.2800750732421875,-0.965606689453125,4672.317436291667,0.3720350920862557,0.05251733253849159,0.2696700895020835,-0.0575033538043499,0.07480549812316895,0.06640087813138962,-0.002775415778160095,0.007212311029434204,-0.008279979228973389,XArbitraryZVertical,0.1272504363791736,0.0504217244598862,0.1866733515068673,0.9728401980388336,0.05059602856636047,-0.2664134502410889,-0.9625299572944641,0,0,0,-1,-1,4670.396876166667,unknown,2,2022-06-30T09:46:10.681+02:00,2022-06-30T08:20:05.567+02:00,1379,1.385177,0,0,1089.191,0,0,2022-06-30T09:44:05.799+02:00
2022-06-30T09:46:12.620+02:00,4672.337339291667,0.0567779541015625,-0.2677001953125,-0.9632720947265625,4672.327388291667,0.3726176644365587,0.05356811742925306,0.2707679409382934,-0.06547339260578156,0.06548549979925156,0.06460510194301605,-0.001436509191989899,-0.006133973598480225,-0.008046507835388184,XArbitraryZVertical,0.1276721894809347,0.05106864939486708,0.1870241705806809,0.9726837712684848,0.05159172043204308,-0.2674714624881744,-0.9621835947036743,0,0,0,-1,-1,4670.396876166667,unknown,2,2022-06-30T09:46:10.681+02:00,2022-06-30T08:20:05.567+02:00,1379,1.385177,0,0,1089.191,0,0,2022-06-30T09:44:05.799+02:00
2022-06-30T09:46:12.630+02:00,4672.347291291667,0.0570831298828125,-0.263153076171875,-0.9540557861328125,4672.337339291667,0.3731999464874433,0.05423166394476724,0.2709123019331445,-0.08679559826850891,0.06183406338095665,0.04852940142154694,0.009966321289539337,-0.01246461272239685,-0.003496050834655762,XArbitraryZVertical,0.1276654618682234,0.05144150691535704,0.1873497841140721,0.9726023842113335,0.05222807079553604,-0.2676105797290802,-0.9621105790138245,0,0,0,-1,-1,4670.396876166667,unknown,2,2022-06-30T09:46:10.681+02:00,2022-06-30T08:20:05.567+02:00,1379,1.385177,0,0,1089.191,0,0,2022-06-30T09:44:05.799+02:00
2022-06-30T09:46:12.640+02:00,4672.357243291667,0.0512237548828125,-0.2604522705078125,-0.9556884765625,4672.347291291667,0.3736750265821833,0.05463272697912582,0.2701834976765079,-0.08915595710277557,0.04696989804506302,0.03650815784931183,0.00415295735001564,-0.0007920265197753906,-0.000988006591796875,XArbitraryZVertical,0.1272607176563113,0.051601135399051,0.1876058461071656,0.9725975821253832,0.05262456834316254,-0.2669082880020142,-0.9622840881347656,0,0,0,-1,-1,4670.396876166667,unknown,2,2022-06-30T09:46:10.681+02:00,2022-06-30T08:20:05.567+02:00,1379,1.385177,0,0,1089.191,0,0,2022-06-30T09:44:05.799+02:00
2022-06-30T09:46:12.650+02:00,4672.367194291667,0.0488433837890625,-0.2486724853515625,-0.9524993896484375,4672.357243291667,0.3740895059017289,0.05476546435785159,0.2690518546330866,-0.08606882393360138,0.04347430542111397,0.02483192831277847,0.00431390106678009,0.002664327621459961,0.008522272109985352,XArbitraryZVertical,0.1266864704195923,0.0515898795436552,0.187814905753182,0.9726327700096776,0.05276880040764809,-0.2658175230026245,-0.9625780582427979,0,0,0,-1,-1,4670.396876166667,unknown,2,2022-06-30T09:46:10.681+02:00,2022-06-30T08:20:05.567+02:00,1379,1.385177,0,0,1089.191,0,0,2022-06-30T09:44:05.799+02:00
2022-06-30T09:46:12.660+02:00,4672.377146291667,0.0412750244140625,-0.2343902587890625,-0.948333740234375,4672.367194291667,0.374468916009713,0.05489930414800048,0.2682014323270762,-0.05328717082738876,0.04056214168667793,0.03074547648429871,-0.001686684787273407,0.004545211791992188,0.007107853889465332,XArbitraryZVertical,0.1262499420888151,0.05160212011911838,0.1880071138416404,0.9726518033231653,0.05291001498699188,-0.2649976015090942,-0.9627963304519653,0,0,0,-1,-1,4670.396876166667,unknown,2,2022-06-30T09:46:10.681+02:00,2022-06-30T08:20:05.567+02:00,1379,1.385177,0,0,1089.191,0,0,2022-06-30T09:44:05.799+02:00
2022-06-30T09:46:12.670+02:00,4672.387097291667,0.0394287109375,-0.242401123046875,-0.939971923828125,4672.377146291667,0.3749435507793413,0.05508819758757209,0.2681022718073879,-0.01409968826919794,0.04608722776174545,0.05369133874773979,-0.004250369966030121,0.01622939109802246,0.01031321287155151,XArbitraryZVertical,0.1261716180065469,0.05171495958812494,0.1882497537628374,0.9726090912797389,0.0530933290719986,-0.2649019956588745,-0.9628125429153442,0,0,0,-1,-1,4670.396876166667,unknown,2,2022-06-30T09:46:10.681+02:00,2022-06-30T08:20:05.567+02:00,1379,1.385177,0,0,1089.191,0,0,2022-06-30T09:44:05.799+02:00
2022-06-30T09:46:12.680+02:00,4672.397049291667,0.04620361328125,-0.2699737548828125,-0.9395599365234375,4672.387097291667,0.3756218302760235,0.05543791452532731,0.2680149329671095,-0.0166533924639225,0.05348655581474304,0.08141724020242691,-0.01215672492980957,0.03042739629745483,0.01448333263397217,XArbitraryZVertical,0.1260785659348456,0.05191988598656025,0.1886015620536729,0.97254207156314,0.05343131721019745,-0.2648177742958069,-0.9628170132637024,0,0,0,-1,-1,4670.396876166667,unknown,2,2022-06-30T09:46:10.681+02:00,2022-06-30T08:20:05.567+02:00,1379,1.385177,0,0,1089.191,0,0,2022-06-30T09:44:05.799+02:00
2022-06-30T09:46:12.690+02:00,4672.407001291667,0.0665435791015625,-0.2860565185546875,-0.936004638671875,4672.397049291667,0.376575108132548,0.05555407297327277,0.2675214353919211,-0.04925354570150375,0.05489999428391457,0.08543841540813446,-0.014122124761343,0.02194064855575562,0.02296930551528931,XArbitraryZVertical,0.1258025290501645,0.05199159952692022,0.1890719082717742,0.972482633583887,0.05355040729045868,-0.2643418610095978,-0.9629411697387695,0,0,0,-1,-1,4670.396876166667,unknown,2,2022-06-30T09:46:10.681+02:00,2022-06-30T08:20:05.567+02:00,1379,1.385177,0,0,1089.191,0,0,2022-06-30T09:44:05.799+02:00
2022-06-30T09:46:12.700+02:00,4672.416952291667,0.0778961181640625,-0.2822265625,-0.937774658203125,4672.407001291667,0.377470858754427,0.05569419741954588,0.2671002813307652,-0.08296997100114822,0.0396648496389389,0.07761111855506897,-0.007488340139389038,-0.00603821873664856,0.02348482608795166,XArbitraryZVertical,0.1255609004028466,0.05207770039921678,0.1895158198793846,0.9724227757058282,0.05369152873754501,-0.2639356553554535,-0.9630447626113892,0,0,0,-1,-1,4670.396876166667,unknown,2,2022-06-30T09:46:10.681+02:00,2022-06-30T08:20:05.567+02:00,1379,1.385177,0,0,1089.191,0,0,2022-06-30T09:44:05.799+02:00
2022-06-30T09:46:12.710+02:00,4672.426904291667,0.0715484619140625,-0.26776123046875,-0.9388427734375,4672.416952291667,0.378218786491251,0.05595178657423809,0.2666591858707421,-0.09200693666934967,0.006652629468590021,0.07002141326665878,0.01259705051779747,-0.0225464403629303,0.02714240550994873,XArbitraryZVertical,0.1253021996556503,0.05220961661987222,0.1898951337286141,0.9723750706747222,0.05394610390067101,-0.2635101675987244,-0.9631470441818237,0,0,0,-1,-1,4670.396876166667,unknown,2,2022-06-30T09:46:10.681+02:00,2022-06-30T08:20:05.567+02:00,1379,1.385177,0,0,1089.191,0,0,2022-06-30T09:44:05.799+02:00
2022-06-30T09:46:12.720+02:00,4672.436855291667,0.061431884765625,-0.2578125,-0.9428253173828125,4672.426904291667,0.3788968831145754,0.05576687393483448,0.2659071167772905,-0.08701164275407791,-0.02137447707355022,0.05809550732374191,0.02411665394902229,-0.01944205164909363,0.02557992935180664,XArbitraryZVertical,0.1249359098769266,0.05209339836556502,0.1902123951433423,0.9723665196100106,0.05377903580665588,-0.2627846002578735,-0.9633545875549316,0,0,0,-1,-1,4670.396876166667,unknown,2,2022-06-30T09:46:10.681+02:00,2022-06-30T08:20:05.567+02:00,1379,1.385177,0,0,1089.191,0,0,2022-06-30T09:44:05.799+02:00
2022-06-30T09:46:12.730+02:00,4672.446807291667,0.0511627197265625,-0.24468994140625,-0.954437255859375,4672.436855291667,0.3795621258296721,0.05543127316554586,0.2653099384416013,-0.05013778433203697,-0.02645152807235718,0.06740432232618332,0.01808362081646919,-0.005552977323532104,0.02468633651733398,XArbitraryZVertical,0.1246598033217491,0.05191706346272906,0.1905142493366991,0.9723523045286496,0.05346441641449928,-0.2622083723545074,-0.963529109954834,0,0,0,-1,-1,4670.396876166667,unknown,2,2022-06-30T09:46:10.681+02:00,2022-06-30T08:20:05.567+02:00,1379,1.385177,0,0,1089.191,0,0,2022-06-30T09:44:05.799+02:00
2022-06-30T09:46:12.739+02:00,4672.456759291667,0.0543212890625,-0.2381591796875,-0.9602203369140625,4672.446807291667,0.3802045064248047,0.05501991775764098,0.2651133041288337,-0.00381396128796041,-0.01579835079610348,0.04889268800616264,0.008360564708709717,0.004206001758575439,0.02077716588973999,XArbitraryZVertical,0.1245866355196819,0.05173906153142636,0.1908007278931522,0.9723150208735287,0.05307089164853096,-0.262018620967865,-0.9636024832725525,0,0,0,-1,-1,4670.396876166667,unknown,2,2022-06-30T09:46:10.681+02:00,2022-06-30T08:20:05.567+02:00,1379,1.385177,0,0,1089.191,0,0,2022-06-30T09:44:05.799+02:00
2022-06-30T09:46:12.750+02:00,4672.466710291667,0.052337646484375,-0.2501678466796875,-0.9604949951171875,4672.456759291667,0.3805547003410344,0.0546318132610387,0.2649736226163246,0.02912707813084126,-0.02988686226308346,0.01902713440358639,-0.001536622643470764,0.01719379425048828,0.009222328662872314,XArbitraryZVertical,0.1245466301102234,0.05155936126348647,0.1909466861528087,0.9723010284664401,0.05269890651106834,-0.2618838250637054,-0.9636595249176025,0,0,0,-1,-1,4670.396876166667,unknown,2,2022-06-30T09:46:10.681+02:00,2022-06-30T08:20:05.567+02:00,1379,1.385177,0,0,1089.191,0,0,2022-06-30T09:44:05.799+02:00
2022-06-30T09:46:12.759+02:00,4672.476662291667,0.040771484375,-0.262542724609375,-0.9526519775390625,4672.466710291667,0.3808288182726446,0.05389684886868949,0.2648984332392034,0.06027887016534805,-0.05317540466785431,0.02920360676944256,0.002329166978597641,0.02365195751190186,0.00349736213684082,XArbitraryZVertical,0.1245731713238859,0.05121221738934058,0.191034126358687,0.9722987722374474,0.05199169740080833,-0.2618112564086914,-0.9637176394462585,0,0,0,-1,-1,4670.396876166667,unknown,2,2022-06-30T09:46:10.681+02:00,2022-06-30T08:20:05.567+02:00,1379,1.385177,0,0,1089.191,0,0,2022-06-30T09:44:05.799+02:00
2022-06-30T09:46:12.769+02:00,4672.486613291667,0.0442962646484375,-0.2789306640625,-0.94244384765625,4672.476662291667,0.3812219990610066,0.05307753640337616,0.2652744501587538,0.06310608237981796,-0.04017443209886551,0.03570504859089851,0.001140348613262177,0.01200619339942932,0.003166556358337402,XArbitraryZVertical,0.12482446754928,0.05087305278438174,0.191174365423195,0.9722568246092521,0.0511968694627285,-0.262174129486084,-0.9636615514755249,0,0,0,-1,-1,4670.396876166667,unknown,2,2022-06-30T09:46:10.681+02:00,2022-06-30T08:20:05.567+02:00,1379,1.385177,0,0,1089.191,0,0,2022-06-30T09:44:05.799+02:00
2022-06-30T09:46:12.779+02:00,4672.496565291667,0.0561981201171875,-0.28875732421875,-0.9413909912109375,4672.486613291667,0.3816681518623207,0.05253865362085591,0.2660570726565771,0.03489042446017265,-0.03306113183498383,0.05033459141850471,-0.009895719587802887,0.0003864765167236328,0.01083189249038696,XArbitraryZVertical,0.1252456325215181,0.05071115017931018,0.1913577921262675,0.9721750058366966,0.05066677182912827,-0.2629292905330658,-0.9634838104248047,0,0,0,-1,-1,4670.396876166667,unknown,2,2022-06-30T09:46:10.681+02:00,2022-06-30T08:20:05.567+02:00,1379,1.385177,0,0,1089.191,0,0,2022-06-30T09:44:05.799+02:00
2022-06-30T09:46:12.789+02:00,4672.506517291667,0.0604095458984375,-0.2796630859375,-0.93896484375,4672.496565291667,0.3821296828524768,0.05231307426136413,0.2667953603630623,-0.00186605891212821,-0.05031145364046097,0.05694326013326645,-0.006143424659967422,-0.01528924703598022,0.02085727453231812,XArbitraryZVertical,0.1256148670930421,0.05069859969982506,0.1915680862936778,0.9720866332948334,0.0504392646253109,-0.2636415362358093,-0.9633011221885681,0,0,0,-1,-1,4670.396876166667,unknown,2,2022-06-30T09:46:10.681+02:00,2022-06-30T08:20:05.567+02:00,1379,1.385177,0,0,1089.191,0,0,2022-06-30T09:44:05.799+02:00
2022-06-30T09:46:12.799+02:00,4672.516468291667,0.055572509765625,-0.270843505859375,-0.9439544677734375,4672.506517291667,0.3825769599513505,0.05206752168879001,0.2669432983421724,-0.05262457951903343,-0.06667444854974747,0.0518808551132679,0.00599699467420578,-0.02497318387031555,0.02188354730606079,XArbitraryZVertical,0.1256990805982588,0.05062103809836827,0.1917700762605362,0.9720398639830732,0.0502006895840168,-0.2637842297554016,-0.9632744789123535,0,0,0,-1,-1,4670.396876166667,unknown,2,2022-06-30T09:46:10.681+02:00,2022-06-30T08:20:05.567+02:00,1379,1.385177,0,0,1089.191,0,0,2022-06-30T09:44:05.799+02:00
2022-06-30T09:46:12.809+02:00,4672.526420291667,0.0483245849609375,-0.24615478515625,-0.9518280029296875,4672.516468291667,0.3830247785113018,0.05157546997251399,0.2664755129998916,-0.06946500390768051,-0.07657730579376221,0.04699951410293579,0.010676059871912,-0.01633021235466003,0.02445739507675171,XArbitraryZVertical,0.1255073216820382,0.05036672437624497,0.191956847244755,0.9720409556708925,0.04973305761814117,-0.2633329927921295,-0.9634222388267517,0,0,0,-1,-1,4670.396876166667,unknown,2,2022-06-30T09:46:10.681+02:00,2022-06-30T08:20:05.567+02:00,1379,1.385177,0,0,1089.191,0,0,2022-06-30T09:44:05.799+02:00
2022-06-30T09:46:12.819+02:00,4672.536372291667,0.0363311767578125,-0.222503662109375,-0.95721435546875,4672.526420291667,0.3835025919829493,0.05088683074843302,0.2659272357323363,-0.0389007106423378,-0.07349629700183868,0.05102141946554184,0.006495151668787003,-0.008039593696594238,0.0196458101272583,XArbitraryZVertical,0.1252946164280072,0.05001115937009486,0.1921459718450648,0.9720494981610207,0.04907693341374397,-0.2628040313720703,-0.9636002779006958,0,0,0,-1,-1,4670.396876166667,unknown,2,2022-06-30T09:46:10.681+02:00,2022-06-30T08:20:05.567+02:00,1379,1.385177,0,0,1089.191,0,0,2022-06-30T09:44:05.799+02:00
2022-06-30T09:46:12.829+02:00,4672.546323291667,0.0370025634765625,-0.22882080078125,-0.9555206298828125,4672.536372291667,0.3840324110037421,0.05007693923691988,0.2656117588442629,0.01534481905400753,-0.063698910176754,0.05415243282914162,2.350658178329468e-05,0.01634472608566284,0.01189446449279785,XArbitraryZVertical,0.12520573637758,0.0496214209702315,0.192352860462645,0.9720400418167902,0.04830065369606018,-0.2624996304512024,-0.9637224674224854,0,0,0,-1,-1,4670.396876166667,unknown,2,2022-06-30T09:46:10.681+02:00,2022-06-30T08:20:05.567+02:00,1379,1.385177,0,0,1089.191,0,0,2022-06-30T09:44:05.799+02:00
2022-06-30T09:46:12.839+02:00,4672.556275291667,0.0526275634765625,-0.2589111328125,-0.9557342529296875,4672.546323291667,0.3845098303227101,0.04952982740997479,0.2656407835178016,0.05511832982301712,-0.04140852019190788,0.04315544292330742,-0.01144226267933846,0.04002389311790466,0.006526827812194824,XArbitraryZVertical,0.1252606981072367,0.04938811909881019,0.1925506321323871,0.9720056102170636,0.04777300357818604,-0.2625276148319244,-0.9637411236763,0,0,0,-1,-1,4670.396876166667,unknown,2,2022-06-30T09:46:10.681+02:00,2022-06-30T08:20:05.567+02:00,1379,1.385177,0,0,1089.191,0,0,2022-06-30T09:44:05.799+02:00
2022-06-30T09:46:12.849+02:00,4672.566226291667,0.052642822265625,-0.2739105224609375,-0.951690673828125,4672.556275291667,0.3848045893952902,0.04911007834164442,0.2660811029803479,0.05965515971183777,-0.04747195541858673,0.02822116576135159,-0.01036065816879272,0.03413155674934387,0.008124947547912598,XArbitraryZVertical,0.1255081173020489,0.04924359386279403,0.192667268357317,0.9719579381994569,0.0473627932369709,-0.2629524767398834,-0.9636455774307251,0,0,0,-1,-1,4670.396876166667,unknown,2,2022-06-30T09:46:10.681+02:00,2022-06-30T08:20:05.567+02:00,1379,1.385177,0,0,1089.191,0,0,2022-06-30T09:44:05.799+02:00
2022-06-30T09:46:12.859+02:00,4672.576178291667,0.040435791015625,-0.2770843505859375,-0.9455718994140625,4672.566226291667,0.3850613158646131,0.04836149637090474,0.2665439138298559,0.01840838603675365,-0.0667756125330925,0.01470828708261251,0.005991615355014801,0.004487723112106323,0.007824838161468506,XArbitraryZVertical,0.1257991509785356,0.0489390667350267,0.1927446240990272,0.9719202757685427,0.04663552343845367,-0.2633989751338959,-0.963559091091156,0,0,0,-1,-1,4670.396876166667,unknown,2,2022-06-30T09:46:10.681+02:00,2022-06-30T08:20:05.567+02:00,1379,1.385177,0,0,1089.191,0,0,2022-06-30T09:44:05.799+02:00
2022-06-30T09:46:12.869+02:00,4672.586130291667,0.04095458984375,-0.2679443359375,-0.939056396484375,4672.576178291667,0.3851226210888181,0.04765365860764965,0.2667777966132924,-0.05233675613999367,-0.06192471459507942,-0.004957758821547031,0.006691858172416687,-0.01028603315353394,0.01183962821960449,XArbitraryZVertical,0.1259796613690949,0.04862074482713249,0.1927296041599307,0.9719159230349972,0.04595053195953369,-0.2636245787143707,-0.9635303020477295,0,0,0,-1,-1,4670.396876166667,unknown,2,2022-06-30T09:46:10.681+02:00,2022-06-30T08:20:05.567+02:00,1379,1.385177,0,0,1089.191,0,0,2022-06-30T09:44:05.799+02:00
2022-06-30T09:46:12.879+02:00,4672.596081291667,-0.0418548583984375,-0.274688720703125,-0.9199981689453125,4672.586130291667,0.3850910915857134,0.04720035312277787,0.2664220204461833,-0.1334212273359299,-0.06975121051073074,-0.002987019950523973,-0.005082815885543823,-0.01380306482315063,0.01807278394699097,XArbitraryZVertical,0.1258509939027804,0.04836528855378415,0.1926861633856196,0.9719539463904512,0.0455181747674942,-0.263281375169754,-0.9636446237564087,0,0,0,-1,-1,4670.396876166667,unknown,2,2022-06-30T09:46:10.681+02:00,2022-06-30T08:20:05.567+02:00,1379,1.385177,0,0,1089.191,0,0,2022-06-30T09:44:05.799+02:00
2022-06-30T09:46:12.889+02:00,4672.606033291667,0.042694091796875,-0.315460205078125,-0.9107818603515625,4672.596081291667,0.3838500736829283,0.04695398740454122,0.2647555701933484,-0.2780676782131195,-0.0467621386051178,-0.260916143655777,-0.004347134381532669,-0.006271064281463623,0.02503639459609985,XArbitraryZVertical,0.1250936516430645,0.04801249796781898,0.1920695292206739,0.9721911703629836,0.04530129581689835,-0.2616733610630035,-0.9640927314758301,0,0,0,-1,-1,4670.396876166667,unknown,2,2022-06-30T09:46:10.681+02:00,2022-06-30T08:20:05.567+02:00,1379,1.385177,0,0,1089.191,0,0,2022-06-30T09:44:05.799+02:00
2022-06-30T09:46:12.899+02:00,4672.615984291667,0.0995025634765625,-0.30780029296875,-0.901824951171875,4672.606033291667,0.3815540299904414,0.0476028405136458,0.2617142271749008,-0.3674018085002899,0.01922060549259186,-0.1467783749103546,-0.08781978487968445,-0.01595205068588257,0.04485547542572021,XArbitraryZVertical,0.1236060802518678,0.04790321384303348,0.1909964999613515,0.972598162104903,0.04596449807286263,-0.258736789226532,-0.9648536443710327,0,0,0,-1,-1,4670.396876166667,unknown,2,2022-06-30T09:46:10.681+02:00,2022-06-30T08:20:05.567+02:00,1379,1.385177,0,0,1089.191,0,0,2022-06-30T09:44:05.799+02:00
2022-06-30T09:46:12.909+02:00,4672.625936291667,0.05181884765625,-0.3399658203125,-0.8934783935546875,4672.615984291667,0.3815494844650208,0.04804168763139024,0.2569643535720431,-0.5503659248352051,0.1007870510220528,0.02861215174198151,-0.003752756863832474,-0.06131452322006226,0.05526822805404663,XArbitraryZVertical,0.1212512716177547,0.04767715838227368,0.1910240809084214,0.9729002414873482,0.04644641280174255,-0.2541457414627075,-0.9660500288009644,0,0,0,-1,-1,4670.396876166667,unknown,2,2022-06-30T09:46:10.681+02:00,2022-06-30T08:20:05.567+02:00,1379,1.385177,0,0,1089.191,0,0,2022-06-30T09:44:05.799+02:00
2022-06-30T09:46:12.919+02:00,4672.635888291667,0.039215087890625,-0.32061767578125,-0.8468475341796875,4672.625936291667,0.3814741059026165,0.04827789745253181,0.2513243357557196,-0.5353350043296814,-0.02512373775243759,-0.1210737451910973,0.05275910347700119,-0.05911350250244141,0.06563043594360352,XArbitraryZVertical,0.1184831307996773,0.04726580020538187,0.1910031670150007,0.9732654373203101,0.04674303159117699,-0.2486869096755981,-0.9674553871154785,0,0,0,-1,-1,4670.396876166667,unknown,2,2022-06-30T09:46:10.681+02:00,2022-06-30T08:20:05.567+02:00,1379,1.385177,0,0,1089.191,0,0,2022-06-30T09:44:05.799+02:00
2022-06-30T09:46:12.929+02:00,4672.645839375,0.033935546875,-0.435150146484375,-0.802642822265625,4672.635888291667,0.3798477515634754,0.04776472724944406,0.2448169195463649,-0.7350155115127563,-0.1178585886955261,-0.2506211698055267,0.005495578050613403,-0.0975872129201889,0.07559680938720703,XArbitraryZVertical,0.1153987634078682,0.04631975322827586,0.1901815028394971,0.9738422680854419,0.04632284492254257,-0.2423787117004395,-0.9690752029418945,0,0,0,-1,-1,4670.396876166667,unknown,2,2022-06-30T09:46:10.681+02:00,2022-06-30T08:20:05.567+02:00,1379,1.385177,0,0,1089.191,0,0,2022-06-30T09:44:05.799+02:00
2022-06-30T09:46:12.939+02:00,4672.655791375,0.0259552001953125,-0.5356292724609375,-0.76080322265625,4672.645839375,0.377458616565336,0.04732471721069509,0.2359900246067423,-1.068115711212158,-0.09229224920272827,-0.2847666144371033,-0.006781201809644699,-0.0868120938539505,0.1243472695350647,XArbitraryZVertical,0.1111906554153601,0.04515806188844172,0.1889900758562073,0.9746180219903724,0.04599586129188538,-0.2338056862354279,-0.9711948037147522,0,0,0,-1,-1,4670.396876166667,unknown,2,2022-06-30T09:46:10.681+02:00,2022-06-30T08:20:05.567+02:00,1379,1.385177,0,0,1089.191,0,0,2022-06-30T09:44:05.799+02:00
2022-06-30T09:46:12.949+02:00,4672.665743375001,0.020904541015625,-0.6065216064453125,-0.732513427734375,4672.655791375,0.3751074116400362,0.04697485755565374,0.2225949207861157,-1.615872621536255,-0.07429707050323486,-0.3064147233963013,-0.01186392083764076,-0.2143889963626862,0.1716091632843018,XArbitraryZVertical,0.1047380830666174,0.0436342079436977,0.1878140176057405,0.9756290371992101,0.04579903930425644,-0.2207612693309784,-0.9742519855499268,0,0,0,-1,-1,4670.396876166667,unknown,2,2022-06-30T09:46:10.681+02:00,2022-06-30T08:20:05.567+02:00,1379,1.385177,0,0,1089.191,0,0,2022-06-30T09:44:05.799+02:00
2022-06-30T09:46:12.958+02:00,4672.675694375001,0.0156402587890625,-0.640533447265625,-0.7160186767578125,4672.665743375001,0.3725626574647912,0.04651831223053758,0.2032309696606113,-2.246082782745361,-0.1156354546546936,-0.3824026882648468,-0.01958974450826645,-0.3337945342063904,0.2175568342208862,XArbitraryZVertical,0.09537365987623149,0.04151913841112422,0.1865190332330385,0.9769292424219282,0.04554451629519463,-0.2018348574638367,-0.9783600568771362,0,0,0,-1,-1,4670.396876166667,unknown,2,2022-06-30T09:46:10.681+02:00,2022-06-30T08:20:05.567+02:00,1379,1.385177,0,0,1089.191,0,0,2022-06-30T09:44:05.799+02:00
2022-06-30T09:46:12.968+02:00,4672.685646375,-0.0006561279296875,-0.65167236328125,-0.690643310546875,4672.675694375001,0.3693136061282109,0.04572823670904539,0.1776752270662273,-2.849520921707153,-0.1531046628952026,-0.5005661249160767,-0.0240885503590107,-0.4297798275947571,0.2507149577140808,XArbitraryZVertical,0.08300855317011316,0.03867052638695572,0.1848311821715597,0.9784945893578884,0.04499266296625137,-0.1767418831586838,-0.983228325843811,0,0,0,-1,-1,4670.396876166667,unknown,2,2022-06-30T09:46:10.681+02:00,2022-06-30T08:20:05.567+02:00,1379,1.385177,0,0,1089.191,0,0,2022-06-30T09:44:05.799+02:00
2022-06-30T09:46:12.978+02:00,4672.695597375,-0.0327606201171875,-0.6607818603515625,-0.6719512939453125,4672.685646375,0.3649325801628381,0.04470679948994356,0.1461986168506708,-3.420374870300293,-0.177737295627594,-0.6614948511123657,-0.02857530489563942,-0.4948551654815674,0.272324800491333,XArbitraryZVertical,0.06775887369989159,0.03517093127382564,0.182530994652948,0.9802317150081929,0.0442151352763176,-0.1456783711910248,-0.9883434772491455,0,0,0,-1,-1,4670.396876166667,unknown,2,2022-06-30T09:46:10.681+02:00,2022-06-30T08:20:05.567+02:00,1379,1.385177,0,0,1089.191,0,0,2022-06-30T09:44:05.799+02:00
2022-06-30T09:46:12.988+02:00,4672.705549375,-0.0765838623046875,-0.636627197265625,-0.6444854736328125,4672.695597375,0.3590332970619096,0.04352721443288232,0.109191766824468,-3.954896926879883,-0.189238429069519,-0.845975399017334,-0.04391087964177132,-0.542697548866272,0.3024596571922302,XArbitraryZVertical,0.049799250940165,0.0311214361734304,0.1794141731100485,0.9820194225293161,0.04325432702898979,-0.1089749187231064,-0.9931029677391052,0,0,0,-1,-1,4670.396876166667,unknown,2,2022-06-30T09:46:10.681+02:00,2022-06-30T08:20:05.567+02:00,1379,1.385177,0,0,1089.191,0,0,2022-06-30T09:44:05.799+02:00
2022-06-30T09:46:12.998+02:00,4672.715501375001,-0.12744140625,-0.6128692626953125,-0.61773681640625,4672.705549375,0.351525660720505,0.04229254523496376,0.06655576773638119,-4.541222095489502,-0.1663541495800018,-1.021828174591064,-0.07494737207889557,-0.5942753553390503,0.3249424695968628,XArbitraryZVertical,0.02905651555343167,0.02662397430566765,0.1754160618639495,0.983705296349713,0.04218633100390434,-0.06650663912296295,-0.9968937635421753,0,0,0,-1,-1,4670.396876166667,unknown,2,2022-06-30T09:46:10.681+02:00,2022-06-30T08:20:05.567+02:00,1379,1.385177,0,0,1089.191,0,0,2022-06-30T09:44:05.799+02:00
2022-06-30T09:46:13.008+02:00,4672.725452375001,-0.16558837890625,-0.5896759033203125,-0.60809326171875,4672.715501375001,0.3424203509852502,0.04127906140649876,0.01781752675495123,-5.167578220367432,-0.08253522962331772,-1.219319820404053,-0.1178450733423233,-0.6188107132911682,0.3545040488243103,XArbitraryZVertical,0.00526045533196388,0.02185300221901521,0.1705130766313825,0.9850990165201813,0.04126079007983208,-0.01781658455729485,-0.9989895224571228,0,0,0,-1,-1,4670.396876166667,unknown,2,2022-06-30T09:46:10.681+02:00,2022-06-30T08:20:05.567+02:00,1379,1.385177,0,0,1089.191,0,0,2022-06-30T09:44:05.799+02:00
2022-06-30T09:46:13.018+02:00,4672.735404375,-0.186065673828125,-0.530609130859375,-0.6117706298828125,4672.725452375001,0.3315477808510127,0.04104229109643185,-0.0371138065471571,-5.765584945678711,0.08774542063474655,-1.416801571846008,-0.1684443354606628,-0.6499746441841125,0.3807330131530762,XArbitraryZVertical,-0.02168309155831979,0.01717355576933917,0.1645769708447009,0.9859763375102319,0.04100251570343971,0.03710528835654259,-0.9984698295593262,0,0,0,-1,-1,4670.396876166667,unknown,2,2022-06-30T09:46:10.681+02:00,2022-06-30T08:20:05.567+02:00,1379,1.385177,0,0,1089.191,0,0,2022-06-30T09:44:05.799+02:00
2022-06-30T09:46:13.028+02:00,4672.745355375,-0.207000732421875,-0.43212890625,-0.66253662109375,4672.735404375,0.3190495026167139,0.04201536672571182,-0.09783547690792235,-6.303757667541504,0.3043860495090485,-1.589752316474915,-0.2073909342288971,-0.6873555183410645,0.3862463235855103,XArbitraryZVertical,-0.05159952421996374,0.01294889003282628,0.1576098579423482,0.9860674293410396,0.04180214554071426,0.09767947345972061,-0.994339644908905,0,0,0,-1,-1,4670.396876166667,unknown,2,2022-06-30T09:46:10.681+02:00,2022-06-30T08:20:05.567+02:00,1379,1.385177,0,0,1089.191,0,0,2022-06-30T09:44:05.799+02:00
2022-06-30T09:46:13.038+02:00,4672.755307375,-0.231231689453125,-0.291046142578125,-0.7297515869140625,4672.745355375,0.3050781310479868,0.04434552321000806,-0.1634869826785105,-6.743896484375,0.5520592331886292,-1.75927722454071,-0.2298059612512589,-0.6933689117431641,0.3739250898361206,XArbitraryZVertical,-0.08404211622941664,0.009436436266550972,0.1496142965533308,0.9851211182799813,0.04373987019062042,0.1627596765756607,-0.9856957793235779,0,0,0,-1,-1,4670.396876166667,unknown,2,2022-06-30T09:46:10.681+02:00,2022-06-30T08:20:05.567+02:00,1379,1.385177,0,0,1089.191,0,0,2022-06-30T09:44:05.799+02:00
2022-06-30T09:46:13.048+02:00,4672.765259375,-0.2613067626953125,-0.1235504150390625,-0.811859130859375,4672.755307375,0.2896385021284239,0.04800885742710123,-0.2331963491003079,-7.096468925476074,0.8305914998054504,-1.917330384254456,-0.2536925971508026,-0.6632175445556641,0.3092750310897827,XArbitraryZVertical,-0.1185235117321141,0.006805844941539022,0.1405293616264889,0.9829331330313158,0.04669144749641418,0.2310885339975357,-0.9718117117881775,0,0,0,-1,-1,4670.396876166667,unknown,2,2022-06-30T09:46:10.681+02:00,2022-06-30T08:20:05.567+02:00,1379,1.385177,0,0,1089.191,0,0,2022-06-30T09:44:05.799+02:00
2022-06-30T09:46:13.058+02:00,4672.775210375,-0.2845916748046875,0.0555419921875,-0.898529052734375,4672.765259375,0.2729332300787376,0.05340885777292213,-0.3061704706904912,-7.375922203063965,1.187894940376282,-2.044185400009155,-0.2821329534053802,-0.5924556851387024,0.2223835587501526,XArbitraryZVertical,-0.1546064941226938,0.00540605443057081,0.1303707476255003,0.9793217406178552,0.05090086162090302,0.3014094233512878,-0.9521352052688599,0,0,0,-1,-1,4670.396876166667,unknown,2,2022-06-30T09:46:10.681+02:00,2022-06-30T08:20:05.567+02:00,1379,1.385177,0,0,1089.191,0,0,2022-06-30T09:44:05.799+02:00
2022-06-30T09:46:13.068+02:00,4672.785162375,-0.2957000732421875,0.239959716796875,-0.950439453125,4672.775210375,0.2554333744402836,0.06124444011119827,-0.3817609602396766,-7.592245101928711,1.601666688919067,-2.113398551940918,-0.3181070983409882,-0.4961057603359222,0.114410936832428,XArbitraryZVertical,-0.1919189012640521,0.005662804649727847,0.1192362525073535,0.9741241110335307,0.05679992958903313,0.3725552260875702,-0.9262701272964478,0,0,0,-1,-1,4670.396876166667,unknown,2,2022-06-30T09:46:10.681+02:00,2022-06-30T08:20:05.567+02:00,1379,1.385177,0,0,1089.191,0,0,2022-06-30T09:44:05.799+02:00
2022-06-30T09:46:13.078+02:00,4672.795114375001,-0.296417236328125,0.400421142578125,-0.967041015625,4672.785162375,0.2376240266260669,0.07178037313694545,-0.4592563075481967,-7.72026538848877,2.001154184341431,-2.167163848876953,-0.3488795161247253,-0.3877397179603577,-0.004454970359802246,XArbitraryZVertical,-0.230006835561121,0.007731789343548104,0.1072371617266057,0.9672318346151048,0.06428742408752441,0.4432815909385681,-0.8940741419792175,0,0,0,-1,-1,4670.396876166667,unknown,2,2022-06-30T09:46:10.681+02:00,2022-06-30T08:20:05.567+02:00,1379,1.385177,0,0,1089.191,0,0,2022-06-30T09:44:05.799+02:00
2022-06-30T09:46:13.091+02:00,4672.805065375001,-0.28955078125,0.5523834228515625,-0.9491424560546875,4672.795114375001,0.2195414407374645,0.08483116944025687,-0.5377361451541747,-7.743146419525146,2.387792587280273,-2.227712154388428,-0.3684720993041992,-0.2722333669662476,-0.09465759992599487,XArbitraryZVertical,-0.2682824069622157,0.01155854744651981,0.09432339289775096,0.9586417471848722,0.07277162373065948,0.512192964553833,-0.8557819128036499,0,0,0,-1,-1,4670.396876166667,unknown,2,2022-06-30T09:46:10.681+02:00,2022-06-30T08:20:05.567+02:00,1379,1.385177,0,0,1089.191,0,0,2022-06-30T09:44:05.799+02:00
2022-06-30T09:46:13.100+02:00,4672.815017375,-0.271484375,0.7300872802734375,-0.869140625,4672.805065375001,0.2014063736655316,0.1004952453336487,-0.6160123513203464,-7.628674983978271,2.779138326644897,-2.23580527305603,-0.3783027529716492,-0.1773640513420105,-0.1549701690673828,XArbitraryZVertical,-0.3060544361280575,0.01718127358709626,0.08053157134418597,0.9484462395580597,0.08188511431217194,0.5777850747108459,-0.8120709657669067,0,0,0,-1,-1,4670.396876166667,unknown,2,2022-06-30T09:46:10.681+02:00,2022-06-30T08:20:05.567+02:00,1379,1.385177,0,0,1089.191,0,0,2022-06-30T09:44:05.799+02:00
2022-06-30T09:46:13.108+02:00,4672.824968375,-0.2476043701171875,0.9072723388671875,-0.7838592529296875,4672.815017375,0.1843699198376638,0.1195769750818506,-0.6933262306862141,-7.536727428436279,3.168272972106934,-2.132910490036011,-0.3813017308712006,-0.0867156982421875,-0.1855102777481079,XArbitraryZVertical,-0.3428874971538552,0.02473899822363241,0.06620807522184012,0.9367137131504619,0.09175056219100952,0.6390990018844604,-0.7636322975158691,0,0,0,-1,-1,4670.396876166667,unknown,2,2022-06-30T09:46:10.681+02:00,2022-06-30T08:20:05.567+02:00,1379,1.385177,0,0,1089.191,0,0,2022-06-30T09:44:05.799+02:00
2022-06-30T09:46:13.118+02:00,4672.834920375,-0.2046356201171875,1.037033081054688,-0.7043609619140625,4672.824968375,0.1701874424746483,0.1435509278131981,-0.7701828680193608,-7.501184940338135,3.57741641998291,-1.961297512054443,-0.3741697072982788,0.03382062911987305,-0.1587403416633606,XArbitraryZVertical,-0.3789696877258121,0.03437717190531063,0.0517224655657129,0.9233227309934503,0.1026849448680878,0.6962665319442749,-0.7104003429412842,0,0,0,-1,-1,4670.396876166667,unknown,2,2022-06-30T09:46:10.681+02:00,2022-06-30T08:20:05.567+02:00,1379,1.385177,0,0,1089.191,0,0,2022-06-30T09:44:05.799+02:00
2022-06-30T09:46:13.128+02:00,4672.844872375001,-0.1446990966796875,1.148880004882812,-0.5981597900390625,4672.834920375,0.1606012101928714,0.1742143824511428,-0.8461592966168301,-7.359399795532227,3.990016460418701,-1.732891321182251,-0.362501859664917,0.1585322022438049,-0.1310294270515442,XArbitraryZVertical,-0.4140589366435975,0.04626205412760739,0.03726110013444325,0.9083098495204153,0.1148971393704414,0.7487400770187378,-0.6528300642967224,0,0,0,-1,-1,4670.396876166667,unknown,2,2022-06-30T09:46:10.681+02:00,2022-06-30T08:20:05.567+02:00,1379,1.385177,0,0,1089.191,0,0,2022-06-30T09:44:05.799+02:00
2022-06-30T09:46:13.138+02:00,4672.854823375001,-0.069610595703125,1.258026123046875,-0.4807891845703125,4672.844872375001,0.1577588696258879,0.2134132031224592,-0.9202259640888499,-7.201970100402832,4.319630146026611,-1.469344019889832,-0.3329087495803833,0.2412945032119751,-0.1124604940414429,XArbitraryZVertical,-0.4476703058993902,0.06034027213878833,0.0230552484868969,0.8918626081920656,0.1282727718353271,0.7957385182380676,-0.5919007062911987,0,0,0,-1,-1,4670.396876166667,unknown,2,2022-06-30T09:46:10.681+02:00,2022-06-30T08:20:05.567+02:00,1379,1.385177,0,0,1089.191,0,0,2022-06-30T09:44:05.799+02:00
2022-06-30T09:46:13.148+02:00,4672.864775375,0.0362396240234375,1.376052856445312,-0.287322998046875,4672.854823375001,0.1643300187342598,0.2631613320373335,-0.9920976376182256,-7.071243762969971,4.565406799316406,-1.15794038772583,-0.2869760096073151,0.3117048144340515,-0.07005465030670166,XArbitraryZVertical,-0.4797183863956624,0.07627320329136313,0.009321276754436147,0.8740513622291585,0.1422765702009201,0.8371750712394714,-0.5281053185462952,0,0,0,-1,-1,4670.396876166667,unknown,2,2022-06-30T09:46:10.681+02:00,2022-06-30T08:20:05.567+02:00,1379,1.385177,0,0,1089.191,0,0,2022-06-30T09:44:05.799+02:00
2022-06-30T09:46:13.157+02:00,4672.874727375,0.1351470947265625,1.40692138671875,-0.1414337158203125,4672.864775375,0.1865893231972532,0.3284827812814419,-1.063011262544542,-7.273963928222656,4.735874176025391,-0.7581113576889038,-0.2264764904975891,0.3842024207115173,-0.0205443799495697,XArbitraryZVertical,-0.5109673705990913,0.09375408733711074,-0.003281781645873827,0.8544658001083636,0.1568655520677567,0.8738236427307129,-0.4602450430393219,0,0,0,-1,-1,4670.396876166667,unknown,2,2022-06-30T09:46:10.681+02:00,2022-06-30T08:20:05.567+02:00,1379,1.385177,0,0,1089.191,0,0,2022-06-30T09:44:05.799+02:00
2022-06-30T09:46:13.167+02:00,4672.884678375,0.23028564453125,1.38092041015625,-0.0029296875,4672.874727375,0.2344758875937024,0.4189112643437365,-1.133517696215577,-7.519852161407471,4.860080242156982,-0.3108853995800018,-0.1360163390636444,0.4701454043388367,0.09953570365905762,XArbitraryZVertical,-0.5420794959178256,0.1127844849119288,-0.01434587976556157,0.8326006348478902,0.1722556501626968,0.9059074521064758,-0.3868589699268341,0,0,0,-1,-1,4670.396876166667,unknown,2,2022-06-30T09:46:10.681+02:00,2022-06-30T08:20:05.567+02:00,1379,1.385177,0,0,1089.191,0,0,2022-06-30T09:44:05.799+02:00
2022-06-30T09:46:13.179+02:00,4672.894630375,0.314605712890625,1.365585327148438,0.1148834228515625,4672.884678375,0.3221625155771576,0.5482286557566517,-1.201252905603684,-7.750491619110107,4.904305934906006,0.1364691704511642,-0.05309684574604034,0.4744290709495544,0.1668232083320618,XArbitraryZVertical,-0.5728330827373568,0.133167737914084,-0.02362975144324744,0.8084369960309594,0.188243642449379,0.9324923753738403,-0.3082572221755981,0,0,0,-1,-1,4670.396876166667,unknown,2,2022-06-30T09:46:10.681+02:00,2022-06-30T08:20:05.567+02:00,1379,1.385177,0,0,1089.191,0,0,2022-06-30T09:44:05.799+02:00
2022-06-30T09:46:13.188+02:00,4672.904581375,0.3795928955078125,1.381362915039062,0.2038726806640625,4672.894630375,0.4708574346491007,0.7374285546561077,-1.261741196493448,-7.911648273468018,4.912586212158203,0.569873571395874,0.02577285468578339,0.4282990694046021,0.222208559513092,XArbitraryZVertical,-0.6029156472649907,0.1546720943025085,-0.03102509310064288,0.7820529765808515,0.2045125216245651,0.9526214003562927,-0.2251385301351547,0,0,0,-1,-1,4670.396876166667,unknown,2,2022-06-30T09:46:10.681+02:00,2022-06-30T08:20:05.567+02:00,1379,1.385177,0,0,1089.191,0,0,2022-06-30T09:44:05.799+02:00
2022-06-30T09:46:13.197+02:00,4672.914533375,0.4102020263671875,1.447174072265625,0.2553253173828125,4672.904581375,0.6996897451070953,1.005634424269528,-1.306950273048669,-7.783305168151855,4.813286304473877,0.8613083362579346,0.09436331689357758,0.4001911878585815,0.2545527219772339,XArbitraryZVertical,-0.6315761561086204,0.1768524029580159,-0.03676796914295918,0.7539780206054827,0.2202420979738235,0.9653940796852112,-0.1396695673465729,0,0,0,-1,-1,4670.396876166667,unknown,2,2022-06-30T09:46:10.681+02:00,2022-06-30T08:20:05.567+02:00,1379,1.385177,0,0,1089.191,0,0,2022-06-30T09:44:05.799+02:00
2022-06-30T09:46:13.207+02:00,4672.924485375001,0.4339141845703125,1.55047607421875,0.258148193359375,4672.914533375,0.9905654074761852,1.334412331255615,-1.32816250252183,-7.258973121643066,4.620890140533447,0.9529269933700562,0.1460137516260147,0.4106544256210327,0.2601385712623596,XArbitraryZVertical,-0.65758412115285,0.1986202482477614,-0.04154201093139086,0.725539394723671,0.2335788905620575,0.9707085490226746,-0.05626624077558517,0,0,0,-1,-1,4670.396876166667,unknown,2,2022-06-30T09:46:10.681+02:00,2022-06-30T08:20:05.567+02:00,1379,1.385177,0,0,1089.191,0,0,2022-06-30T09:44:05.799+02:00
2022-06-30T09:46:13.217+02:00,4672.934436375001,0.4444427490234375,1.606307983398438,0.22503662109375,4672.924485375001,1.273022000497422,1.653025550778872,-1.323611940847885,-6.305949687957764,4.317100524902344,1.033976912498474,0.1663537472486496,0.4775689244270325,0.2352283000946045,XArbitraryZVertical,-0.679708606434667,0.2191907510643709,-0.04586122332141511,0.6984614092600629,0.2438480257987976,0.9696051478385925,0.02009675092995167,0,0,0,-1,-1,4670.396876166667,unknown,2,2022-06-30T09:46:10.681+02:00,2022-06-30T08:20:05.567+02:00,1379,1.385177,0,0,1089.191,0,0,2022-06-30T09:44:05.799+02:00
2022-06-30T09:46:13.227+02:00,4672.944388375,0.44671630859375,1.549835205078125,0.1937255859375,4672.934436375001,1.481109356858054,1.896603443417394,-1.301367933558989,-5.022639274597168,4.226437091827393,1.207923054695129,0.1817364394664764,0.5865529775619507,0.1729505062103271,XArbitraryZVertical,-0.6968198977627856,0.2388319585902159,-0.05021516920935647,0.6744477539991665,0.252177506685257,0.9639232158660889,0.08519735187292099,0,0,0,-1,-1,4670.396876166667,unknown,2,2022-06-30T09:46:10.681+02:00,2022-06-30T08:20:05.567+02:00,1379,1.385177,0,0,1089.191,0,0,2022-06-30T09:44:05.799+02:00
2022-06-30T09:46:13.237+02:00,4672.954339375,0.4337310791015625,1.384048461914062,0.257965087890625,4672.944388375,1.602454671017302,2.055169488978739,-1.272539651401204,-3.519767045974731,4.226173877716064,1.445370316505432,0.1843913793563843,0.6504577994346619,0.08820198476314545,XArbitraryZVertical,-0.7082279135150499,0.2585156549220466,-0.05535262119449513,0.6546135564971982,0.2600511610507965,0.9558502435684204,0.1368342489004135,0,0,0,-1,-1,4672.949212375001,unknown,2,2022-06-30T09:46:13.233+02:00,2022-06-30T08:20:05.567+02:00,1379,1.385177,0,0,1089.191,0,0,2022-06-30T09:44:05.799+02:00
2022-06-30T09:46:13.247+02:00,4672.964291375,0.3826141357421875,1.143951416015625,0.37042236328125,4672.954339375,1.654997528414794,2.146562171089831,-1.245621210081062,-2.059482574462891,4.059267997741699,1.577650189399719,0.1787482798099518,0.6022406816482544,0.01977826654911041,XArbitraryZVertical,-0.7138995310562387,0.2780664052332272,-0.06149522537738943,0.6397225683204785,0.2679678797721863,0.9475948214530945,0.1739469319581985,0,0,0,-1,-1,4672.949212375001,unknown,2,2022-06-30T09:46:13.233+02:00,2022-06-30T08:20:05.567+02:00,1379,1.385177,0,0,1089.191,0,0,2022-06-30T09:44:05.799+02:00
2022-06-30T09:46:13.257+02:00,4672.974243375001,0.3188323974609375,0.8217620849609375,0.4898529052734375,4672.964291375,1.666358627108365,2.195918046653762,-1.224019427348646,-1.10024893283844,3.704083919525146,1.59852147102356,0.1581343114376068,0.4435755610466003,0.05907510221004486,XArbitraryZVertical,-0.7152445068187133,0.2964289470827659,-0.06811677345376699,0.6292180158841292,0.275596559047699,0.9404730200767517,0.1988896578550339,0,0,0,-1,-1,4672.949212375001,unknown,2,2022-06-30T09:46:13.233+02:00,2022-06-30T08:20:05.567+02:00,1379,1.385177,0,0,1089.191,0,0,2022-06-30T09:44:05.799+02:00
2022-06-30T09:46:13.267+02:00,4672.984194375001,0.2630462646484375,0.508056640625,0.6077880859375,4672.974243375001,1.659074254561697,2.224301380839571,-1.206267991898779,-0.6743261218070984,3.369269371032715,1.577205896377563,0.09956097602844238,0.2096596956253052,0.1536741554737091,XArbitraryZVertical,-0.7142617655761881,0.3133752559934728,-0.07446902168850933,0.6213537970856599,0.283053070306778,0.9342920184135437,0.216747835278511,0,0,0,-1,-1,4672.949212375001,unknown,2,2022-06-30T09:46:13.233+02:00,2022-06-30T08:20:05.567+02:00,1379,1.385177,0,0,1089.191,0,0,2022-06-30T09:44:05.799+02:00
2022-06-30T09:46:13.277+02:00,4672.994146375,0.22210693359375,0.358673095703125,0.731964111328125,4672.984194375001,1.646871215569329,2.244439839770389,-1.190641098197133,-0.6251682043075562,2.944425344467163,1.435462594032288,0.02882498502731323,-0.1068447828292847,0.2583682537078857,XArbitraryZVertical,-0.7125229225481785,0.3287145470996669,-0.08007394145625926,0.6146918789578244,0.2900072932243347,0.9286070466041565,0.2314843386411667,0,0,0,-1,-1,4672.949212375001,unknown,2,2022-06-30T09:46:13.233+02:00,2022-06-30T08:20:05.567+02:00,1379,1.385177,0,0,1089.191,0,0,2022-06-30T09:44:05.799+02:00
2022-06-30T09:46:13.287+02:00,4673.004098375,0.228546142578125,0.41314697265625,0.8154449462890625,4672.994146375,1.640750504859305,2.26579548522758,-1.176077381014108,-0.8907897472381592,2.487409114837646,1.120723485946655,-0.03230836987495422,-0.4150478839874268,0.3615283966064453,XArbitraryZVertical,-0.7115405092130659,0.3418183526252616,-0.08455495811332216,0.6080467631084798,0.2953545153141022,0.9231047034263611,0.2462593615055084,0,0,0,-1,-1,4672.949212375001,unknown,2,2022-06-30T09:46:13.233+02:00,2022-06-30T08:20:05.567+02:00,1379,1.385177,0,0,1089.191,0,0,2022-06-30T09:44:05.799+02:00
2022-06-30T09:46:13.297+02:00,4673.014049375,0.27587890625,0.6347198486328125,0.8841705322265625,4673.004098375,1.643174173900867,2.290457421265716,-1.16267860886699,-0.9824685454368591,2.026005744934082,0.8367889523506165,-0.0763603150844574,-0.5591962337493896,0.4703666865825653,XArbitraryZVertical,-0.7117618266229629,0.3524111356229709,-0.08800744822937591,0.6012122674560182,0.2984670996665955,0.917869508266449,0.2615970075130463,0,0,0,-1,-1,4672.949212375001,unknown,2,2022-06-30T09:46:13.233+02:00,2022-06-30T08:20:05.567+02:00,1379,1.385177,0,0,1089.191,0,0,2022-06-30T09:44:05.799+02:00
2022-06-30T09:46:13.307+02:00,4673.024001375,0.292724609375,0.8088226318359375,0.977752685546875,4673.014049375,1.647181605619817,2.312156072165529,-1.151014499325076,-0.8062417507171631,1.594159126281738,0.7204030752182007,-0.07205122709274292,-0.5000306963920593,0.5402219295501709,XArbitraryZVertical,-0.7122863847166234,0.3609147464600687,-0.09054731919163125,0.5951385379562616,0.3005973100662231,0.9131779074668884,0.2752226889133453,0,0,0,-1,-1,4672.949212375001,unknown,2,2022-06-30T09:46:13.233+02:00,2022-06-30T08:20:05.567+02:00,1379,1.385177,0,0,1089.191,0,0,2022-06-30T09:44:05.799+02:00
2022-06-30T09:46:13.317+02:00,4673.033952375,0.285247802734375,0.80499267578125,1.103836059570312,4673.024001375,1.647573803309369,2.326210920793765,-1.141767294861029,-0.493183970451355,1.164023756980896,0.6303309798240662,-0.02695527672767639,-0.2746501564979553,0.5989727377891541,XArbitraryZVertical,-0.7123465631333351,0.3676426280635501,-0.09228187676020511,0.5906651548090969,0.3028340339660645,0.9093700647354126,0.2851974666118622,0,0,0,-1,-1,4672.949212375001,unknown,2,2022-06-30T09:46:13.233+02:00,2022-06-30T08:20:05.567+02:00,1379,1.385177,0,0,1089.191,0,0,2022-06-30T09:44:05.799+02:00
2022-06-30T09:46:13.327+02:00,4673.043904375,0.281524658203125,0.6847686767578125,1.255661010742188,4673.033952375,1.644089093507297,2.332597721016717,-1.13539258854111,-0.2151390612125397,0.7624883651733398,0.5103276968002319,-0.01247048377990723,-0.09787702560424805,0.6866310834884644,XArbitraryZVertical,-0.7118410913547696,0.3726162576918307,-0.09340778251339481,0.5879748460294646,0.3051949739456177,0.9066998362541199,0.291121244430542,0,0,0,-1,-1,4672.949212375001,unknown,2,2022-06-30T09:46:13.233+02:00,2022-06-30T08:20:05.567+02:00,1379,1.385177,0,0,1089.191,0,0,2022-06-30T09:44:05.799+02:00
2022-06-30T09:46:13.337+02:00,4673.053856375001,0.2775115966796875,0.5513916015625,1.3914794921875,4673.043904375,1.639885086794792,2.334357041464221,-1.131197256375158,-0.1504213213920593,0.3569728136062622,0.3559392392635345,-0.02217987179756165,-0.09992939233779907,0.8095501661300659,XArbitraryZVertical,-0.7112556273397447,0.3758434031820307,-0.09383513133293604,0.5865596699415829,0.3074276447296143,0.9049223661422729,0.2942856550216675,0,0,0,-1,-1,4672.949212375001,unknown,2,2022-06-30T09:46:13.233+02:00,2022-06-30T08:20:05.567+02:00,1379,1.385177,0,0,1089.191,0,0,2022-06-30T09:44:05.799+02:00
2022-06-30T09:46:13.347+02:00,4673.063807375001,0.25653076171875,0.464599609375,1.480300903320312,4673.053856375001,1.638586140950774,2.334523460861789,-1.128294533317611,-0.1896682530641556,-0.08817185461521149,0.1534846127033234,-0.02775001525878906,-0.2189143300056458,0.9595084190368652,XArbitraryZVertical,-0.7111969596602883,0.3771936511946259,-0.09328256197799226,0.5858518014883665,0.3092746138572693,0.9036832451820374,0.2961523234844208,0,0,0,-1,-1,4672.949212375001,unknown,2,2022-06-30T09:46:13.233+02:00,2022-06-30T08:20:05.567+02:00,1379,1.385177,0,0,1089.191,0,0,2022-06-30T09:44:05.799+02:00
2022-06-30T09:46:13.356+02:00,4673.073759375,0.2220916748046875,0.4438018798828125,1.521255493164062,4673.063807375001,1.641201066012728,2.333744797431487,-1.126727799450264,-0.2052227109670639,-0.5366974472999573,-0.05716077610850334,-0.03301617503166199,-0.35161954164505,1.094590067863464,XArbitraryZVertical,-0.711829615213824,0.3764878765539624,-0.09170406808420846,0.585786455044119,0.3105276525020599,0.9030112624168396,0.2968890368938446,0,0,0,-1,-1,4672.949212375001,unknown,2,2022-06-30T09:46:13.233+02:00,2022-06-30T08:20:05.567+02:00,1379,1.385177,0,0,1089.191,0,0,2022-06-30T09:44:05.799+02:00
2022-06-30T09:46:13.367+02:00,4673.083711375,0.1779632568359375,0.45404052734375,1.539932250976562,4673.073759375,1.647020102422847,2.331539195743274,-1.12642603218134,-0.2130323052406311,-0.9583622813224792,-0.2258252203464508,-0.05484873056411743,-0.438281774520874,1.183909058570862,XArbitraryZVertical,-0.7130409877166421,0.3738560358365868,-0.08911000202845594,0.5863989155258179,0.3113793730735779,0.9028815627098083,0.2963915765285492,0,0,0,-1,-1,4672.949212375001,unknown,2,2022-06-30T09:46:13.233+02:00,2022-06-30T08:20:05.567+02:00,1379,1.385177,0,0,1089.191,0,0,2022-06-30T09:44:05.799+02:00
2022-06-30T09:46:13.376+02:00,4673.093662375,0.1409912109375,0.4658050537109375,1.52935791015625,4673.083711375,1.655420366608704,2.327667236691814,-1.127325731634136,-0.19942407310009,-1.337289929389954,-0.3897156417369843,-0.08984243869781494,-0.4594658613204956,1.226629376411438,XArbitraryZVertical,-0.7147107189477534,0.3694611058277303,-0.08556896011220486,0.5876777319413942,0.3119340240955353,0.9032679796218872,0.294625848531723,0,0,0,-1,-1,4672.949212375001,unknown,2,2022-06-30T09:46:13.233+02:00,2022-06-30T08:20:05.567+02:00,1379,1.385177,0,0,1089.191,0,0,2022-06-30T09:44:05.799+02:00
2022-06-30T09:46:13.386+02:00,4673.103614375001,0.1183319091796875,0.456817626953125,1.507568359375,4673.093662375,1.665699881054832,2.321921892988357,-1.129765913908103,-0.1183037161827087,-1.685192465782166,-0.5529273152351379,-0.1340464353561401,-0.4502715468406677,1.248608231544495,XArbitraryZVertical,-0.7166679736525661,0.3633852939360092,-0.08131693802784377,0.5896827831662067,0.3120096027851105,0.9043123126029968,0.291323721408844,0,0,0,-1,-1,4672.949212375001,unknown,2,2022-06-30T09:46:13.233+02:00,2022-06-30T08:20:05.567+02:00,1379,1.385177,0,0,1089.191,0,0,2022-06-30T09:44:05.799+02:00
2022-06-30T09:46:13.396+02:00,4673.113565375001,0.093536376953125,0.4201202392578125,1.480056762695312,4673.103614375001,1.676776284076509,2.313378434002533,-1.134133928678875,0.00918978825211525,-2.049595594406128,-0.7206097841262817,-0.1705828309059143,-0.4403629899024963,1.243384003639221,XArbitraryZVertical,-0.7186950766822638,0.3556180579799612,-0.07645814277324826,0.5925937666773028,0.3115738928318024,0.9061682224273682,0.2859736382961273,0,0,0,-1,-1,4672.949212375001,unknown,2,2022-06-30T09:46:13.233+02:00,2022-06-30T08:20:05.567+02:00,1379,1.385177,0,0,1089.191,0,0,2022-06-30T09:44:05.799+02:00
2022-06-30T09:46:13.406+02:00,4673.123517375,0.0602874755859375,0.3775634765625,1.4371337890625,4673.113565375001,1.688074097137434,2.301197302814025,-1.140880388176582,0.1796480715274811,-2.465672731399536,-0.9062471389770508,-0.1921412348747253,-0.4521830677986145,1.229496121406555,XArbitraryZVertical,-0.7206551356764912,0.3459655796191141,-0.0709967948721731,0.596593191425521,0.3104729950428009,0.9090008139610291,0.2780719995498657,0,0,0,-1,-1,4672.949212375001,unknown,2,2022-06-30T09:46:13.233+02:00,2022-06-30T08:20:05.567+02:00,1379,1.385177,0,0,1089.191,0,0,2022-06-30T09:44:05.799+02:00
2022-06-30T09:46:13.416+02:00,4673.133469375,0.0215911865234375,0.3527069091796875,1.382949829101562,4673.123517375,1.69922500438111,2.284635675525971,-1.150233187098072,0.3500469923019409,-2.910163402557373,-1.095344305038452,-0.2150594890117645,-0.4927389025688171,1.212742567062378,XArbitraryZVertical,-0.7224551864744801,0.334238545094193,-0.064834899389332,0.6017802493750566,0.3085956871509552,0.9128591418266296,0.2673138082027435,0,0,0,-1,-1,4672.949212375001,unknown,2,2022-06-30T09:46:13.233+02:00,2022-06-30T08:20:05.567+02:00,1379,1.385177,0,0,1089.191,0,0,2022-06-30T09:44:05.799+02:00
2022-06-30T09:46:13.426+02:00,4673.143420375,-0.029937744140625,0.3697357177734375,1.26641845703125,4673.133469375,1.710052707598992,2.263091840979786,-1.162316825614466,0.5425005555152893,-3.422274351119995,-1.307177543640137,-0.2454812824726105,-0.5401623249053955,1.183589339256287,XArbitraryZVertical,-0.7240324859894181,0.3202327425391323,-0.05783560659449276,0.6081799882270902,0.3057685792446136,0.9177258610725403,0.2535440921783447,0,0,0,-1,-1,4672.949212375001,unknown,2,2022-06-30T09:46:13.233+02:00,2022-06-30T08:20:05.567+02:00,1379,1.385177,0,0,1089.191,0,0,2022-06-30T09:44:05.799+02:00
2022-06-30T09:46:13.436+02:00,4673.153372375,-0.0847015380859375,0.4509429931640625,1.126434326171875,4673.143420375,1.719676583701427,2.235243101971589,-1.17756244909772,0.7893806099891663,-3.958564281463623,-1.529062986373901,-0.2800683677196503,-0.5709677934646606,1.146673321723938,XArbitraryZVertical,-0.7252075336159561,0.303664495312031,-0.04992538563827894,0.6159296252165809,0.3016593754291534,0.9236747622489929,0.2362761795520782,0,0,0,-1,-1,4672.949212375001,unknown,2,2022-06-30T09:46:13.233+02:00,2022-06-30T08:20:05.567+02:00,1379,1.385177,0,0,1089.191,0,0,2022-06-30T09:44:05.799+02:00
2022-06-30T09:46:13.446+02:00,4673.163323375,-0.1209564208984375,0.5362701416015625,1.004440307617188,4673.153372375,1.726706271796701,2.199631801355334,-1.196123401787881,0.9970428943634033,-4.502599239349365,-1.737118721008301,-0.3259012997150421,-0.5608914494514465,1.051154375076294,XArbitraryZVertical,-0.7257596826437293,0.2844376984734883,-0.04106697031573602,0.625045316914298,0.2959634065628052,0.9306273460388184,0.215263843536377,0,0,0,-1,-1,4672.949212375001,unknown,2,2022-06-30T09:46:13.233+02:00,2022-06-30T08:20:05.567+02:00,1379,1.385177,0,0,1089.191,0,0,2022-06-30T09:44:05.799+02:00
2022-06-30T09:46:13.456+02:00,4673.173275375,-0.1615447998046875,0.5618743896484375,0.8421783447265625,4673.163323375,1.732738504113297,2.157776405664032,-1.216900581805535,0.9957242012023926,-5.043500900268555,-1.911197066307068,-0.3732492029666901,-0.4870865941047668,0.9344948530197144,XArbitraryZVertical,-0.7259333013865475,0.2626602015437431,-0.03097211803076032,0.6348788918910402,0.2885474562644958,0.9380297660827637,0.1919390857219696,0,0,0,-1,-1,4672.949212375001,unknown,2,2022-06-30T09:46:13.233+02:00,2022-06-30T08:20:05.567+02:00,1379,1.385177,0,0,1089.191,0,0,2022-06-30T09:44:05.799+02:00
2022-06-30T09:46:13.466+02:00,4673.183227375001,-0.2117462158203125,0.5698394775390625,0.7064056396484375,4673.173275375,1.741632846053117,2.113037953174765,-1.238753149508855,0.8132261037826538,-5.640579223632812,-2.083416938781738,-0.4001726508140564,-0.4091077446937561,0.8362177014350891,XArbitraryZVertical,-0.7261806166621346,0.238270597817913,-0.01925536086679587,0.6446070700607205,0.279216080904007,0.945378303527832,0.1682223379611969,0,0,0,-1,-1,4672.949212375001,unknown,2,2022-06-30T09:46:13.233+02:00,2022-06-30T08:20:05.567+02:00,1379,1.385177,0,0,1089.191,0,0,2022-06-30T09:44:05.799+02:00
2022-06-30T09:46:13.476+02:00,4673.193178375001,-0.2711029052734375,0.5810089111328125,0.579315185546875,4673.183227375001,1.757749171989931,2.069209547319971,-1.260672249483935,0.4547896087169647,-6.240365982055664,-2.209989786148071,-0.429594874382019,-0.3904211521148682,0.6962935924530029,XArbitraryZVertical,-0.7268636131496659,0.2112144303212519,-0.005500487221653767,0.6534734508399548,0.2680498361587524,0.95229572057724,0.1458844989538193,0,0,0,-1,-1,4672.949212375001,unknown,2,2022-06-30T09:46:13.233+02:00,2022-06-30T08:20:05.567+02:00,1379,1.385177,0,0,1089.191,0,0,2022-06-30T09:44:05.799+02:00
2022-06-30T09:46:13.486+02:00,4673.203130375,-0.34075927734375,0.585113525390625,0.454498291015625,4673.193178375001,1.786773413038196,2.032290667256039,-1.282109480778589,-0.01034909300506115,-6.737400054931641,-2.375212669372559,-0.4666577577590942,-0.3887789845466614,0.5796351432800293,XArbitraryZVertical,-0.7282857851144819,0.1816175552043756,0.0102472325844542,0.6606889238070519,0.2549112439155579,0.9586185216903687,0.1267702430486679,0,0,0,-1,-1,4672.949212375001,unknown,2,2022-06-30T09:46:13.233+02:00,2022-06-30T08:20:05.567+02:00,1379,1.385177,0,0,1089.191,0,0,2022-06-30T09:44:05.799+02:00
2022-06-30T09:46:13.496+02:00,4673.213082375,-0.4210357666015625,0.5500030517578125,0.426300048828125,4673.203130375,1.83422690661359,2.008969187961981,-1.303684725336468,-0.4764928221702576,-7.105454444885254,-2.62567925453186,-0.5101146101951599,-0.3835282325744629,0.4673260450363159,XArbitraryZVertical,-0.7304939720521482,0.1495760600548556,0.0272706944285026,0.6657792021312628,0.2390114217996597,0.9645373225212097,0.1119888797402382,0,0,0,-1,-1,4672.949212375001,unknown,2,2022-06-30T09:46:13.233+02:00,2022-06-30T08:20:05.567+02:00,1379,1.385177,0,0,1089.191,0,0,2022-06-30T09:44:05.799+02:00
2022-06-30T09:46:13.506+02:00,4673.223033375,-0.5081329345703125,0.369842529296875,0.4678955078125,4673.213082375,1.90571021829906,2.006116657084724,-1.325938215181545,-0.8980535864830017,-7.353298664093018,-2.916385889053345,-0.5605690479278564,-0.3850581645965576,0.3522700071334839,XArbitraryZVertical,-0.7333703195636252,0.1152477438868923,0.0448106949661918,0.6684892802245523,0.219809427857399,0.9701717495918274,0.1022281348705292,0,0,0,-1,-1,4672.949212375001,unknown,2,2022-06-30T09:46:13.233+02:00,2022-06-30T08:20:05.567+02:00,1379,1.385177,0,0,1089.191,0,0,2022-06-30T09:44:05.799+02:00
2022-06-30T09:46:13.516+02:00,4673.232985375001,-0.60260009765625,0.15789794921875,0.40185546875,4673.223033375,1.997004757108396,2.020858698215377,-1.350067953481992,-0.7653716802597046,-7.558596611022949,-3.224838018417358,-0.618175208568573,-0.4257348775863647,0.3310556411743164,XArbitraryZVertical,-0.7357960205193648,0.07890707010868137,0.06214279693914954,0.6697136315135482,0.1971391290426254,0.9757382273674011,0.09524422138929367,0,0,0,-1,-1,4672.949212375001,unknown,2,2022-06-30T09:46:13.233+02:00,2022-06-30T08:20:05.567+02:00,1379,1.385177,0,0,1089.191,0,0,2022-06-30T09:44:05.799+02:00
2022-06-30T09:46:13.526+02:00,4673.242936375001,-0.760498046875,0.1351776123046875,0.0535430908203125,4673.232985375001,2.089302659943155,2.034880560493063,-1.378712166272209,-0.06025759875774384,-7.780230045318604,-3.556303262710571,-0.6788463592529297,-0.61176598072052,0.3824455738067627,XArbitraryZVertical,-0.7355769595449022,0.04063730841382922,0.07893746319907542,0.6715980494125688,0.1707130372524261,0.981608510017395,0.0854497104883194,0,0,0,-1,-1,4672.949212375001,unknown,2,2022-06-30T09:46:13.233+02:00,2022-06-30T08:20:05.567+02:00,1379,1.385177,0,0,1089.191,0,0,2022-06-30T09:44:05.799+02:00
2022-06-30T09:46:13.536+02:00,4673.252888375,-1.196853637695312,0.3553009033203125,0.4025726318359375,4673.242936375001,2.16329116833945,2.029262217493285,-1.41305954323548,0.933465301990509,-8.074375152587891,-3.632216453552246,-0.7434626817703247,-0.829687237739563,0.3323342800140381,XArbitraryZVertical,-0.7312725557589225,0.0009906416639948287,0.09539813779263841,0.6753804236545827,0.1408621966838837,0.9875853061676025,0.06952106207609177,0,0,0,-1,-1,4672.949212375001,unknown,2,2022-06-30T09:46:13.233+02:00,2022-06-30T08:20:05.567+02:00,1379,1.385177,0,0,1089.191,0,0,2022-06-30T09:44:05.799+02:00
2022-06-30T09:46:13.545+02:00,4673.262840375,-5.455429077148438,3.037460327148438,-7.720855712890625,4673.252888375,2.1523671832482,1.948398440298218,-1.452310859712879,3.180053234100342,-4.599038124084473,-3.748619079589844,-0.8703805208206177,-0.8578109741210938,0.009959939867258072,XArbitraryZVertical,-0.7215165515520523,-0.03471890941929177,0.109006393993196,0.6828808270913149,0.109882079064846,0.9929888248443604,0.04358307272195816,0,0,0,-1,-1,4672.949212375001,unknown,2,2022-06-30T09:46:13.233+02:00,2022-06-30T08:20:05.567+02:00,1379,1.385177,0,0,1089.191,0,0,2022-06-30T09:44:05.799+02:00
2022-06-30T09:46:13.555+02:00,4673.272791375,-2.0162353515625,2.682449340820312,-7.68536376953125,4673.262840375,2.051232733141248,1.873151822120614,-1.472733171357876,-0.7288429737091064,8.036125183105469,0.2255367934703827,-1.290319323539734,-0.6398946642875671,0.373418927192688,XArbitraryZVertical,-0.716680007418943,-0.0307663828102963,0.09483840404462505,0.690238307979529,0.09346530586481094,0.9951956868171692,0.0291536059230566,0,0,0,-1,-1,4672.949212375001,unknown,2,2022-06-30T09:46:13.233+02:00,2022-06-30T08:20:05.567+02:00,1379,1.385177,0,0,1089.191,0,0,2022-06-30T09:44:05.799+02:00
2022-06-30T09:46:13.565+02:00,4673.282743375,0.205352783203125,0.813232421875,-2.961959838867188,4673.272791375,2.23060748407699,2.094875646813378,-1.486751200169524,-0.1980853676795959,0.09054844081401825,-3.51737380027771,-5.528109550476074,2.040990114212036,-7.762864589691162,XArbitraryZVertical,-0.7214314656106663,-0.0232575443527458,0.07256108899915856,0.6882809723645993,0.07268025726079941,0.9964702725410461,0.04200854524970055,0,0,0,-1,-1,4672.949212375001,unknown,2,2022-06-30T09:46:13.233+02:00,2022-06-30T08:20:05.567+02:00,1379,1.385177,0,0,1089.191,0,0,2022-06-30T09:44:05.799+02:00
2022-06-30T09:46:13.575+02:00,4673.292695375,-0.211822509765625,0.833251953125,-2.165634155273438,4673.282743375,2.569502240919264,2.413028527989812,-1.518136242520385,0.3799942433834076,-2.175240039825439,-4.033109664916992,-2.051282167434692,1.683835625648499,-7.724638938903809,XArbitraryZVertical,-0.7195162499416665,-0.04397485186184152,0.06651781134301737,0.6898826513157745,0.03504631668329239,0.9986137747764587,0.03927484154701233,0,0,0,-1,-1,4672.949212375001,unknown,2,2022-06-30T09:46:13.233+02:00,2022-06-30T08:20:05.567+02:00,1379,1.385177,0,0,1089.191,0,0,2022-06-30T09:44:05.799+02:00
2022-06-30T09:46:13.586+02:00,4673.302646375,0.8154754638671875,0.9461517333984375,-1.693511962890625,4673.292695375,-2.928758752093942,-3.080036328918801,-1.531706976403347,-0.4375311136245728,2.761264801025391,-3.310987234115601,0.2077564001083374,-0.1860037446022034,-3.000964403152466,XArbitraryZVertical,-0.7186394731313878,-0.05531342255404922,0.05153350996268039,0.6912611651180773,-0.002404012950137258,0.9992361068725586,0.03900453448295593,0,0,0,-1,-1,4672.949212375001,unknown,2,2022-06-30T09:46:13.233+02:00,2022-06-30T08:20:05.567+02:00,1379,1.385177,0,0,1089.191,0,0,2022-06-30T09:44:05.799+02:00
2022-06-30T09:46:13.601+02:00,4673.312598375001,0.355194091796875,0.99664306640625,-1.690933227539062,4673.302646375,-2.354430612577318,-2.490328211979282,-1.51302250488665,-0.8281145691871643,0.1953906863927841,-3.213283777236938,-0.1768210530281067,-0.165079653263092,-2.211556434631348,XArbitraryZVertical,-0.7205453507667067,-0.0614444637812914,0.03453557898962691,0.6898160647247383,-0.03500185534358025,0.9983315467834473,0.04592204838991165,0,0,0,-1,-1,4672.949212375001,unknown,2,2022-06-30T09:46:13.233+02:00,2022-06-30T08:20:05.567+02:00,1379,1.385177,0,0,1089.191,0,0,2022-06-30T09:44:05.799+02:00
2022-06-30T09:46:13.605+02:00,4673.322549375001,-0.325653076171875,1.093490600585938,-1.3270263671875,4673.312598375001,-2.072658159396783,-2.218588135453018,-1.484325309591904,-0.2627051770687103,-1.723324060440063,-3.670766353607178,0.8843427300453186,-0.05011200904846191,-1.745625972747803,XArbitraryZVertical,-0.7211828546012596,-0.07715086328429138,0.02584933026860873,0.6879497397463351,-0.06886764615774155,0.9962636828422546,0.05211393162608147,0,0,0,-1,-1,4672.949212375001,unknown,2,2022-06-30T09:46:13.233+02:00,2022-06-30T08:20:05.567+02:00,1379,1.385177,0,0,1089.191,0,0,2022-06-30T09:44:05.799+02:00
2022-06-30T09:46:13.615+02:00,4673.332501375,-0.6925811767578125,1.068923950195312,-0.5665435791015625,4673.322549375001,-1.872655043847803,-2.037170987595648,-1.453468132989046,0.3712427318096161,-1.622350811958313,-3.61215877532959,0.459753006696701,0.003518283367156982,-1.74356997013092,XArbitraryZVertical,-0.7190397454878518,-0.09643719763566469,0.0195621836203249,0.687967460462811,-0.1045593321323395,0.9931249618530273,0.05263657867908478,0,0,0,-1,-1,4672.949212375001,unknown,2,2022-06-30T09:46:13.233+02:00,2022-06-30T08:20:05.567+02:00,1379,1.385177,0,0,1089.191,0,0,2022-06-30T09:44:05.799+02:00
2022-06-30T09:46:13.625+02:00,4673.342453375,-0.7372283935546875,0.503692626953125,0.9188232421875,4673.332501375,-1.733708274411968,-1.91314232492236,-1.42267920120782,0.6573396921157837,-1.217162251472473,-3.529325246810913,-0.1866400688886642,0.1044400334358215,-1.376567840576172,XArbitraryZVertical,-0.7154097871184304,-0.1138399963450374,0.01252161848598281,0.6892551612060145,-0.1390134394168854,0.9890506863594055,0.0495414175093174,0,0,0,-1,-1,4672.949212375001,unknown,2,2022-06-30T09:46:13.233+02:00,2022-06-30T08:20:05.567+02:00,1379,1.385177,0,0,1089.191,0,0,2022-06-30T09:44:05.799+02:00
2022-06-30T09:46:13.635+02:00,4673.352404375,-1.053436279296875,0.1284942626953125,0.7027435302734375,4673.342453375,-1.585010390628716,-1.782972604260762,-1.387748750503901,2.353291273117065,-2.237525939941406,-4.621435165405273,-0.5146366357803345,0.08563035726547241,-0.6048763990402222,XArbitraryZVertical,-0.7080005551459307,-0.1337966395796197,0.005370406230411756,0.6934008926757796,-0.1779449135065079,0.9832935333251953,0.03833265230059624,0,0,0,-1,-1,4672.949212375001,unknown,2,2022-06-30T09:46:13.233+02:00,2022-06-30T08:20:05.567+02:00,1379,1.385177,0,0,1089.191,0,0,2022-06-30T09:44:05.799+02:00
2022-06-30T09:46:13.645+02:00,4673.362356375001,-1.5032958984375,0.8607940673828125,-0.161224365234375,4673.352404375,-1.380592324974133,-1.606894888490786,-1.341462181953391,4.841281890869141,-2.430635690689087,-5.319299221038818,-0.5100477933883667,-0.4701254963874817,0.9106186628341675,XArbitraryZVertical,-0.6917433421652019,-0.1599793225178906,-0.0013491101413074,0.7041987824297031,-0.2271809577941895,0.9738180041313171,0.00820447038859129,0,0,0,-1,-1,4672.949212375001,unknown,2,2022-06-30T09:46:13.233+02:00,2022-06-30T08:20:05.567+02:00,1379,1.385177,0,0,1089.191,0,0,2022-06-30T09:44:05.799+02:00
2022-06-30T09:46:13.655+02:00,4673.372307375001,-2.3148193359375,2.61029052734375,-0.366546630859375,4673.362356375001,-1.172017821458814,-1.426287641204329,-1.286739107844918,6.006474494934082,-1.928760290145874,-4.880388736724854,-0.7761048078536987,-0.8314321041107178,0.7431016564369202,XArbitraryZVertical,-0.6674811249481342,-0.1851751943401638,-0.007668768306609523,0.7211937471956359,-0.2773318886756897,0.9599263072013855,-0.04035818949341774,0,0,0,-1,-1,4672.949212375001,unknown,2,2022-06-30T09:46:13.233+02:00,2022-06-30T08:20:05.567+02:00,1379,1.385177,0,0,1089.191,0,0,2022-06-30T09:44:05.799+02:00
2022-06-30T09:46:13.665+02:00,4673.382259375,-3.19940185546875,2.981704711914062,-0.708770751953125,4673.372307375001,-1.04298558904133,-1.324152123284319,-1.230112364098646,3.786146640777588,-2.270857572555542,-4.749660015106201,-1.17927622795105,-0.08173245191574097,-0.07964580506086349,XArbitraryZVertical,-0.6447326916966249,-0.2086394726374302,-0.01334695415581794,0.7352626658038821,-0.3240200579166412,0.9425263404846191,-0.08157865703105927,0,0,0,-1,-1,4672.949212375001,unknown,2,2022-06-30T09:46:13.233+02:00,2022-06-30T08:20:05.567+02:00,1379,1.385177,0,0,1089.191,0,0,2022-06-30T09:44:05.799+02:00
2022-06-30T09:46:13.675+02:00,4673.392211375,-3.104873657226562,2.479141235351562,-0.9996337890625,4673.382259375,-0.9853141043828,-1.288179227651063,-1.169500652465273,3.913248062133789,-0.9058157801628113,-5.869924068450928,-1.939704298973083,1.689734697341919,-0.2576169371604919,XArbitraryZVertical,-0.62572316754905,-0.2323911438297792,-0.02333083317416941,0.7442583781361634,-0.3751153945922852,0.9205556511878967,-0.1089297458529472,0,0,0,-1,-1,4672.949212375001,unknown,2,2022-06-30T09:46:13.233+02:00,2022-06-30T08:20:05.567+02:00,1379,1.385177,0,0,1089.191,0,0,2022-06-30T09:44:05.799+02:00
2022-06-30T09:46:13.685+02:00,4673.402162375,-2.536117553710938,2.736572265625,-1.42266845703125,4673.392211375,-0.9252427890012886,-1.228477574599919,-1.099675866991914,5.117881774902344,1.851420521736145,-5.574876308441162,-2.771852254867554,2.090644121170044,-0.5564142465591431,XArbitraryZVertical,-0.6014513367325762,-0.2491546110524668,-0.04145459215434846,0.7579312220791511,-0.4275499582290649,0.8910602927207947,-0.1523565351963043,0,0,0,-1,-1,4672.949212375001,unknown,2,2022-06-30T09:46:13.233+02:00,2022-06-30T08:20:05.567+02:00,1379,1.385177,0,0,1089.191,0,0,2022-06-30T09:44:05.799+02:00
2022-06-30T09:46:13.695+02:00,4673.412114375,-2.276153564453125,2.799224853515625,-1.994308471679688,4673.402162375,-0.8627879750108186,-1.149630811430169,-1.033697573260835,5.4111008644104,2.747768878936768,-4.554016590118408,-2.637939691543579,1.619944334030151,-0.7904607653617859,XArbitraryZVertical,-0.5743733861912322,-0.2559465786862849,-0.06105782598911806,0.7751506332571539,-0.4669342935085297,0.8591967225074768,-0.2091731280088425,0,0,0,-1,-1,4672.949212375001,unknown,2,2022-06-30T09:46:13.233+02:00,2022-06-30T08:20:05.567+02:00,1379,1.385177,0,0,1089.191,0,0,2022-06-30T09:44:05.799+02:00
2022-06-30T09:46:13.705+02:00,4673.422066375,-2.29693603515625,2.590255737304688,-2.20721435546875,4673.412114375,-0.8068134274114885,-1.076602561814748,-0.9694119684032888,5.722385883331299,2.387407064437866,-4.361477375030518,-2.038028717041016,1.912018775939941,-1.154304385185242,XArbitraryZVertical,-0.5460132597974706,-0.2601681956544746,-0.07851007980874991,0.7924760002044419,-0.4980891942977905,0.8245531320571899,-0.2683640718460083,0,0,0,-1,-1,4672.949212375001,unknown,2,2022-06-30T09:46:13.233+02:00,2022-06-30T08:20:05.567+02:00,1379,1.385177,0,0,1089.191,0,0,2022-06-30T09:44:05.799+02:00
2022-06-30T09:46:13.715+02:00,4673.432017375,-2.608306884765625,2.196334838867188,-1.951797485351562,4673.422066375,-0.7599148998314079,-1.017241161522066,-0.9048308283452016,5.486989498138428,1.984047293663025,-4.019863128662109,-1.75059962272644,2.012903928756714,-1.669512033462524,XArbitraryZVertical,-0.5170132344882599,-0.2651397334300476,-0.09365128279912903,0.8084725354748818,-0.5255542993545532,0.7863206267356873,-0.3247964680194855,0,0,0,-1,-1,4672.949212375001,unknown,2,2022-06-30T09:46:13.233+02:00,2022-06-30T08:20:05.567+02:00,1379,1.385177,0,0,1089.191,0,0,2022-06-30T09:44:05.799+02:00
2022-06-30T09:46:13.725+02:00,4673.441969375001,-2.930343627929688,1.670425415039062,-1.517501831054688,4673.432017375,-0.7265170366283145,-0.9718742577235221,-0.8457073666658906,4.55803108215332,2.066384792327881,-3.612216711044312,-1.749168753623962,1.841814994812012,-1.833332538604736,XArbitraryZVertical,-0.4905130238512299,-0.2691766564802076,-0.1073670288332853,0.8218352855698927,-0.5477675795555115,0.7484404444694519,-0.3738818168640137,0,0,0,-1,-1,4672.949212375001,unknown,2,2022-06-30T09:46:13.233+02:00,2022-06-30T08:20:05.567+02:00,1379,1.385177,0,0,1089.191,0,0,2022-06-30T09:44:05.799+02:00
2022-06-30T09:46:13.736+02:00,4673.451920375001,-3.107574462890625,1.392227172851562,-1.071258544921875,4673.441969375001,-0.7065099749483765,-0.9326275106777213,-0.7942191197859559,3.670701503753662,2.972043037414551,-3.17578649520874,-2.045399188995361,1.483017921447754,-1.534287929534912,XArbitraryZVertical,-0.4675655907421785,-0.2694951724608161,-0.1218234109456473,0.8330148823329331,-0.562907874584198,0.7133165597915649,-0.417509526014328,0,0,0,-1,-1,4672.949212375001,unknown,2,2022-06-30T09:46:13.233+02:00,2022-06-30T08:20:05.567+02:00,1379,1.385177,0,0,1089.191,0,0,2022-06-30T09:44:05.799+02:00
2022-06-30T09:46:13.745+02:00,4673.461872375,-3.148300170898438,1.46441650390625,-0.6990509033203125,4673.451920375001,-0.6950562736628048,-0.8894537390148287,-0.7520176261754185,2.841335296630859,4.088308334350586,-2.488577365875244,-2.36309027671814,0.9873114824295044,-1.057524681091309,XArbitraryZVertical,-0.4479572721281702,-0.2633356973455885,-0.1374335187579947,0.8432678697634252,-0.5672537684440613,0.6831136345863342,-0.4599771797657013,0,0,0,-1,-1,4672.949212375001,unknown,2,2022-06-30T09:46:13.233+02:00,2022-06-30T08:20:05.567+02:00,1379,1.385177,0,0,1089.191,0,0,2022-06-30T09:44:05.799+02:00
2022-06-30T09:46:13.755+02:00,4673.471824375,-3.142120361328125,1.76544189453125,-0.4723358154296875,4673.461872375,-0.6876275657675101,-0.8387322280559564,-0.7206733711236055,2.071741342544556,5.081989765167236,-1.572012424468994,-2.548714637756348,0.7323361039161682,-0.569043755531311,XArbitraryZVertical,-0.4316277556481956,-0.2501800346574986,-0.1529334532499495,0.853064417593639,-0.5588600039482117,0.6598907709121704,-0.5022148489952087,0,0,0,-1,-1,4672.949212375001,unknown,2,2022-06-30T09:46:13.233+02:00,2022-06-30T08:20:05.567+02:00,1379,1.385177,0,0,1089.191,0,0,2022-06-30T09:44:05.799+02:00
2022-06-30T09:46:13.764+02:00,4673.481775375,-3.007583618164062,1.974716186523438,-0.2700653076171875,4673.471824375,-0.6819064649696815,-0.7808297794343247,-0.7003145077037609,1.404373645782471,5.763858795166016,-0.8146252632141113,-2.610094308853149,0.8199580311775208,-0.1559047698974609,XArbitraryZVertical,-0.4185064006878438,-0.2308230344749934,-0.1674210344435963,0.8622896392463129,-0.538206160068512,0.6444581747055054,-0.5431462526321411,0,0,0,-1,-1,4672.949212375001,unknown,2,2022-06-30T09:46:13.233+02:00,2022-06-30T08:20:05.567+02:00,1379,1.385177,0,0,1089.191,0,0,2022-06-30T09:44:05.799+02:00
2022-06-30T09:46:13.774+02:00,4673.491727375001,-2.845321655273438,1.964126586914062,-0.1558685302734375,4673.481775375,-0.6766245303338022,-0.7178949071700547,-0.6891427628062589,0.7554571628570557,6.19111156463623,-0.1165268644690514,-2.634435653686523,1.129565715789795,0.1089713573455811,XArbitraryZVertical,-0.4080756195972446,-0.2069315184069098,-0.1805407076350886,0.8706657529352303,-0.5076848864555359,0.6358758211135864,-0.5813072919845581,0,0,0,-1,-1,4672.949212375001,unknown,2,2022-06-30T09:46:13.233+02:00,2022-06-30T08:20:05.567+02:00,1379,1.385177,0,0,1089.191,0,0,2022-06-30T09:44:05.799+02:00
2022-06-30T09:46:13.784+02:00,4673.501679375,-2.814712524414062,1.853652954101562,-0.144256591796875,4673.491727375001,-0.6718997234011035,-0.6514475865041126,-0.6875666211462818,-0.04631555080413818,6.554738521575928,0.4432161450386047,-2.539010047912598,1.340057373046875,0.3444647192955017,XArbitraryZVertical,-0.400796400841192,-0.1791568292818181,-0.1922310130617622,0.8776745023905983,-0.4685737490653992,0.6346585750579834,-0.6145301461219788,0,0,0,-1,-1,4672.949212375001,unknown,2,2022-06-30T09:46:13.233+02:00,2022-06-30T08:20:05.567+02:00,1379,1.385177,0,0,1089.191,0,0,2022-06-30T09:44:05.799+02:00
2022-06-30T09:46:13.794+02:00,4673.511630375,-2.771392822265625,1.80609130859375,-0.0902252197265625,4673.501679375,-0.6678241679174967,-0.5822727663198932,-0.6940118276948116,-0.6178783774375916,6.825316429138184,0.8305289745330811,-2.422603130340576,1.32450008392334,0.4861495494842529,XArbitraryZVertical,-0.3962470281580072,-0.1482537682391013,-0.2030104407326291,0.8830606080613697,-0.4227187037467957,0.639626145362854,-0.64201819896698,0,0,0,-1,-1,4672.949212375001,unknown,2,2022-06-30T09:46:13.233+02:00,2022-06-30T08:20:05.567+02:00,1379,1.385177,0,0,1089.191,0,0,2022-06-30T09:44:05.799+02:00
2022-06-30T09:46:13.804+02:00,4673.521582375,-2.733322143554688,1.742950439453125,-0.0382232666015625,4673.511630375,-0.6607797283715811,-0.5082348458914527,-0.7062777439956207,-0.8941310048103333,7.161107063293457,1.398947834968567,-2.444488525390625,1.204646229743958,0.5203669667243958,XArbitraryZVertical,-0.3931557778628771,-0.1145281236871748,-0.212377400410056,0.8872473132861697,-0.3702243566513062,0.6490064263343811,-0.6646236777305603,0,0,0,-1,-1,4672.949212375001,unknown,2,2022-06-30T09:46:13.233+02:00,2022-06-30T08:20:05.567+02:00,1379,1.385177,0,0,1089.191,0,0,2022-06-30T09:44:05.799+02:00
2022-06-30T09:46:13.814+02:00,4673.531533375,-2.687744140625,1.655685424804688,0.0762176513671875,4673.521582375,-0.6458899708665591,-0.4253139958886996,-0.7219166970709346,-0.8787562847137451,7.550131320953369,2.040680885314941,-2.46171498298645,1.145266532897949,0.5934489369392395,XArbitraryZVertical,-0.3900344121466562,-0.07769166367173171,-0.2195351008748187,0.890865673039587,-0.3096781671047211,0.6608244180679321,-0.6836743354797363,0,0,0,-1,-1,4672.949212375001,unknown,2,2022-06-30T09:46:13.233+02:00,2022-06-30T08:20:05.567+02:00,1379,1.385177,0,0,1089.191,0,0,2022-06-30T09:44:05.799+02:00
2022-06-30T09:46:13.824+02:00,4673.541485375,-2.61962890625,1.523757934570312,0.22027587890625,4673.531533375,-0.6210099675405469,-0.3315308390245674,-0.7381812472607759,-0.7851248979568481,7.960606575012207,2.615896940231323,-2.492558717727661,1.070006370544434,0.6611903309822083,XArbitraryZVertical,-0.3858275487449517,-0.03781793871774359,-0.2243744810989804,0.8940710278797225,-0.2407635599374771,0.6729437112808228,-0.6994138360023499,0,0,0,-1,-1,4672.949212375001,unknown,2,2022-06-30T09:46:13.233+02:00,2022-06-30T08:20:05.567+02:00,1379,1.385177,0,0,1089.191,0,0,2022-06-30T09:44:05.799+02:00
2022-06-30T09:46:13.834+02:00,4673.551437375,-2.549468994140625,1.435226440429688,0.340606689453125,4673.541485375,-0.5870025837845654,-0.2276022040576261,-0.7526362365740752,-0.623734176158905,8.284977912902832,2.994731426239014,-2.523050546646118,0.9721198678016663,0.7872831225395203,XArbitraryZVertical,-0.3800612673591225,0.004538458646818557,-0.2273737640631255,0.8965678692077163,-0.1646938472986221,0.6835653185844421,-0.7110656499862671,0,0,0,-1,-1,4672.949212375001,unknown,2,2022-06-30T09:46:13.233+02:00,2022-06-30T08:20:05.567+02:00,1379,1.385177,0,0,1089.191,0,0,2022-06-30T09:44:05.799+02:00
2022-06-30T09:46:13.844+02:00,4673.561388375,-2.478561401367188,1.372695922851562,0.4315338134765625,4673.551437375,-0.5459366304918742,-0.1155257865466765,-0.7627685372163441,-0.3457977473735809,8.567196846008301,3.262324571609497,-2.536298274993896,0.8328320980072021,0.9383828639984131,XArbitraryZVertical,-0.3722723118897372,0.04857698957731766,-0.2291115199359975,0.8980877983806647,-0.08333094418048859,0.6909255385398865,-0.7181072235107422,0,0,0,-1,-1,4672.949212375001,unknown,2,2022-06-30T09:46:13.233+02:00,2022-06-30T08:20:05.567+02:00,1379,1.385177,0,0,1089.191,0,0,2022-06-30T09:44:05.799+02:00
2022-06-30T09:46:13.854+02:00,4673.571340375001,-2.458572387695312,1.284164428710938,0.50518798828125,4673.561388375,-0.4992259487793942,0.003796661402641969,-0.7661740467473246,0.03283160179853439,8.9195556640625,3.559544563293457,-2.552204847335815,0.7418427467346191,1.061170101165771,XArbitraryZVertical,-0.3617655390954079,0.09404180000942286,-0.229810234051105,0.8985929438882693,0.00273574935272336,0.6933834552764893,-0.7205636501312256,0,0,0,-1,-1,4672.949212375001,unknown,2,2022-06-30T09:46:13.233+02:00,2022-06-30T08:20:05.567+02:00,1379,1.385177,0,0,1089.191,0,0,2022-06-30T09:44:05.799+02:00
2022-06-30T09:46:13.864+02:00,4673.581291375001,-2.509597778320312,1.094818115234375,0.5743408203125,4673.571340375001,-0.4484279718432175,0.1292539566766737,-0.7621588354353782,0.2481359243392944,9.207914352416992,3.838942527770996,-2.571796894073486,0.6822110414505005,1.148846745491028,XArbitraryZVertical,-0.3485270276816748,0.140969215749659,-0.2293776395285226,0.8977987624520168,0.09323535859584808,0.6904846429824829,-0.7173131704330444,0,0,0,-1,-1,4672.949212375001,unknown,2,2022-06-30T09:46:13.233+02:00,2022-06-30T08:20:05.567+02:00,1379,1.385177,0,0,1089.191,0,0,2022-06-30T09:44:05.799+02:00
2022-06-30T09:46:13.874+02:00,4673.591243375,-2.549819946289062,0.8854827880859375,0.65802001953125,4673.581291375001,-0.3962106188837736,0.2577252828533587,-0.7519642154520157,0.2679927051067352,9.409120559692383,4.053018093109131,-2.64472508430481,0.6010895967483521,1.211414575576782,XArbitraryZVertical,-0.3334946774202429,0.188859423548281,-0.2278092208438809,0.895106943108412,0.1861524432897568,0.6830746531486511,-0.7062268257141113,0,0,0,-1,-1,4672.949212375001,unknown,2,2022-06-30T09:46:13.233+02:00,2022-06-30T08:20:05.567+02:00,1379,1.385177,0,0,1089.191,0,0,2022-06-30T09:44:05.799+02:00
2022-06-30T09:46:13.884+02:00,4673.601195375,-2.483840942382812,0.762908935546875,0.7386322021484375,4673.591243375,-0.3430915983290327,0.3885694046894476,-0.7368084524929954,0.08888062089681625,9.648621559143066,4.3812255859375,-2.790191650390625,0.422890305519104,1.259745836257935,XArbitraryZVertical,-0.3174193505347879,0.2377861853795488,-0.2247630086852554,0.8900474185854673,0.2805936932563782,0.6719276309013367,-0.6854053735733032,0,0,0,-1,-1,4672.949212375001,unknown,2,2022-06-30T09:46:13.233+02:00,2022-06-30T08:20:05.567+02:00,1379,1.385177,0,0,1089.191,0,0,2022-06-30T09:44:05.799+02:00
2022-06-30T09:46:13.894+02:00,4673.611146375,-2.321243286132812,0.760162353515625,0.7306671142578125,4673.601195375,-0.2880683816761235,0.5219109134166987,-0.7170342241196955,-0.1325194090604782,9.773295402526855,4.793567657470703,-2.925596714019775,0.2283304929733276,1.311428546905518,XArbitraryZVertical,-0.3008175802650807,0.2877574955798465,-0.2194522096861352,0.882352106951668,0.3757767081260681,0.6571521162986755,-0.6534088253974915,0,0,0,-1,-1,4672.949212375001,unknown,2,2022-06-30T09:46:13.233+02:00,2022-06-30T08:20:05.567+02:00,1379,1.385177,0,0,1089.191,0,0,2022-06-30T09:44:05.799+02:00
2022-06-30T09:46:13.904+02:00,4673.621098375001,-2.192657470703125,0.89093017578125,0.7015228271484375,4673.611146375,-0.2335853487212561,0.6540605371716977,-0.6899375056763888,0.07414974272251129,9.678960800170898,5.177516460418701,-2.953102111816406,0.126419723033905,1.350739598274231,XArbitraryZVertical,-0.2828358604503155,0.3375648136038416,-0.2117403306832546,0.8724792025596476,0.4692610502243042,0.6364889740943909,-0.6121077537536621,0,0,0,-1,-1,4672.949212375001,unknown,2,2022-06-30T09:46:13.233+02:00,2022-06-30T08:20:05.567+02:00,1379,1.385177,0,0,1089.191,0,0,2022-06-30T09:44:05.799+02:00
2022-06-30T09:46:13.914+02:00,4673.631050375,-2.173492431640625,0.9835205078125,0.72802734375,4673.621098375001,-0.1850875856116227,0.7790780769399317,-0.6527946045428855,0.5516002178192139,9.361588478088379,5.483733177185059,-2.879400253295898,0.1527533531188965,1.295923829078674,XArbitraryZVertical,-0.2621013318362634,0.3855831783214179,-0.2022182249773904,0.8612411163258802,0.5581568479537964,0.6074087619781494,-0.5652570128440857,0,0,0,-1,-1,4672.949212375001,unknown,2,2022-06-30T09:46:13.233+02:00,2022-06-30T08:20:05.567+02:00,1379,1.385177,0,0,1089.191,0,0,2022-06-30T09:44:05.799+02:00
2022-06-30T09:46:13.924+02:00,4673.641001,-2.268264770507812,0.9429168701171875,0.8401031494140625,4673.631050375,-0.1467070987225797,0.8929231284113961,-0.6057260644547704,1.152145028114319,8.979947090148926,5.713748931884766,-2.832989454269409,0.321570873260498,1.217085599899292,XArbitraryZVertical,-0.2380922793274351,0.4307325307282792,-0.1915283805556277,0.8491751787220642,0.6403318643569946,0.5693591237068176,-0.5155631303787231,0,0,0,-1,-1,4672.949212375001,unknown,2,2022-06-30T09:46:13.233+02:00,2022-06-30T08:20:05.567+02:00,1379,1.385177,0,0,1089.191,0,0,2022-06-30T09:44:05.799+02:00
2022-06-30T09:46:13.934+02:00,4673.650953,-2.391708374023438,0.761688232421875,1.043136596679688,4673.641001,-0.1198949814196477,0.9955964529794571,-0.5510581154632409,1.610952496528625,8.73314094543457,5.838046073913574,-2.888367414474487,0.4599312543869019,1.191501379013062,XArbitraryZVertical,-0.2110805929691607,0.4729775825752755,-0.1803262311197657,0.836193585667903,0.7148749232292175,0.523589015007019,-0.4634743928909302,0,0,0,-1,-1,4672.949212375001,unknown,2,2022-06-30T09:46:13.233+02:00,2022-06-30T08:20:05.567+02:00,1379,1.385177,0,0,1089.191,0,0,2022-06-30T09:44:05.799+02:00
2022-06-30T09:46:13.944+02:00,4673.660904,-2.525344848632812,0.551055908203125,1.317367553710938,4673.650953,-0.1038489208905862,1.090465432367347,-0.4916278773718338,1.971575736999512,8.761576652526855,5.885434627532959,-3.050074338912964,0.4708550572395325,1.247450232505798,XArbitraryZVertical,-0.1816742310411514,0.5131479131916835,-0.1690750618453285,0.8216370632970335,0.7818095088005066,0.4720616042613983,-0.4073473811149597,0,0,0,-1,-1,4672.949212375001,unknown,2,2022-06-30T09:46:13.233+02:00,2022-06-30T08:20:05.567+02:00,1379,1.385177,0,0,1089.191,0,0,2022-06-30T09:44:05.799+02:00
2022-06-30T09:46:13.954+02:00,4673.670856000001,-2.585220336914062,0.379180908203125,1.554489135742188,4673.660904,-0.0975782390286434,1.181466444546608,-0.4300278234217098,2.208028554916382,8.993404388427734,5.815743923187256,-3.232639789581299,0.3447918593883514,1.388146638870239,XArbitraryZVertical,-0.1504545763606467,0.5521396776581959,-0.1582664947199324,0.804647076561244,0.8409312963485718,0.4168961048126221,-0.3450103998184204,0,0,0,-1,-1,4672.949212375001,unknown,2,2022-06-30T09:46:13.233+02:00,2022-06-30T08:20:05.567+02:00,1379,1.385177,0,0,1089.191,0,0,2022-06-30T09:44:05.799+02:00
2022-06-30T09:46:13.964+02:00,4673.680808,-2.518753051757812,0.275054931640625,1.809982299804688,4673.670856000001,-0.09999995652495436,1.271823324331763,-0.368036600622591,2.424424648284912,9.370420455932617,5.781887531280518,-3.416990518569946,0.1912714242935181,1.592182517051697,XArbitraryZVertical,-0.1178482152582302,0.5905117722907703,-0.148069811259383,0.7845272474629746,0.891645610332489,0.3597842156887054,-0.2748152911663055,0,0,0,-1,-1,4672.949212375001,unknown,2,2022-06-30T09:46:13.233+02:00,2022-06-30T08:20:05.567+02:00,1379,1.385177,0,0,1089.191,0,0,2022-06-30T09:44:05.799+02:00
2022-06-30T09:46:13.974+02:00,4673.690759,-2.377105712890625,0.165069580078125,2.023391723632812,4673.680808,-0.1096213933904178,1.363975039597003,-0.3058256971509158,2.40390682220459,9.787938117980957,5.879720687866211,-3.518496513366699,0.07809996604919434,1.750310301780701,XArbitraryZVertical,-0.08394087782839915,0.628524618437595,-0.1379004554775377,0.7608509849215354,0.9332761764526367,0.3010806739330292,-0.1958214640617371,0,0,0,-1,-1,4672.949212375001,unknown,2,2022-06-30T09:46:13.233+02:00,2022-06-30T08:20:05.567+02:00,1379,1.385177,0,0,1089.191,0,0,2022-06-30T09:44:05.799+02:00
2022-06-30T09:46:13.983+02:00,4673.700711,-2.255477905273438,-0.0099334716796875,2.039398193359375,4673.690759,-0.1220282094771362,1.459452611050913,-0.2441825998434801,1.85659658908844,10.05710697174072,5.948307514190674,-3.483079671859741,0.03329141438007355,1.917799711227417,XArbitraryZVertical,-0.05025859098758771,0.6660069467825643,-0.1261516811908431,0.733481181554142,0.9643267393112183,0.24176324903965,-0.107817642390728,0,0,0,-1,-1,4672.949212375001,unknown,2,2022-06-30T09:46:13.233+02:00,2022-06-30T08:20:05.567+02:00,1379,1.385177,0,0,1089.191,0,0,2022-06-30T09:44:05.799+02:00
2022-06-30T09:46:13.993+02:00,4673.710663,-2.1309814453125,-0.101470947265625,2.01312255859375,4673.700711,-0.1328833889159196,1.557471740904539,-0.1843217378281414,1.012750864028931,10.10918426513672,5.927035331726074,-3.360079288482666,-0.01821054518222809,2.036489963531494,XArbitraryZVertical,-0.01892782288588741,0.7022054494782993,-0.1115557417754946,0.7029256180544206,0.9829733967781067,0.1832797974348068,-0.01309848856180906,0,0,0,-1,-1,4672.949212375001,unknown,2,2022-06-30T09:46:13.233+02:00,2022-06-30T08:20:05.567+02:00,1379,1.385177,0,0,1089.191,0,0,2022-06-30T09:44:05.799+02:00
2022-06-30T09:46:14.003+02:00,4673.720614,-1.996383666992188,-0.081298828125,1.883621215820312,4673.710663,-0.1411843988341944,1.656056569268491,-0.1248770621342205,0.2181267589330673,9.968363761901855,6.089895248413086,-3.244086742401123,-0.1344865262508392,1.954904079437256,XArbitraryZVertical,0.009757268473920975,0.7363095327335633,-0.09345880594388732,0.67008844350068,0.9886088371276855,0.1245527565479279,0.08449386805295944,0,0,0,-1,-1,4672.949212375001,unknown,2,2022-06-30T09:46:13.233+02:00,2022-06-30T08:20:05.567+02:00,1379,1.385177,0,0,1089.191,0,0,2022-06-30T09:44:05.799+02:00
2022-06-30T09:46:14.013+02:00,4673.730566,-1.860214233398438,-0.0522003173828125,1.688980102539062,4673.720614,-0.1490250383756108,1.752627785470998,-0.06354559333178378,-0.2478595823049545,9.603135108947754,6.332509517669678,-3.112510442733765,-0.1649740636348724,1.832656145095825,XArbitraryZVertical,0.03689809173416787,0.767379716104768,-0.07196084495174304,0.6360728699157483,0.9815292954444885,0.06350283324718475,0.1804661899805069,0,0,0,-1,-1,4672.949212375001,unknown,2,2022-06-30T09:46:13.233+02:00,2022-06-30T08:20:05.567+02:00,1379,1.385177,0,0,1089.191,0,0,2022-06-30T09:44:05.799+02:00
2022-06-30T09:46:14.023+02:00,4673.740517,-1.7823486328125,-0.0284881591796875,1.499908447265625,4673.730566,-0.1621700578911535,1.84476581353605,-0.0008150140061995275,0.05622647330164909,9.045628547668457,6.532682418823242,-2.95908784866333,-0.08211414515972137,1.613066077232361,XArbitraryZVertical,0.06431215776414005,0.7944440819135816,-0.04923916773596556,0.6019119835812295,0.9627041816711426,0.0008150138892233372,0.2705549001693726,0,0,0,-1,-1,4672.949212375001,unknown,2,2022-06-30T09:46:13.233+02:00,2022-06-30T08:20:05.567+02:00,1379,1.385177,0,0,1089.191,0,0,2022-06-30T09:44:05.799+02:00
