loggingTime(txt),accelerometerTimestamp_sinceReboot(s),accelerometerAccelerationX(G),accelerometerAccelerationY(G),accelerometerAccelerationZ(G),motionTimestamp_sinceReboot(s),motionYaw(rad),motionRoll(rad),motionPitch(rad),motionRotationRateX(rad/s),motionRotationRateY(rad/s),motionRotationRateZ(rad/s),motionUserAccelerationX(G),motionUserAccelerationY(G),motionUserAccelerationZ(G),motionAttitudeReferenceFrame(txt),motionQuaternionX(R),motionQuaternionY(R),motionQuaternionZ(R),motionQuaternionW(R),motionGravityX(G),motionGravityY(G),motionGravityZ(G),motionMagneticFieldX(µT),motionMagneticFieldY(µT),motionMagneticFieldZ(µT),motionHeading(°),motionMagneticFieldCalibrationAccuracy(Z),activityTimestamp_sinceReboot(s),activity(txt),activityActivityConfidence(Z),activityActivityStartDate(txt),pedometerStartDate(txt),pedometerNumberofSteps(N),pedometerAverageActivePace(s/m),pedometerCurrentPace(s/m),pedometerCurrentCadence(steps/s),pedometerDistance(m),pedometerFloorAscended(N),pedometerFloorDescended(N),pedometerEndDate(txt)
2022-06-30T09:46:20.981+02:00,4680.686746791667,0.007080078125,-0.2276611328125,-0.9567108154296875,4680.676794791667,0.3683674836443323,-0.01509920628946393,0.2273974420817386,-0.1143366768956184,-0.01690681837499142,-0.04072218015789986,0.1104278936982155,-0.002950936555862427,0.01868581771850586,XArbitraryZVertical,0.1129055006506403,0.01340390703461196,0.1811144026818154,0.9768675955807532,-0.01470994018018246,-0.2254427373409271,-0.9741453528404236,0,0,0,-1,-1,4680.590569625,running,2,2022-06-30T09:46:20.875+02:00,2022-06-30T08:20:05.567+02:00,1379,1.385177,0,0,1089.191,0,0,2022-06-30T09:44:05.799+02:00
2022-06-30T09:46:20.986+02:00,4680.696698791667,0.001251220703125,-0.209625244140625,-0.950836181640625,4680.686746791667,0.367727595535753,-0.0135134472612319,0.2267107474800076,-0.135078176856041,0.03555585816502571,-0.009564794600009918,0.06562653928995132,-0.01594911515712738,0.01475787162780762,XArbitraryZVertical,0.1124310636808979,0.01407973652207122,0.1809006965723923,0.9769523916334976,-0.01316725090146065,-0.2247736603021622,-0.9743220210075378,0,0,0,-1,-1,4680.590569625,running,2,2022-06-30T09:46:20.875+02:00,2022-06-30T08:20:05.567+02:00,1379,1.385177,0,0,1089.191,0,0,2022-06-30T09:44:05.799+02:00
2022-06-30T09:46:20.989+02:00,4680.706649791667,0.017852783203125,-0.2313385009765625,-0.949005126953125,4680.696698791667,0.3675550330539377,-0.01202043042447633,0.2261205392992824,-0.1470053344964981,0.08532383292913437,0.01379575487226248,0.01879379898309708,-0.003462731838226318,0.01776230335235596,XArbitraryZVertical,0.1120090330430232,0.01474556854782714,0.1809081136020006,0.9769896454589323,-0.01171415019780397,-0.2241985201835632,-0.9744731187820435,0,0,0,-1,-1,4680.590569625,running,2,2022-06-30T09:46:20.875+02:00,2022-06-30T08:20:05.567+02:00,1379,1.385177,0,0,1089.191,0,0,2022-06-30T09:44:05.799+02:00
2022-06-30T09:46:20.999+02:00,4680.716601791667,0.056732177734375,-0.274566650390625,-0.94482421875,4680.706649791667,0.3674363503025941,-0.01074658468628891,0.2246860143616163,-0.2000296711921692,0.09420228004455566,-0.01834193989634514,0.01172704994678497,0.01317492127418518,0.02397167682647705,XArbitraryZVertical,0.1111940628951962,0.01523056241974616,0.1809399343504968,0.9770694594781724,-0.0104762576520443,-0.2228002846240997,-0.9748077988624573,0,0,0,-1,-1,4680.590569625,running,2,2022-06-30T09:46:20.875+02:00,2022-06-30T08:20:05.567+02:00,1379,1.385177,0,0,1089.191,0,0,2022-06-30T09:44:05.799+02:00
2022-06-30T09:46:21.009+02:00,4680.726553791667,0.035491943359375,-0.254241943359375,-0.9520111083984375,4680.716601791667,0.3675100531223024,-0.009885180187819625,0.2225532338109998,-0.2152859270572662,0.08079148828983307,0.05007430166006088,0.02749358117580414,-0.01061801612377167,0.02628433704376221,XArbitraryZVertical,0.1100737795536296,0.01546127172040959,0.1810507139657886,0.9771721100280175,-0.009641225449740887,-0.2207206040620804,-0.9752894043922424,0,0,0,-1,-1,4680.590569625,running,2,2022-06-30T09:46:20.875+02:00,2022-06-30T08:20:05.567+02:00,1379,1.385177,0,0,1089.191,0,0,2022-06-30T09:44:05.799+02:00
2022-06-30T09:46:21.019+02:00,4680.736504791667,0.0359039306640625,-0.224609375,-0.9532470703125,4680.726553791667,0.3676808136488746,-0.008918924735381121,0.2206779804516348,-0.2093063294887543,0.1032621711492538,-0.01205485034734011,0.06543426960706711,-0.05567553639411926,0.03088629245758057,XArbitraryZVertical,0.1090688467030275,0.01577194858358221,0.1812103271817403,0.9772503275952529,-0.008702519349753857,-0.2188912183046341,-0.9757104516029358,0,0,0,-1,-1,4680.590569625,running,2,2022-06-30T09:46:20.875+02:00,2022-06-30T08:20:05.567+02:00,1379,1.385177,0,0,1089.191,0,0,2022-06-30T09:44:05.799+02:00
2022-06-30T09:46:21.029+02:00,4680.746456791667,0.0189208984375,-0.2328338623046875,-0.9500732421875,4680.736504791667,0.3674705381297673,-0.008375570136061971,0.2190212736149396,-0.2206524014472961,0.06935944408178329,-0.03497990593314171,0.04366690292954445,-0.0369676798582077,0.02406525611877441,XArbitraryZVertical,0.1082118764205045,0.01587517893257652,0.1811571939678225,0.9773537960317966,-0.008175387047231197,-0.2172743827104568,-0.9760763645172119,0,0,0,-1,-1,4680.590569625,running,2,2022-06-30T09:46:20.875+02:00,2022-06-30T08:20:05.567+02:00,1379,1.385177,0,0,1089.191,0,0,2022-06-30T09:44:05.799+02:00
2022-06-30T09:46:21.039+02:00,4680.756407791667,0.0063629150390625,-0.2704925537109375,-0.9402008056640625,4680.746456791667,0.3672268346513627,-0.007375322356111999,0.2172489765587046,-0.2157364636659622,0.06456815451383591,0.002516335807740688,0.04310539737343788,-0.009065389633178711,0.02322053909301758,XArbitraryZVertical,0.1072572577626547,0.01618962073793631,0.1811130158859167,0.9774619741886525,-0.007201893720775843,-0.2155440896749496,-0.9764675498008728,0,0,0,-1,-1,4680.590569625,running,2,2022-06-30T09:46:20.875+02:00,2022-06-30T08:20:05.567+02:00,1379,1.385177,0,0,1089.191,0,0,2022-06-30T09:44:05.799+02:00
2022-06-30T09:46:21.049+02:00,4680.766359791667,-0.08758544921875,-0.2594757080078125,-0.9433135986328125,4680.756407791667,0.3675636353468851,-0.00544854384604459,0.2145085345956931,-0.3267878293991089,0.09036612510681152,0.07361524552106857,0.02424411103129387,-0.019966721534729,0.02699339389801025,XArbitraryZVertical,0.105740614580831,0.01689997969100352,0.1814114910064865,0.9775598158183116,-0.005323642864823341,-0.2128672450780869,-0.9770666360855103,0,0,0,-1,-1,4680.590569625,running,2,2022-06-30T09:46:20.875+02:00,2022-06-30T08:20:05.567+02:00,1379,1.385177,0,0,1089.191,0,0,2022-06-30T09:44:05.799+02:00
2022-06-30T09:46:21.059+02:00,4680.776311791667,-0.0137481689453125,-0.264801025390625,-0.93939208984375,4680.766359791667,0.3657429174061654,-0.003104254987350492,0.2115541523281053,-0.3881515860557556,0.1705882698297501,-0.4515180587768555,0.009397529065608978,-0.06051300466060638,0.03750026226043701,XArbitraryZVertical,0.1041000012083851,0.0176823815856154,0.1806761181968346,0.9778582421105485,-0.003035043133422732,-0.2099796533584595,-0.9777010679244995,0,0,0,-1,-1,4680.590569625,running,2,2022-06-30T09:46:20.875+02:00,2022-06-30T08:20:05.567+02:00,1379,1.385177,0,0,1089.191,0,0,2022-06-30T09:44:05.799+02:00
2022-06-30T09:46:21.069+02:00,4680.786262791667,0.108306884765625,-0.2839202880859375,-0.95245361328125,4680.776311791667,0.3601539974245112,2.132294664570461e-05,0.2078667956206791,-0.4168836176395416,0.2025981992483139,-0.5385300517082214,-0.08760674297809601,-0.05310273170471191,0.03515982627868652,XArbitraryZVertical,0.1020668895274466,0.01859195991382549,0.1781399181376507,0.9785207905528875,2.086393578792922e-05,-0.2063730806112289,-0.9784733653068542,0,0,0,-1,-1,4680.590569625,running,2,2022-06-30T09:46:20.875+02:00,2022-06-30T08:20:05.567+02:00,1379,1.385177,0,0,1089.191,0,0,2022-06-30T09:44:05.799+02:00
2022-06-30T09:46:21.079+02:00,4680.796214791667,0.1077880859375,-0.2849273681640625,-0.9525604248046875,4680.786262791667,0.3560770366070029,0.002820753246372897,0.2034722103741118,-0.4867857396602631,0.1830370128154755,-0.2505650818347931,-0.01651115342974663,-0.06272999942302704,0.03997492790222168,XArbitraryZVertical,0.09970673581861712,0.01936722785126509,0.1763245127401406,0.9790777326287945,0.002762559801340103,-0.2020711302757263,-0.9793669581413269,0,0,0,-1,-1,4680.590569625,running,2,2022-06-30T09:46:20.875+02:00,2022-06-30T08:20:05.567+02:00,1379,1.385177,0,0,1089.191,0,0,2022-06-30T09:44:05.799+02:00
2022-06-30T09:46:21.089+02:00,4680.806166791667,0.066192626953125,-0.26422119140625,-0.9542694091796875,4680.796214791667,0.3544320030600375,0.004606002244908139,0.1983549241255622,-0.5328018665313721,0.1333921849727631,-0.1193574666976929,0.1037907898426056,-0.08686362206935883,0.02792811393737793,XArbitraryZVertical,0.09705995180151204,0.01971107633528726,0.1756475588562543,0.9794584192679052,0.004515672102570534,-0.1970567852258682,-0.9803816676139832,0,0,0,-1,-1,4680.590569625,running,2,2022-06-30T09:46:20.875+02:00,2022-06-30T08:20:05.567+02:00,1379,1.385177,0,0,1089.191,0,0,2022-06-30T09:44:05.799+02:00
2022-06-30T09:46:21.099+02:00,4680.816117791667,0.0268707275390625,-0.23944091796875,-0.961578369140625,4680.806166791667,0.3527915018837746,0.005709874588436767,0.1928899831813919,-0.5559154152870178,0.05569472536444664,-0.2335796505212784,0.1021837070584297,-0.09323139488697052,0.02887797355651855,XArbitraryZVertical,0.09430222968383103,0.01969567085711908,0.1749368223400158,0.9798553149142101,0.005603950936347246,-0.1916960775852203,-0.9814383387565613,0,0,0,-1,-1,4680.590569625,running,2,2022-06-30T09:46:20.875+02:00,2022-06-30T08:20:05.567+02:00,1379,1.385177,0,0,1089.191,0,0,2022-06-30T09:44:05.799+02:00
2022-06-30T09:46:21.109+02:00,4680.826069791667,0.00311279296875,-0.2061767578125,-0.966064453125,4680.816117791667,0.3498746245498042,0.006462165173741126,0.1873467041963796,-0.5411974191665649,0.0237018596380949,-0.3351338505744934,0.05984315276145935,-0.07796861231327057,0.02821201086044312,XArbitraryZVertical,0.09154844048335418,0.01944740458901544,0.1735800646116853,0.9803625332047388,0.006349045317620039,-0.1862526834011078,-0.9824813604354858,0,0,0,-1,-1,4680.590569625,running,2,2022-06-30T09:46:20.875+02:00,2022-06-30T08:20:05.567+02:00,1379,1.385177,0,0,1089.191,0,0,2022-06-30T09:44:05.799+02:00
2022-06-30T09:46:21.119+02:00,4680.836020791667,-0.01153564453125,-0.1731719970703125,-0.967437744140625,4680.826069791667,0.3465600105025739,0.007241425975887922,0.1820278566843475,-0.5135517120361328,0.04875608161091805,-0.3241272568702698,0.01974857598543167,-0.05841673910617828,0.02187448740005493,XArbitraryZVertical,0.08890497438179104,0.01922205638514266,0.1720235851599823,0.9808843940968756,0.007121725473552942,-0.1810242980718613,-0.9834528565406799,0,0,0,-1,-1,4680.590569625,running,2,2022-06-30T09:46:20.875+02:00,2022-06-30T08:20:05.567+02:00,1379,1.385177,0,0,1089.191,0,0,2022-06-30T09:44:05.799+02:00
2022-06-30T09:46:21.129+02:00,4680.845972791667,-0.009368896484375,-0.1597442626953125,-0.9677886962890625,4680.836020791667,0.3434273200083626,0.008390335600749576,0.1771427998148448,-0.4550106525421143,0.1032011434435844,-0.3162138164043427,-0.00514657236635685,-0.0299590677022934,0.01825213432312012,XArbitraryZVertical,0.08643996589734448,0.01923162935505486,0.1705653836768252,0.9813591772448939,0.00825893972069025,-0.1762178093194962,-0.9843165278434753,0,0,0,-1,-1,4680.590569625,running,2,2022-06-30T09:46:20.875+02:00,2022-06-30T08:20:05.567+02:00,1379,1.385177,0,0,1089.191,0,0,2022-06-30T09:44:05.799+02:00
2022-06-30T09:46:21.139+02:00,4680.855924791667,0.008209228515625,-0.16778564453125,-0.9651336669921875,4680.845972791667,0.3400885310575192,0.01003004475216196,0.1727462918997466,-0.419691264629364,0.1427027434110641,-0.3663427531719208,-0.02141666784882545,-0.001283720135688782,0.01762914657592773,XArbitraryZVertical,0.08417502642417793,0.01952247326402955,0.1690193862614155,0.9818176795006934,0.009880595840513706,-0.1718884110450745,-0.9850668907165527,0,0,0,-1,-1,4680.590569625,running,2,2022-06-30T09:46:20.875+02:00,2022-06-30T08:20:05.567+02:00,1379,1.385177,0,0,1089.191,0,0,2022-06-30T09:44:05.799+02:00
2022-06-30T09:46:21.149+02:00,4680.865875791667,0.0244140625,-0.1922760009765625,-0.958953857421875,4680.855924791667,0.3361620177777043,0.01195636718789924,0.1684978115329614,-0.4280012547969818,0.1461043506860733,-0.4251902997493744,-0.02115608006715775,0.007957234978675842,0.01797866821289062,XArbitraryZVertical,0.08196539155871434,0.01995013968228826,0.1671903529001071,0.9823089954048615,0.01178675796836615,-0.1677016317844391,-0.9857673048973083,0,0,0,-1,-1,4680.590569625,running,2,2022-06-30T09:46:20.875+02:00,2022-06-30T08:20:05.567+02:00,1379,1.385177,0,0,1089.191,0,0,2022-06-30T09:44:05.799+02:00
2022-06-30T09:46:21.159+02:00,4680.875827791667,0.028533935546875,-0.20477294921875,-0.9526824951171875,4680.865875791667,0.3318139486537501,0.01390216791981324,0.1638794143192644,-0.4874049425125122,0.1401569694280624,-0.4504727423191071,-0.005506658926606178,-0.004638910293579102,0.02137279510498047,XArbitraryZVertical,0.07957814690768419,0.02034920634126429,0.1651499572038003,0.9828421920873635,0.01371546182781458,-0.1631468683481216,-0.986506462097168,0,0,0,-1,-1,4680.590569625,running,2,2022-06-30T09:46:20.875+02:00,2022-06-30T08:20:05.567+02:00,1379,1.385177,0,0,1089.191,0,0,2022-06-30T09:44:05.799+02:00
2022-06-30T09:46:21.169+02:00,4680.885779791667,0.01776123046875,-0.1973419189453125,-0.9501190185546875,4680.875827791667,0.3273574033738379,0.01585446162188911,0.1584843757859378,-0.5820448398590088,0.1446960419416428,-0.4536270201206207,0.008758528158068657,-0.03445437550544739,0.02838969230651855,XArbitraryZVertical,0.07681115571220715,0.02069515883664532,0.1630515034843803,0.9834053640926211,0.01565511152148247,-0.1578217595815659,-0.9873434901237488,0,0,0,-1,-1,4680.590569625,running,2,2022-06-30T09:46:20.875+02:00,2022-06-30T08:20:05.567+02:00,1379,1.385177,0,0,1089.191,0,0,2022-06-30T09:44:05.799+02:00
2022-06-30T09:46:21.179+02:00,4680.895730791667,0.0178680419921875,-0.1911468505859375,-0.948577880859375,4680.885779791667,0.3229507381292289,0.01784684919340093,0.1520025005516006,-0.7048572897911072,0.1584565937519073,-0.4498778283596039,0.01089337654411793,-0.05335523188114166,0.03562992811203003,XArbitraryZVertical,0.07350688293886884,0.02098862026142888,0.1609727762392245,0.9839939297232361,0.0176401361823082,-0.1514178514480591,-0.9883124232292175,0,0,0,-1,-1,4680.590569625,running,2,2022-06-30T09:46:20.875+02:00,2022-06-30T08:20:05.567+02:00,1379,1.385177,0,0,1089.191,0,0,2022-06-30T09:44:05.799+02:00
2022-06-30T09:46:21.188+02:00,4680.905682791667,0.022857666015625,-0.184844970703125,-0.9572906494140625,4680.895730791667,0.3186481110090518,0.01996402935346047,0.1442330742999433,-0.8322942852973938,0.1783893555402756,-0.4407592117786407,-0.001994611695408821,-0.05360852181911469,0.03930026292800903,XArbitraryZVertical,0.0695584009792765,0.02126067403846692,0.1589407170172182,0.9846052691094206,0.01975541934370995,-0.1437335163354874,-0.9894192218780518,0,0,0,-1,-1,4680.590569625,running,2,2022-06-30T09:46:20.875+02:00,2022-06-30T08:20:05.567+02:00,1379,1.385177,0,0,1089.191,0,0,2022-06-30T09:44:05.799+02:00
2022-06-30T09:46:21.198+02:00,4680.915633791667,0.0269927978515625,-0.14617919921875,-0.9764556884765625,4680.905682791667,0.3144836983128151,0.0222034910912422,0.1352999413122507,-0.9311891794204712,0.1940583288669586,-0.4314820766448975,-0.004131143912672997,-0.05625945329666138,0.04203885793685913,XArbitraryZVertical,0.06502583733223531,0.02152436938812832,0.1569680379095958,0.9852256148540203,0.02199876308441162,-0.1348875164985657,-0.9906166791915894,0,0,0,-1,-1,4680.590569625,running,2,2022-06-30T09:46:20.875+02:00,2022-06-30T08:20:05.567+02:00,1379,1.385177,0,0,1089.191,0,0,2022-06-30T09:44:05.799+02:00
2022-06-30T09:46:21.208+02:00,4680.925585791667,0.0289459228515625,-0.082611083984375,-1.007415771484375,4680.915633791667,0.310457255821503,0.02453759179662397,0.1256525001007758,-0.9759852290153503,0.2066988050937653,-0.4199851751327515,-0.001484451815485954,-0.05952298641204834,0.03452682495117188,XArbitraryZVertical,0.06013230201288915,0.02180325187521639,0.1550503452500613,0.9858338068410224,0.02434169687330723,-0.1253221184015274,-0.9918174743652344,0,0,0,-1,-1,4680.590569625,running,2,2022-06-30T09:46:20.875+02:00,2022-06-30T08:20:05.567+02:00,1379,1.385177,0,0,1089.191,0,0,2022-06-30T09:44:05.799+02:00
2022-06-30T09:46:21.218+02:00,4680.935537791667,0.0350189208984375,-0.01971435546875,-1.026092529296875,4680.925585791667,0.3065228007665002,0.02701219403387456,0.1159198785272937,-0.9415856599807739,0.2351605445146561,-0.4189042150974274,0.0001647323369979858,-0.03051888942718506,0.01647078990936279,XArbitraryZVertical,0.05518492621452993,0.02216749178287349,0.1531650360898631,0.9864095175819814,0.02682764641940594,-0.1156604439020157,-0.9929264783859253,0,0,0,-1,-1,4680.590569625,running,2,2022-06-30T09:46:20.875+02:00,2022-06-30T08:20:05.567+02:00,1379,1.385177,0,0,1089.191,0,0,2022-06-30T09:44:05.799+02:00
2022-06-30T09:46:21.228+02:00,4680.945488791667,0.0468902587890625,0.001220703125,-1.02874755859375,4680.935537791667,0.302599019971544,0.02975283249771896,0.1068600368245678,-0.8469022512435913,0.2658621966838837,-0.4210025370121002,-0.0006332527846097946,0.02404556423425674,-0.01355987787246704,XArbitraryZVertical,0.050549731444626,0.02273334647744113,0.1512765430896029,0.9869363521893693,0.02957875467836857,-0.1066567823290825,-0.9938558340072632,0,0,0,-1,-1,4680.590569625,running,2,2022-06-30T09:46:20.875+02:00,2022-06-30T08:20:05.567+02:00,1379,1.385177,0,0,1089.191,0,0,2022-06-30T09:44:05.799+02:00
2022-06-30T09:46:21.238+02:00,4680.955440791667,0.062042236328125,-0.0143585205078125,-1.013824462890625,4680.945488791667,0.2986391903493264,0.03265292440485271,0.09884450947718502,-0.7337083220481873,0.2724213004112244,-0.425764262676239,0.002530727535486221,0.07896915078163147,-0.03150409460067749,XArbitraryZVertical,0.04642016548017391,0.02347270404736488,0.1493614268319144,0.9874135334108822,0.03248776867985725,-0.09868363291025162,-0.9945883750915527,0,0,0,-1,-1,4680.590569625,running,2,2022-06-30T09:46:20.875+02:00,2022-06-30T08:20:05.567+02:00,1379,1.385177,0,0,1089.191,0,0,2022-06-30T09:44:05.799+02:00
2022-06-30T09:46:21.248+02:00,4680.965392791667,0.081787109375,-0.04058837890625,-0.9884796142578125,4680.955440791667,0.2945839800800282,0.0356033844779752,0.09181702232824268,-0.6531524062156677,0.2776791453361511,-0.4375565052032471,0.01144391298294067,0.09290863573551178,-0.03359085321426392,XArbitraryZVertical,0.04277859027776926,0.02432355322489814,0.1473901966514583,0.9878535156359781,0.0354459248483181,-0.09168806672096252,-0.9951567053794861,0,0,0,-1,-1,4680.590569625,running,2,2022-06-30T09:46:20.875+02:00,2022-06-30T08:20:05.567+02:00,1379,1.385177,0,0,1089.191,0,0,2022-06-30T09:44:05.799+02:00
2022-06-30T09:46:21.258+02:00,4680.975343791667,0.096588134765625,-0.060516357421875,-0.967529296875,4680.965392791667,0.2904589733287433,0.03852640998101575,0.08522466481999949,-0.6427493095397949,0.2790802419185638,-0.4357447624206543,0.02366473525762558,0.07076287269592285,-0.01819324493408203,XArbitraryZVertical,0.03935810305297067,0.02520576197287526,0.1453732220820079,0.9882723335785847,0.03837708756327629,-0.08512153476476669,-0.995631217956543,0,0,0,-1,-1,4680.590569625,running,2,2022-06-30T09:46:20.875+02:00,2022-06-30T08:20:05.567+02:00,1379,1.385177,0,0,1089.191,0,0,2022-06-30T09:44:05.799+02:00
2022-06-30T09:46:21.268+02:00,4680.985295791667,0.1032867431640625,-0.0801544189453125,-0.9563751220703125,4680.975343791667,0.286498289562453,0.0414028179307328,0.07839335411066409,-0.7019581198692322,0.273281455039978,-0.414775937795639,0.04052282124757767,0.037724569439888,0.007594823837280273,XArbitraryZVertical,0.03582410764872353,0.02606524484804783,0.1434223512226991,0.9886695217076564,0.04126387089490891,-0.07831308245658875,-0.9960744976997375,0,0,0,-1,-1,4680.590569625,running,2,2022-06-30T09:46:20.875+02:00,2022-06-30T08:20:05.567+02:00,1379,1.385177,0,0,1089.191,0,0,2022-06-30T09:44:05.799+02:00
2022-06-30T09:46:21.278+02:00,4680.995246791667,0.1016845703125,-0.0887908935546875,-0.960968017578125,4680.985295791667,0.2828388640849855,0.04414455812601235,0.07069194467159806,-0.8103958964347839,0.2623856663703918,-0.3883262276649475,0.05256771668791771,0.0101165845990181,0.02900129556655884,XArbitraryZVertical,0.03186844310869055,0.026816218977376,0.1415983208829877,0.9890476491680705,0.04402000084519386,-0.07063308358192444,-0.9965305924415588,0,0,0,-1,-1,4680.590569625,running,2,2022-06-30T09:46:20.875+02:00,2022-06-30T08:20:05.567+02:00,1379,1.385177,0,0,1089.191,0,0,2022-06-30T09:44:05.799+02:00
2022-06-30T09:46:21.288+02:00,4681.005198791667,0.0974273681640625,-0.0753326416015625,-0.9654998779296875,4680.995246791667,0.279530694396751,0.04669729527311272,0.06185137327939358,-0.9316613674163818,0.2501152157783508,-0.3574832081794739,0.05669526010751724,-0.01834261044859886,0.04062467813491821,XArbitraryZVertical,0.02736002501636305,0.02741422878018022,0.1399210242584259,0.9894049894385534,0.04659106582403183,-0.06181194260716438,-0.9969998002052307,0,0,0,-1,-1,4680.590569625,running,2,2022-06-30T09:46:20.875+02:00,2022-06-30T08:20:05.567+02:00,1379,1.385177,0,0,1089.191,0,0,2022-06-30T09:44:05.799+02:00
2022-06-30T09:46:21.298+02:00,4681.015150791667,0.08953857421875,-0.0381622314453125,-0.978515625,4681.005198791667,0.2766402753616456,0.04912423532463661,0.05180113687711625,-1.045975208282471,0.2479764074087143,-0.3182969391345978,0.05264554172754288,-0.03701306506991386,0.03648585081100464,XArbitraryZVertical,0.02225745137885125,0.0278866015705343,0.138421635692374,0.989730459207291,0.0490386113524437,-0.05177797377109528,-0.9974538683891296,0,0,0,-1,-1,4680.590569625,running,2,2022-06-30T09:46:20.875+02:00,2022-06-30T08:20:05.567+02:00,1379,1.385177,0,0,1089.191,0,0,2022-06-30T09:44:05.799+02:00
2022-06-30T09:46:21.308+02:00,4681.025101791667,0.090850830078125,0.01629638671875,-0.9852447509765625,4681.015150791667,0.2742399256213842,0.05154929683463012,0.04091509955868339,-1.102950692176819,0.2618430554866791,-0.2759526073932648,0.04594360664486885,-0.03442909941077232,0.03233593702316284,XArbitraryZVertical,0.01673535947740573,0.02831978559699066,0.1371389299242263,0.9900054657269209,0.05148334801197052,-0.04090368375182152,-0.9978358149528503,0,0,0,-1,-1,4680.590569625,running,2,2022-06-30T09:46:20.875+02:00,2022-06-30T08:20:05.567+02:00,1379,1.385177,0,0,1089.191,0,0,2022-06-30T09:44:05.799+02:00
2022-06-30T09:46:21.318+02:00,4681.035053791667,0.099761962890625,0.0645751953125,-0.9941253662109375,4681.025101791667,0.2722704460910287,0.05408895032317689,0.02980090644102439,-1.092917203903198,0.2797456383705139,-0.2406295090913773,0.03549958392977715,-0.008365876972675323,0.01957857608795166,XArbitraryZVertical,0.01108715910422412,0.02880942047184104,0.13604961741694,0.9902209467243732,0.05403857678174973,-0.02979649603366852,-0.9980942010879517,0,0,0,-1,-1,4680.590569625,running,2,2022-06-30T09:46:20.875+02:00,2022-06-30T08:20:05.567+02:00,1379,1.385177,0,0,1089.191,0,0,2022-06-30T09:44:05.799+02:00
2022-06-30T09:46:21.328+02:00,4681.045004791667,0.110809326171875,0.1043548583984375,-0.995452880859375,4681.035053791667,0.2706002982923906,0.05683050580753098,0.01922243954069958,-1.00170886516571,0.3015023767948151,-0.2127328515052795,0.03406099230051041,0.03551749885082245,0.01295638084411621,XArbitraryZVertical,0.005687214794482139,0.0294463655522925,0.1350976101335789,0.990378327027378,0.05678942799568176,-0.01922125555574894,-0.9982011318206787,0,0,0,-1,-1,4680.590569625,running,2,2022-06-30T09:46:20.875+02:00,2022-06-30T08:20:05.567+02:00,1379,1.385177,0,0,1089.191,0,0,2022-06-30T09:44:05.799+02:00
2022-06-30T09:46:21.338+02:00,4681.054956791667,0.1236419677734375,0.11553955078125,-0.9973602294921875,4681.045004791667,0.2691481230544535,0.05962465028314362,0.009724973623292847,-0.8789458870887756,0.2955206334590912,-0.1891646683216095,0.04017503932118416,0.07429987192153931,0.004050374031066895,XArbitraryZVertical,0.0008171355729157365,0.0301901525642649,0.1342506610513798,0.9904870804818509,0.05958651006221771,-0.009724820032715797,-0.9981757998466492,0,0,0,-1,-1,4680.590569625,running,2,2022-06-30T09:46:20.875+02:00,2022-06-30T08:20:05.567+02:00,1379,1.385177,0,0,1089.191,0,0,2022-06-30T09:44:05.799+02:00
2022-06-30T09:46:21.348+02:00,4681.064908791667,0.132415771484375,0.0977020263671875,-0.996856689453125,4681.054956791667,0.2678734096291541,0.06230204507377005,0.001537421389522085,-0.7403542399406433,0.2828955352306366,-0.1693404763936996,0.04854723811149597,0.1058921366930008,0.002605795860290527,XArbitraryZVertical,-0.003397672196529887,0.03096963072025092,0.1334955218079628,0.9905595438856991,0.0622616745531559,-0.00153742078691721,-0.9980586767196655,0,0,0,-1,-1,4680.590569625,running,2,2022-06-30T09:46:20.875+02:00,2022-06-30T08:20:05.567+02:00,1379,1.385177,0,0,1089.191,0,0,2022-06-30T09:44:05.799+02:00
2022-06-30T09:46:21.358+02:00,4681.074859791667,0.1360931396484375,0.062530517578125,-0.98968505859375,4681.064908791667,0.2667278458790188,0.06474926437184618,-0.005377245819339304,-0.6338962316513062,0.253765344619751,-0.1493257582187653,0.05893846601247787,0.1101621836423874,0.0005298256874084473,XArbitraryZVertical,-0.006967401199602375,0.03172411420405086,0.1328125215328709,0.9906088878732903,0.06470309197902679,0.005377219989895821,-0.9978900551795959,0,0,0,-1,-1,4680.590569625,running,2,2022-06-30T09:46:20.875+02:00,2022-06-30T08:20:05.567+02:00,1379,1.385177,0,0,1089.191,0,0,2022-06-30T09:44:05.799+02:00
2022-06-30T09:46:21.368+02:00,4681.084811791667,0.1276092529296875,0.0308380126953125,-0.988677978515625,4681.074859791667,0.2657684632519368,0.06684512335808132,-0.01154869954329725,-0.5971658825874329,0.2137841880321503,-0.1245330944657326,0.06562446057796478,0.08615344017744064,0.0008434653282165527,XArbitraryZVertical,-0.01014758611120774,0.03235654956386082,0.1322260231281277,0.9906394660538167,0.06679090112447739,0.01154844276607037,-0.9977001547813416,0,0,0,-1,-1,4680.590569625,running,2,2022-06-30T09:46:20.875+02:00,2022-06-30T08:20:05.567+02:00,1379,1.385177,0,0,1089.191,0,0,2022-06-30T09:44:05.799+02:00
2022-06-30T09:46:21.378+02:00,4681.094763791667,0.106475830078125,0.0283966064453125,-0.981689453125,4681.084811791667,0.2650266793572185,0.06856506871076612,-0.01754963927131982,-0.5929154753684998,0.1822803318500519,-0.1051921546459198,0.06759191304445267,0.04498163610696793,0.007811665534973145,XArbitraryZVertical,-0.01322121450906509,0.03281532721028235,0.1317450118461802,0.9906521734285667,0.06850080937147141,0.01754873804748058,-0.9974967241287231,0,0,0,-1,-1,4680.590569625,running,2,2022-06-30T09:46:20.875+02:00,2022-06-30T08:20:05.567+02:00,1379,1.385177,0,0,1089.191,0,0,2022-06-30T09:44:05.799+02:00
2022-06-30T09:46:21.387+02:00,4681.104714791667,0.091400146484375,0.047576904296875,-0.983062744140625,4681.094763791667,0.2645089341779333,0.07006950714131381,-0.02360585756163732,-0.6115904450416565,0.1686575710773468,-0.07990377396345139,0.05761616677045822,0.007234204560518265,0.008590221405029297,XArbitraryZVertical,-0.01631114287740016,0.03316382299258078,0.1313693389253415,0.9906443874049037,0.06999267637729645,0.02360366471111774,-0.9972681999206543,0,0,0,-1,-1,4680.590569625,running,2,2022-06-30T09:46:20.875+02:00,2022-06-30T08:20:05.567+02:00,1379,1.385177,0,0,1089.191,0,0,2022-06-30T09:44:05.799+02:00
2022-06-30T09:46:21.397+02:00,4681.114666791667,0.082000732421875,0.06201171875,-0.9782257080078125,4681.104714791667,0.264314316307084,0.07151010104474988,-0.02974008095651572,-0.6041232347488403,0.1677025556564331,-0.04537801817059517,0.03505785018205643,-0.001339234411716461,0.01531368494033813,XArbitraryZVertical,-0.01944042448650122,0.03347365048804129,0.1311470913379133,0.99060699333491,0.07141757756471634,0.02973569743335247,-0.9970031976699829,0,0,0,-1,-1,4680.590569625,running,2,2022-06-30T09:46:20.875+02:00,2022-06-30T08:20:05.567+02:00,1379,1.385177,0,0,1089.191,0,0,2022-06-30T09:44:05.799+02:00
2022-06-30T09:46:21.408+02:00,4681.124617791667,0.0844268798828125,0.069915771484375,-0.971832275390625,4681.114666791667,0.2644169749275329,0.07297278103939868,-0.03553582306986067,-0.5485327839851379,0.1763420850038528,-0.01780198514461517,0.0185377299785614,0.01204841583967209,0.01364624500274658,XArbitraryZVertical,-0.02240814654730305,0.03381369614189827,0.1310726809290407,0.9905426132472491,0.07286200672388077,0.03552834317088127,-0.9967089891433716,0,0,0,-1,-1,4680.590569625,running,2,2022-06-30T09:46:20.875+02:00,2022-06-30T08:20:05.567+02:00,1379,1.385177,0,0,1089.191,0,0,2022-06-30T09:44:05.799+02:00
2022-06-30T09:46:21.417+02:00,4681.134569791667,0.0902252197265625,0.0676422119140625,-0.9693450927734375,4681.124617791667,0.2647170699272297,0.07449387789283927,-0.04064385480494408,-0.4750556349754333,0.1726637184619904,0.00689004547894001,0.007636785507202148,0.02137890830636024,0.018177330493927,XArbitraryZVertical,-0.02504223932638729,0.03422510707223554,0.1311035639155253,0.9904611968155714,0.07436353713274002,0.04063266515731812,-0.9964030385017395,0,0,0,-1,-1,4680.590569625,running,2,2022-06-30T09:46:20.875+02:00,2022-06-30T08:20:05.567+02:00,1379,1.385177,0,0,1089.191,0,0,2022-06-30T09:44:05.799+02:00
2022-06-30T09:46:21.427+02:00,4681.144521791667,0.0919647216796875,0.055633544921875,-0.9696807861328125,4681.134569791667,0.2651736238674049,0.0759265874046592,-0.045107966674765,-0.4237244427204132,0.1585636287927628,0.02077223733067513,0.008649967610836029,0.02482295781373978,0.0242723822593689,XArbitraryZVertical,-0.0273542476640211,0.0346322871250835,0.1312214111001202,0.9903702523654971,0.07577650249004364,0.04509267210960388,-0.9961047172546387,0,0,0,-1,-1,4680.590569625,running,2,2022-06-30T09:46:20.875+02:00,2022-06-30T08:20:05.567+02:00,1379,1.385177,0,0,1089.191,0,0,2022-06-30T09:44:05.799+02:00
2022-06-30T09:46:21.441+02:00,4681.154472791667,0.0890655517578125,0.043609619140625,-0.971160888671875,4681.144521791667,0.2657494563698019,0.07714936237344582,-0.04925707403515233,-0.4169291257858276,0.1309157609939575,0.03324169293045998,0.01324543356895447,0.01840491220355034,0.02647107839584351,XArbitraryZVertical,-0.02949852789590928,0.03495344448393402,0.1314040342665705,0.9902732347343383,0.0769793689250946,0.04923715814948082,-0.995816171169281,0,0,0,-1,-1,4680.590569625,running,2,2022-06-30T09:46:20.875+02:00,2022-06-30T08:20:05.567+02:00,1379,1.385177,0,0,1089.191,0,0,2022-06-30T09:44:05.799+02:00
2022-06-30T09:46:21.457+02:00,4681.164424791667,0.084197998046875,0.03509521484375,-0.9808349609375,4681.154472791667,0.2664303391344032,0.07809324012850624,-0.05344821436250616,-0.428714245557785,0.1020551919937134,0.042402233928442,0.0140618309378624,0.002210631966590881,0.02584779262542725,XArbitraryZVertical,-0.03164705271993758,0.03513060861452808,0.1316390207809346,0.9901694274260301,0.07790248095989227,0.05342277139425278,-0.9955286383628845,0,0,0,-1,-1,4680.590569625,running,2,2022-06-30T09:46:20.875+02:00,2022-06-30T08:20:05.567+02:00,1379,1.385177,0,0,1089.191,0,0,2022-06-30T09:44:05.799+02:00
2022-06-30T09:46:21.459+02:00,4681.174376791667,0.0726470947265625,0.0429840087890625,-0.9924774169921875,4681.164424791667,0.2672109182396717,0.07875287211506826,-0.05775501053909981,-0.4397375881671906,0.07312474399805069,0.05042873695492744,0.01052482426166534,-0.01411342993378639,0.02407747507095337,XArbitraryZVertical,-0.03383571796003996,0.03515595630047552,0.1319230626259165,0.9900583532730005,0.07854031771421432,0.05772290751338005,-0.9952384233474731,0,0,0,-1,-1,4680.590569625,running,2,2022-06-30T09:46:20.875+02:00,2022-06-30T08:20:05.567+02:00,1379,1.385177,0,0,1089.191,0,0,2022-06-30T09:44:05.799+02:00
2022-06-30T09:46:21.467+02:00,4681.184327791667,0.057281494140625,0.055084228515625,-0.998687744140625,4681.174376791667,0.2681084382975131,0.07911426999390359,-0.06212616876435499,-0.4432547688484192,0.04120739921927452,0.05923710763454437,0.005318291485309601,-0.02699114009737968,0.01411396265029907,XArbitraryZVertical,-0.03603836504669743,0.0350253423808173,0.1322668588998282,0.9899394173032379,0.07887929677963257,0.06208621338009834,-0.9949489235877991,0,0,0,-1,-1,4680.590569625,running,2,2022-06-30T09:46:20.875+02:00,2022-06-30T08:20:05.567+02:00,1379,1.385177,0,0,1089.191,0,0,2022-06-30T09:44:05.799+02:00
2022-06-30T09:46:21.477+02:00,4681.194279791667,0.0496673583984375,0.0671539306640625,-0.997589111328125,4681.184327791667,0.2690654004369855,0.07923272352066489,-0.06638580043628298,-0.4163999855518341,0.02561565488576889,0.06570379436016083,-0.006328821182250977,-0.02335318177938461,0.002189457416534424,XArbitraryZVertical,-0.03817044447911685,0.03477874187730647,0.1326456583010069,0.9898175045995828,0.07897550612688065,0.06633704900741577,-0.9946669340133667,0,0,0,-1,-1,4680.590569625,running,2,2022-06-30T09:46:20.875+02:00,2022-06-30T08:20:05.567+02:00,1379,1.385177,0,0,1089.191,0,0,2022-06-30T09:44:05.799+02:00
2022-06-30T09:46:21.487+02:00,4681.204230791667,0.0495452880859375,0.069671630859375,-0.99322509765625,4681.194279791667,0.2699937072772504,0.07926459795356867,-0.07033308570285704,-0.3815615177154541,0.02073007449507713,0.06120767816901207,-0.0217047780752182,-0.01519103348255157,-0.004292130470275879,XArbitraryZVertical,-0.04014135156409523,0.03450888304085754,0.1330179455725036,0.9896990482847186,0.07898585498332977,0.07027511298656464,-0.9943956136703491,0,0,0,-1,-1,4680.590569625,running,2,2022-06-30T09:46:20.875+02:00,2022-06-30T08:20:05.567+02:00,1379,1.385177,0,0,1089.191,0,0,2022-06-30T09:44:05.799+02:00
2022-06-30T09:46:21.497+02:00,4681.214182791667,0.0518951416015625,0.072784423828125,-0.9853057861328125,4681.204230791667,0.2707984075581485,0.07920639692187217,-0.07386207515830123,-0.3265787065029144,0.006704536266624928,0.04804074391722679,-0.0292409211397171,-0.006641142070293427,-0.003442347049713135,XArbitraryZVertical,-0.04189684900005094,0.03422359469401032,0.1333395527870975,0.9895929249935639,0.07890786975622177,0.07379493117332458,-0.9941468238830566,0,0,0,-1,-1,4680.590569625,running,2,2022-06-30T09:46:20.875+02:00,2022-06-30T08:20:05.567+02:00,1379,1.385177,0,0,1089.191,0,0,2022-06-30T09:44:05.799+02:00
2022-06-30T09:46:21.507+02:00,4681.224134791667,0.0543212890625,0.079864501953125,-0.977691650390625,4681.214182791667,0.2713912966198038,0.07900430743672027,-0.07670541505544513,-0.2443935424089432,-0.005027269013226032,0.03302677348256111,-0.02914521098136902,-0.006958737969398499,0.0007244348526000977,XArbitraryZVertical,-0.04329971256758806,0.0339170552790881,0.1335743285194049,0.9895113500165036,0.07869008183479309,0.07663021981716156,-0.9939495325088501,0,0,0,-1,-1,4680.590569625,running,2,2022-06-30T09:46:20.875+02:00,2022-06-30T08:20:05.567+02:00,1379,1.385177,0,0,1089.191,0,0,2022-06-30T09:44:05.799+02:00
2022-06-30T09:46:21.517+02:00,4681.234085791667,0.05194091796875,0.0711669921875,-0.971221923828125,4681.224134791667,0.2718519937523594,0.07870299746932255,-0.07879116909110181,-0.1825727969408035,-0.01244044490158558,0.03090476617217064,-0.02648312598466873,-0.005925387144088745,0.008505880832672119,XArbitraryZVertical,-0.04431882602169278,0.03361532751223672,0.1337626701517303,0.9894511087755214,0.0783778578042984,0.0787096694111824,-0.9938117265701294,0,0,0,-1,-1,4680.590569625,running,2,2022-06-30T09:46:20.875+02:00,2022-06-30T08:20:05.567+02:00,1379,1.385177,0,0,1089.191,0,0,2022-06-30T09:44:05.799+02:00
2022-06-30T09:46:21.527+02:00,4681.244037791667,0.0494842529296875,0.05419921875,-0.9708099365234375,4681.234085791667,0.2722907291087633,0.07833143439563925,-0.08047865056402402,-0.1634854525327682,-0.01968314126133919,0.0346558652818203,-0.02367720007896423,-0.0005274415016174316,0.01601523160934448,XArbitraryZVertical,-0.04513576126392334,0.03330614740997738,0.1339506980603388,0.9893991525222844,0.0779980793595314,0.08039180189371109,-0.9937069416046143,0,0,0,-1,-1,4680.590569625,running,2,2022-06-30T09:46:20.875+02:00,2022-06-30T08:20:05.567+02:00,1379,1.385177,0,0,1089.191,0,0,2022-06-30T09:44:05.799+02:00
2022-06-30T09:46:21.537+02:00,4681.253988791667,0.0521392822265625,0.038818359375,-0.9714202880859375,4681.244037791667,0.2727475511227257,0.07786647006792462,-0.08219150379983674,-0.1877796053886414,-0.02774692699313164,0.03541113808751106,-0.02558470517396927,-0.01093214005231857,0.02238237857818604,XArbitraryZVertical,-0.04595911637065937,0.03294823370430846,0.1341494399809804,0.9893463628759086,0.07752521336078644,0.08209899812936783,-0.9936043620109558,0,0,0,-1,-1,4680.590569625,running,2,2022-06-30T09:46:20.875+02:00,2022-06-30T08:20:05.567+02:00,1379,1.385177,0,0,1089.191,0,0,2022-06-30T09:44:05.799+02:00
2022-06-30T09:46:21.547+02:00,4681.263940791667,0.05328369140625,0.0295562744140625,-0.9771270751953125,4681.253988791667,0.2732670092538531,0.07730118221058722,-0.08429863935988137,-0.2394514381885529,-0.04397112131118774,0.03858182579278946,-0.02746615558862686,-0.0299997478723526,0.02266335487365723,XArbitraryZVertical,-0.04697151926873114,0.03251172052433615,0.1343731274833851,0.9892828469168874,0.07694999128580093,0.08419883251190186,-0.9934733510017395,0,0,0,-1,-1,4680.590569625,running,2,2022-06-30T09:46:20.875+02:00,2022-06-30T08:20:05.567+02:00,1379,1.385177,0,0,1089.191,0,0,2022-06-30T09:44:05.799+02:00
2022-06-30T09:46:21.557+02:00,4681.273892791667,0.04937744140625,0.0396270751953125,-0.991180419921875,4681.263940791667,0.2738298894734126,0.07654009957974997,-0.08688090103977496,-0.276683509349823,-0.06581410020589828,0.03917677700519562,-0.02403810620307922,-0.04795341938734055,0.02189117670059204,XArbitraryZVertical,-0.04820607446260183,0.03194402128300511,0.1346129836927289,0.9892093786154904,0.07617697864770889,0.0867716446518898,-0.9933115243911743,0,0,0,-1,-1,4680.590569625,running,2,2022-06-30T09:46:20.875+02:00,2022-06-30T08:20:05.567+02:00,1379,1.385177,0,0,1089.191,0,0,2022-06-30T09:44:05.799+02:00
2022-06-30T09:46:21.567+02:00,4681.283843791667,0.0454254150390625,0.062957763671875,-0.9976348876953125,4681.273892791667,0.2744436722924815,0.07558907493906393,-0.08959166668197931,-0.2712665796279907,-0.08138721436262131,0.04470719769597054,-0.02193096280097961,-0.05991572141647339,0.01601821184158325,XArbitraryZVertical,-0.04949178473731681,0.0312715310505867,0.1348806161495419,0.9891309063109375,0.07521423697471619,0.08947186172008514,-0.9931452870368958,0,0,0,-1,-1,4680.590569625,running,2,2022-06-30T09:46:20.875+02:00,2022-06-30T08:20:05.567+02:00,1379,1.385177,0,0,1089.191,0,0,2022-06-30T09:44:05.799+02:00
2022-06-30T09:46:21.577+02:00,4681.293795791667,0.0433807373046875,0.0736846923828125,-1.008941650390625,4681.283843791667,0.2751363288219711,0.07453516900404368,-0.09221749937084563,-0.257167249917984,-0.08730635792016983,0.05688024312257767,-0.02477274835109711,-0.05245991796255112,0.001805901527404785,XArbitraryZVertical,-0.05072930948139363,0.03055124606809415,0.1351926545031659,0.9890481469332379,0.07414976507425308,0.09208685159683228,-0.9929863214492798,0,0,0,-1,-1,4680.590569625,running,2,2022-06-30T09:46:20.875+02:00,2022-06-30T08:20:05.567+02:00,1379,1.385177,0,0,1089.191,0,0,2022-06-30T09:44:05.799+02:00
2022-06-30T09:46:21.586+02:00,4681.303747791667,0.0460052490234375,0.0741424560546875,-1.0146484375,4681.293795791667,0.275838314435736,0.07345948493313055,-0.09452941127660967,-0.2102968245744705,-0.0862126424908638,0.05098140612244606,-0.02764075994491577,-0.03143106400966644,-0.00478440523147583,XArbitraryZVertical,-0.05180981223375571,0.02984090295677915,0.1355176565005709,0.9889693227512089,0.07306576520204544,0.0943886935710907,-0.9928505420684814,0,0,0,-1,-1,4680.590569625,running,2,2022-06-30T09:46:20.875+02:00,2022-06-30T08:20:05.567+02:00,1379,1.385177,0,0,1089.191,0,0,2022-06-30T09:44:05.799+02:00
2022-06-30T09:46:21.596+02:00,4681.313698791667,0.0474853515625,0.0679931640625,-1.013168334960938,4681.303747791667,0.2763169125787748,0.07233499483918354,-0.09636491744062924,-0.1618507355451584,-0.0942697674036026,0.0250395555049181,-0.02855629473924637,-0.02253128588199615,-0.01618409156799316,XArbitraryZVertical,-0.05264778222788212,0.02914474180105907,0.1357445766651832,0.9889146285368647,0.07193662226200104,0.09621584415435791,-0.9927576184272766,0,0,0,-1,-1,4680.590569625,running,2,2022-06-30T09:46:20.875+02:00,2022-06-30T08:20:05.567+02:00,1379,1.385177,0,0,1089.191,0,0,2022-06-30T09:44:05.799+02:00
2022-06-30T09:46:21.606+02:00,4681.323650791667,0.04974365234375,0.0586090087890625,-1.007919311523438,4681.313698791667,0.2765467780075059,0.07110443267400977,-0.09775724827184422,-0.116739846765995,-0.1001159474253654,0.009519517421722412,-0.02470050007104874,-0.0234593078494072,-0.02193766832351685,XArbitraryZVertical,-0.05325563510248696,0.02843326327853917,0.1358614639831342,0.9888868048954852,0.07070533186197281,0.09760162234306335,-0.9927107691764832,0,0,0,-1,-1,4680.590569625,running,2,2022-06-30T09:46:20.875+02:00,2022-06-30T08:20:05.567+02:00,1379,1.385177,0,0,1089.191,0,0,2022-06-30T09:44:05.799+02:00
2022-06-30T09:46:21.616+02:00,4681.333602791667,0.045562744140625,0.042327880859375,-1.003982543945312,4681.323650791667,0.2766411369661909,0.06975998507646052,-0.09890628404023562,-0.1104206964373589,-0.1127435937523842,-0.002584816422313452,-0.02187781780958176,-0.03075207769870758,-0.02047598361968994,XArbitraryZVertical,-0.0537334640398349,0.02768594926138419,0.1359201756594836,0.9888741149475896,0.06936275959014893,0.09874510765075684,-0.9926924109458923,0,0,0,-1,-1,4680.590569625,running,2,2022-06-30T09:46:20.875+02:00,2022-06-30T08:20:05.567+02:00,1379,1.385177,0,0,1089.191,0,0,2022-06-30T09:44:05.799+02:00
2022-06-30T09:46:21.626+02:00,4681.343553791667,0.041839599609375,0.03253173828125,-1.001144409179688,4681.333602791667,0.2765469029113101,0.06834596265184385,-0.100022823461225,-0.1070795655250549,-0.1142704412341118,-0.0270931888371706,-0.01820819824934006,-0.04124725610017776,-0.01524043083190918,XArbitraryZVertical,-0.05418788968676658,0.02691157797222233,0.1358888531547753,0.9888749461712527,0.06795143336057663,0.09985612332820892,-0.9926788806915283,0,0,0,-1,-1,4680.590569625,running,2,2022-06-30T09:46:20.875+02:00,2022-06-30T08:20:05.567+02:00,1379,1.385177,0,0,1089.191,0,0,2022-06-30T09:44:05.799+02:00
2022-06-30T09:46:21.637+02:00,4681.353505791667,0.038238525390625,0.0240631103515625,-1.000335693359375,4681.343553791667,0.2761829408808379,0.06622164293908299,-0.09717946048533441,-0.1246732100844383,-0.1078085452318192,-0.04238772392272949,-0.02029870450496674,-0.05469882488250732,-0.01088231801986694,XArbitraryZVertical,-0.05263346680659092,0.02606870470016381,0.1358225613038518,0.9889906317617345,0.06586103141307831,0.09702657163143158,-0.9931002855300903,0,0,0,-1,-1,4680.590569625,running,2,2022-06-30T09:46:20.875+02:00,2022-06-30T08:20:05.567+02:00,1379,1.385177,0,0,1089.191,0,0,2022-06-30T09:44:05.799+02:00
2022-06-30T09:46:21.646+02:00,4681.363456791667,0.0361328125,0.01007080078125,-0.9959564208984375,4681.353505791667,0.2757089774817051,0.06436153510458124,-0.09413836475608874,-0.1675363779067993,-0.1000161319971085,-0.05720148980617523,-0.02219314128160477,-0.06146777421236038,-0.007633507251739502,XArbitraryZVertical,-0.05099785880340833,0.02537224206610052,0.135695457280859,0.9891119140756438,0.06403233110904694,0.09399938583374023,-0.9935109615325928,0,0,0,-1,-1,4680.590569625,running,2,2022-06-30T09:46:20.875+02:00,2022-06-30T08:20:05.567+02:00,1379,1.385177,0,0,1089.191,0,0,2022-06-30T09:44:05.799+02:00
2022-06-30T09:46:21.656+02:00,4681.373408791667,0.035186767578125,-0.001922607421875,-0.9793548583984375,4681.363456791667,0.2750440747295098,0.06242314882792803,-0.09267275367484221,-0.2259264588356018,-0.09275076538324356,-0.08526534587144852,-0.02387681603431702,-0.06847718358039856,-0.006566107273101807,XArbitraryZVertical,-0.05013360529651054,0.02453185796519008,0.1354432898018036,0.989211845389547,0.06211493164300919,0.09254015982151031,-0.993769645690918,0,0,0,-1,-1,4680.590569625,running,2,2022-06-30T09:46:20.875+02:00,2022-06-30T08:20:05.567+02:00,1379,1.385177,0,0,1089.191,0,0,2022-06-30T09:44:05.799+02:00
2022-06-30T09:46:21.666+02:00,4681.383360791667,0.029510498046875,-0.0036163330078125,-0.9694976806640625,4681.373408791667,0.274119073091083,0.06042181902373062,-0.09362092212951728,-0.3088642656803131,-0.08721994608640671,-0.1149509027600288,-0.02398822456598282,-0.08341356366872787,-0.002152502536773682,XArbitraryZVertical,-0.0504559803955162,0.02349976339866866,0.1350186742931747,0.9892785000407678,0.06012061983346939,0.09348422288894653,-0.9938039183616638,0,0,0,-1,-1,4680.590569625,running,2,2022-06-30T09:46:20.875+02:00,2022-06-30T08:20:05.567+02:00,1379,1.385177,0,0,1089.191,0,0,2022-06-30T09:44:05.799+02:00
2022-06-30T09:46:21.676+02:00,4681.393311791667,0.0269012451171875,-0.005462646484375,-0.9588165283203125,4681.383360791667,0.2729274435543766,0.05877951650331422,-0.09634763406599932,-0.4076302647590637,-0.0689927414059639,-0.151335284113884,-0.02328686416149139,-0.09812138229608536,0.01428824663162231,XArbitraryZVertical,-0.05167988060881522,0.02253033343520282,0.1344221465472793,0.9893191498609276,0.05847322195768356,0.09619864076375961,-0.9936431646347046,0,0,0,-1,-1,4680.590569625,running,2,2022-06-30T09:46:20.875+02:00,2022-06-30T08:20:05.567+02:00,1379,1.385177,0,0,1089.191,0,0,2022-06-30T09:44:05.799+02:00
2022-06-30T09:46:21.686+02:00,4681.403263791667,0.0331573486328125,-0.040740966796875,-0.95245361328125,4681.393311791667,0.271417472961477,0.05759867039626974,-0.1002528944713772,-0.5389972329139709,-0.03692293167114258,-0.1987385451793671,-0.02776769176125526,-0.1037015169858932,0.02383112907409668,XArbitraryZVertical,-0.05351508504464349,0.02171867901257111,0.1336370458863962,0.9893461313136505,0.05727777630090714,0.1000850424170494,-0.993328869342804,0,0,0,-1,-1,4680.590569625,running,2,2022-06-30T09:46:20.875+02:00,2022-06-30T08:20:05.567+02:00,1379,1.385177,0,0,1089.191,0,0,2022-06-30T09:44:05.799+02:00
2022-06-30T09:46:21.696+02:00,4681.413214791667,0.0361480712890625,-0.0787200927734375,-0.91375732421875,4681.403263791667,0.2694850678806717,0.0567868525152714,-0.1054254807606918,-0.7038072347640991,-0.02222068607807159,-0.2511423528194427,-0.02954038605093956,-0.1106930822134018,0.03402835130691528,XArbitraryZVertical,-0.05599814349314267,0.02101816691011514,0.1326122759928166,0.9893616446164448,0.05644121766090393,0.1052302941679955,-0.9928448796272278,0,0,0,-1,-1,4680.590569625,running,2,2022-06-30T09:46:20.875+02:00,2022-06-30T08:20:05.567+02:00,1379,1.385177,0,0,1089.191,0,0,2022-06-30T09:44:05.799+02:00
2022-06-30T09:46:21.706+02:00,4681.423166791667,0.0202484130859375,-0.1105804443359375,-0.8998260498046875,4681.413214791667,0.2671871878543969,0.05608853548281359,-0.114062920510076,-1.016887307167053,-0.02818599715828896,-0.3023874461650848,-0.02253792062401772,-0.1545568555593491,0.03948593139648438,XArbitraryZVertical,-0.06019927369037167,0.02015626405000426,0.1313436260141005,0.9893021508751541,0.05569485202431679,0.1138157472014427,-0.9919395446777344,0,0,0,-1,-1,4680.590569625,running,2,2022-06-30T09:46:20.875+02:00,2022-06-30T08:20:05.567+02:00,1379,1.385177,0,0,1089.191,0,0,2022-06-30T09:44:05.799+02:00
2022-06-30T09:46:21.716+02:00,4681.433118791667,-0.0094451904296875,-0.13397216796875,-0.9160003662109375,4681.423166791667,0.2644455415092436,0.05535497262508282,-0.1264974810116083,-1.443543791770935,-0.006632767617702484,-0.3853289484977722,-0.01873698085546494,-0.2048806250095367,0.0767330527305603,XArbitraryZVertical,-0.06627204442245142,0.0190477158867302,0.1297899117868389,0.9891410026649342,0.05488463863730431,0.1261603832244873,-0.9904903769493103,0,0,0,-1,-1,4680.590569625,running,2,2022-06-30T09:46:20.875+02:00,2022-06-30T08:20:05.567+02:00,1379,1.385177,0,0,1089.191,0,0,2022-06-30T09:44:05.799+02:00
2022-06-30T09:46:21.726+02:00,4681.443069791667,-0.0196990966796875,-0.1613922119140625,-0.918060302734375,4681.433118791667,0.2608009900286836,0.05488147316334802,-0.1430809883043375,-1.824321508407593,0.0532548762857914,-0.5246145725250244,-0.03404539451003075,-0.2531738877296448,0.08846509456634521,XArbitraryZVertical,-0.07440451169656002,0.01784369320727896,0.127705251421907,0.9888564195557218,0.05429339408874512,0.1425932943820953,-0.9882911443710327,0,0,0,-1,-1,4680.590569625,running,2,2022-06-30T09:46:20.875+02:00,2022-06-30T08:20:05.567+02:00,1379,1.385177,0,0,1089.191,0,0,2022-06-30T09:44:05.799+02:00
2022-06-30T09:46:21.736+02:00,4681.453021791667,-0.0156097412109375,-0.2024383544921875,-0.911865234375,4681.443069791667,0.2557700761254141,0.05475343153079257,-0.1632355894521285,-2.155304193496704,0.1197481453418732,-0.6867339611053467,-0.06344418227672577,-0.2964839339256287,0.06922757625579834,XArbitraryZVertical,-0.08431062426087044,0.01666556510954539,0.1248511073965626,0.9884463509313868,0.05399858206510544,0.1625116318464279,-0.9852279424667358,0,0,0,-1,-1,4680.590569625,running,2,2022-06-30T09:46:20.875+02:00,2022-06-30T08:20:05.567+02:00,1379,1.385177,0,0,1089.191,0,0,2022-06-30T09:44:05.799+02:00
2022-06-30T09:46:21.746+02:00,4681.462973791667,-0.007049560546875,-0.2227783203125,-0.8977508544921875,4681.453021791667,0.2494404420624921,0.0550307372631334,-0.1867262356533366,-2.488678932189941,0.2017695605754852,-0.80661940574646,-0.07374636828899384,-0.3470354080200195,0.06306940317153931,XArbitraryZVertical,-0.09587587423071159,0.01558646147744752,0.1212635311419538,0.9878563217777485,0.0540468618273735,0.1856430321931839,-0.9811297655105591,0,0,0,-1,-1,4680.590569625,running,2,2022-06-30T09:46:20.875+02:00,2022-06-30T08:20:05.567+02:00,1379,1.385177,0,0,1089.191,0,0,2022-06-30T09:44:05.799+02:00
2022-06-30T09:46:21.756+02:00,4681.472924791667,-0.0133819580078125,-0.2453155517578125,-0.8932952880859375,4681.462973791667,0.242441722327687,0.05596056541867673,-0.2141601982287161,-2.954119920730591,0.3075700104236603,-0.863028347492218,-0.07026377320289612,-0.4149653911590576,0.06376028060913086,XArbitraryZVertical,-0.1094134455094577,0.01469348415206584,0.117216449360082,0.9869514744456958,0.05465362221002579,0.2125268876552582,-0.9756255745887756,0,0,0,-1,-1,4680.590569625,running,2,2022-06-30T09:46:20.875+02:00,2022-06-30T08:20:05.567+02:00,1379,1.385177,0,0,1089.191,0,0,2022-06-30T09:44:05.799+02:00
2022-06-30T09:46:21.766+02:00,4681.482876791667,-0.0325469970703125,-0.229095458984375,-0.8785400390625,4681.472924791667,0.2350146118810103,0.05757114403326889,-0.2467236361467172,-3.486576557159424,0.4008986055850983,-0.9562466144561768,-0.06284689903259277,-0.4670065641403198,0.07036030292510986,XArbitraryZVertical,-0.1254986090292668,0.013945956022837,0.1127808009446936,0.9855639098600654,0.05579692870378494,0.2442281246185303,-0.9681112170219421,0,0,0,-1,-1,4680.590569625,running,2,2022-06-30T09:46:20.875+02:00,2022-06-30T08:20:05.567+02:00,1379,1.385177,0,0,1089.191,0,0,2022-06-30T09:44:05.799+02:00
2022-06-30T09:46:21.776+02:00,4681.492828791667,-0.0481109619140625,-0.1318206787109375,-0.8768768310546875,4681.482876791667,0.2266999278029848,0.05961719142345262,-0.2846062413532288,-4.009021282196045,0.4966245889663696,-1.083686590194702,-0.07056739926338196,-0.5260952711105347,0.06477183103561401,XArbitraryZVertical,-0.1441876082384249,0.01327945298050261,0.1077145576778757,0.983580831627975,0.05718503892421722,0.2807795405387878,-0.9580671787261963,0,0,0,-1,-1,4680.590569625,running,2,2022-06-30T09:46:20.875+02:00,2022-06-30T08:20:05.567+02:00,1379,1.385177,0,0,1089.191,0,0,2022-06-30T09:44:05.799+02:00
2022-06-30T09:46:21.786+02:00,4681.502779791667,-0.0475006103515625,0.0197601318359375,-0.886474609375,4681.492828791667,0.2176128933595813,0.0622713262997291,-0.3276507024733993,-4.509589672088623,0.6467247605323792,-1.148046493530273,-0.09146785736083984,-0.5509152412414551,0.06642580032348633,XArbitraryZVertical,-0.1653857325517105,0.0128301369751178,0.1020387900515529,0.9808522765948946,0.05892045795917511,0.3218196034431458,-0.9449658989906311,0,0,0,-1,-1,4680.590569625,running,2,2022-06-30T09:46:20.875+02:00,2022-06-30T08:20:05.567+02:00,1379,1.385177,0,0,1089.191,0,0,2022-06-30T09:44:05.799+02:00
2022-06-30T09:46:21.795+02:00,4681.512731791667,-0.0377960205078125,0.154083251953125,-0.885345458984375,4681.502779791667,0.2087315553711286,0.06648156234087793,-0.375748323616401,-5.022215366363525,0.8724926114082336,-1.118168711662292,-0.1099091768264771,-0.4987895488739014,0.05130141973495483,XArbitraryZVertical,-0.1890533465507935,0.01302582194577005,0.09611324110775862,0.9771650752740367,0.06179781630635262,0.3669687509536743,-0.9281783103942871,0,0,0,-1,-1,4680.590569625,running,2,2022-06-30T09:46:20.875+02:00,2022-06-30T08:20:05.567+02:00,1379,1.385177,0,0,1089.191,0,0,2022-06-30T09:44:05.799+02:00
2022-06-30T09:46:21.806+02:00,4681.522682791667,-0.0336456298828125,0.2855682373046875,-0.909698486328125,4681.512731791667,0.2006173305675116,0.0727812095788254,-0.4286322013759845,-5.441928386688232,1.078798651695251,-1.099801182746887,-0.1136396452784538,-0.3958671391010284,0.02065253257751465,XArbitraryZVertical,-0.2150300467742791,0.01408780751653762,0.09008581537926937,0.9723416803515418,0.06613864004611969,0.415627121925354,-0.9071272015571594,0,0,0,-1,-1,4680.590569625,running,2,2022-06-30T09:46:20.875+02:00,2022-06-30T08:20:05.567+02:00,1379,1.385177,0,0,1089.191,0,0,2022-06-30T09:44:05.799+02:00
2022-06-30T09:46:21.815+02:00,4681.532634791667,-0.030426025390625,0.44189453125,-0.9583892822265625,4681.522682791667,0.1928146375585369,0.08093120946515299,-0.484653408740364,-5.642251491546631,1.302861094474792,-1.145282983779907,-0.1093291491270065,-0.3118185698986053,-0.003405272960662842,XArbitraryZVertical,-0.2424324928360259,0.01601084141891616,0.08370663184900512,0.9664177697118812,0.07153274118900299,0.4659017026424408,-0.8819403052330017,0,0,0,-1,-1,4680.590569625,running,2,2022-06-30T09:46:20.875+02:00,2022-06-30T08:20:05.567+02:00,1379,1.385177,0,0,1089.191,0,0,2022-06-30T09:44:05.799+02:00
2022-06-30T09:46:21.825+02:00,4681.542586791667,-0.0263214111328125,0.5988311767578125,-0.9756011962890625,4681.532634791667,0.1848712401665087,0.0910897256733727,-0.5414310826213509,-5.567807674407959,1.582088947296143,-1.177168250083923,-0.1115994602441788,-0.2297948002815247,-0.05627942085266113,XArbitraryZVertical,-0.2700526540760829,0.01902520829677234,0.0767266124134183,0.9595950798688216,0.07795344293117523,0.5153629183769226,-0.8534191846847534,0,0,0,-1,-1,4680.590569625,running,2,2022-06-30T09:46:20.875+02:00,2022-06-30T08:20:05.567+02:00,1379,1.385177,0,0,1089.191,0,0,2022-06-30T09:44:05.799+02:00
2022-06-30T09:46:21.835+02:00,4681.552537791667,-0.020721435546875,0.7285614013671875,-1.011001586914062,4681.542586791667,0.1768574510465094,0.1037159846702538,-0.5969437854810428,-5.409700393676758,1.872263550758362,-1.21964168548584,-0.1160517856478691,-0.1202230453491211,-0.1357762813568115,XArbitraryZVertical,-0.2968925412357852,0.02341484228099093,0.06911246572854579,0.9521188209108484,0.08562537282705307,0.5621174573898315,-0.8226131200790405,0,0,0,-1,-1,4680.590569625,running,2,2022-06-30T09:46:20.875+02:00,2022-06-30T08:20:05.567+02:00,1379,1.385177,0,0,1089.191,0,0,2022-06-30T09:44:05.799+02:00
2022-06-30T09:46:21.845+02:00,4681.562489791667,0.0001373291015625,0.810516357421875,-1.02764892578125,4681.552537791667,0.1686242572716955,0.1190846545712848,-0.6511308316410869,-5.250096321105957,2.23179817199707,-1.283974289894104,-0.1208178848028183,-0.007255196571350098,-0.185835599899292,XArbitraryZVertical,-0.3228916142544219,0.02929386155583497,0.06068178214087365,0.9440342143912086,0.09449609369039536,0.606086254119873,-0.7897657752037048,0,0,0,-1,-1,4680.590569625,running,2,2022-06-30T09:46:20.875+02:00,2022-06-30T08:20:05.567+02:00,1379,1.385177,0,0,1089.191,0,0,2022-06-30T09:44:05.799+02:00
2022-06-30T09:46:21.855+02:00,4681.572441791667,0.0477447509765625,0.854522705078125,-0.9730224609375,4681.562489791667,0.1600428293072392,0.137013568370725,-0.7037711046438123,-5.078462600708008,2.487511396408081,-1.351677179336548,-0.1248554289340973,0.08146387338638306,-0.2557394504547119,XArbitraryZVertical,-0.3478961922009102,0.03656627410892697,0.05134374316697132,0.9354116442067076,0.1041336208581924,0.6470974087715149,-0.7552623152732849,0,0,0,-1,-1,4680.590569625,running,2,2022-06-30T09:46:20.875+02:00,2022-06-30T08:20:05.567+02:00,1379,1.385177,0,0,1089.191,0,0,2022-06-30T09:44:05.799+02:00
2022-06-30T09:46:21.865+02:00,4681.582392791667,0.080718994140625,0.8615570068359375,-0.8669281005859375,4681.572441791667,0.1521303107905277,0.1570830212279628,-0.7554973716675025,-5.070450305938721,2.647417545318604,-1.288211107254028,-0.113738901913166,0.1248654127120972,-0.3086808919906616,XArbitraryZVertical,-0.372170608083921,0.04477664136208941,0.04156152782089485,0.9261515576311021,0.1138758733868599,0.6856508255004883,-0.7189681529998779,0,0,0,-1,-1,4680.590569625,running,2,2022-06-30T09:46:20.875+02:00,2022-06-30T08:20:05.567+02:00,1379,1.385177,0,0,1089.191,0,0,2022-06-30T09:44:05.799+02:00
2022-06-30T09:46:21.875+02:00,4681.592344791667,0.0968170166015625,0.8509674072265625,-0.762725830078125,4681.582392791667,0.1469358916427412,0.1800514947892104,-0.8084729230628943,-5.321691989898682,2.738145112991333,-1.19252347946167,-0.07592907547950745,0.1312891244888306,-0.2935829162597656,XArbitraryZVertical,-0.3967346922734987,0.05368192386391402,0.03194716065741576,0.9158051934488013,0.1236734613776207,0.7232334017753601,-0.6794396638870239,0,0,0,-1,-1,4680.590569625,running,2,2022-06-30T09:46:20.875+02:00,2022-06-30T08:20:05.567+02:00,1379,1.385177,0,0,1089.191,0,0,2022-06-30T09:44:05.799+02:00
2022-06-30T09:46:21.885+02:00,4681.602295791667,0.1320953369140625,0.8862457275390625,-0.634765625,4681.592344791667,0.1455589723818364,0.2067823196667999,-0.8642607012799418,-5.667208194732666,2.874669313430786,-1.098665118217468,-0.05257034301757812,0.1009413599967957,-0.2315558791160583,XArbitraryZVertical,-0.4222818955124646,0.06318072956724004,0.0225689975135351,0.9039783334840227,0.1332889795303345,0.7606155276298523,-0.6353724002838135,0,0,0,-1,-1,4680.590569625,running,2,2022-06-30T09:46:20.875+02:00,2022-06-30T08:20:05.567+02:00,1379,1.385177,0,0,1089.191,0,0,2022-06-30T09:44:05.799+02:00
2022-06-30T09:46:21.895+02:00,4681.612247791667,0.164154052734375,0.93798828125,-0.5071868896484375,4681.602295791667,0.1500485685400481,0.2394455832361278,-0.9237922500247673,-6.139886856079102,3.022420644760132,-0.9600793123245239,-0.04614551365375519,0.05307400226593018,-0.1771253943443298,XArbitraryZVertical,-0.4492257960251047,0.07345647391141864,0.01354219934779088,0.8902904137599378,0.1429622024297714,0.7978932857513428,-0.5856006741523743,0,0,0,-1,-1,4680.590569625,running,2,2022-06-30T09:46:20.875+02:00,2022-06-30T08:20:05.567+02:00,1379,1.385177,0,0,1089.191,0,0,2022-06-30T09:44:05.799+02:00
2022-06-30T09:46:21.905+02:00,4681.622199791667,0.2014617919921875,1.019912719726562,-0.4127044677734375,4681.612247791667,0.1628168433842265,0.280376339058427,-0.9871251767744732,-6.511158466339111,3.129841089248657,-0.8301134705543518,-0.02040144801139832,0.05180060863494873,-0.105194091796875,XArbitraryZVertical,-0.477571252830349,0.08449725884330481,0.004930834090922352,0.8745065984245994,0.1524964720010757,0.8344451189041138,-0.5295718312263489,0,0,0,-1,-1,4680.590569625,running,2,2022-06-30T09:46:20.875+02:00,2022-06-30T08:20:05.567+02:00,1379,1.385177,0,0,1089.191,0,0,2022-06-30T09:44:05.799+02:00
2022-06-30T09:46:21.916+02:00,4681.632150791667,0.23651123046875,1.15301513671875,-0.356658935546875,4681.622199791667,0.1862117199736756,0.3317138072169603,-1.051554975412977,-6.539249420166016,3.206250667572021,-0.6790560483932495,0.002552211284637451,0.06979238986968994,-0.03801655769348145,XArbitraryZVertical,-0.5061305087814838,0.09615928754550138,-0.003190542060708079,0.8570736912516739,0.1616015285253525,0.8681958913803101,-0.4691706001758575,0,0,0,-1,-1,4680.590569625,running,2,2022-06-30T09:46:20.875+02:00,2022-06-30T08:20:05.567+02:00,1379,1.385177,0,0,1089.191,0,0,2022-06-30T09:44:05.799+02:00
2022-06-30T09:46:21.925+02:00,4681.642102791667,0.2674713134765625,1.2977294921875,-0.3424224853515625,4681.632150791667,0.2220069168478656,0.3956136119439009,-1.11292730680303,-6.137999534606934,3.297223567962646,-0.5113037824630737,0.03111147880554199,0.1229161620140076,-0.00481000542640686,XArbitraryZVertical,-0.5331848307897379,0.1084738802157067,-0.0109315974957273,0.8389444612574549,0.1703500002622604,0.8969964981079102,-0.4078947007656097,0,0,0,-1,-1,4680.590569625,running,2,2022-06-30T09:46:20.875+02:00,2022-06-30T08:20:05.567+02:00,1379,1.385177,0,0,1089.191,0,0,2022-06-30T09:44:05.799+02:00
2022-06-30T09:46:21.936+02:00,4681.652053791667,0.2913818359375,1.407867431640625,-0.31146240234375,4681.642102791667,0.2690802182711854,0.4713306946818737,-1.166430926602648,-5.23740816116333,3.327080011367798,-0.3749398291110992,0.05786284804344177,0.2336627840995789,-0.00612214207649231,XArbitraryZVertical,-0.5567914487400807,0.1213044281132344,-0.01855653022473181,0.8215376509520097,0.1786480695009232,0.9193522334098816,-0.3505370318889618,0,0,0,-1,-1,4680.590569625,running,2,2022-06-30T09:46:20.875+02:00,2022-06-30T08:20:05.567+02:00,1379,1.385177,0,0,1089.191,0,0,2022-06-30T09:44:05.799+02:00
2022-06-30T09:46:21.945+02:00,4681.662004791667,0.2964630126953125,1.40582275390625,-0.260650634765625,4681.652053791667,0.3222405917133001,0.5534025403851788,-1.208426879730712,-4.075419425964355,3.26795768737793,-0.2259170114994049,0.08115600049495697,0.3626699447631836,-0.04084280133247375,XArbitraryZVertical,-0.5754926537989805,0.1342321284671052,-0.02619068933411245,0.8062902558724375,0.1863150149583817,0.9350594878196716,-0.3015798926353455,0,0,0,-1,-1,4680.590569625,running,2,2022-06-30T09:46:20.875+02:00,2022-06-30T08:20:05.567+02:00,1379,1.385177,0,0,1089.191,0,0,2022-06-30T09:44:05.799+02:00
2022-06-30T09:46:21.955+02:00,4681.671956791667,0.2897491455078125,1.2625732421875,-0.174774169921875,4681.662004791667,0.376037678707742,0.636169873824355,-1.23819646836328,-2.977030515670776,3.205637454986572,-0.0299280546605587,0.09740084409713745,0.4626706838607788,-0.04883238673210144,XArbitraryZVertical,-0.5890841876159416,0.1471892273257426,-0.03370333464332972,0.7938382707410451,0.1939806789159775,0.9451966881752014,-0.2626303136348724,0,0,0,-1,-1,4680.590569625,running,2,2022-06-30T09:46:20.875+02:00,2022-06-30T08:20:05.567+02:00,1379,1.385177,0,0,1089.191,0,0,2022-06-30T09:44:05.799+02:00
2022-06-30T09:46:21.964+02:00,4681.681907791667,0.281585693359375,1.052139282226562,-0.026123046875,4681.671956791667,0.4268143258699006,0.7155848062041682,-1.257627073233091,-2.153048276901245,3.074425220489502,0.1464642286300659,0.0943472683429718,0.4544606804847717,-0.02814361453056335,XArbitraryZVertical,-0.5984229925586615,0.1601132932597588,-0.04088009005971868,0.7839530738371585,0.2021154463291168,0.9513619542121887,-0.2325073033571243,0,0,0,-1,-1,4680.590569625,running,2,2022-06-30T09:46:20.875+02:00,2022-06-30T08:20:05.567+02:00,1379,1.385177,0,0,1089.191,0,0,2022-06-30T09:44:05.799+02:00
2022-06-30T09:46:21.975+02:00,4681.691859791667,0.2948455810546875,0.8682708740234375,0.1603851318359375,4681.681907791667,0.4751758322282519,0.7914068365193156,-1.270271925709727,-1.789429783821106,2.904454231262207,0.2880977690219879,0.0791763961315155,0.307391881942749,0.0332825779914856,XArbitraryZVertical,-0.6050921364547578,0.1727280247162526,-0.04744132772546604,0.7757434252104802,0.2105725109577179,0.955181360244751,-0.2080570757389069,0,0,0,-1,-1,4680.590569625,running,2,2022-06-30T09:46:20.875+02:00,2022-06-30T08:20:05.567+02:00,1379,1.385177,0,0,1089.191,0,0,2022-06-30T09:44:05.799+02:00
2022-06-30T09:46:21.984+02:00,4681.701811791667,0.3184814453125,0.735809326171875,0.3447723388671875,4681.691859791667,0.5285921691421853,0.8702683156083135,-1.280225337551174,-1.940263986587524,2.671512365341187,0.3686948120594025,0.06255584955215454,0.09405899047851562,0.158560499548912,XArbitraryZVertical,-0.6111363752017016,0.1848523553860522,-0.05304257815063219,0.767807637326274,0.2190296053886414,0.9580804705619812,-0.1846838742494583,0,0,0,-1,-1,4680.590569625,running,2,2022-06-30T09:46:20.875+02:00,2022-06-30T08:20:05.567+02:00,1379,1.385177,0,0,1089.191,0,0,2022-06-30T09:44:05.799+02:00
2022-06-30T09:46:21.994+02:00,4681.711762791667,0.327972412109375,0.700714111328125,0.511505126953125,4681.701811791667,0.5980086031929931,0.9620157709645022,-1.290414321252241,-2.460319042205811,2.387709856033325,0.4251250624656677,0.06783689558506012,-0.09267890453338623,0.3186335563659668,XArbitraryZVertical,-0.6183634852352397,0.1962198113852326,-0.0572421706701586,0.758846313976561,0.2270084321498871,0.9609497785568237,-0.1582487672567368,0,0,0,-1,-1,4680.590569625,running,2,2022-06-30T09:46:20.875+02:00,2022-06-30T08:20:05.567+02:00,1379,1.385177,0,0,1089.191,0,0,2022-06-30T09:44:05.799+02:00
2022-06-30T09:46:22.005+02:00,4681.721714791667,0.3458709716796875,0.79998779296875,0.5908660888671875,4681.711762791667,0.6901158581574621,1.072996615018214,-1.301294061504315,-2.942440032958984,2.112218141555786,0.3733825981616974,0.08454284071922302,-0.2280941605567932,0.4719055891036987,XArbitraryZVertical,-0.6274833777155064,0.2066345289942976,-0.06001297819489133,0.7483082937795407,0.2339383661746979,0.963903546333313,-0.1271335631608963,0,0,0,-1,-1,4680.590569625,running,2,2022-06-30T09:46:20.875+02:00,2022-06-30T08:20:05.567+02:00,1379,1.385177,0,0,1089.191,0,0,2022-06-30T09:44:05.799+02:00
2022-06-30T09:46:22.014+02:00,4681.731666791667,0.393951416015625,0.97552490234375,0.6501922607421875,4681.721714791667,0.8001640817128257,1.198895834009893,-1.311151144059536,-3.105206966400146,1.851014137268066,0.3111706376075745,0.08878576755523682,-0.2657670974731445,0.6047996878623962,XArbitraryZVertical,-0.6377722962785981,0.215868089815646,-0.06185692179015415,0.7367639424799393,0.2391863912343979,0.9664811491966248,-0.09329493343830109,0,0,0,-1,-1,4680.590569625,running,2,2022-06-30T09:46:20.875+02:00,2022-06-30T08:20:05.567+02:00,1379,1.385177,0,0,1089.191,0,0,2022-06-30T09:44:05.799+02:00
2022-06-30T09:46:22.024+02:00,4681.741617791667,0.41455078125,1.046768188476562,0.6893310546875,4681.731666791667,0.917110959916416,1.329099315124223,-1.317418282168601,-2.937938451766968,1.59008777141571,0.3340940177440643,0.1024815291166306,-0.1680833101272583,0.6508651375770569,XArbitraryZVertical,-0.6479346650215296,0.2240111409576438,-0.06293444205671268,0.7252854121472667,0.243389219045639,0.9680711627006531,-0.05999935790896416,0,0,0,-1,-1,4680.590569625,running,2,2022-06-30T09:46:20.875+02:00,2022-06-30T08:20:05.567+02:00,1379,1.385177,0,0,1089.191,0,0,2022-06-30T09:44:05.799+02:00
2022-06-30T09:46:22.034+02:00,4681.751569791667,0.398651123046875,0.9887542724609375,0.7221832275390625,4681.741617791667,1.026406729596847,1.44950230914916,-1.318923807502094,-2.514582395553589,1.344326019287109,0.3981795310974121,0.1465642601251602,0.007077515125274658,0.6803464889526367,XArbitraryZVertical,-0.6568496007784569,0.2312386430138472,-0.06335695267443799,0.7148868645086741,0.2473869621753693,0.9684474468231201,-0.03015458397567272,0,0,0,-1,-1,4680.590569625,running,2,2022-06-30T09:46:20.875+02:00,2022-06-30T08:20:05.567+02:00,1379,1.385177,0,0,1089.191,0,0,2022-06-30T09:44:05.799+02:00
2022-06-30T09:46:22.044+02:00,4681.761521791667,0.368927001953125,0.894775390625,0.7979736328125,4681.751569791667,1.118030269587144,1.550248030263779,-1.316627695512597,-2.085351943969727,1.084280014038086,0.4224028885364532,0.1631626784801483,0.07889562845230103,0.6944970488548279,XArbitraryZVertical,-0.6640772833298711,0.2375251599934522,-0.06328004187835383,0.7061011493639584,0.251387894153595,0.967872679233551,-0.005166320130228996,0,0,0,-1,-1,4680.590569625,running,2,2022-06-30T09:46:20.875+02:00,2022-06-30T08:20:05.567+02:00,1379,1.385177,0,0,1089.191,0,0,2022-06-30T09:44:05.799+02:00
2022-06-30T09:46:22.054+02:00,4681.771472791667,0.3441314697265625,0.79901123046875,0.86981201171875,4681.761521791667,1.194608999762344,1.63379459826564,-1.312225374330733,-1.887704014778137,0.8217728137969971,0.4109750092029572,0.1434588730335236,0.02199792861938477,0.7060849666595459,XArbitraryZVertical,-0.6701493343114221,0.2427938406498863,-0.06269644059972183,0.698584408290652,0.2551920413970947,0.9667563438415527,0.01609795913100243,0,0,0,-1,-1,4680.590569625,running,2,2022-06-30T09:46:20.875+02:00,2022-06-30T08:20:05.567+02:00,1379,1.385177,0,0,1089.191,0,0,2022-06-30T09:44:05.799+02:00
2022-06-30T09:46:22.064+02:00,4681.781424791667,0.3329620361328125,0.7219696044921875,0.9950103759765625,4681.771472791667,1.265471870487513,1.709027341363772,-1.306764344646041,-1.921940565109253,0.543532133102417,0.3445541560649872,0.1104406714439392,-0.07057005167007446,0.7620131969451904,XArbitraryZVertical,-0.6760187236230124,0.2469387593973233,-0.06143072439665472,0.6915535732211913,0.2584861218929291,0.965345561504364,0.0359601303935051,0,0,0,-1,-1,4680.590569625,running,2,2022-06-30T09:46:20.875+02:00,2022-06-30T08:20:05.567+02:00,1379,1.385177,0,0,1089.191,0,0,2022-06-30T09:44:05.799+02:00
2022-06-30T09:46:22.074+02:00,4681.791375791667,0.32537841796875,0.6918792724609375,1.094497680664062,4681.781424791667,1.337082458880422,1.782054053532572,-1.300625680915833,-2.058246612548828,0.255342960357666,0.2422538995742798,0.08316874504089355,-0.1647140383720398,0.8138463497161865,XArbitraryZVertical,-0.6823256780901914,0.2498286867210958,-0.05938151806948008,0.6844641659814829,0.2609624862670898,0.9637253880500793,0.05596540868282318,0,0,0,-1,-1,4680.590569625,running,2,2022-06-30T09:46:20.875+02:00,2022-06-30T08:20:05.567+02:00,1379,1.385177,0,0,1089.191,0,0,2022-06-30T09:44:05.799+02:00
2022-06-30T09:46:22.084+02:00,4681.801327791667,0.2931060791015625,0.71417236328125,1.151687622070312,4681.791375791667,1.409507192166291,1.852713870504181,-1.294149505531501,-2.055001497268677,-0.06937050819396973,0.09570257365703583,0.07061204314231873,-0.2400068640708923,0.919025182723999,XArbitraryZVertical,-0.6891035974176636,0.2512541156562017,-0.05661268396677941,0.6773497971211052,0.2623498439788818,0.9619767069816589,0.07598479837179184,0,0,0,-1,-1,4680.590569625,running,2,2022-06-30T09:46:20.875+02:00,2022-06-30T08:20:05.567+02:00,1379,1.385177,0,0,1089.191,0,0,2022-06-30T09:44:05.799+02:00
2022-06-30T09:46:22.094+02:00,4681.811279791667,0.266815185546875,0.772674560546875,1.187835693359375,4681.801327791667,1.475274725432752,1.913470181555058,-1.288446850421015,-1.754751920700073,-0.4223072528839111,-0.085182785987854,0.06296318769454956,-0.2685239315032959,1.000881314277649,XArbitraryZVertical,-0.695599945340713,0.2508959214546141,-0.05342406063506082,0.6710723194575178,0.2624150812625885,0.9604035019874573,0.09361609816551208,0,0,0,-1,-1,4680.590569625,running,2,2022-06-30T09:46:20.875+02:00,2022-06-30T08:20:05.567+02:00,1379,1.385177,0,0,1089.191,0,0,2022-06-30T09:44:05.799+02:00
2022-06-30T09:46:22.104+02:00,4681.821230791667,0.2313385009765625,0.7601318359375,1.219451904296875,4681.811279791667,1.52832431581845,1.958191595113687,-1.28453091153821,-1.339390158653259,-0.8332899808883667,-0.1965674608945847,0.03165921568870544,-0.2451326847076416,1.045013666152954,XArbitraryZVertical,-0.7010813576801762,0.2486398722533417,-0.04990281412694658,0.6664629108920523,0.2614466547966003,0.9593051075935364,0.1066737100481987,0,0,0,-1,-1,4680.590569625,running,2,2022-06-30T09:46:20.875+02:00,2022-06-30T08:20:05.567+02:00,1379,1.385177,0,0,1089.191,0,0,2022-06-30T09:44:05.799+02:00
2022-06-30T09:46:22.114+02:00,4681.831182791667,0.1931304931640625,0.66864013671875,1.261032104492188,4681.821230791667,1.569264849928825,1.986921640391333,-1.282547572009057,-1.00387716293335,-1.282311677932739,-0.3063685297966003,0.006799966096878052,-0.1860683560371399,1.072926163673401,XArbitraryZVertical,-0.7054749408140599,0.2444580507569284,-0.0456883811037535,0.6636702021398011,0.2600150406360626,0.958743155002594,0.1149092614650726,0,0,0,-1,-1,4680.590569625,running,2,2022-06-30T09:46:20.875+02:00,2022-06-30T08:20:05.567+02:00,1379,1.385177,0,0,1089.191,0,0,2022-06-30T09:44:05.799+02:00
2022-06-30T09:46:22.124+02:00,4681.841134791667,0.1557769775390625,0.61663818359375,1.295486450195312,4681.831182791667,1.604138367091039,2.005096337513915,-1.282260784098004,-0.886566162109375,-1.798146963119507,-0.4149996936321259,-0.02679482102394104,-0.1985294818878174,1.099720239639282,XArbitraryZVertical,-0.7092997429932666,0.2382426696290487,-0.04045642448430615,0.6621916395570769,0.2581331431865692,0.9586616158485413,0.1197313889861107,0,0,0,-1,-1,4680.590569625,running,2,2022-06-30T09:46:20.875+02:00,2022-06-30T08:20:05.567+02:00,1379,1.385177,0,0,1089.191,0,0,2022-06-30T09:44:05.799+02:00
2022-06-30T09:46:22.134+02:00,4681.851085791667,0.10552978515625,0.657012939453125,1.332122802734375,4681.841134791667,1.639995959810969,2.018620895662551,-1.283219707756694,-0.9133778214454651,-2.394368171691895,-0.596502423286438,-0.06253093481063843,-0.2902937531471252,1.138218522071838,XArbitraryZVertical,-0.7132093640056402,0.2296497567856279,-0.03373578884321988,0.6614041040728191,0.2556612193584442,0.9589340090751648,0.1228132173418999,0,0,0,-1,-1,4680.590569625,running,2,2022-06-30T09:46:20.875+02:00,2022-06-30T08:20:05.567+02:00,1379,1.385177,0,0,1089.191,0,0,2022-06-30T09:44:05.799+02:00
2022-06-30T09:46:22.144+02:00,4681.861037791667,0.0599822998046875,0.7044830322265625,1.33074951171875,4681.851085791667,1.680903367103781,2.030890439865258,-1.285783705787934,-0.9549625515937805,-3.028885841369629,-0.832889199256897,-0.09615454077720642,-0.3430197834968567,1.170637607574463,XArbitraryZVertical,-0.7174946003176194,0.2182333349183733,-0.02548791672420253,0.6610039138533129,0.2519312798976898,0.9596580862998962,0.1248485818505287,0,0,0,-1,-1,4680.590569625,running,2,2022-06-30T09:46:20.875+02:00,2022-06-30T08:20:05.567+02:00,1379,1.385177,0,0,1089.191,0,0,2022-06-30T09:44:05.799+02:00
2022-06-30T09:46:22.154+02:00,4681.870988791667,0.0029144287109375,0.7509918212890625,1.268768310546875,4681.861037791667,1.725814381652179,2.04066842627296,-1.290469649891955,-0.8894942998886108,-3.688208818435669,-1.085752964019775,-0.1411567032337189,-0.3039520382881165,1.206854104995728,XArbitraryZVertical,-0.721879504403043,0.2037749698629771,-0.01576769004264638,0.6611484195599856,0.2466862499713898,0.960965096950531,0.1252685189247131,0,0,0,-1,-1,4680.590569625,running,2,2022-06-30T09:46:20.875+02:00,2022-06-30T08:20:05.567+02:00,1379,1.385177,0,0,1089.191,0,0,2022-06-30T09:44:05.799+02:00
2022-06-30T09:46:22.164+02:00,4681.880940791667,-0.0455169677734375,0.767578125,1.091049194335938,4681.870988791667,1.773951279310479,2.046495782777002,-1.297722733662962,-0.8135883808135986,-4.456900119781494,-1.35321307182312,-0.1797674894332886,-0.2584633231163025,1.207240581512451,XArbitraryZVertical,-0.726076578972352,0.1859223244261959,-0.004411837813596687,0.661986649167734,0.2397495359182358,0.9629465341567993,0.1235086172819138,0,0,0,-1,-1,4680.590569625,running,2,2022-06-30T09:46:20.875+02:00,2022-06-30T08:20:05.567+02:00,1379,1.385177,0,0,1089.191,0,0,2022-06-30T09:44:05.799+02:00
2022-06-30T09:46:22.174+02:00,4681.890892791667,-0.072723388671875,0.7958831787109375,0.90594482421875,4681.880940791667,1.825419129761262,2.048047300794889,-1.307462123017378,-0.7353034615516663,-5.20932149887085,-1.580129623413086,-0.228301614522934,-0.2145354747772217,1.149201393127441,XArbitraryZVertical,-0.7298661929901109,0.1645560181503724,0.008818774410801707,0.6634296965991965,0.2312157452106476,0.9655274748802185,0.1195666864514351,0,0,0,-1,-1,4680.590569625,running,2,2022-06-30T09:46:20.875+02:00,2022-06-30T08:20:05.567+02:00,1379,1.385177,0,0,1089.191,0,0,2022-06-30T09:44:05.799+02:00
2022-06-30T09:46:22.184+02:00,4681.900843791667,-0.07073974609375,0.7957763671875,0.7280120849609375,4681.890892791667,1.881525149806628,2.047052882573398,-1.319518513048948,-0.7232286930084229,-5.890963077545166,-1.817022442817688,-0.2664899230003357,-0.2010172009468079,0.9770575761795044,XArbitraryZVertical,-0.7331051605669215,0.1398303382002781,0.02383964173589447,0.6651586684860507,0.2209726572036743,0.9685955047607422,0.1139914020895958,0,0,0,-1,-1,4680.590569625,running,2,2022-06-30T09:46:20.875+02:00,2022-06-30T08:20:05.567+02:00,1379,1.385177,0,0,1089.191,0,0,2022-06-30T09:44:05.799+02:00
2022-06-30T09:46:22.194+02:00,4681.910795791667,-0.1264495849609375,0.7307586669921875,0.62548828125,4681.900843791667,1.945503411721269,2.047494767032276,-1.332967867438446,-0.8304603695869446,-6.49172830581665,-1.92515242099762,-0.2820519506931305,-0.1759684085845947,0.7978429794311523,XArbitraryZVertical,-0.7358426108318709,0.1121894709234569,0.04061100379518873,0.6665583813475512,0.2093282788991928,0.9718518853187561,0.1081016510725021,0,0,0,-1,-1,4680.590569625,running,2,2022-06-30T09:46:20.875+02:00,2022-06-30T08:20:05.567+02:00,1379,1.385177,0,0,1089.191,0,0,2022-06-30T09:44:05.799+02:00
2022-06-30T09:46:22.204+02:00,4681.920747791667,-0.2068939208984375,0.5835418701171875,0.5236358642578125,4681.910795791667,2.021741928406951,2.054941117822874,-1.346598343183456,-0.9994199872016907,-6.90570592880249,-2.068138122558594,-0.2675142586231232,-0.1791961193084717,0.6245301961898804,XArbitraryZVertical,-0.7382220072016026,0.08227456086539796,0.05894759500098538,0.6669216671135494,0.1967741996049881,0.9749727249145508,0.1034816727042198,0,0,0,-1,-1,4680.590569625,running,2,2022-06-30T09:46:20.875+02:00,2022-06-30T08:20:05.567+02:00,1379,1.385177,0,0,1089.191,0,0,2022-06-30T09:44:05.799+02:00
2022-06-30T09:46:22.213+02:00,4681.930698791667,-0.21563720703125,0.427978515625,0.485687255859375,4681.920747791667,2.110827577443186,2.071925677425328,-1.36147154747586,-0.9137220978736877,-7.186068058013916,-2.31219482421875,-0.3086986839771271,-0.2474126815795898,0.5256577730178833,XArbitraryZVertical,-0.7398473632082642,0.05040890108254473,0.07776445050152574,0.666361426839465,0.1822487413883209,0.9781714677810669,0.09983035922050476,0,0,0,-1,-1,4680.590569625,running,2,2022-06-30T09:46:20.875+02:00,2022-06-30T08:20:05.567+02:00,1379,1.385177,0,0,1089.191,0,0,2022-06-30T09:44:05.799+02:00
2022-06-30T09:46:22.223+02:00,4681.940650791667,-0.3030853271484375,0.4942474365234375,0.4329071044921875,4681.930698791667,2.20009790904232,2.085829734460051,-1.379444147501176,-0.4245797097682953,-7.622698783874512,-2.482974767684937,-0.3724094033241272,-0.3982059955596924,0.4299565553665161,XArbitraryZVertical,-0.7392997298899618,0.01659812252375395,0.09698464927161558,0.6661489601077508,0.1655150949954987,0.9817479848861694,0.09367917478084564,0,0,0,-1,-1,4680.590569625,running,2,2022-06-30T09:46:20.875+02:00,2022-06-30T08:20:05.567+02:00,1379,1.385177,0,0,1089.191,0,0,2022-06-30T09:44:05.799+02:00
2022-06-30T09:46:22.233+02:00,4681.950601791667,-0.4417266845703125,0.8523101806640625,0.8857574462890625,4681.940650791667,2.285327761083232,2.092304367352457,-1.399960618170633,-0.2470499128103256,-7.890291213989258,-2.526390552520752,-0.36304572224617,-0.5574642419815063,0.4009914398193359,XArbitraryZVertical,-0.7362046866082883,-0.01872194059227775,0.117057687555501,0.6662956371430204,0.1474081426858902,0.9854430556297302,0.08469570428133011,0,0,0,-1,-1,4680.590569625,running,2,2022-06-30T09:46:20.875+02:00,2022-06-30T08:20:05.567+02:00,1379,1.385177,0,0,1089.191,0,0,2022-06-30T09:44:05.799+02:00
2022-06-30T09:46:22.243+02:00,4681.960553791667,-3.084625244140625,1.492324829101562,-5.607986450195312,4681.950601791667,2.366400241459107,2.09793936485722,-1.424110675153262,0.5818908214569092,-6.043083190917969,-3.217580795288086,-0.4294041395187378,-0.4950134754180908,0.3593788146972656,XArbitraryZVertical,-0.7306868368476497,-0.05348657603229787,0.1352655549913184,0.667037576390013,0.1263184100389481,0.9892609119415283,0.07352813333272934,0,0,0,-1,-1,4680.590569625,running,2,2022-06-30T09:46:20.875+02:00,2022-06-30T08:20:05.567+02:00,1379,1.385177,0,0,1089.191,0,0,2022-06-30T09:44:05.799+02:00
2022-06-30T09:46:22.253+02:00,4681.970505791667,-1.940353393554688,2.558395385742188,-7.994094848632812,4681.960553791667,2.494125474508668,2.219721179552906,-1.45324500661111,-0.3053871393203735,4.213381767272949,-1.559348106384277,-0.535169780254364,-0.1407884359359741,0.8148802518844604,XArbitraryZVertical,-0.7286448501712423,-0.0671957121404493,0.1258954187139531,0.6698596244183536,0.09344270825386047,0.9930987954139709,0.07087716460227966,0,0,0,-1,-1,4680.590569625,running,2,2022-06-30T09:46:20.875+02:00,2022-06-30T08:20:05.567+02:00,1379,1.385177,0,0,1089.191,0,0,2022-06-30T09:44:05.799+02:00
2022-06-30T09:46:22.264+02:00,4681.980456791667,-0.629180908203125,1.169967651367188,-4.587844848632812,4681.970505791667,2.545819985461678,2.301711978222568,-1.455254711971349,-0.04781517758965492,0.8396483063697815,-0.419677346944809,-3.170463085174561,0.4989924430847168,-5.684945583343506,XArbitraryZVertical,-0.7314284621172359,-0.05909309462072181,0.1128019632512686,0.6699225602275458,0.08583753556013107,0.9933325052261353,0.07695917785167694,0,0,0,-1,-1,4680.590569625,running,2,2022-06-30T09:46:20.875+02:00,2022-06-30T08:20:05.567+02:00,1379,1.385177,0,0,1089.191,0,0,2022-06-30T09:44:05.799+02:00
2022-06-30T09:46:22.273+02:00,4681.990408791667,0.4020538330078125,0.851226806640625,-2.914886474609375,4681.980456791667,2.641486543065903,2.395110428529303,-1.46843050082428,0.5635542273521423,-0.221704974770546,-2.796001672744751,-2.009745836257935,1.563630342483521,-8.069109916687012,XArbitraryZVertical,-0.7302030550524355,-0.06565662819525675,0.1078898860428192,0.6714555720986598,0.06939203292131424,0.9947652220726013,0.07501459121704102,0,0,0,-1,-1,4680.590569625,running,2,2022-06-30T09:46:20.875+02:00,2022-06-30T08:20:05.567+02:00,1379,1.385177,0,0,1089.191,0,0,2022-06-30T09:44:05.799+02:00
2022-06-30T09:46:22.283+02:00,4682.000360791667,1.122665405273438,1.15386962890625,-1.644973754882812,4681.990408791667,2.853446702316879,2.612371934635833,-1.495637861795486,1.39298677444458,0.8383732438087463,-2.968978881835938,-0.6670897006988525,0.1727906465530396,-4.652659893035889,XArbitraryZVertical,-0.7258586363901899,-0.07440911391213099,0.0955237961196355,0.6771024001937955,0.03790836408734322,0.9971769452095032,0.06481495499610901,0,0,0,-1,-1,4680.590569625,running,2,2022-06-30T09:46:20.875+02:00,2022-06-30T08:20:05.567+02:00,1379,1.385177,0,0,1089.191,0,0,2022-06-30T09:44:05.799+02:00
2022-06-30T09:46:22.293+02:00,4682.010311791667,0.3200836181640625,1.281295776367188,-0.9593505859375,4682.000360791667,3.10625809692118,2.863859211681563,-1.5150873418463,0.9104189872741699,-1.018102407455444,-1.658375263214111,0.3867872059345245,-0.1472218632698059,-2.968433141708374,XArbitraryZVertical,-0.7211001865207715,-0.08238798851709178,0.08852826761076102,0.6821946120495522,0.01526621729135513,0.9984486699104309,0.05354651808738708,0,0,0,-1,-1,4680.590569625,running,2,2022-06-30T09:46:20.875+02:00,2022-06-30T08:20:05.567+02:00,1379,1.385177,0,0,1089.191,0,0,2022-06-30T09:44:05.799+02:00
2022-06-30T09:46:22.303+02:00,4682.020263791667,-0.07757568359375,1.643203735351562,-1.051605224609375,4682.010311791667,-2.750610331445459,-3.004957173801134,-1.525511738719357,0.8968826532363892,-1.228833198547363,-2.6982581615448,1.128831624984741,0.1548948884010315,-1.689824342727661,XArbitraryZVertical,-0.7166730121586818,-0.09383512003427512,0.08548543307833277,0.6857602699055996,-0.006166588980704546,0.9989748001098633,0.04485047236084938,0,0,0,-1,-1,4680.590569625,running,2,2022-06-30T09:46:20.875+02:00,2022-06-30T08:20:05.567+02:00,1379,1.385177,0,0,1089.191,0,0,2022-06-30T09:44:05.799+02:00
2022-06-30T09:46:22.313+02:00,4682.030215791667,-0.430084228515625,1.8675537109375,-1.354232788085938,4682.020263791667,-2.123380327561091,-2.390447621081615,-1.516504841912097,0.0724228173494339,-1.248790383338928,-3.289689064025879,0.3571189045906067,0.2827692031860352,-0.9990146160125732,XArbitraryZVertical,-0.7127132698246709,-0.1089576350068805,0.07925758352408072,0.6883940450779301,-0.03703571110963821,0.9985265731811523,0.03966394066810608,0,0,0,-1,-1,4680.590569625,running,2,2022-06-30T09:46:20.875+02:00,2022-06-30T08:20:05.567+02:00,1379,1.385177,0,0,1089.191,0,0,2022-06-30T09:44:05.799+02:00
2022-06-30T09:46:22.323+02:00,4682.040166791667,-0.49493408203125,1.48516845703125,-0.1219635009765625,4682.030215791667,-1.8497660893621,-2.128992524804006,-1.48665549773162,-0.7622882723808289,-1.041704416275024,-3.548764944076538,-0.006289660930633545,0.6467416286468506,-1.096119403839111,XArbitraryZVertical,-0.7116952778777682,-0.1254865371444763,0.07114156589855924,0.6875187044763251,-0.07128644734621048,0.9964622259140015,0.04451407864689827,0,0,0,-1,-1,4680.590569625,running,2,2022-06-30T09:46:20.875+02:00,2022-06-30T08:20:05.567+02:00,1379,1.385177,0,0,1089.191,0,0,2022-06-30T09:44:05.799+02:00
2022-06-30T09:46:22.333+02:00,4682.050118791667,-0.5374298095703125,1.20892333984375,0.8509521484375,4682.040166791667,-1.720242340558642,-2.010644752029904,-1.452890576429695,0.03795299306511879,-1.144720077514648,-3.551340103149414,-0.3236482739448547,0.8744965791702271,-1.404321312904358,XArbitraryZVertical,-0.7105490151904938,-0.1420011618503121,0.06226809578097121,0.6863515823687156,-0.1064363792538643,0.9930571913719177,0.05008846521377563,0,0,0,-1,-1,4680.590569625,running,2,2022-06-30T09:46:20.875+02:00,2022-06-30T08:20:05.567+02:00,1379,1.385177,0,0,1089.191,0,0,2022-06-30T09:44:05.799+02:00
2022-06-30T09:46:22.343+02:00,4682.060069791667,-1.055099487304688,1.766250610351562,0.3900146484375,4682.050118791667,-1.571087198690094,-1.874105734926051,-1.422161074036934,1.41177237033844,-0.9769670963287354,-3.504574060440063,-0.3536060452461243,0.4961942434310913,-0.1661945581436157,XArbitraryZVertical,-0.7050162484644192,-0.1583274914609762,0.05453097056535502,0.6891377332827441,-0.1413284540176392,0.9889740943908691,0.04423100873827934,0,0,0,-1,-1,4680.590569625,running,2,2022-06-30T09:46:20.875+02:00,2022-06-30T08:20:05.567+02:00,1379,1.385177,0,0,1089.191,0,0,2022-06-30T09:44:05.799+02:00
2022-06-30T09:46:22.353+02:00,4682.070021791667,-1.72589111328125,3.297561645507812,-0.272735595703125,4682.060069791667,-1.413980076113672,-1.724952901954623,-1.393982610734119,2.153499126434326,-0.1599814593791962,-3.035504102706909,-0.3636220693588257,0.2245141267776489,0.823944091796875,XArbitraryZVertical,-0.6957652645688961,-0.1715070563242035,0.04664370069339902,0.6959313279943995,-0.1738081276416779,0.9844091534614563,0.0270079467445612,0,0,0,-1,-1,4680.590569625,running,2,2022-06-30T09:46:20.875+02:00,2022-06-30T08:20:05.567+02:00,1379,1.385177,0,0,1089.191,0,0,2022-06-30T09:44:05.799+02:00
2022-06-30T09:46:22.363+02:00,4682.079973791667,-2.574951171875,4.120758056640625,-1.306716918945312,4682.070021791667,-1.295573263508329,-1.606767738330424,-1.368572717003526,1.859617114067078,0.5394670963287354,-2.497496128082275,-0.854381799697876,0.7866280674934387,0.38279128074646,XArbitraryZVertical,-0.6864785105835518,-0.1798857089797088,0.03815582758093838,0.703514386184761,-0.2007180601358414,0.9796223640441895,0.007223227526992559,0,0,0,-1,-1,4680.590569625,running,2,2022-06-30T09:46:20.875+02:00,2022-06-30T08:20:05.567+02:00,1379,1.385177,0,0,1089.191,0,0,2022-06-30T09:44:05.799+02:00
2022-06-30T09:46:22.373+02:00,4682.089924791667,-2.765853881835938,3.948532104492188,-1.65814208984375,4682.079973791667,-1.186503672586995,-1.489957890152421,-1.341493280699273,3.165708541870117,1.653763651847839,-2.836261034011841,-1.499334573745728,2.323736667633057,-0.2543811798095703,XArbitraryZVertical,-0.6757502350785591,-0.1848901389502966,0.02745869210988726,0.7130381282292705,-0.2265570014715195,0.9738250374794006,-0.01835451275110245,0,0,0,-1,-1,4680.590569625,running,2,2022-06-30T09:46:20.875+02:00,2022-06-30T08:20:05.567+02:00,1379,1.385177,0,0,1089.191,0,0,2022-06-30T09:44:05.799+02:00
2022-06-30T09:46:22.383+02:00,4682.099876791667,-2.366958618164062,3.318435668945312,-1.471343994140625,4682.089924791667,-1.049322239814046,-1.331384032383209,-1.308154444888109,4.345465660095215,3.477777481079102,-2.520667791366577,-2.322724342346191,3.15505051612854,-1.245149850845337,XArbitraryZVertical,-0.659676368496068,-0.1845088449855078,0.01256686052323575,0.7284405520995996,-0.2522273361682892,0.9657074213027954,-0.06156715005636215,0,0,0,-1,-1,4680.590569625,running,2,2022-06-30T09:46:20.875+02:00,2022-06-30T08:20:05.567+02:00,1379,1.385177,0,0,1089.191,0,0,2022-06-30T09:44:05.799+02:00
2022-06-30T09:46:22.392+02:00,4682.109828791667,-1.904937744140625,2.859710693359375,-1.184280395507812,4682.099876791667,-0.9245249658621335,-1.171616503741356,-1.274547226169477,4.183903217315674,4.326668262481689,-1.724419593811035,-2.496870994567871,2.992093801498413,-1.54467785358429,XArbitraryZVertical,-0.6419332897816832,-0.1766054640158435,-0.004237919818405998,0.7461329140433647,-0.2689832150936127,0.9564382433891296,-0.1134643256664276,0,0,0,-1,-1,4680.590569625,running,2,2022-06-30T09:46:20.875+02:00,2022-06-30T08:20:05.567+02:00,1379,1.385177,0,0,1089.191,0,0,2022-06-30T09:44:05.799+02:00
2022-06-30T09:46:22.403+02:00,4682.119779791667,-1.8817138671875,2.962249755859375,-0.9364776611328125,4682.109828791667,-0.8363482738883741,-1.04590369591579,-1.245416502881436,3.230221033096313,4.003547668457031,-1.076093077659607,-2.090324878692627,2.370906114578247,-1.311151623725891,XArbitraryZVertical,-0.6264972488350727,-0.1655445175878344,-0.01959052540841077,0.761388487242425,-0.2766341865062714,0.9475293755531311,-0.1601924151182175,0,0,0,-1,-1,4680.590569625,running,2,2022-06-30T09:46:20.875+02:00,2022-06-30T08:20:05.567+02:00,1379,1.385177,0,0,1089.191,0,0,2022-06-30T09:44:05.799+02:00
2022-06-30T09:46:22.412+02:00,4682.129731791667,-2.249465942382812,3.35302734375,-0.752960205078125,4682.119779791667,-0.7767890229502555,-0.951581535141515,-1.224979959560267,2.361914873123169,3.721732139587402,-0.1962507218122482,-1.628907203674316,1.918911576271057,-0.9875465631484985,XArbitraryZVertical,-0.6149176918445026,-0.1533272394273112,-0.03172823599069788,0.7728909613741144,-0.2760309875011444,0.9407990574836731,-0.1967339813709259,0,0,0,-1,-1,4680.590569625,running,2,2022-06-30T09:46:20.875+02:00,2022-06-30T08:20:05.567+02:00,1379,1.385177,0,0,1089.191,0,0,2022-06-30T09:44:05.799+02:00
2022-06-30T09:46:22.422+02:00,4682.139683791667,-2.47296142578125,3.544326782226562,-0.619842529296875,4682.129731791667,-0.7207833093322813,-0.8608491989407612,-1.213158079319573,2.272163391113281,4.020334720611572,0.6850276589393616,-1.616227626800537,2.02552342414856,-0.7083088755607605,XArbitraryZVertical,-0.6056751098400162,-0.1381057260679335,-0.04072312897719038,0.7825766458757702,-0.2654865980148315,0.9367262125015259,-0.2281689345836639,0,0,0,-1,-1,4680.590569625,running,2,2022-06-30T09:46:20.875+02:00,2022-06-30T08:20:05.567+02:00,1379,1.385177,0,0,1089.191,0,0,2022-06-30T09:44:05.799+02:00
2022-06-30T09:46:22.433+02:00,4682.149634791667,-2.440322875976562,3.334884643554688,-0.375732421875,4682.139683791667,-0.6510292087469822,-0.7528892847297904,-1.202871255144055,2.763848543167114,4.565408229827881,1.255321979522705,-2.003535032272339,2.419951438903809,-0.4904958605766296,XArbitraryZVertical,-0.5955061694794346,-0.1189123943221544,-0.0481323778615397,0.793041940782754,-0.2459312826395035,0.9330756664276123,-0.2624644935131073,0,0,0,-1,-1,4680.590569625,running,2,2022-06-30T09:46:20.875+02:00,2022-06-30T08:20:05.567+02:00,1379,1.385177,0,0,1089.191,0,0,2022-06-30T09:44:05.799+02:00
2022-06-30T09:46:22.451+02:00,4682.159586791667,-2.4376220703125,2.8785400390625,-0.1266937255859375,4682.149634791667,-0.5677372860176843,-0.6283527189904174,-1.189840924881979,3.107789993286133,4.834979057312012,1.808085203170776,-2.254408597946167,2.616016864776611,-0.3190515339374542,XArbitraryZVertical,-0.5833596908411568,-0.09641536924455597,-0.05433542391484072,0.8046385346159222,-0.2185532301664352,0.9283098578453064,-0.3007910847663879,0,0,0,-1,-1,4680.590569625,running,2,2022-06-30T09:46:20.875+02:00,2022-06-30T08:20:05.567+02:00,1379,1.385177,0,0,1089.191,0,0,2022-06-30T09:44:05.799+02:00
2022-06-30T09:46:22.453+02:00,4682.169537791667,-2.52532958984375,2.547561645507812,0.09381103515625,4682.159586791667,-0.477925442864601,-0.4970539506285018,-1.174211372886784,3.172760009765625,4.831134796142578,2.288886547088623,-2.256134510040283,2.412498950958252,-0.03620398044586182,XArbitraryZVertical,-0.5701484083155833,-0.07187833369950564,-0.05861768916900578,0.8162893837162556,-0.1841886043548584,0.9223855137825012,-0.3395285904407501,0,0,0,-1,-1,4680.590569625,running,2,2022-06-30T09:46:20.875+02:00,2022-06-30T08:20:05.567+02:00,1379,1.385177,0,0,1089.191,0,0,2022-06-30T09:44:05.799+02:00
2022-06-30T09:46:22.462+02:00,4682.179489791667,-2.609115600585938,2.381317138671875,0.305572509765625,4682.169537791667,-0.3878686567044924,-0.3662102418599829,-1.155668779603811,3.198462247848511,4.857404708862305,2.641906976699829,-2.293206453323364,1.963474988937378,0.2498700618743896,XArbitraryZVertical,-0.5564059889138245,-0.04615609850569726,-0.0611418950564549,0.8273716030334543,-0.1444159299135208,0.9150648713111877,-0.3765639662742615,0,0,0,-1,-1,4680.590569625,running,2,2022-06-30T09:46:20.875+02:00,2022-06-30T08:20:05.567+02:00,1379,1.385177,0,0,1089.191,0,0,2022-06-30T09:44:05.799+02:00
2022-06-30T09:46:22.485+02:00,4682.189441791667,-2.638748168945312,2.217910766601562,0.50616455078125,4682.179489791667,-0.3000753573408059,-0.236936956518697,-1.13352034040052,3.202831029891968,5.082454681396484,3.013688564300537,-2.425929546356201,1.641652941703796,0.5054530501365662,XArbitraryZVertical,-0.5420531828658138,-0.01890043700521787,-0.0624759391049873,0.8378054439641182,-0.09940034151077271,0.9059085845947266,-0.4116422533988953,0,0,0,-1,-1,4680.590569625,running,2,2022-06-30T09:46:20.875+02:00,2022-06-30T08:20:05.567+02:00,1379,1.385177,0,0,1089.191,0,0,2022-06-30T09:44:05.799+02:00
2022-06-30T09:46:22.489+02:00,4682.199392791667,-2.636184692382812,2.090438842773438,0.6041717529296875,4682.189441791667,-0.2150446378950825,-0.1082504300292661,-1.107794874969122,3.151319026947021,5.389438629150391,3.434121608734131,-2.560861825942993,1.486601114273071,0.7495934963226318,XArbitraryZVertical,-0.5271399841873012,0.01062151366564698,-0.06284397354865523,0.8473849499983751,-0.04825412109494209,0.8947159647941589,-0.4440212547779083,0,0,0,-1,-1,4680.590569625,running,2,2022-06-30T09:46:20.875+02:00,2022-06-30T08:20:05.567+02:00,1379,1.385177,0,0,1089.191,0,0,2022-06-30T09:44:05.799+02:00
2022-06-30T09:46:22.492+02:00,4682.209344791667,-2.628143310546875,2.06280517578125,0.682861328125,4682.199392791667,-0.1331406040018861,0.01951174912130212,-1.07858987437148,3.043227195739746,5.659797668457031,3.86732006072998,-2.647968530654907,1.336618304252625,0.978645920753479,XArbitraryZVertical,-0.5118124736693382,0.04251162143319154,-0.06207592215739721,0.8557962602464939,0.009220111183822155,0.8812922835350037,-0.4724815189838409,0,0,0,-1,-1,4680.590569625,running,2,2022-06-30T09:46:20.875+02:00,2022-06-30T08:20:05.567+02:00,1379,1.385177,0,0,1089.191,0,0,2022-06-30T09:44:05.799+02:00
2022-06-30T09:46:22.502+02:00,4682.219296791667,-2.538955688476562,2.013504028320312,0.7090911865234375,4682.209344791667,-0.05538792183435216,0.1447964949932921,-1.045585541186772,2.928078174591064,5.866215229034424,4.256111145019531,-2.708531856536865,1.225220441818237,1.100320100784302,XArbitraryZVertical,-0.4960673766886308,0.07643870766966122,-0.06003205028015998,0.8628270769811971,0.07234688848257065,0.8652182817459106,-0.496148556470871,0,0,0,-1,-1,4680.590569625,running,2,2022-06-30T09:46:20.875+02:00,2022-06-30T08:20:05.567+02:00,1379,1.385177,0,0,1089.191,0,0,2022-06-30T09:44:05.799+02:00
2022-06-30T09:46:22.512+02:00,4682.229247791667,-2.44415283203125,1.895156860351562,0.729644775390625,4682.219296791667,0.01622572313101204,0.2653074761279586,-1.007913019210541,3.00200366973877,6.029669761657715,4.572614192962646,-2.76806378364563,1.217085123062134,1.197817444801331,XArbitraryZVertical,-0.4795752459215735,0.1119346732031962,-0.05682608708333073,0.8684751832405797,0.1399202048778534,0.8457199931144714,-0.5149564146995544,0,0,0,-1,-1,4680.590569625,running,2,2022-06-30T09:46:20.875+02:00,2022-06-30T08:20:05.567+02:00,1379,1.385177,0,0,1089.191,0,0,2022-06-30T09:44:05.799+02:00
2022-06-30T09:46:22.522+02:00,4682.239199791667,-2.42236328125,1.752456665039062,0.8035888671875,4682.229247791667,0.07844468485639609,0.3777010287915875,-0.9631785996365055,3.366766452789307,6.12110710144043,4.82260274887085,-2.749500036239624,1.192493557929993,1.239763379096985,XArbitraryZVertical,-0.4611272094445042,0.1484098204864497,-0.05275301804064068,0.8732430758096696,0.2105439901351929,0.821010410785675,-0.5306724309921265,0,0,0,-1,-1,4680.590569625,running,2,2022-06-30T09:46:20.875+02:00,2022-06-30T08:20:05.567+02:00,1379,1.385177,0,0,1089.191,0,0,2022-06-30T09:44:05.799+02:00
2022-06-30T09:46:22.532+02:00,4682.249150791667,-2.43890380859375,1.5740966796875,0.874237060546875,4682.239199791667,0.1283535354735938,0.4792285309679696,-0.9103674027794086,3.807979822158813,6.201735496520996,4.991235733032227,-2.727014303207397,1.105427503585815,1.273994922637939,XArbitraryZVertical,-0.4398585762321502,0.1853354808924469,-0.04816405101708534,0.8774140199692775,0.2828611433506012,0.7897291779518127,-0.5443503856658936,0,0,0,-1,-1,4680.590569625,running,2,2022-06-30T09:46:20.875+02:00,2022-06-30T08:20:05.567+02:00,1379,1.385177,0,0,1089.191,0,0,2022-06-30T09:44:05.799+02:00
2022-06-30T09:46:22.542+02:00,4682.259102791667,-2.485382080078125,1.412384033203125,0.9311370849609375,4682.249150791667,0.1650985898994136,0.5699100542805235,-0.8505176420446411,4.23958158493042,6.337616920471191,5.110538482666016,-2.778251647949219,1.000834703445435,1.358933568000793,XArbitraryZVertical,-0.415686600647626,0.2225581865583837,-0.04349811269798303,0.8807840043360645,0.3558882176876068,0.7516219615936279,-0.5553449988365173,0,0,0,-1,-1,4680.590569625,running,2,2022-06-30T09:46:20.875+02:00,2022-06-30T08:20:05.567+02:00,1379,1.385177,0,0,1089.191,0,0,2022-06-30T09:44:05.799+02:00
2022-06-30T09:46:22.552+02:00,4682.269054791667,-2.537796020507812,1.293701171875,1.007659912109375,4682.259102791667,0.1897415004475734,0.6519860398451547,-0.7851048283960397,4.553014278411865,6.544641017913818,5.216785907745361,-2.868078470230103,0.8671972751617432,1.436466932296753,XArbitraryZVertical,-0.3887998862800926,0.2602298590484283,-0.03904643862497286,0.882944230936791,0.429174393415451,0.7068993449211121,-0.562230110168457,0,0,0,-1,-1,4680.590569625,running,2,2022-06-30T09:46:20.875+02:00,2022-06-30T08:20:05.567+02:00,1379,1.385177,0,0,1089.191,0,0,2022-06-30T09:44:05.799+02:00
2022-06-30T09:46:22.562+02:00,4682.279005791667,-2.503982543945312,1.2025146484375,0.9854278564453125,4682.269054791667,0.2045773348277141,0.7284550807124466,-0.7161024591570707,4.76939058303833,6.787716388702393,5.296432018280029,-2.987579822540283,0.755934476852417,1.4940505027771,XArbitraryZVertical,-0.3598160161885403,0.2984552413834475,-0.03482631534798927,0.883314327678944,0.5021974444389343,0.6564494967460632,-0.5629138350486755,0,0,0,-1,-1,4680.590569625,running,2,2022-06-30T09:46:20.875+02:00,2022-06-30T08:20:05.567+02:00,1379,1.385177,0,0,1089.191,0,0,2022-06-30T09:44:05.799+02:00
2022-06-30T09:46:22.572+02:00,4682.288957791667,-2.43310546875,1.18402099609375,0.9117584228515625,4682.279005791667,0.2095974744338333,0.8004335016806059,-0.643852127115101,5.20294713973999,7.055561065673828,5.328039169311523,-3.111771583557129,0.6934202909469604,1.564629554748535,XArbitraryZVertical,-0.3284559952140971,0.3370930275957258,-0.0312051664772424,0.8817660478705474,0.5739753246307373,0.60028076171875,-0.5569698810577393,0,0,0,-1,-1,4680.590569625,running,2,2022-06-30T09:46:20.875+02:00,2022-06-30T08:20:05.567+02:00,1379,1.385177,0,0,1089.191,0,0,2022-06-30T09:44:05.799+02:00
2022-06-30T09:46:22.582+02:00,4682.298909791667,-2.388916015625,1.150726318359375,0.9423370361328125,4682.288957791667,0.2033963944622711,0.8685296708469259,-0.5676576739571133,5.84034252166748,7.328759670257568,5.334350109100342,-3.14763617515564,0.66485595703125,1.530068159103394,XArbitraryZVertical,-0.2937340630120653,0.3760318663157511,-0.02879874976401156,0.8783456421108333,0.6436535716056824,0.5376585721969604,-0.5446406602859497,0,0,0,-1,-1,4680.590569625,running,2,2022-06-30T09:46:20.875+02:00,2022-06-30T08:20:05.567+02:00,1379,1.385177,0,0,1089.191,0,0,2022-06-30T09:44:05.799+02:00
2022-06-30T09:46:22.592+02:00,4682.308860791667,-2.42486572265625,0.94061279296875,1.058197021484375,4682.298909791667,0.1870294845647788,0.9342124856444235,-0.4889036445141087,6.161706924438477,7.522454738616943,5.31850528717041,-3.143031597137451,0.714362621307373,1.436568975448608,XArbitraryZVertical,-0.2559520723803906,0.4148290149122481,-0.02761188968567246,0.8727216484297443,0.7099258899688721,0.4696582555770874,-0.5248108506202698,0,0,0,-1,-1,4680.590569625,running,2,2022-06-30T09:46:20.875+02:00,2022-06-30T08:20:05.567+02:00,1379,1.385177,0,0,1089.191,0,0,2022-06-30T09:44:05.799+02:00
2022-06-30T09:46:22.602+02:00,4682.318812791667,-2.482162475585938,0.735260009765625,1.3126220703125,4682.308860791667,0.1639312039328952,1.000293532518499,-0.4108222103324605,6.160015106201172,7.80174732208252,5.223963260650635,-3.160516023635864,0.7513628602027893,1.437455415725708,XArbitraryZVertical,-0.2168224894051191,0.4532423531790373,-0.02715122556253812,0.8641886957323115,0.7715998291969299,0.399363249540329,-0.4951187670230865,0,0,0,-1,-1,4680.590569625,running,2,2022-06-30T09:46:20.875+02:00,2022-06-30T08:20:05.567+02:00,1379,1.385177,0,0,1089.191,0,0,2022-06-30T09:44:05.799+02:00
2022-06-30T09:46:22.611+02:00,4682.328764791667,-2.463180541992188,0.618743896484375,1.494949340820312,4682.318812791667,0.136730887923677,1.069465416230652,-0.3359187562729557,5.861332893371582,8.097955703735352,5.138727188110352,-3.252795219421387,0.6109759211540222,1.51192843914032,XArbitraryZVertical,-0.1778213318115769,0.4914404428927858,-0.0270440235358095,0.8521352781282826,0.8279294967651367,0.3296367228031158,-0.4537317156791687,0,0,0,-1,-1,4680.590569625,running,2,2022-06-30T09:46:20.875+02:00,2022-06-30T08:20:05.567+02:00,1379,1.385177,0,0,1089.191,0,0,2022-06-30T09:44:05.799+02:00
2022-06-30T09:46:22.621+02:00,4682.338715791667,-2.448486328125,0.5463714599609375,1.64556884765625,4682.328764791667,0.1090113675508519,1.143081300167117,-0.2651320068703301,5.240133762359619,8.359277725219727,5.204187870025635,-3.360284090042114,0.4732231795787811,1.712920784950256,XArbitraryZVertical,-0.1402162362284625,0.5293296535968901,-0.02597439830548072,0.8363461768107254,0.8781216144561768,0.2620366513729095,-0.4002990424633026,0,0,0,-1,-1,4680.590569625,running,2,2022-06-30T09:46:20.875+02:00,2022-06-30T08:20:05.567+02:00,1379,1.385177,0,0,1089.191,0,0,2022-06-30T09:44:05.799+02:00
2022-06-30T09:46:22.631+02:00,4682.348667791667,-2.382965087890625,0.4944610595703125,1.638458251953125,4682.338715791667,0.08339270161263676,1.221565440052901,-0.1988063187846962,4.447212219238281,8.620209693908691,5.210280418395996,-3.384308815002441,0.4212443828582764,1.830384492874146,XArbitraryZVertical,-0.1050145927824421,0.566792933771656,-0.02288612386317551,0.8168194121886916,0.9211282134056091,0.1974993050098419,-0.3354354202747345,0,0,0,-1,-1,4680.590569625,running,2,2022-06-30T09:46:20.875+02:00,2022-06-30T08:20:05.567+02:00,1379,1.385177,0,0,1089.191,0,0,2022-06-30T09:44:05.799+02:00
2022-06-30T09:46:22.641+02:00,4682.358618791667,-2.26849365234375,0.470611572265625,1.601516723632812,4682.348667791667,0.05981322572790411,1.304445532039238,-0.1372920377367779,3.785373449325562,8.832328796386719,5.163259983062744,-3.404146194458008,0.4095101058483124,1.906304359436035,XArbitraryZVertical,-0.07259479250793902,0.6036240894602205,-0.01790530294385962,0.7937552431739922,0.9556599259376526,0.1368611454963684,-0.2607358992099762,0,0,0,-1,-1,4680.590569625,running,2,2022-06-30T09:46:20.875+02:00,2022-06-30T08:20:05.567+02:00,1379,1.385177,0,0,1089.191,0,0,2022-06-30T09:44:05.799+02:00
2022-06-30T09:46:22.651+02:00,4682.368570791667,-2.270462036132812,0.4324493408203125,1.60260009765625,4682.358618791667,0.03609570344729372,1.390272935526173,-0.07902324673304684,3.491390466690063,8.949265480041504,5.219844818115234,-3.363645076751709,0.4155198037624359,1.817442178726196,XArbitraryZVertical,-0.04188058436077607,0.6393386647693871,-0.0114475325116698,0.7676985333335521,0.9806798696517944,0.07894102483987808,-0.1789841800928116,0,0,0,-1,-1,4680.590569625,running,2,2022-06-30T09:46:20.875+02:00,2022-06-30T08:20:05.567+02:00,1379,1.385177,0,0,1089.191,0,0,2022-06-30T09:44:05.799+02:00
2022-06-30T09:46:22.661+02:00,4682.378522791667,-2.278579711914062,0.347686767578125,1.629730224609375,4682.368570791667,0.008857531830580379,1.478248324262828,-0.02279797507702011,3.480981349945068,9.035874366760254,5.220407962799072,-3.263955354690552,0.447815328836441,1.693908333778381,XArbitraryZVertical,-0.01140745169360485,0.6735531946330684,-0.00440568718794428,0.7390375762922198,0.9954617023468018,0.02279599942266941,-0.09239193052053452,0,0,0,-1,-1,4680.590569625,running,2,2022-06-30T09:46:20.875+02:00,2022-06-30T08:20:05.567+02:00,1379,1.385177,0,0,1089.191,0,0,2022-06-30T09:44:05.799+02:00
2022-06-30T09:46:22.671+02:00,4682.388473791667,-2.18896484375,0.2776641845703125,1.7161865234375,4682.378522791667,-0.02442961655564871,1.568454868989405,0.03038283239262025,3.752536058425903,9.094783782958984,5.153843879699707,-3.269997835159302,0.4628272354602814,1.604940176010132,XArbitraryZVertical,0.0193791528514498,0.7060129326101489,0.002082091093490955,0.7079306267566203,0.9995356798171997,-0.03037815727293491,-0.002340374747291207,0,0,0,-1,-1,4680.590569625,running,2,2022-06-30T09:46:20.875+02:00,2022-06-30T08:20:05.567+02:00,1379,1.385177,0,0,1089.191,0,0,2022-06-30T09:44:05.799+02:00
2022-06-30T09:46:22.681+02:00,4682.398425791667,-2.100982666015625,0.206207275390625,1.713287353515625,4682.388473791667,-0.06573709464759996,1.660928953939974,0.07978343843257416,4.084300518035889,9.104275703430176,5.155561923980713,-3.271352529525757,0.4273853302001953,1.540005683898926,XArbitraryZVertical,0.05112797282497843,0.736374967430574,0.007276846303283317,0.6745998758249052,0.9927728176116943,-0.0796988233923912,0.08972432464361191,0,0,0,-1,-1,4680.590569625,running,2,2022-06-30T09:46:20.875+02:00,2022-06-30T08:20:05.567+02:00,1379,1.385177,0,0,1089.191,0,0,2022-06-30T09:44:05.799+02:00
2022-06-30T09:46:22.691+02:00,4682.408377791667,-2.048171997070312,0.0981292724609375,1.778488159179688,4682.398425791667,-0.114150524075806,1.754857517646492,0.124600333189773,4.296809673309326,9.064123153686523,5.0985426902771,-3.164451599121094,0.4019420742988586,1.534581542015076,XArbitraryZVertical,0.08351493790690739,0.764086140905932,0.01141795312395979,0.6395836371312258,0.9754868745803833,-0.1242781728506088,0.1816047579050064,0,0,0,-1,-1,4680.590569625,running,2,2022-06-30T09:46:20.875+02:00,2022-06-30T08:20:05.567+02:00,1379,1.385177,0,0,1089.191,0,0,2022-06-30T09:44:05.799+02:00
2022-06-30T09:46:22.701+02:00,4682.418328791667,-2.0377197265625,0.0070343017578125,1.834060668945312,4682.408377791667,-0.168326572076328,1.8516452112356,0.1631995955338048,4.400608062744141,9.019328117370605,4.948596954345703,-3.049036264419556,0.3686830401420593,1.439798593521118,XArbitraryZVertical,0.1157813723794539,0.7895181645433608,0.01453556385992396,0.6025318557862548,0.948053777217865,-0.1624761074781418,0.2734885215759277,0,0,0,-1,-1,4680.590569625,running,2,2022-06-30T09:46:20.875+02:00,2022-06-30T08:20:05.567+02:00,1379,1.385177,0,0,1089.191,0,0,2022-06-30T09:44:05.799+02:00
2022-06-30T09:46:22.711+02:00,4682.428280791667,-2.010086059570312,-0.0285491943359375,1.9456787109375,4682.418328791667,-0.2259237406888832,1.951054286025629,0.195532748702168,4.266685485839844,8.961138725280762,4.913084983825684,-2.959046363830566,0.2924180626869202,1.414400577545166,XArbitraryZVertical,0.1472722272920974,0.8126220496216107,0.01740146155071092,0.5636077475766565,0.9108746647834778,-0.1942891627550125,0.3640874028205872,0,0,0,-1,-1,4680.590569625,running,2,2022-06-30T09:46:20.875+02:00,2022-06-30T08:20:05.567+02:00,1379,1.385177,0,0,1089.191,0,0,2022-06-30T09:44:05.799+02:00
2022-06-30T09:46:22.721+02:00,4682.438231791667,-1.94219970703125,0.0572662353515625,2.023529052734375,4682.428280791667,-0.2854703868700729,2.051459565765919,0.2226315358755382,4.104274272918701,8.766493797302246,4.915852069854736,-2.902524471282959,0.2278309017419815,1.38310432434082,XArbitraryZVertical,0.1778945800953892,0.8329655523880256,0.02072573704609261,0.5235385010989928,0.8648051023483276,-0.2207969725131989,0.4509561955928802,0,0,0,-1,-1,4680.590569625,running,2,2022-06-30T09:46:20.875+02:00,2022-06-30T08:20:05.567+02:00,1379,1.385177,0,0,1089.191,0,0,2022-06-30T09:44:05.799+02:00
2022-06-30T09:46:22.731+02:00,4682.448183791667,-1.887451171875,0.1585235595703125,2.044387817382812,4682.438231791667,-0.3461983678193232,2.151538804459183,0.2440129356704794,3.997630596160889,8.551970481872559,4.790746212005615,-2.821374416351318,0.2130490392446518,1.413286447525024,XArbitraryZVertical,0.2073855970987568,0.8504041579873168,0.02428027508955086,0.4829229412522539,0.811288595199585,-0.2415986210107803,0.5323920249938965,0,0,0,-1,-1,4680.590569625,running,2,2022-06-30T09:46:20.875+02:00,2022-06-30T08:20:05.567+02:00,1379,1.385177,0,0,1089.191,0,0,2022-06-30T09:44:05.799+02:00
2022-06-30T09:46:22.741+02:00,4682.458135791667,-1.85870361328125,0.2418060302734375,2.025299072265625,4682.448183791667,-0.4081177877440106,2.250893442411398,0.2583058534014954,4.052603721618652,8.348237991333008,4.635276794433594,-2.693916797637939,0.3127088844776154,1.415523529052734,XArbitraryZVertical,0.2356864832141209,0.8651326604120545,0.02725272166201821,0.4418762913832087,0.7517170310020447,-0.2554429769515991,0.6080052852630615,0,0,0,-1,-1,4680.590569625,running,2,2022-06-30T09:46:20.875+02:00,2022-06-30T08:20:05.567+02:00,1379,1.385177,0,0,1089.191,0,0,2022-06-30T09:44:05.799+02:00
2022-06-30T09:46:22.751+02:00,4682.468086791667,-1.888229370117188,0.21978759765625,2.068466186523438,4682.458135791667,-0.4697826994858868,2.348740800506523,0.2656183995891068,3.877690315246582,8.134971618652344,4.423442840576172,-2.574826717376709,0.4210291504859924,1.367183446884155,XArbitraryZVertical,0.2625233568497808,0.8773161920870275,0.02972124037323898,0.4006427894751635,0.6873757839202881,-0.2625060379505157,0.677204430103302,0,0,0,-1,-1,4680.590569625,running,2,2022-06-30T09:46:20.875+02:00,2022-06-30T08:20:05.567+02:00,1379,1.385177,0,0,1089.191,0,0,2022-06-30T09:44:05.799+02:00
2022-06-30T09:46:22.761+02:00,4682.478038791667,-1.77239990234375,0.183013916015625,2.1717529296875,4682.468086791667,-0.5282977014683782,2.44400448133683,0.2671275738095756,3.618863821029663,7.927543163299561,4.115723609924316,-2.478291749954224,0.5057676434516907,1.286086797714233,XArbitraryZVertical,0.2871143665013888,0.8872268076635751,0.0323718135794606,0.3596470985234394,0.6195882558822632,-0.2639619708061218,0.7392121553421021,0,0,0,-1,-1,4680.590569625,running,2,2022-06-30T09:46:20.875+02:00,2022-06-30T08:20:05.567+02:00,1379,1.385177,0,0,1089.191,0,0,2022-06-30T09:44:05.799+02:00
2022-06-30T09:46:22.771+02:00,4682.487990791667,-1.636077880859375,0.1701202392578125,2.253173828125,4682.478038791667,-0.5830071493832302,2.536105181898393,0.2637588206882495,3.350263357162476,7.71699333190918,3.921739339828491,-2.437708854675293,0.4804983735084534,1.274676442146301,XArbitraryZVertical,0.3094913297116604,0.8950474901420378,0.03528269583941843,0.3191556890189344,0.549479603767395,-0.2607112228870392,0.793789803981781,0,0,0,-1,-1,4680.590569625,running,2,2022-06-30T09:46:20.875+02:00,2022-06-30T08:20:05.567+02:00,1379,1.385177,0,0,1089.191,0,0,2022-06-30T09:44:05.799+02:00
2022-06-30T09:46:22.781+02:00,4682.497941791667,-1.608428955078125,0.2072601318359375,2.358810424804688,4682.487990791667,-0.6339291584569372,2.625156570459253,0.2571045283628891,3.059719562530518,7.555363178253174,3.728495597839355,-2.249953508377075,0.4372949004173279,1.330751180648804,XArbitraryZVertical,0.3299695970782845,0.9008999799623887,0.03883966826153054,0.2792681693936771,0.4775535464286804,-0.2542813122272491,0.8410013914108276,0,0,0,-1,-1,4680.590569625,running,2,2022-06-30T09:46:20.875+02:00,2022-06-30T08:20:05.567+02:00,1379,1.385177,0,0,1089.191,0,0,2022-06-30T09:44:05.799+02:00
2022-06-30T09:46:22.791+02:00,4682.507893791667,-1.62542724609375,0.4000091552734375,2.415771484375,4682.497941791667,-0.6811859190690713,2.711008753533814,0.2468339685489583,3.023834705352783,7.328001499176025,3.519112825393677,-2.040828227996826,0.4144549965858459,1.371994137763977,XArbitraryZVertical,0.3486404459639253,0.9050080238282255,0.04253338131646659,0.2400022952228043,0.4047502875328064,-0.2443351149559021,0.8811793923377991,0,0,0,-1,-1,4680.590569625,running,2,2022-06-30T09:46:20.875+02:00,2022-06-30T08:20:05.567+02:00,1379,1.385177,0,0,1089.191,0,0,2022-06-30T09:44:05.799+02:00
2022-06-30T09:46:22.801+02:00,4682.517845791667,-1.719024658203125,0.6209564208984375,2.500808715820312,4682.507893791667,-0.7258906677444363,2.793078161548962,0.2320856157379729,2.998595476150513,7.042931079864502,3.444226503372192,-1.94077479839325,0.4372674226760864,1.444128513336182,XArbitraryZVertical,0.3660672305578471,0.9073784791836417,0.04546086500542872,0.2014756945955562,0.3323459625244141,-0.2300077229738235,0.9146818518638611,0,0,0,-1,-1,4680.590569625,running,2,2022-06-30T09:46:20.875+02:00,2022-06-30T08:20:05.567+02:00,1379,1.385177,0,0,1089.191,0,0,2022-06-30T09:44:05.799+02:00
2022-06-30T09:46:22.811+02:00,4682.527796791667,-1.75390625,0.602783203125,2.734100341796875,4682.517845791667,-0.7677127488021535,2.870594350990415,0.2150317308847274,2.768527269363403,6.655563354492188,3.309485673904419,-1.886955499649048,0.6133871078491211,1.474457025527954,XArbitraryZVertical,0.38236459868768,0.9079947641768761,0.04829063426601503,0.1643498676465261,0.2615283727645874,-0.2133784294128418,0.9413143396377563,0,0,0,-1,-1,4680.590569625,running,2,2022-06-30T09:46:20.875+02:00,2022-06-30T08:20:05.567+02:00,1379,1.385177,0,0,1089.191,0,0,2022-06-30T09:44:05.799+02:00
2022-06-30T09:46:22.820+02:00,4682.537748791667,-1.632354736328125,0.446258544921875,2.986557006835938,4682.527796791667,-0.8057096964575454,2.942275576556812,0.1973778674438753,2.417242527008057,6.178154945373535,3.141823530197144,-1.913180232048035,0.8170547485351562,1.539638042449951,XArbitraryZVertical,0.3972210197821168,0.9070837652894744,0.05137506723019509,0.1295195902298487,0.1941557228565216,-0.1960987895727158,0.9611709713935852,0,0,0,-1,-1,4680.590569625,running,2,2022-06-30T09:46:20.875+02:00,2022-06-30T08:20:05.567+02:00,1379,1.385177,0,0,1089.191,0,0,2022-06-30T09:44:05.799+02:00
2022-06-30T09:46:22.831+02:00,4682.547699791667,-1.561935424804688,0.4589080810546875,3.266021728515625,4682.537748791667,-0.8403563808506663,3.007519689999512,0.1810093514666883,1.970917940139771,5.609995365142822,3.05858039855957,-1.885393977165222,0.7828052639961243,1.759265422821045,XArbitraryZVertical,0.41086878547268,0.9047675888481111,0.05512070409566542,0.0976950256294972,0.1314878314733505,-0.1800225228071213,0.9748350977897644,0,0,0,-1,-1,4680.590569625,running,2,2022-06-30T09:46:20.875+02:00,2022-06-30T08:20:05.567+02:00,1379,1.385177,0,0,1089.191,0,0,2022-06-30T09:44:05.799+02:00
2022-06-30T09:46:22.840+02:00,4682.557651791667,-1.554244995117188,0.623291015625,3.52276611328125,4682.547699791667,-0.8725144572978933,3.065401092064495,0.1668657865544717,1.541590452194214,4.908176898956299,2.97750449180603,-1.707415342330933,0.6123506426811218,2.003307580947876,XArbitraryZVertical,0.4236515609795095,0.9011903241292174,0.05943852076302519,0.0695874345561876,0.07506059855222702,-0.1660924851894379,0.983249306678772,0,0,0,-1,-1,4680.590569625,running,2,2022-06-30T09:46:20.875+02:00,2022-06-30T08:20:05.567+02:00,1379,1.385177,0,0,1089.191,0,0,2022-06-30T09:44:05.799+02:00
2022-06-30T09:46:22.850+02:00,4682.567603791667,-1.524887084960938,0.72198486328125,3.76617431640625,4682.557651791667,-0.9030060618504651,3.115005630577149,0.1548846101284815,1.197154998779297,4.069671630859375,2.932323932647705,-1.58820104598999,0.6131737232208252,2.278341293334961,XArbitraryZVertical,0.435897640780709,0.8965675876283875,0.0638235578570502,0.04567795442204593,0.02626566961407661,-0.1542660892009735,0.9876803755760193,0,0,0,-1,-1,4680.590569625,running,2,2022-06-30T09:46:20.875+02:00,2022-06-30T08:20:05.567+02:00,1379,1.385177,0,0,1089.191,0,0,2022-06-30T09:44:05.799+02:00
2022-06-30T09:46:22.860+02:00,4682.577554791667,-1.447555541992188,0.639617919921875,4.031936645507812,4682.567603791667,-0.9322154025321711,-3.127971990439445,0.144301231841579,0.9890713095664978,3.144112348556519,2.86956787109375,-1.54076623916626,0.7670915126800537,2.533251285552979,XArbitraryZVertical,0.447794392791669,0.8912001255439653,0.06744915936879128,0.02632855732006605,-0.01347868330776691,-0.1438009589910507,0.989514946937561,0,0,0,-1,-1,4680.590569625,running,2,2022-06-30T09:46:20.875+02:00,2022-06-30T08:20:05.567+02:00,1379,1.385177,0,0,1089.191,0,0,2022-06-30T09:44:05.799+02:00
2022-06-30T09:46:22.870+02:00,4682.587506791667,-1.41265869140625,0.5117950439453125,4.1915283203125,4682.577554791667,-0.9608129450151298,-3.097317454602018,0.1347847620378949,0.7708356380462646,2.241695404052734,2.879713535308838,-1.481027722358704,0.8563615083694458,2.776215076446533,XArbitraryZVertical,0.4596557131217434,0.8852661837863205,0.06991078978495861,0.0115278803774688,-0.04385930299758911,-0.1343770325183868,0.989959180355072,0,0,0,-1,-1,4680.590569625,running,2,2022-06-30T09:46:20.875+02:00,2022-06-30T08:20:05.567+02:00,1379,1.385177,0,0,1089.191,0,0,2022-06-30T09:44:05.799+02:00
2022-06-30T09:46:22.880+02:00,4682.597458791667,-1.4093017578125,0.430023193359375,4.282150268554688,4682.587506791667,-0.9893637666880264,-3.075743496755877,0.1273926296246179,0.357930988073349,1.354998826980591,2.891621112823486,-1.38228714466095,0.7666658163070679,3.042189598083496,XArbitraryZVertical,0.4716879618627373,0.8788537775678912,0.07158860622088391,0.001289519633180398,-0.06526836752891541,-0.1270483285188675,0.9897469878196716,0,0,0,-1,-1,4680.590569625,running,2,2022-06-30T09:46:20.875+02:00,2022-06-30T08:20:05.567+02:00,1379,1.385177,0,0,1089.191,0,0,2022-06-30T09:44:05.799+02:00
2022-06-30T09:46:22.890+02:00,4682.607409791667,-1.45599365234375,0.4723052978515625,4.238327026367188,4682.597458791667,-1.018077476858468,-3.06316051337637,0.1251895596847529,-0.2831158339977264,0.4896411597728729,2.82890796661377,-1.334920167922974,0.6366574168205261,3.202404499053955,XArbitraryZVertical,0.4838681678990267,0.8720284144420687,0.07365008342770032,-0.003706711214740006,-0.07773857563734055,-0.1248628124594688,0.9891239404678345,0,0,0,-1,-1,4680.590569625,running,2,2022-06-30T09:46:20.875+02:00,2022-06-30T08:20:05.567+02:00,1379,1.385177,0,0,1089.191,0,0,2022-06-30T09:44:05.799+02:00
2022-06-30T09:46:22.900+02:00,4682.617361791667,-1.471298217773438,0.522308349609375,4.118560791015625,4682.607409791667,-1.04557646556712,-3.058839435702372,0.1285927138781283,-0.7425222396850586,-0.2732823491096497,2.566462278366089,-1.327325463294983,0.5582613348960876,3.293800830841064,XArbitraryZVertical,0.4955369392166772,0.8652271225697802,0.07623297811882256,-0.00371221284744244,-0.08197632431983948,-0.1282386034727097,0.9883496761322021,0,0,0,-1,-1,4680.590569625,running,2,2022-06-30T09:46:20.875+02:00,2022-06-30T08:20:05.567+02:00,1379,1.385177,0,0,1089.191,0,0,2022-06-30T09:44:05.799+02:00
