loggingTime(txt),accelerometerTimestamp_sinceReboot(s),accelerometerAccelerationX(G),accelerometerAccelerationY(G),accelerometerAccelerationZ(G),motionTimestamp_sinceReboot(s),motionYaw(rad),motionRoll(rad),motionPitch(rad),motionRotationRateX(rad/s),motionRotationRateY(rad/s),motionRotationRateZ(rad/s),motionUserAccelerationX(G),motionUserAccelerationY(G),motionUserAccelerationZ(G),motionAttitudeReferenceFrame(txt),motionQuaternionX(R),motionQuaternionY(R),motionQuaternionZ(R),motionQuaternionW(R),motionGravityX(G),motionGravityY(G),motionGravityZ(G),motionMagneticFieldX(µT),motionMagneticFieldY(µT),motionMagneticFieldZ(µT),motionHeading(°),motionMagneticFieldCalibrationAccuracy(Z),activityTimestamp_sinceReboot(s),activity(txt),activityActivityConfidence(Z),activityActivityStartDate(txt),pedometerStartDate(txt),pedometerNumberofSteps(N),pedometerAverageActivePace(s/m),pedometerCurrentPace(s/m),pedometerCurrentCadence(steps/s),pedometerDistance(m),pedometerFloorAscended(N),pedometerFloorDescended(N),pedometerEndDate(txt)
2022-06-30T09:48:28.217+02:00,4807.917669375001,0.058349609375,-0.21942138671875,-0.9358062744140625,4807.907717375,-0.4042479563151719,0.04718332392816984,0.2753817149839848,-0.1144573166966438,0.09782890975475311,-0.09893622249364853,-0.07468579709529877,0.00958484411239624,0.005241692066192627,XArbitraryZVertical,0.1391153532653246,-0.004656053394318847,-0.1956233158347194,0.9707505955885004,0.04538867995142937,-0.2719143033027649,-0.9612504839897156,0,0,0,-1,-1,4802.9347355,running,2,2022-06-30T09:48:23.219+02:00,2022-06-30T08:20:05.567+02:00,1383,1.400134,0,0,1092.013,0,0,2022-06-30T09:48:25.766+02:00
2022-06-30T09:48:28.219+02:00,4807.927620375001,0.03680419921875,-0.287994384765625,-0.9218597412109375,4807.917669375001,-0.4052453330935677,0.04867575843186436,0.2736950563799911,-0.08175423741340637,-0.003776273457333446,-0.04299572110176086,-0.04832582548260689,0.06545644998550415,0.02836519479751587,XArbitraryZVertical,0.1384418146646851,-0.003830292989549268,-0.1960466593199087,0.9707650966832714,0.04684548079967499,-0.2702907919883728,-0.9616383910179138,0,0,0,-1,-1,4802.9347355,running,2,2022-06-30T09:48:23.219+02:00,2022-06-30T08:20:05.567+02:00,1383,1.400134,0,0,1092.013,0,0,2022-06-30T09:48:25.766+02:00
2022-06-30T09:48:28.221+02:00,4807.937572375,-0.0031890869140625,-0.3127288818359375,-0.89813232421875,4807.927620375001,-0.4055265928813745,0.04973554062504661,0.2734285828852399,-0.07435143738985062,0.007300273515284061,0.03145201504230499,0.01048120856285095,0.05061247944831848,0.02585393190383911,XArbitraryZVertical,0.1384160435741449,-0.00330835763516332,-0.1961166491622354,0.9707566258664942,0.04786816239356995,-0.2700342237949371,-0.9616600871086121,0,0,0,-1,-1,4802.9347355,running,2,2022-06-30T09:48:23.219+02:00,2022-06-30T08:20:05.567+02:00,1383,1.400134,0,0,1092.013,0,0,2022-06-30T09:48:25.766+02:00
2022-06-30T09:48:28.230+02:00,4807.947523375,-0.03033447265625,-0.3249664306640625,-0.8689422607421875,4807.937572375,-0.4047140966755702,0.04929983128064575,0.2728575861280806,-0.0817936435341835,-0.03235819190740585,0.1399121731519699,-0.01065278425812721,-0.01851034164428711,0.03997510671615601,XArbitraryZVertical,0.13809793859795,-0.003405859791696328,-0.1957670498236454,0.9708721749334989,0.04745674133300781,-0.2694844007492065,-0.961834728717804,0,0,0,-1,-1,4802.9347355,running,2,2022-06-30T09:48:23.219+02:00,2022-06-30T08:20:05.567+02:00,1383,1.400134,0,0,1092.013,0,0,2022-06-30T09:48:25.766+02:00
2022-06-30T09:48:28.240+02:00,4807.957475375,0.0062408447265625,-0.3213958740234375,-0.857147216796875,4807.947523375,-0.4023845309707935,0.04880242145705752,0.2719195705970738,-0.137431338429451,0.09509830176830292,0.1964689344167709,-0.05017994716763496,-0.04414826631546021,0.06397801637649536,XArbitraryZVertical,0.1375985720871229,-0.003392175543994903,-0.1946942547547643,0.9711586834637419,0.04699062183499336,-0.2685809731483459,-0.9621102809906006,0,0,0,-1,-1,4802.9347355,running,2,2022-06-30T09:48:23.219+02:00,2022-06-30T08:20:05.567+02:00,1383,1.400134,0,0,1092.013,0,0,2022-06-30T09:48:25.766+02:00
2022-06-30T09:48:28.250+02:00,4807.967427375001,0.0723876953125,-0.3302001953125,-0.8729705810546875,4807.957475375,-0.4016407167296743,0.04903578395095194,0.2693328767970641,-0.3020269572734833,0.06168415397405624,-0.09857682138681412,-0.07758375257253647,-0.05887836217880249,0.09384781122207642,XArbitraryZVertical,0.1363679427805502,-0.002967925866723418,-0.1943825614634797,0.9713961800256578,0.04724903777241707,-0.2660884261131287,-0.9627899527549744,0,0,0,-1,-1,4802.9347355,running,2,2022-06-30T09:48:23.219+02:00,2022-06-30T08:20:05.567+02:00,1383,1.400134,0,0,1092.013,0,0,2022-06-30T09:48:25.766+02:00
2022-06-30T09:48:28.260+02:00,4807.977378375001,0.0391082763671875,-0.2946624755859375,-0.8747406005859375,4807.967427375001,-0.4031863658567758,0.04895720140001632,0.2655242910628735,-0.3698067963123322,-0.07990546524524689,-0.232933834195137,-0.04098202288150787,-0.05898100137710571,0.1066517233848572,XArbitraryZVertical,0.1345106714745787,-0.002727608904249052,-0.1952346638441219,0.9714849053325868,0.04722262918949127,-0.2624152302742004,-0.9637988805770874,0,0,0,-1,-1,4802.9347355,running,2,2022-06-30T09:48:23.219+02:00,2022-06-30T08:20:05.567+02:00,1383,1.400134,0,0,1092.013,0,0,2022-06-30T09:48:25.766+02:00
2022-06-30T09:48:28.270+02:00,4807.987330375,-0.0391082763671875,-0.2848052978515625,-0.883758544921875,4807.977378375001,-0.4054317762101342,0.04799596215538678,0.2613264516359932,-0.4039682447910309,-0.1602378487586975,-0.2622829377651215,0.02603884786367416,-0.07183834910392761,0.09196513891220093,XArbitraryZVertical,0.1323769400538967,-0.002920158594693538,-0.1964942484398377,0.9715234620131753,0.04634860903024673,-0.258362203836441,-0.9649356603622437,0,0,0,-1,-1,4802.9347355,running,2,2022-06-30T09:48:23.219+02:00,2022-06-30T08:20:05.567+02:00,1383,1.400134,0,0,1092.013,0,0,2022-06-30T09:48:25.766+02:00
2022-06-30T09:48:28.280+02:00,4807.997281375,-0.06060791015625,-0.27716064453125,-0.8861236572265625,4807.987330375,-0.4080652748469286,0.04666321029515197,0.2573624697528409,-0.3703735172748566,-0.1368473172187805,-0.3065279126167297,-0.006001926958560944,-0.040132075548172,0.09127146005630493,XArbitraryZVertical,0.1303183027380228,-0.003337720100554675,-0.1979583008707179,0.9715032874560837,0.04510996863245964,-0.2545307874679565,-0.9660120010375977,0,0,0,-1,-1,4802.9347355,running,2,2022-06-30T09:48:23.219+02:00,2022-06-30T08:20:05.567+02:00,1383,1.400134,0,0,1092.013,0,0,2022-06-30T09:48:25.766+02:00
2022-06-30T09:48:28.290+02:00,4808.007233375,-0.04888916015625,-0.2630157470703125,-0.8869171142578125,4807.997281375,-0.4109930052405015,0.04628595901749945,0.2536737042253089,-0.3496352136135101,-0.08440861105918884,-0.2920610904693604,-0.0838971883058548,-0.03384390473365784,0.0832018256187439,XArbitraryZVertical,0.1284863993503934,-0.003333173624216313,-0.199494201567997,0.9714330974064689,0.0447886735200882,-0.2509617805480957,-0.9669602513313293,0,0,0,-1,-1,4802.9347355,running,2,2022-06-30T09:48:23.219+02:00,2022-06-30T08:20:05.567+02:00,1383,1.400134,0,0,1092.013,0,0,2022-06-30T09:48:25.766+02:00
2022-06-30T09:48:28.300+02:00,4808.017185375001,-0.0291748046875,-0.2629852294921875,-0.8890380859375,4808.007233375,-0.4137342376493961,0.04627155369079734,0.2500222649996157,-0.3610559105873108,-0.05554766580462456,-0.2838830351829529,-0.1054249778389931,-0.02973549067974091,0.08174628019332886,XArbitraryZVertical,0.1267091874040103,-0.003139157421294598,-0.2009145001799988,0.9713744227339779,0.04481683298945427,-0.2474255263805389,-0.9678698778152466,0,0,0,-1,-1,4802.9347355,running,2,2022-06-30T09:48:23.219+02:00,2022-06-30T08:20:05.567+02:00,1383,1.400134,0,0,1092.013,0,0,2022-06-30T09:48:25.766+02:00
2022-06-30T09:48:28.310+02:00,4808.027136375001,-0.0149383544921875,-0.275665283203125,-0.8853607177734375,4808.017185375001,-0.4166425366174057,0.04633618689825218,0.2461790471828398,-0.3872571587562561,-0.07352213561534882,-0.3242861330509186,-0.093812495470047,-0.01931613683700562,0.08189266920089722,XArbitraryZVertical,0.1248470441683936,-0.002892370891364213,-0.2024150851598076,0.9713048323384302,0.04492310434579849,-0.2436999976634979,-0.9688097238540649,0,0,0,-1,-1,4802.9347355,running,2,2022-06-30T09:48:23.219+02:00,2022-06-30T08:20:05.567+02:00,1383,1.400134,0,0,1092.013,0,0,2022-06-30T09:48:25.766+02:00
2022-06-30T09:48:28.320+02:00,4808.037088375,-0.0175933837890625,-0.30450439453125,-0.8780517578125,4808.027136375001,-0.4200503887175929,0.04617721469221576,0.2419488559203565,-0.4333273768424988,-0.1201741471886635,-0.3819210827350616,-0.0739913135766983,-0.02339044213294983,0.08079993724822998,XArbitraryZVertical,0.1227742711008158,-0.00273889442136188,-0.2041808178953212,0.971199869669742,0.0448162741959095,-0.2395951747894287,-0.9698379635810852,0,0,0,-1,-1,4802.9347355,running,2,2022-06-30T09:48:23.219+02:00,2022-06-30T08:20:05.567+02:00,1383,1.400134,0,0,1092.013,0,0,2022-06-30T09:48:28.314+02:00
2022-06-30T09:48:28.330+02:00,4808.047039375,-0.0308685302734375,-0.3328399658203125,-0.8792572021484375,4808.037088375,-0.4239289574705404,0.04566413012281106,0.2370673773216584,-0.5175816416740417,-0.1590376198291779,-0.4198963940143585,-0.05931010469794273,-0.04081261157989502,0.08565700054168701,XArbitraryZVertical,0.1203488495442089,-0.002709850840219887,-0.2062107611691109,0.9710746744147105,0.04437151923775673,-0.2348530441522598,-0.971017599105835,0,0,0,-1,-1,4802.9347355,running,2,2022-06-30T09:48:23.219+02:00,2022-06-30T08:20:05.567+02:00,1383,1.400134,0,0,1092.013,0,0,2022-06-30T09:48:28.314+02:00
2022-06-30T09:48:28.340+02:00,4808.056991375001,-0.0430145263671875,-0.348724365234375,-0.87640380859375,4808.047039375,-0.4280287070825835,0.04492946922863585,0.231144577789838,-0.6432974338531494,-0.1699623763561249,-0.4345625638961792,-0.06131346151232719,-0.07541295886039734,0.09437084197998047,XArbitraryZVertical,0.1173948912411401,-0.002681007754513408,-0.2083830874747481,0.970972651080894,0.04371985048055649,-0.2290918081998825,-0.9724224805831909,0,0,0,-1,-1,4802.9347355,running,2,2022-06-30T09:48:23.219+02:00,2022-06-30T08:20:05.567+02:00,1383,1.400134,0,0,1092.013,0,0,2022-06-30T09:48:28.314+02:00
2022-06-30T09:48:28.350+02:00,4808.066942375001,-0.0552520751953125,-0.3343658447265625,-0.89892578125,4808.056991375001,-0.4321095884004162,0.04404748800091239,0.2237915529598981,-0.7988343238830566,-0.1813660562038422,-0.4334941208362579,-0.07380394637584686,-0.1109121292829514,0.09486013650894165,XArbitraryZVertical,0.1137314014090639,-0.002556686838529739,-0.2105836133057572,0.9709342231684444,0.04293518885970116,-0.221928209066391,-0.9741172790527344,0,0,0,-1,-1,4802.9347355,running,2,2022-06-30T09:48:23.219+02:00,2022-06-30T08:20:05.567+02:00,1383,1.400134,0,0,1092.013,0,0,2022-06-30T09:48:28.314+02:00
2022-06-30T09:48:28.375+02:00,4808.076894375,-0.07330322265625,-0.2662506103515625,-0.9303741455078125,4808.066942375001,-0.4362036244570371,0.0430874304041472,0.2150499045224208,-0.9093105792999268,-0.1807346045970917,-0.4471993744373322,-0.08509667217731476,-0.1353285610675812,0.09965527057647705,XArbitraryZVertical,0.1093854735281591,-0.002305455655210528,-0.2128201604653562,0.9709465152875496,0.04208191856741905,-0.2133961766958237,-0.9760590195655823,0,0,0,-1,-1,4802.9347355,running,2,2022-06-30T09:48:23.219+02:00,2022-06-30T08:20:05.567+02:00,1383,1.400134,0,0,1092.013,0,0,2022-06-30T09:48:28.314+02:00
2022-06-30T09:48:28.378+02:00,4808.086846375,-0.085662841796875,-0.1837310791015625,-0.9542694091796875,4808.076894375,-0.4405375943799534,0.0421888839384633,0.2057979710445092,-0.8946099281311035,-0.1703115254640579,-0.4860362410545349,-0.09653867781162262,-0.130017876625061,0.07910150289535522,XArbitraryZVertical,0.1047976493440698,-0.001963572950575105,-0.215173604836688,0.9709346557880719,0.04128637537360191,-0.2043483555316925,-0.9780271649360657,0,0,0,-1,-1,4802.9347355,running,2,2022-06-30T09:48:23.219+02:00,2022-06-30T08:20:05.567+02:00,1383,1.400134,0,0,1092.013,0,0,2022-06-30T09:48:28.314+02:00
2022-06-30T09:48:28.382+02:00,4808.096797375,-0.0860137939453125,-0.137725830078125,-0.9809112548828125,4808.086846375,-0.4452910864642282,0.04153462981343979,0.1972768189361481,-0.7616097331047058,-0.1430688053369522,-0.5230934619903564,-0.1140207573771477,-0.07025130093097687,0.04938417673110962,XArbitraryZVertical,0.1005900766583442,-0.001585613940057671,-0.2176954217096654,0.9708181135160537,0.04071731120347977,-0.1959996968507767,-0.9797582626342773,0,0,0,-1,-1,4802.9347355,running,2,2022-06-30T09:48:23.219+02:00,2022-06-30T08:20:05.567+02:00,1383,1.400134,0,0,1092.013,0,0,2022-06-30T09:48:28.314+02:00
2022-06-30T09:48:28.390+02:00,4808.106749375001,-0.074951171875,-0.1481170654296875,-0.985687255859375,4808.096797375,-0.4504347160030316,0.04120647938384951,0.1905021509259394,-0.5556036233901978,-0.1138352900743484,-0.548159658908844,-0.1261126399040222,0.005620524287223816,0.02680647373199463,XArbitraryZVertical,0.09726544628287187,-0.001244171058061729,-0.2203488460032501,0.9705588643369399,0.04044957458972931,-0.1893519908189774,-0.9810757637023926,0,0,0,-1,-1,4802.9347355,running,2,2022-06-30T09:48:23.219+02:00,2022-06-30T08:20:05.567+02:00,1383,1.400134,0,0,1092.013,0,0,2022-06-30T09:48:28.314+02:00
2022-06-30T09:48:28.399+02:00,4808.116700375001,-0.0539703369140625,-0.207427978515625,-0.97576904296875,4808.106749375001,-0.4559518406605465,0.04108811920703809,0.1855825682010531,-0.4027426540851593,-0.109914742410183,-0.5847272872924805,-0.1263852417469025,0.04679292440414429,0.001088261604309082,XArbitraryZVertical,0.09486446831772026,-0.001011907754068295,-0.2231323134756451,0.970160663482882,0.04037123173475266,-0.1845191270112991,-0.981999397277832,0,0,0,-1,-1,4802.9347355,running,2,2022-06-30T09:48:23.219+02:00,2022-06-30T08:20:05.567+02:00,1383,1.400134,0,0,1092.013,0,0,2022-06-30T09:48:28.314+02:00
2022-06-30T09:48:28.409+02:00,4808.126652375,-0.0436859130859375,-0.273529052734375,-0.9503326416015625,4808.116700375001,-0.4618952001794034,0.04089621426985443,0.1815849689428565,-0.3717466592788696,-0.1398113816976547,-0.6215127110481262,-0.1151640117168427,0.03247126936912537,-0.002950847148895264,XArbitraryZVertical,0.09290308207382784,-0.0009276861257837134,-0.2261049857242778,0.9696621288547661,0.04021261632442474,-0.1805887073278427,-0.9827362895011902,0,0,0,-1,-1,4802.9347355,running,2,2022-06-30T09:48:23.219+02:00,2022-06-30T08:20:05.567+02:00,1383,1.400134,0,0,1092.013,0,0,2022-06-30T09:48:28.314+02:00
2022-06-30T09:48:28.419+02:00,4808.136604375,-0.050079345703125,-0.3193206787109375,-0.9231109619140625,4808.126652375,-0.4681460113050471,0.04029959257213709,0.1771395931192899,-0.4876835644245148,-0.192555159330368,-0.6512300372123718,-0.09362879395484924,-0.03121371567249298,0.007783591747283936,XArbitraryZVertical,0.09067934615269038,-0.0009898273873714741,-0.2292517005896377,0.9691336551565615,0.03965823724865913,-0.1762146502733231,-0.9835525751113892,0,0,0,-1,-1,4802.9347355,running,2,2022-06-30T09:48:23.219+02:00,2022-06-30T08:20:05.567+02:00,1383,1.400134,0,0,1092.013,0,0,2022-06-30T09:48:28.314+02:00
2022-06-30T09:48:28.429+02:00,4808.146555375,-0.067535400390625,-0.331207275390625,-0.9015960693359375,4808.136604375,-0.4746413806140256,0.03928561307675944,0.1710763505207956,-0.6758604049682617,-0.2235642075538635,-0.6818689107894897,-0.08238828927278519,-0.1032863557338715,0.03430920839309692,XArbitraryZVertical,0.08762411714516254,-0.00106035473109228,-0.2325634927115467,0.9686253708959066,0.03870216757059097,-0.1702430844306946,-0.9846417903900146,0,0,0,-1,-1,4802.9347355,running,2,2022-06-30T09:48:23.219+02:00,2022-06-30T08:20:05.567+02:00,1383,1.400134,0,0,1092.013,0,0,2022-06-30T09:48:28.314+02:00
2022-06-30T09:48:28.440+02:00,4808.156507375001,-0.0794677734375,-0.3119964599609375,-0.88031005859375,4808.146555375,-0.4812894607361341,0.03809158531184387,0.1631584856918396,-0.8661072850227356,-0.228853851556778,-0.6937717795372009,-0.08765615522861481,-0.1568855196237564,0.06289249658584595,XArbitraryZVertical,0.08365008251078664,-0.0009832547373186222,-0.2359859144197266,0.9681489641111169,0.03757660835981369,-0.1624355465173721,-0.9860033988952637,0,0,0,-1,-1,4802.9347355,running,2,2022-06-30T09:48:23.219+02:00,2022-06-30T08:20:05.567+02:00,1383,1.400134,0,0,1092.013,0,0,2022-06-30T09:48:28.314+02:00
2022-06-30T09:48:28.449+02:00,4808.166458375001,-0.0933837890625,-0.27813720703125,-0.8910675048828125,4808.156507375001,-0.4877898683032788,0.036808677692494,0.1533415042072221,-1.055360674858093,-0.2259137332439423,-0.6706528663635254,-0.103904165327549,-0.1784663945436478,0.08600080013275146,XArbitraryZVertical,0.07874724327346844,-0.0006873118493374542,-0.2393659930202151,0.9677306166759583,0.03636856004595757,-0.1527412682771683,-0.9875968098640442,0,0,0,-1,-1,4802.9347355,running,2,2022-06-30T09:48:23.219+02:00,2022-06-30T08:20:05.567+02:00,1383,1.400134,0,0,1092.013,0,0,2022-06-30T09:48:28.314+02:00
2022-06-30T09:48:28.459+02:00,4808.176410375,-0.105010986328125,-0.2070159912109375,-0.949798583984375,4808.166458375001,-0.4940357617285581,0.03553856189263965,0.1418871470422709,-1.186933994293213,-0.2030021548271179,-0.657403290271759,-0.1146419942378998,-0.1705853044986725,0.1090158224105835,XArbitraryZVertical,0.0730552709139965,-0.0001437066084809975,-0.2426386095849508,0.9673621693056368,0.03517402708530426,-0.1414115428924561,-0.9893258213996887,0,0,0,-1,-1,4802.9347355,running,2,2022-06-30T09:48:23.219+02:00,2022-06-30T08:20:05.567+02:00,1383,1.400134,0,0,1092.013,0,0,2022-06-30T09:48:28.314+02:00
2022-06-30T09:48:28.469+02:00,4808.186361375,-0.111053466796875,-0.108612060546875,-1.005035400390625,4808.176410375,-0.5002440127670575,0.03458605070131167,0.1297618306592658,-1.185503602027893,-0.1468059867620468,-0.6640231609344482,-0.1276724338531494,-0.1487396061420441,0.09993231296539307,XArbitraryZVertical,0.06707966756263975,0.0006730181343114338,-0.2458781885677103,0.966976618816818,0.034288439899683,-0.1293979734182358,-0.9909997582435608,0,0,0,-1,-1,4802.9347355,running,2,2022-06-30T09:48:23.219+02:00,2022-06-30T08:20:05.567+02:00,1383,1.400134,0,0,1092.013,0,0,2022-06-30T09:48:28.314+02:00
2022-06-30T09:48:28.479+02:00,4808.196313375,-0.10137939453125,-0.0460357666015625,-1.060638427734375,4808.186361375,-0.5065873894648432,0.03415996757573892,0.1183392010931892,-1.049016952514648,-0.08685018122196198,-0.6773993372917175,-0.1389256417751312,-0.08895319700241089,0.04262822866439819,XArbitraryZVertical,0.06151230529362427,0.001688533037796228,-0.2491411243318138,0.9665103016624754,0.03391445800662041,-0.1180631890892982,-0.9924267530441284,0,0,0,-1,-1,4802.9347355,running,2,2022-06-30T09:48:23.219+02:00,2022-06-30T08:20:05.567+02:00,1383,1.400134,0,0,1092.013,0,0,2022-06-30T09:48:28.314+02:00
2022-06-30T09:48:28.489+02:00,4808.206265375,-0.0799560546875,-0.03631591796875,-1.086090087890625,4808.196313375,-0.5130401377889301,0.03419740116639707,0.1088725669179226,-0.7992020845413208,-0.04434000700712204,-0.6737966537475586,-0.1450419574975967,4.51505184173584e-05,-0.01153731346130371,XArbitraryZVertical,0.0569529402853325,0.002711386864841347,-0.2524033193548416,0.9659408088149435,0.03398830071091652,-0.1086576133966446,-0.9934980273246765,0,0,0,-1,-1,4802.9347355,running,2,2022-06-30T09:48:23.219+02:00,2022-06-30T08:20:05.567+02:00,1383,1.400134,0,0,1092.013,0,0,2022-06-30T09:48:28.314+02:00
2022-06-30T09:48:28.499+02:00,4808.216216375,-0.0637054443359375,-0.0832672119140625,-1.080123901367188,4808.206265375,-0.5195310649233712,0.03444305326687599,0.1020117750929136,-0.5429351329803467,-0.04171466082334518,-0.675640881061554,-0.1356368064880371,0.05579876899719238,-0.06642711162567139,XArbitraryZVertical,0.05368341763753344,0.003527839844997002,-0.255633347831534,0.9652757727627904,0.03425722196698189,-0.1018349379301071,-0.9942113161087036,0,0,0,-1,-1,4802.9347355,running,2,2022-06-30T09:48:23.219+02:00,2022-06-30T08:20:05.567+02:00,1383,1.400134,0,0,1092.013,0,0,2022-06-30T09:48:28.314+02:00
2022-06-30T09:48:28.509+02:00,4808.226168375,-0.0528564453125,-0.1556243896484375,-1.067596435546875,4808.216216375,-0.5262863512770417,0.03451177740683287,0.09733540708837353,-0.3623495995998383,-0.072605200111866,-0.712767481803894,-0.1142978444695473,0.06086546182632446,-0.09141606092453003,XArbitraryZVertical,0.05144988851851637,0.00398893146130544,-0.2589595975796045,0.9645086836625918,0.03434160351753235,-0.0971817821264267,-0.9946739673614502,0,0,0,-1,-1,4802.9347355,running,2,2022-06-30T09:48:23.219+02:00,2022-06-30T08:20:05.567+02:00,1383,1.400134,0,0,1092.013,0,0,2022-06-30T09:48:28.314+02:00
2022-06-30T09:48:28.519+02:00,4808.236119375,-0.058563232421875,-0.2083587646484375,-1.062515258789062,4808.226168375,-0.5334631055285887,0.03428898649060692,0.09385810785550443,-0.3014005720615387,-0.09951372444629669,-0.7451061606407166,-0.09783701598644257,0.0104527547955513,-0.08511048555374146,XArbitraryZVertical,0.04976000984537979,0.004156002857234099,-0.2624752909904064,0.9636459098872224,0.03413137793540955,-0.09372036159038544,-0.9950133562088013,0,0,0,-1,-1,4802.9347355,running,2,2022-06-30T09:48:23.219+02:00,2022-06-30T08:20:05.567+02:00,1383,1.400134,0,0,1092.013,0,0,2022-06-30T09:48:28.314+02:00
2022-06-30T09:48:28.529+02:00,4808.246071375001,-0.0843353271484375,-0.2028045654296875,-1.0340576171875,4808.236119375,-0.5408534617403872,0.03377644061634804,0.0905791043261282,-0.3166727423667908,-0.1270020604133606,-0.7559380531311035,-0.08648820221424103,-0.06516949832439423,-0.07226389646530151,XArbitraryZVertical,0.04812917591280362,0.004164079446762788,-0.2660939168698206,0.9627358592151084,0.0336315780878067,-0.09045529365539551,-0.9953324794769287,0,0,0,-1,-1,4802.9347355,running,2,2022-06-30T09:48:23.219+02:00,2022-06-30T08:20:05.567+02:00,1383,1.400134,0,0,1092.013,0,0,2022-06-30T09:48:28.314+02:00
2022-06-30T09:48:28.539+02:00,4808.256022375001,-0.108612060546875,-0.189910888671875,-1.019012451171875,4808.246071375001,-0.5482619040463318,0.03306339878011936,0.08682511536105626,-0.3951885402202606,-0.1355623751878738,-0.7480810880661011,-0.09149625897407532,-0.121643103659153,-0.06682664155960083,XArbitraryZVertical,0.046243619468177,0.004151763864711931,-0.2697278006562236,0.9618165683127681,0.03293285146355629,-0.08671606332063675,-0.9956885576248169,0,0,0,-1,-1,4802.9347355,running,2,2022-06-30T09:48:23.219+02:00,2022-06-30T08:20:05.567+02:00,1383,1.400134,0,0,1092.013,0,0,2022-06-30T09:48:28.314+02:00
2022-06-30T09:48:28.549+02:00,4808.265974375,-0.1183013916015625,-0.19500732421875,-1.01318359375,4808.256022375001,-0.5555469366939478,0.03236925589932434,0.08221910713557379,-0.4819945394992828,-0.1134791746735573,-0.7417235970497131,-0.1165897846221924,-0.1206784695386887,-0.03795772790908813,XArbitraryZVertical,0.04395157371425758,0.004282204657840772,-0.2733079524362202,0.9609124224834692,0.03225427493453026,-0.08212650567293167,-0.9960998296737671,0,0,0,-1,-1,4802.9347355,running,2,2022-06-30T09:48:23.219+02:00,2022-06-30T08:20:05.567+02:00,1383,1.400134,0,0,1092.013,0,0,2022-06-30T09:48:28.314+02:00
2022-06-30T09:48:28.559+02:00,4808.275926375,-0.1160430908203125,-0.2293243408203125,-1.010955810546875,4808.265974375,-0.5627855285342331,0.03197458030564842,0.07675043321048264,-0.5768709778785706,-0.06892836093902588,-0.7442911863327026,-0.1404872536659241,-0.1132361888885498,-0.02246594429016113,XArbitraryZVertical,0.0412882603409831,0.004693956268459754,-0.2768647692038865,0.9600100076384518,0.03187501803040504,-0.07667510211467743,-0.9965465068817139,0,0,0,-1,-1,4802.9347355,running,2,2022-06-30T09:48:23.219+02:00,2022-06-30T08:20:05.567+02:00,1383,1.400134,0,0,1092.013,0,0,2022-06-30T09:48:28.314+02:00
2022-06-30T09:48:28.569+02:00,4808.285877375,-0.105804443359375,-0.2793121337890625,-1.029434204101562,4808.275926375,-0.5700991051294182,0.03198695770040966,0.07006334623948061,-0.7209077477455139,-0.02424238622188568,-0.7657338976860046,-0.150204598903656,-0.1250016987323761,-0.01614725589752197,XArbitraryZVertical,0.03810138498716893,0.005490227862625884,-0.2804589865464051,0.9590938204851267,0.03190303966403008,-0.07000603526830673,-0.9970362782478333,0,0,0,-1,-1,4802.9347355,running,2,2022-06-30T09:48:23.219+02:00,2022-06-30T08:20:05.567+02:00,1383,1.400134,0,0,1092.013,0,0,2022-06-30T09:48:28.314+02:00
2022-06-30T09:48:28.579+02:00,4808.295829375001,-0.1016845703125,-0.295013427734375,-1.041885375976562,4808.285877375,-0.5776244192967183,0.03235356217439751,0.06182248367389861,-0.8969269394874573,0.004800557624548674,-0.7971820831298828,-0.1483293771743774,-0.1675416380167007,-0.01338851451873779,XArbitraryZVertical,0.03422736163407571,0.006697305293682232,-0.2841612933896278,0.9581419194131842,0.03228612244129181,-0.06178310886025429,-0.9975672960281372,0,0,0,-1,-1,4802.9347355,running,2,2022-06-30T09:48:23.219+02:00,2022-06-30T08:20:05.567+02:00,1383,1.400134,0,0,1092.013,0,0,2022-06-30T09:48:28.314+02:00
2022-06-30T09:48:28.589+02:00,4808.305780375001,-0.1190948486328125,-0.3208770751953125,-1.03973388671875,4808.295829375001,-0.5854358838194832,0.03287091294598698,0.05124269098046532,-1.19057822227478,0.017758434638381,-0.8457767963409424,-0.1386264562606812,-0.2280922830104828,-0.03128629922866821,XArbitraryZVertical,0.02926627159527279,0.008339094489118808,-0.2880188357445821,0.9571410674928786,0.03282185271382332,-0.05122026801109314,-0.9981479048728943,0,0,0,-1,-1,4802.9347355,running,2,2022-06-30T09:48:23.219+02:00,2022-06-30T08:20:05.567+02:00,1383,1.400134,0,0,1092.013,0,0,2022-06-30T09:48:28.314+02:00
2022-06-30T09:48:28.598+02:00,4808.315732375,-0.1407928466796875,-0.3567047119140625,-0.9981689453125,4808.305780375001,-0.5938724491286872,0.03347832187901623,0.03721151239236273,-1.586395978927612,0.04207108542323112,-0.9480128884315491,-0.1351336240768433,-0.2578109204769135,-0.04313755035400391,XArbitraryZVertical,0.02268466602641311,0.01056027760027076,-0.2922024641480363,0.9560291395532533,0.03344889730215073,-0.03720292448997498,-0.9987477660179138,0,0,0,-1,-1,4802.9347355,running,2,2022-06-30T09:48:23.219+02:00,2022-06-30T08:20:05.567+02:00,1383,1.400134,0,0,1092.013,0,0,2022-06-30T09:48:28.314+02:00
2022-06-30T09:48:28.608+02:00,4808.325683375,-0.1540679931640625,-0.3717193603515625,-0.9410552978515625,4808.315732375,-0.6033110316680617,0.03432099713837253,0.01858054740443543,-2.108190059661865,0.08294501155614853,-1.069069862365723,-0.1534033417701721,-0.3022980093955994,-0.04049527645111084,XArbitraryZVertical,0.01396728375564806,0.01362441409200735,-0.2968925923899266,0.9547115249461983,0.03430833667516708,-0.01857947744429111,-0.9992386102676392,0,0,0,-1,-1,4802.9347355,running,2,2022-06-30T09:48:23.219+02:00,2022-06-30T08:20:05.567+02:00,1383,1.400134,0,0,1092.013,0,0,2022-06-30T09:48:28.314+02:00
2022-06-30T09:48:28.619+02:00,4808.335635375,-0.1682891845703125,-0.362640380859375,-0.9111328125,4808.325683375,-0.6136424340622587,0.03546048550100617,-0.005762276566569607,-2.716191053390503,0.1433512717485428,-1.179530501365662,-0.1762454658746719,-0.3624673783779144,0.001185834407806396,XArbitraryZVertical,0.0026086093311889,0.01777130809606373,-0.3020297887639274,0.9531293403779133,0.0354524664580822,0.005762244574725628,-0.9993547797203064,0,0,0,-1,-1,4802.9347355,running,2,2022-06-30T09:48:23.219+02:00,2022-06-30T08:20:05.567+02:00,1383,1.400134,0,0,1092.013,0,0,2022-06-30T09:48:28.314+02:00
2022-06-30T09:48:28.628+02:00,4808.345587375,-0.16552734375,-0.32232666015625,-0.8972930908203125,4808.335635375,-0.6249461736793225,0.03713610646897427,-0.03617403577533762,-3.302714109420776,0.2559270858764648,-1.314526200294495,-0.1911714226007462,-0.4078859090805054,0.0576014518737793,XArbitraryZVertical,-0.01150047368716857,0.02322393019999934,-0.3076291500262721,0.9511534807157592,0.03710328042507172,0.03616614639759064,-0.9986567497253418,0,0,0,-1,-1,4802.9347355,running,2,2022-06-30T09:48:23.219+02:00,2022-06-30T08:20:05.567+02:00,1383,1.400134,0,0,1092.013,0,0,2022-06-30T09:48:28.314+02:00
2022-06-30T09:48:28.638+02:00,4808.355538375,-0.1488800048828125,-0.2857208251953125,-0.8963165283203125,4808.345587375,-0.6372881173150677,0.03971423873834458,-0.07221781037245925,-3.8367600440979,0.4166716039180756,-1.432961583137512,-0.2078896313905716,-0.4347958564758301,0.08547413349151611,XArbitraryZVertical,-0.02806065377287819,0.03015148368633909,-0.3136939686763843,0.948630344446481,0.03960030898451805,0.07215505093336105,-0.9966069459915161,0,0,0,-1,-1,4802.9347355,running,2,2022-06-30T09:48:23.219+02:00,2022-06-30T08:20:05.567+02:00,1383,1.400134,0,0,1092.013,0,0,2022-06-30T09:48:28.314+02:00
2022-06-30T09:48:28.648+02:00,4808.365490375,-0.108489990234375,-0.2416229248046875,-0.82861328125,4808.355538375,-0.6502686646528191,0.04352851262986151,-0.1136337310149471,-4.387668609619141,0.6023751497268677,-1.493614554405212,-0.208761602640152,-0.4357163906097412,0.09531641006469727,XArbitraryZVertical,-0.04685787630705881,0.03872436969439334,-0.3200161547525855,0.9454599359524735,0.04323412477970123,0.1133893355727196,-0.9926095008850098,0,0,0,-1,-1,4802.9347355,running,2,2022-06-30T09:48:23.219+02:00,2022-06-30T08:20:05.567+02:00,1383,1.400134,0,0,1092.013,0,0,2022-06-30T09:48:28.314+02:00
2022-06-30T09:48:28.658+02:00,4808.375441375,-0.08807373046875,-0.1543121337890625,-0.762664794921875,4808.365490375,-0.6628967736179104,0.0485882378598971,-0.1611779232729654,-5.063635349273682,0.7625210285186768,-1.442397832870483,-0.1968197524547577,-0.4462022185325623,0.0895574688911438,XArbitraryZVertical,-0.06821855574388212,0.04908360282944802,-0.3261101336510061,0.941588779273051,0.04793961346149445,0.1604809761047363,-0.9858740568161011,0,0,0,-1,-1,4802.9347355,running,2,2022-06-30T09:48:23.219+02:00,2022-06-30T08:20:05.567+02:00,1383,1.400134,0,0,1092.013,0,0,2022-06-30T09:48:28.314+02:00
2022-06-30T09:48:28.668+02:00,4808.385393375001,-0.087310791015625,0.00128173828125,-0.7075347900390625,4808.375441375,-0.6741995144097603,0.05478900145461473,-0.2162132115553392,-5.8875732421875,0.9258050322532654,-1.359074473381042,-0.1619766801595688,-0.4561558961868286,0.1466378569602966,XArbitraryZVertical,-0.0927785736976046,0.06137195744059981,-0.3314862692183397,0.9368791775298569,0.05348657071590424,0.2145325541496277,-0.9752512574195862,0,0,0,-1,-1,4802.9347355,running,2,2022-06-30T09:48:23.219+02:00,2022-06-30T08:20:05.567+02:00,1383,1.400134,0,0,1092.013,0,0,2022-06-30T09:48:28.314+02:00
2022-06-30T09:48:28.678+02:00,4808.395345375,-0.064453125,0.2183074951171875,-0.6750335693359375,4808.385393375001,-0.6839719167487648,0.06271684578248735,-0.2799936101078485,-6.807731151580811,1.167853951454163,-1.288112759590149,-0.1483088135719299,-0.4306620359420776,0.1965028047561646,XArbitraryZVertical,-0.1209829024202991,0.07602156742303519,-0.3360361019858005,0.9309477647012528,0.06023497134447098,0.2763495147228241,-0.9591677188873291,0,0,0,-1,-1,4802.9347355,running,2,2022-06-30T09:48:23.219+02:00,2022-06-30T08:20:05.567+02:00,1383,1.400134,0,0,1092.013,0,0,2022-06-30T09:48:28.314+02:00
2022-06-30T09:48:28.688+02:00,4808.405296375,-0.0162811279296875,0.4288330078125,-0.657318115234375,4808.395345375,-0.6916288597728375,0.0734731075094464,-0.3533105651236307,-7.805394649505615,1.49295961856842,-1.158737421035767,-0.1561837494373322,-0.3447244167327881,0.2281661629676819,XArbitraryZVertical,-0.1529668227288383,0.09354464037258063,-0.339534996329918,0.9233453829220376,0.0688728466629982,0.346005767583847,-0.9357011318206787,0,0,0,-1,-1,4802.9347355,running,2,2022-06-30T09:48:23.219+02:00,2022-06-30T08:20:05.567+02:00,1383,1.400134,0,0,1092.013,0,0,2022-06-30T09:48:28.314+02:00
2022-06-30T09:48:28.698+02:00,4808.415248375,0.0449676513671875,0.6196441650390625,-0.6121826171875,4808.405296375,-0.6959193721322404,0.08849370652183931,-0.436503423287501,-8.792213439941406,1.868584871292114,-0.9816502332687378,-0.1445447206497192,-0.2044662237167358,0.2276556491851807,XArbitraryZVertical,-0.1886231613381349,0.1143530448046788,-0.3415690999159438,0.9136057272133222,0.08009150624275208,0.4227733314037323,-0.9026893973350525,0,0,0,-1,-1,4802.9347355,running,2,2022-06-30T09:48:23.219+02:00,2022-06-30T08:20:05.567+02:00,1383,1.400134,0,0,1092.013,0,0,2022-06-30T09:48:28.314+02:00
2022-06-30T09:48:28.708+02:00,4808.425199375,0.1173553466796875,0.7973175048828125,-0.5384521484375,4808.415248375,-0.6958383333672022,0.1090039858498779,-0.5291944499015995,-9.736944198608398,2.246397495269775,-0.8443528413772583,-0.1101887673139572,-0.07600545883178711,0.2007724642753601,XArbitraryZVertical,-0.2275597929562701,0.1384598841009871,-0.3419809993517,0.9011628076697875,0.09390754252672195,0.5048381686210632,-0.8580908179283142,0,0,0,-1,-1,4802.9347355,running,2,2022-06-30T09:48:23.219+02:00,2022-06-30T08:20:05.567+02:00,1383,1.400134,0,0,1092.013,0,0,2022-06-30T09:48:28.314+02:00
2022-06-30T09:48:28.718+02:00,4808.435151375001,0.2098846435546875,0.961517333984375,-0.382171630859375,4808.425199375,-0.6904833971191009,0.1359936266744139,-0.6306317644710591,-10.60866641998291,2.581999063491821,-0.7470305562019348,-0.0645301565527916,0.02998870611190796,0.188015341758728,XArbitraryZVertical,-0.2692831990212401,0.1654916557183168,-0.3408232040441708,0.8854030486348923,0.1094977110624313,0.5896551012992859,-0.8001981377601624,0,0,0,-1,-1,4802.9347355,running,2,2022-06-30T09:48:23.219+02:00,2022-06-30T08:20:05.567+02:00,1383,1.400134,0,0,1092.013,0,0,2022-06-30T09:48:28.314+02:00
2022-06-30T09:48:28.728+02:00,4808.445102375001,0.3025665283203125,1.14080810546875,-0.217926025390625,4808.435151375001,-0.6776487069154165,0.1711561603764598,-0.74013095074687,-11.4257869720459,2.846475839614868,-0.6264567375183105,-0.008406922221183777,0.1229326128959656,0.1891390085220337,XArbitraryZVertical,-0.3133790305354954,0.1949304131844334,-0.3378999198252968,0.865805644295125,0.1257622092962265,0.674384593963623,-0.7275914549827576,0,0,0,-1,-1,4802.9347355,running,2,2022-06-30T09:48:23.219+02:00,2022-06-30T08:20:05.567+02:00,1383,1.400134,0,0,1092.013,0,0,2022-06-30T09:48:28.314+02:00
2022-06-30T09:48:28.738+02:00,4808.455054375,0.3829193115234375,1.324386596679688,-0.0861663818359375,4808.445102375001,-0.652799933543656,0.2183602901244442,-0.8564924467543455,-12.18209266662598,3.037362337112427,-0.4829925894737244,0.06797264516353607,0.2059676647186279,0.2573639154434204,XArbitraryZVertical,-0.3592260367863438,0.2262492931194509,-0.3328043996894769,0.842026835874631,0.1419119387865067,0.755549430847168,-0.6395358443260193,0,0,0,-1,-1,4802.9347355,running,2,2022-06-30T09:48:23.219+02:00,2022-06-30T08:20:05.567+02:00,1383,1.400134,0,0,1092.013,0,0,2022-06-30T09:48:28.314+02:00
2022-06-30T09:48:28.748+02:00,4808.465006375,0.4531097412109375,1.468582153320312,-0.01129150390625,4808.455054375,-0.6084911496767702,0.2846890079544787,-0.9778729091022447,-12.7788610458374,3.201408624649048,-0.324911892414093,0.1456258594989777,0.3114972114562988,0.3183697462081909,XArbitraryZVertical,-0.4060644756495503,0.2587732112438408,-0.3253701118681559,0.8138073597288806,0.1569405943155289,0.8293106555938721,-0.5362961292266846,0,0,0,-1,-1,4802.9347355,running,2,2022-06-30T09:48:23.219+02:00,2022-06-30T08:20:05.567+02:00,1383,1.400134,0,0,1092.013,0,0,2022-06-30T09:48:28.314+02:00
2022-06-30T09:48:28.758+02:00,4808.474957375,0.5696868896484375,1.560256958007812,0.007843017578125,4808.465006375,-0.5297123877502035,0.3856031550743702,-1.100555520590796,-13.08272647857666,3.403544664382935,-0.2015631645917892,0.2124997526407242,0.4329273700714111,0.3336640000343323,XArbitraryZVertical,-0.4525850646235803,0.2919783789629123,-0.3156966296374274,0.7811857697691288,0.1704195439815521,0.8914592266082764,-0.4198307693004608,0,0,0,-1,-1,4802.9347355,running,2,2022-06-30T09:48:23.219+02:00,2022-06-30T08:20:05.567+02:00,1383,1.400134,0,0,1092.013,0,0,2022-06-30T09:48:28.314+02:00
2022-06-30T09:48:28.769+02:00,4808.484909375,0.6965484619140625,1.609146118164062,0.094146728515625,4808.474957375,-0.3858927703744294,0.5521286060523033,-1.216683018398564,-12.91594696044922,3.515683650970459,0.07514619082212448,0.271234393119812,0.5306277275085449,0.2839422225952148,XArbitraryZVertical,-0.4967746585349529,0.3249583046056004,-0.3042783092041532,0.745004587036164,0.1818753480911255,0.937954306602478,-0.2952340841293335,0,0,0,-1,-1,4802.9347355,running,2,2022-06-30T09:48:23.219+02:00,2022-06-30T08:20:05.567+02:00,1383,1.400134,0,0,1092.013,0,0,2022-06-30T09:48:28.314+02:00
2022-06-30T09:48:28.779+02:00,4808.494860375,0.776611328125,1.508987426757812,0.1655426025390625,4808.484909375,-0.1051978319184815,0.8556323043335272,-1.312908355973474,-12.61149787902832,3.564685106277466,0.4771641492843628,0.3771359324455261,0.5933261513710022,0.175082340836525,XArbitraryZVertical,-0.5372598491648772,0.3573961401796077,-0.2907528744644288,0.7064578481036341,0.192550927400589,0.9669308066368103,-0.167239710688591,0,0,0,-1,-1,4802.9347355,running,2,2022-06-30T09:48:23.219+02:00,2022-06-30T08:20:05.567+02:00,1383,1.400134,0,0,1092.013,0,0,2022-06-30T09:48:28.314+02:00
2022-06-30T09:48:28.788+02:00,4808.504812375,0.7634429931640625,1.363357543945312,0.27423095703125,4808.494860375,0.3862442709088387,1.369677316626027,-1.362089271720578,-11.87904262542725,3.49889612197876,0.9451476335525513,0.4935297667980194,0.6308464407920837,0.135536789894104,XArbitraryZVertical,-0.5728953916343367,0.3887102074741601,-0.2753640448320467,0.6669856360278855,0.2030186653137207,0.978299617767334,-0.04139048978686333,0,0,0,-1,-1,4802.9347355,running,2,2022-06-30T09:48:23.219+02:00,2022-06-30T08:20:05.567+02:00,1383,1.400134,0,0,1092.013,0,0,2022-06-30T09:48:28.314+02:00
2022-06-30T09:48:28.798+02:00,4808.514764375001,0.63555908203125,1.20465087890625,0.364837646484375,4808.504812375,0.9080133278249553,1.913283753051613,-1.342405689367985,-10.79811668395996,3.233738422393799,1.244174718856812,0.5633504390716553,0.5349554419517517,0.08950661867856979,XArbitraryZVertical,-0.60276469047048,0.4179623559201204,-0.2588786142924281,0.628461664513308,0.2132608592510223,0.9740320444107056,0.07603560388088226,0,0,0,-1,-1,4802.9347355,running,2,2022-06-30T09:48:23.219+02:00,2022-06-30T08:20:05.567+02:00,1383,1.400134,0,0,1092.013,0,0,2022-06-30T09:48:28.314+02:00
2022-06-30T09:48:28.807+02:00,4808.524715375001,0.5057373046875,1.006805419921875,0.365875244140625,4808.514764375001,1.229429700501435,2.254838196910675,-1.281085404656017,-9.528541564941406,2.915372133255005,1.259421825408936,0.5420377850532532,0.4050310254096985,0.09370383620262146,XArbitraryZVertical,-0.6271374133912854,0.4438040574721867,-0.2426524662462237,0.5923312689653699,0.2214051634073257,0.958326518535614,0.1805267482995987,0,0,0,-1,-1,4802.9347355,running,2,2022-06-30T09:48:23.219+02:00,2022-06-30T08:20:05.567+02:00,1383,1.400134,0,0,1092.013,0,0,2022-06-30T09:48:28.314+02:00
2022-06-30T09:48:28.817+02:00,4808.534667375,0.39324951171875,0.7634124755859375,0.46575927734375,4808.524715375001,1.397884375736562,2.442539700406975,-1.210219079553361,-8.112460136413574,2.710230112075806,1.289584159851074,0.4085253477096558,0.2689576745033264,0.09477469325065613,XArbitraryZVertical,-0.6462964483803746,0.4661890278281616,-0.2279248707223106,0.559481003218557,0.2270337343215942,0.9356933236122131,0.2700626254081726,0,0,0,-1,-1,4802.9347355,running,2,2022-06-30T09:48:23.219+02:00,2022-06-30T08:20:05.567+02:00,1383,1.400134,0,0,1092.013,0,0,2022-06-30T09:48:28.314+02:00
2022-06-30T09:48:28.827+02:00,4808.544618375,0.3108367919921875,0.5669097900390625,0.5272216796875,4808.534667375,1.486823002366725,2.550773644942212,-1.144486040565771,-6.531983852386475,2.491830110549927,1.139118194580078,0.2753927707672119,0.09630793333053589,0.02245748043060303,XArbitraryZVertical,-0.6603928668294455,0.4853760855592517,-0.2157303264843378,0.5308029850194438,0.2303446084260941,0.9104976654052734,0.3434173762798309,0,0,0,-1,-1,4802.9347355,running,2,2022-06-30T09:48:23.219+02:00,2022-06-30T08:20:05.567+02:00,1383,1.400134,0,0,1092.013,0,0,2022-06-30T09:48:28.314+02:00
2022-06-30T09:48:28.837+02:00,4808.554570375,0.25286865234375,0.5034027099609375,0.553802490234375,4808.544618375,1.535170002141147,2.617446716445519,-1.091922361270765,-4.664450168609619,2.155900716781616,0.8618600368499756,0.1626410484313965,-0.1241016387939453,0.06683754920959473,XArbitraryZVertical,-0.6699939465134499,0.5005685226295925,-0.2071277203843868,0.5075800379761983,0.2306085377931595,0.8875143527984619,0.3989214599132538,0,0,0,-1,-1,4802.9347355,running,2,2022-06-30T09:48:23.219+02:00,2022-06-30T08:20:05.567+02:00,1383,1.400134,0,0,1092.013,0,0,2022-06-30T09:48:28.314+02:00
2022-06-30T09:48:28.848+02:00,4808.564521375,0.2338714599609375,0.4715118408203125,0.6797637939453125,4808.554570375,1.558937027095865,2.657414998035728,-1.056458787284875,-2.682923555374146,1.640349984169006,0.6023528575897217,0.08183965086936951,-0.3037087917327881,0.09180951118469238,XArbitraryZVertical,-0.6753349739352754,0.5114964429062497,-0.2024983950547599,0.4912113427136615,0.228997215628624,0.8706188201904297,0.4354118704795837,0,0,0,-1,-1,4802.9347355,running,2,2022-06-30T09:48:23.219+02:00,2022-06-30T08:20:05.567+02:00,1383,1.400134,0,0,1092.013,0,0,2022-06-30T09:48:28.314+02:00
2022-06-30T09:48:28.864+02:00,4808.574473375001,0.2065887451171875,0.401336669921875,0.9256744384765625,4808.564521375,1.567125676827752,2.677597305500758,-1.038630372329228,-0.9314038157463074,0.9760051965713501,0.2933143973350525,0.02579429745674133,-0.3583072423934937,0.100047767162323,XArbitraryZVertical,-0.6771711568535964,0.5179926418911402,-0.2012659452703375,0.4823016465390014,0.2270744293928146,0.8617100715637207,0.4537543058395386,0,0,0,-1,-1,4802.9347355,running,2,2022-06-30T09:48:23.219+02:00,2022-06-30T08:20:05.567+02:00,1383,1.400134,0,0,1092.013,0,0,2022-06-30T09:48:28.314+02:00
2022-06-30T09:48:28.868+02:00,4808.584425375,0.2057037353515625,0.3784027099609375,1.19866943359375,4808.574473375001,1.567921302214453,2.684622497686767,-1.036290205303287,0.3921251893043518,0.2869674265384674,-0.1491879373788834,0.009101197123527527,-0.3890082836151123,0.2226166427135468,XArbitraryZVertical,-0.6769026763452672,0.5199770925391675,-0.2026585199499528,0.4799543351079895,0.2247703373432159,0.8605203032493591,0.4571468234062195,0,0,0,-1,-1,4802.9347355,running,2,2022-06-30T09:48:23.219+02:00,2022-06-30T08:20:05.567+02:00,1383,1.400134,0,0,1092.013,0,0,2022-06-30T09:48:28.314+02:00
2022-06-30T09:48:28.877+02:00,4808.594376375,0.219268798828125,0.3767852783203125,1.447097778320312,4808.584425375,1.567236296708229,2.683657243118212,-1.044752714492391,1.071786165237427,-0.3536558449268341,-0.5135383009910583,-0.01539531350135803,-0.4634634256362915,0.4752923846244812,XArbitraryZVertical,-0.6759667305057202,0.5179381019496669,-0.2053660315071717,0.4823215284730376,0.2219841778278351,0.8648003935813904,0.4503817856311798,0,0,0,-1,-1,4802.9347355,running,2,2022-06-30T09:48:23.219+02:00,2022-06-30T08:20:05.567+02:00,1383,1.400134,0,0,1092.013,0,0,2022-06-30T09:48:28.314+02:00
2022-06-30T09:48:28.887+02:00,4808.604328375,0.1968841552734375,0.3551177978515625,1.573013305664062,4808.594376375,1.568503081805057,2.678417237918635,-1.058104211759255,1.222849726676941,-0.9112709164619446,-0.7791505455970764,-0.0134585052728653,-0.4930242300033569,0.75982666015625,XArbitraryZVertical,-0.6754648196860322,0.5129995673627279,-0.2078096021573421,0.4872308861570095,0.2191623151302338,0.8714271187782288,0.4388425648212433,0,0,0,-1,-1,4802.9347355,running,2,2022-06-30T09:48:23.219+02:00,2022-06-30T08:20:05.567+02:00,1383,1.400134,0,0,1092.013,0,0,2022-06-30T09:48:28.314+02:00
2022-06-30T09:48:28.897+02:00,4808.614279375,0.1594390869140625,0.37890625,1.620010375976562,4808.604328375,1.574332416618897,2.672156777546825,-1.072835151684457,1.137589335441589,-1.364357113838196,-1.043688416481018,0.003194540739059448,-0.5017727017402649,1.021130800247192,XArbitraryZVertical,-0.6760642644268905,0.5058858122856902,-0.2092405066127763,0.4931887615946766,0.2160743325948715,0.8785582184791565,0.4259666800498962,0,0,0,-1,-1,4802.9347355,running,2,2022-06-30T09:48:23.219+02:00,2022-06-30T08:20:05.567+02:00,1383,1.400134,0,0,1092.013,0,0,2022-06-30T09:48:28.314+02:00
2022-06-30T09:48:28.907+02:00,4808.624231375,0.1075897216796875,0.41229248046875,1.607086181640625,4808.614279375,1.585964185656454,2.666692439140256,-1.087441302054765,0.9653840065002441,-1.800293207168579,-1.255865454673767,-0.01562370359897614,-0.5303227305412292,1.159690737724304,XArbitraryZVertical,-0.6779898547891761,0.496981756482813,-0.2094141153529024,0.4994843643270708,0.2125079482793808,0.8854406476020813,0.4133222103118896,0,0,0,-1,-1,4802.9347355,running,2,2022-06-30T09:48:23.219+02:00,2022-06-30T08:20:05.567+02:00,1383,1.400134,0,0,1092.013,0,0,2022-06-30T09:48:28.314+02:00
2022-06-30T09:48:28.917+02:00,4808.634182375,0.063079833984375,0.415283203125,1.549331665039062,4808.624231375,1.603162447448639,2.662012220430624,-1.10144474724286,0.8029599189758301,-2.216115236282349,-1.430769920349121,-0.04925897717475891,-0.5129553079605103,1.218727350234985,XArbitraryZVertical,-0.6811617014585725,0.486477202903759,-0.2081758601839224,0.505985685666499,0.2086981534957886,0.8918617367744446,0.4012826681137085,0,0,0,-1,-1,4802.9347355,running,2,2022-06-30T09:48:23.219+02:00,2022-06-30T08:20:05.567+02:00,1383,1.400134,0,0,1092.013,0,0,2022-06-30T09:48:28.314+02:00
2022-06-30T09:48:28.927+02:00,4808.644134375,0.0258636474609375,0.407562255859375,1.460174560546875,4808.634182375,1.625436266728145,2.657677373330179,-1.115293543388179,0.7572835087776184,-2.668585300445557,-1.625421762466431,-0.09707947075366974,-0.4857473373413086,1.217682838439941,XArbitraryZVertical,-0.6853754867895043,0.4743015292284705,-0.205603735738784,0.5128602067703647,0.2046692371368408,0.8980399370193481,0.3894029855728149,0,0,0,-1,-1,4802.9347355,running,2,2022-06-30T09:48:23.219+02:00,2022-06-30T08:20:05.567+02:00,1383,1.400134,0,0,1092.013,0,0,2022-06-30T09:48:28.314+02:00
2022-06-30T09:48:28.937+02:00,4808.654086375001,0.0016326904296875,0.4212493896484375,1.345260620117188,4808.644134375,1.652010249997761,2.65276716059146,-1.130675587944628,0.9033738970756531,-3.135128498077393,-1.849140286445618,-0.13698810338974,-0.4894168972969055,1.173179149627686,XArbitraryZVertical,-0.6902492467901008,0.4600348119683049,-0.2020829330392066,0.5206596489031002,0.200067937374115,0.9047002196311951,0.3761520981788635,0,0,0,-1,-1,4802.9347355,running,2,2022-06-30T09:48:23.219+02:00,2022-06-30T08:20:05.567+02:00,1383,1.400134,0,0,1092.013,0,0,2022-06-30T09:48:28.314+02:00
2022-06-30T09:48:28.947+02:00,4808.664037375001,-0.028533935546875,0.43115234375,1.233978271484375,4808.654086375001,1.681202498047783,2.645745799563674,-1.148897639567229,1.168044924736023,-3.613738059997559,-2.028259038925171,-0.1689638793468475,-0.5047506093978882,1.099997520446777,XArbitraryZVertical,-0.6952737381695918,0.4434893643082511,-0.1978733023435096,0.5298658893437524,0.1948275566101074,0.9123131036758423,0.3601767718791962,0,0,0,-1,-1,4802.9347355,running,2,2022-06-30T09:48:23.219+02:00,2022-06-30T08:20:05.567+02:00,1383,1.400134,0,0,1092.013,0,0,2022-06-30T09:48:28.314+02:00
2022-06-30T09:48:28.957+02:00,4808.673989375,-0.0602264404296875,0.4357452392578125,1.093673706054688,4808.664037375001,1.711942745726699,2.635464573082001,-1.170473698559199,1.43034291267395,-4.120527744293213,-2.209932804107666,-0.187299370765686,-0.4996857047080994,1.004403829574585,XArbitraryZVertical,-0.7001332468279828,0.4245487763086431,-0.1929396236846545,0.5406904684735422,0.1889320611953735,0.920935332775116,0.3408564627170563,0,0,0,-1,-1,4802.9347355,running,2,2022-06-30T09:48:23.219+02:00,2022-06-30T08:20:05.567+02:00,1383,1.400134,0,0,1092.013,0,0,2022-06-30T09:48:28.314+02:00
2022-06-30T09:48:28.967+02:00,4808.683940375,-0.0732879638671875,0.462738037109375,0.90167236328125,4808.673989375,1.745579398467876,2.623090476502025,-1.194956788507638,1.59461236000061,-4.621355056762695,-2.418498516082764,-0.2104381769895554,-0.4990474581718445,0.9151691198348999,XArbitraryZVertical,-0.7049185019267057,0.4031057687873066,-0.1870940644683521,0.5528031954744581,0.1819041818380356,0.9301998019218445,0.3188087046146393,0,0,0,-1,-1,4802.9347355,running,2,2022-06-30T09:48:23.219+02:00,2022-06-30T08:20:05.567+02:00,1383,1.400134,0,0,1092.013,0,0,2022-06-30T09:48:28.314+02:00
2022-06-30T09:48:28.977+02:00,4808.693892375,-0.08538818359375,0.5331268310546875,0.68548583984375,4808.683940375,1.783434593384827,2.610186268164188,-1.221636778305773,1.674383640289307,-5.082426071166992,-2.589445352554321,-0.2335887998342514,-0.503915011882782,0.7987430095672607,XArbitraryZVertical,-0.7096671040855498,0.3792594979313405,-0.1801993830414601,0.5657412541206631,0.1733623445034027,0.9396605491638184,0.2949303388595581,0,0,0,-1,-1,4802.9347355,running,2,2022-06-30T09:48:23.219+02:00,2022-06-30T08:20:05.567+02:00,1383,1.400134,0,0,1092.013,0,0,2022-06-30T09:48:28.314+02:00
2022-06-30T09:48:28.987+02:00,4808.703844375001,-0.1180267333984375,0.5654449462890625,0.4173583984375,4808.693892375,1.827447219474448,2.598862496485696,-1.249575522085605,1.642125487327576,-5.544516086578369,-2.77528977394104,-0.2363525182008743,-0.4861125349998474,0.6313159465789795,XArbitraryZVertical,-0.7144706523668271,0.3531427125930475,-0.172057981833755,0.578980143473572,0.1630644798278809,0.948850691318512,0.2703561782836914,0,0,0,-1,-1,4802.9347355,running,2,2022-06-30T09:48:23.219+02:00,2022-06-30T08:20:05.567+02:00,1383,1.400134,0,0,1092.013,0,0,2022-06-30T09:48:28.314+02:00
2022-06-30T09:48:28.997+02:00,4808.713795375001,-0.1457672119140625,0.57696533203125,0.13031005859375,4808.703844375001,1.881707185385339,2.59324451642849,-1.278073428301682,1.538715720176697,-5.982109546661377,-2.99140739440918,-0.2358083724975586,-0.4243348836898804,0.4392320513725281,XArbitraryZVertical,-0.7195101118686896,0.3247027107967835,-0.1626167424713524,0.5919704928708294,0.150420069694519,0.9574617147445679,0.2462532967329025,0,0,0,-1,-1,4802.9347355,running,2,2022-06-30T09:48:23.219+02:00,2022-06-30T08:20:05.567+02:00,1383,1.400134,0,0,1092.013,0,0,2022-06-30T09:48:28.314+02:00
2022-06-30T09:48:29.007+02:00,4808.723747375,-0.1731719970703125,0.5861968994140625,-0.037841796875,4808.713795375001,1.950312520594505,2.597648487329165,-1.306379399148143,1.325822114944458,-6.384970188140869,-3.189435243606567,-0.2532778382301331,-0.3997999429702759,0.1937302350997925,XArbitraryZVertical,-0.7248165273336989,0.2940321809732422,-0.1518280105018912,0.6042635437508735,0.1352509558200836,0.9652450680732727,0.2236278504133224,0,0,0,-1,-1,4802.9347355,running,2,2022-06-30T09:48:23.219+02:00,2022-06-30T08:20:05.567+02:00,1383,1.400134,0,0,1092.013,0,0,2022-06-30T09:48:28.314+02:00
2022-06-30T09:48:29.017+02:00,4808.733698375,-0.2240753173828125,0.637786865234375,-0.1301727294921875,4808.723747375,2.040586354233394,2.62021430160219,-1.333081144925275,0.9833570122718811,-6.633301258087158,-3.392555713653564,-0.2630559206008911,-0.3949130177497864,-0.07388579845428467,XArbitraryZVertical,-0.7305778005727835,0.2614456759420858,-0.139848558744743,0.6150973541914031,0.1172885820269585,0.9718785285949707,0.2041955292224884,0,0,0,-1,-1,4802.9347355,running,2,2022-06-30T09:48:23.219+02:00,2022-06-30T08:20:05.567+02:00,1383,1.400134,0,0,1092.013,0,0,2022-06-30T09:48:28.314+02:00
2022-06-30T09:48:29.026+02:00,4808.743650375,-0.2709808349609375,0.7472076416015625,-0.1744842529296875,4808.733698375,2.160942315581578,2.670981203221986,-1.356770288984165,0.6198350191116333,-6.722862243652344,-3.629212856292725,-0.2694789171218872,-0.3909868597984314,-0.2271482050418854,XArbitraryZVertical,-0.7368226072644656,0.2274763325445358,-0.1272382479547634,0.6238247402085314,0.0963066965341568,0.9771836996078491,0.1893060654401779,0,0,0,-1,-1,4802.9347355,running,2,2022-06-30T09:48:23.219+02:00,2022-06-30T08:20:05.567+02:00,1383,1.400134,0,0,1092.013,0,0,2022-06-30T09:48:28.314+02:00
2022-06-30T09:48:29.036+02:00,4808.753601375,-0.1721343994140625,0.7569580078125,0.96612548828125,4808.743650375,2.32129637694442,2.761397495199685,-1.376055253531717,0.1991153210401535,-6.650515079498291,-3.893564462661743,-0.2958883941173553,-0.3433108925819397,-0.309867262840271,XArbitraryZVertical,-0.7435134833136542,0.192444402939743,-0.1147864805079616,0.6300610531028813,0.07181285321712494,0.9810978174209595,0.1796942949295044,0,0,0,-1,-1,4802.9347355,running,2,2022-06-30T09:48:23.219+02:00,2022-06-30T08:20:05.567+02:00,1383,1.400134,0,0,1092.013,0,0,2022-06-30T09:48:28.314+02:00
2022-06-30T09:48:29.046+02:00,4808.763553375,-2.048858642578125,1.8155517578125,-4.810134887695312,4808.753601375,2.514865798651224,2.892888017540418,-1.398144981445592,1.840742111206055,-4.618503570556641,-4.131278514862061,-0.3132684230804443,-0.2379248738288879,-0.3409948348999023,XArbitraryZVertical,-0.7471456663279216,0.1582038641868322,-0.106520274166002,0.6367091099885798,0.04228736087679863,0.9851327538490295,0.1665102243423462,0,0,0,-1,-1,4802.9347355,running,2,2022-06-30T09:48:23.219+02:00,2022-06-30T08:20:05.567+02:00,1383,1.400134,0,0,1092.013,0,0,2022-06-30T09:48:28.314+02:00
2022-06-30T09:48:29.056+02:00,4808.773505375,-2.371719360351562,1.70574951171875,-6.696929931640625,4808.763553375,2.694781410096697,3.057209962617305,-1.413251249727892,0.3682476878166199,1.491093754768372,-1.851521968841553,-0.1853581368923187,-0.2306573390960693,0.8097888231277466,XArbitraryZVertical,-0.7470635891765438,0.1416480694128509,-0.1124370371732756,0.6396794445769052,0.01322348322719336,0.9876154065132141,0.1563363671302795,0,0,0,-1,-1,4802.9347355,running,2,2022-06-30T09:48:23.219+02:00,2022-06-30T08:20:05.567+02:00,1383,1.400134,0,0,1092.013,0,0,2022-06-30T09:48:28.314+02:00
2022-06-30T09:48:29.067+02:00,4808.783456791667,-0.580047607421875,0.977203369140625,-3.714462280273438,4808.773505375,2.796653614393972,-3.102580700486553,-1.410587467903717,-1.04799497127533,2.236598968505859,-1.811809420585632,-2.04263710975647,0.828357994556427,-4.969539642333984,XArbitraryZVertical,-0.7478124920635036,0.1431037523281801,-0.1258611122742399,0.6359693118508387,-0.006221834104508162,0.9871940016746521,0.1594044119119644,0,0,0,-1,-1,4802.9347355,running,2,2022-06-30T09:48:23.219+02:00,2022-06-30T08:20:05.567+02:00,1383,1.400134,0,0,1092.013,0,0,2022-06-30T09:48:28.314+02:00
2022-06-30T09:48:29.076+02:00,4808.793408791667,-0.26776123046875,1.926193237304688,-2.62493896484375,4808.783456791667,2.951907117995975,-2.938790267950092,-1.39910222167825,-0.4758405685424805,0.3019002079963684,-3.58828592300415,-2.337307453155518,0.7204527854919434,-6.864280700683594,XArbitraryZVertical,-0.7516077193988935,0.1369711172565169,-0.1377663672117004,0.6303532342221196,-0.03441215679049492,0.9852967262268066,0.1673505008220673,0,0,0,-1,-1,4802.9347355,running,2,2022-06-30T09:48:23.219+02:00,2022-06-30T08:20:05.567+02:00,1383,1.400134,0,0,1092.013,0,0,2022-06-30T09:48:28.314+02:00
2022-06-30T09:48:29.086+02:00,4808.803359791667,0.4891204833984375,2.095611572265625,-1.860427856445312,4808.793408791667,-3.127371662917367,-2.733001771015485,-1.386391606853672,0.3009622395038605,0.877612829208374,-3.826778173446655,-0.5071952342987061,-0.005842149257659912,-3.88273024559021,XArbitraryZVertical,-0.7541143587699722,0.1242794046712216,-0.1516018593227036,0.6268038710109214,-0.07285265624523163,0.9830455780029297,0.1682676672935486,0,0,0,-1,-1,4802.9347355,running,2,2022-06-30T09:48:23.219+02:00,2022-06-30T08:20:05.567+02:00,1383,1.400134,0,0,1092.013,0,0,2022-06-30T09:48:28.314+02:00
2022-06-30T09:48:29.096+02:00,4808.813311791667,0.5564727783203125,2.00518798828125,-1.129470825195312,4808.803359791667,-2.941728215301101,-2.541067031701643,-1.3775372186402,1.438178658485413,0.8431780934333801,-3.147439002990723,-0.1592339426279068,0.9448097348213196,-2.783394813537598,XArbitraryZVertical,-0.7525631613629417,0.1134743060558712,-0.1666318972224027,0.6269019531931294,-0.1085275262594223,0.9813835024833679,0.1584554612636566,0,0,0,-1,-1,4802.9347355,running,2,2022-06-30T09:48:23.219+02:00,2022-06-30T08:20:05.567+02:00,1383,1.400134,0,0,1092.013,0,0,2022-06-30T09:48:28.314+02:00
2022-06-30T09:48:29.106+02:00,4808.823262791667,-0.1765594482421875,1.882278442382812,-0.7125091552734375,4808.813311791667,-2.782549529921912,-2.380436091613197,-1.36975818237498,1.115048885345459,0.04942344501614571,-2.741753101348877,0.6268562078475952,1.11575174331665,-2.005009174346924,XArbitraryZVertical,-0.7494813632061229,0.1028018812713351,-0.1781978948038247,0.6292495657310634,-0.1377359181642532,0.9798598289489746,0.1445810794830322,0,0,0,-1,-1,4802.9347355,running,2,2022-06-30T09:48:23.219+02:00,2022-06-30T08:20:05.567+02:00,1383,1.400134,0,0,1092.013,0,0,2022-06-30T09:48:28.314+02:00
2022-06-30T09:48:29.116+02:00,4808.833214791667,-0.7092437744140625,1.3870849609375,0.3343353271484375,4808.823262791667,-2.662872022412989,-2.265085527949004,-1.354274704554768,0.4428512752056122,-0.3580943048000336,-2.978755950927734,0.7215738296508789,1.028537273406982,-1.266929984092712,XArbitraryZVertical,-0.7486315164881551,0.09099598617937595,-0.1867947380202265,0.6295857611970473,-0.1651013046503067,0.9766506552696228,0.1374588310718536,0,0,0,-1,-1,4802.9347355,running,2,2022-06-30T09:48:23.219+02:00,2022-06-30T08:20:05.567+02:00,1383,1.400134,0,0,1092.013,0,0,2022-06-30T09:48:28.314+02:00
2022-06-30T09:48:29.126+02:00,4808.843166791667,-0.947113037109375,0.8696441650390625,1.262298583984375,4808.833214791667,-2.565888761925094,-2.17551388652513,-1.329984504883969,0.1879662722349167,-0.7372293472290039,-3.531618356704712,0.0196380615234375,0.9111337065696716,-0.8480987548828125,XArbitraryZVertical,-0.7495799871513616,0.07697067020598804,-0.1953307881733541,0.6277350085156266,-0.1961977332830429,0.9711446762084961,0.1355892866849899,0,0,0,-1,-1,4802.9347355,running,2,2022-06-30T09:48:23.219+02:00,2022-06-30T08:20:05.567+02:00,1383,1.400134,0,0,1092.013,0,0,2022-06-30T09:48:28.314+02:00
2022-06-30T09:48:29.136+02:00,4808.853117791667,-1.652633666992188,1.314178466796875,0.923004150390625,4808.843166791667,-2.480215239007106,-2.101329418278953,-1.300639801311505,0.3644934892654419,-0.927427351474762,-3.696644067764282,-0.4790476858615875,0.4233558773994446,0.1992942094802856,XArbitraryZVertical,-0.7509181761504895,0.06035164148809089,-0.2035356355691362,0.6253422441386219,-0.2301963567733765,0.9637291431427002,0.1350408494472504,0,0,0,-1,-1,4802.9347355,running,2,2022-06-30T09:48:23.219+02:00,2022-06-30T08:20:05.567+02:00,1383,1.400134,0,0,1092.013,0,0,2022-06-30T09:48:28.314+02:00
2022-06-30T09:48:29.146+02:00,4808.863069791667,-2.347579956054688,2.903350830078125,0.1406097412109375,4808.853117791667,-2.395610248447246,-2.024668009513146,-1.27195371784775,1.181718826293945,0.1096387356519699,-3.572216987609863,-0.6825060844421387,-0.08603358268737793,1.133212566375732,XArbitraryZVertical,-0.7500434677171322,0.04447101415924283,-0.2134176827356155,0.6244278634273341,-0.2646071910858154,0.95567786693573,0.1290857493877411,0,0,0,-1,-1,4802.9347355,running,2,2022-06-30T09:48:23.219+02:00,2022-06-30T08:20:05.567+02:00,1383,1.400134,0,0,1092.013,0,0,2022-06-30T09:48:28.314+02:00
2022-06-30T09:48:29.156+02:00,4808.873020791667,-2.833465576171875,3.983169555664062,-0.7872161865234375,4808.863069791667,-2.302777590415521,-1.92971156518292,-1.248387822898875,2.290443420410156,1.134509801864624,-2.959760189056396,-1.355972290039062,0.3657034039497375,0.8117067813873291,XArbitraryZVertical,-0.7447135221434229,0.03240820001121449,-0.2264617886273487,0.626950206473191,-0.2966616451740265,0.9484750032424927,0.1112970411777496,0,0,0,-1,-1,4802.9347355,running,2,2022-06-30T09:48:23.219+02:00,2022-06-30T08:20:05.567+02:00,1383,1.400134,0,0,1092.013,0,0,2022-06-30T09:48:28.314+02:00
2022-06-30T09:48:29.166+02:00,4808.882972791667,-2.67193603515625,3.895065307617188,-1.146621704101562,4808.873020791667,-2.175947410929979,-1.792653722015208,-1.232850649789798,4.781542301177979,2.454252243041992,-2.424154043197632,-2.02415657043457,1.959913015365601,0.06765460968017578,XArbitraryZVertical,-0.7320569141846427,0.02387670407791826,-0.2416604291847685,0.6364926269770625,-0.3234236836433411,0.9434377551078796,0.07295484840869904,0,0,0,-1,-1,4802.9347355,running,2,2022-06-30T09:48:23.219+02:00,2022-06-30T08:20:05.567+02:00,1383,1.400134,0,0,1092.013,0,0,2022-06-30T09:48:28.314+02:00
2022-06-30T09:48:29.176+02:00,4808.892924791667,-2.182403564453125,3.146377563476562,-1.256332397460938,4808.882972791667,-2.006264676248085,-1.599817184668584,-1.217374776466327,5.994766235351562,4.038192749023438,-2.049046039581299,-2.487501382827759,3.044975519180298,-0.7972595691680908,XArbitraryZVertical,-0.7103803888692621,0.01952446709195501,-0.2614582395893222,0.6531601402330461,-0.3459644019603729,0.9381939768791199,0.01004300359636545,0,0,0,-1,-1,4802.9347355,running,2,2022-06-30T09:48:23.219+02:00,2022-06-30T08:20:05.567+02:00,1383,1.400134,0,0,1092.013,0,0,2022-06-30T09:48:28.314+02:00
2022-06-30T09:48:29.186+02:00,4808.902875791667,-2.061477661132812,2.501968383789062,-1.146591186523438,4808.892924791667,-1.846707290888803,-1.410553441119216,-1.196048861707402,5.537831783294678,3.835669755935669,-1.442847847938538,-2.310588121414185,2.964465141296387,-1.088217735290527,XArbitraryZVertical,-0.6858893231231796,0.01880747587029562,-0.2818057475923691,0.6706621230494381,-0.3613481819629669,0.930600106716156,-0.05840422958135605,0,0,0,-1,-1,4802.9347355,running,2,2022-06-30T09:48:23.219+02:00,2022-06-30T08:20:05.567+02:00,1383,1.400134,0,0,1092.013,0,0,2022-06-30T09:48:28.314+02:00
2022-06-30T09:48:29.196+02:00,4808.912827791667,-2.316070556640625,2.361343383789062,-0.8965911865234375,4808.902875791667,-1.724725107971518,-1.262521571061801,-1.173942040690296,4.421674251556396,3.264499425888062,-0.6880406141281128,-1.814105749130249,2.224096059799194,-1.139056921005249,XArbitraryZVertical,-0.6640554988036056,0.01980944310384165,-0.2977602489508103,0.6855485013752567,-0.3682979941368103,0.9222814440727234,-0.1172757595777512,0,0,0,-1,-1,4802.9347355,running,2,2022-06-30T09:48:23.219+02:00,2022-06-30T08:20:05.567+02:00,1383,1.400134,0,0,1092.013,0,0,2022-06-30T09:48:28.314+02:00
2022-06-30T09:48:29.206+02:00,4808.922778791667,-2.612762451171875,2.505752563476562,-0.6648406982421875,4808.912827791667,-1.63565246306403,-1.148141972363775,-1.158056681269734,3.328965902328491,3.353044509887695,0.2231908440589905,-1.695654273033142,1.585943102836609,-0.9820586442947388,XArbitraryZVertical,-0.6458601716795647,0.02445835217270926,-0.3096176708738785,0.6974263916264631,-0.3658236563205719,0.9160253405570984,-0.1645328551530838,0,0,0,-1,-1,4802.9347355,running,2,2022-06-30T09:48:23.219+02:00,2022-06-30T08:20:05.567+02:00,1383,1.400134,0,0,1092.013,0,0,2022-06-30T09:48:28.314+02:00
2022-06-30T09:48:29.216+02:00,4808.932730791667,-2.562255859375,2.595367431640625,-0.4412384033203125,4808.922778791667,-1.565861530485041,-1.048159845196816,-1.150148016689391,2.473244428634644,3.959628582000732,0.9125171303749084,-1.962230682373047,1.448518991470337,-0.6927555799484253,XArbitraryZVertical,-0.6299941292386021,0.03448816414336327,-0.31953064391802,0.7069782885946394,-0.3538400828838348,0.9128243923187256,-0.2038359344005585,0,0,0,-1,-1,4802.9347355,running,2,2022-06-30T09:48:23.219+02:00,2022-06-30T08:20:05.567+02:00,1383,1.400134,0,0,1092.013,0,0,2022-06-30T09:48:28.314+02:00
2022-06-30T09:48:29.225+02:00,4808.942681791667,-2.351974487304688,2.535354614257812,-0.1663970947265625,4808.932730791667,-1.506504053349181,-0.9513914417673192,-1.148297656704655,1.868894457817078,4.563477993011475,1.413293600082397,-2.278897523880005,1.593685150146484,-0.4267914891242981,XArbitraryZVertical,-0.6152231520698821,0.04975641324814332,-0.3291326761821957,0.7146303794813478,-0.3338651955127716,0.9120672345161438,-0.2380495518445969,0,0,0,-1,-1,4802.9347355,running,2,2022-06-30T09:48:23.219+02:00,2022-06-30T08:20:05.567+02:00,1383,1.400134,0,0,1092.013,0,0,2022-06-30T09:48:28.314+02:00
2022-06-30T09:48:29.235+02:00,4808.952633791667,-2.282760620117188,2.3697509765625,0.044952392578125,4808.942681791667,-1.449226980735346,-0.8524050563839652,-1.150896133929187,1.529438853263855,4.798801422119141,1.924128532409668,-2.255335807800293,1.68223762512207,-0.1729213297367096,XArbitraryZVertical,-0.6009266685383214,0.06876360175146491,-0.3378876966222836,0.7211036957805689,-0.3069200813770294,0.9131296277046204,-0.2683174014091492,0,0,0,-1,-1,4802.9347355,running,2,2022-06-30T09:48:23.219+02:00,2022-06-30T08:20:05.567+02:00,1383,1.400134,0,0,1092.013,0,0,2022-06-30T09:48:28.314+02:00
2022-06-30T09:48:29.245+02:00,4808.962585791667,-2.323348999023438,2.161178588867188,0.199554443359375,4808.952633791667,-1.386400704156566,-0.7466770137890575,-1.156001036042761,1.446751117706299,4.903349876403809,2.367048501968384,-2.078253984451294,1.620155572891235,0.1293861567974091,XArbitraryZVertical,-0.5865076423972624,0.0900942935646732,-0.3450551393946963,0.7272060739832973,-0.2737207114696503,0.9151988625526428,-0.2957836091518402,0,0,0,-1,-1,4802.9347355,running,2,2022-06-30T09:48:23.219+02:00,2022-06-30T08:20:05.567+02:00,1383,1.400134,0,0,1092.013,0,0,2022-06-30T09:48:28.314+02:00
2022-06-30T09:48:29.255+02:00,4808.972536791667,-2.330886840820312,2.021499633789062,0.2560882568359375,4808.962585791667,-1.314418405539557,-0.6312484260212473,-1.160501127725066,1.556670904159546,5.069618701934814,2.683248043060303,-2.047360420227051,1.452747821807861,0.3669646382331848,XArbitraryZVertical,-0.5711907673872764,0.1128486560016317,-0.3509520856955733,0.7333750991845983,-0.2354003936052322,0.9170030951499939,-0.3220125734806061,0,0,0,-1,-1,4802.9347355,running,2,2022-06-30T09:48:23.219+02:00,2022-06-30T08:20:05.567+02:00,1383,1.400134,0,0,1092.013,0,0,2022-06-30T09:48:28.314+02:00
2022-06-30T09:48:29.265+02:00,4808.982488791667,-2.259674072265625,1.946868896484375,0.2378997802734375,4808.972536791667,-1.232242305241347,-0.5038805365848344,-1.161629760986139,1.804111838340759,5.382010459899902,2.995944261550903,-2.131258487701416,1.243725776672363,0.547953188419342,XArbitraryZVertical,-0.5541072499747872,0.136987605194693,-0.3562278574869671,0.7397982220364281,-0.1920904964208603,0.9174526929855347,-0.3483991026878357,0,0,0,-1,-1,4802.9347355,running,2,2022-06-30T09:48:23.219+02:00,2022-06-30T08:20:05.567+02:00,1383,1.400134,0,0,1092.013,0,0,2022-06-30T09:48:28.314+02:00
2022-06-30T09:48:29.275+02:00,4808.992439791667,-2.179672241210938,1.836929321289062,0.291229248046875,4808.982488791667,-1.140570255587192,-0.3651288333385087,-1.156945301033969,2.145008563995361,5.59714937210083,3.298607587814331,-2.187295436859131,1.105920553207397,0.6317164897918701,XArbitraryZVertical,-0.5346409771050724,0.1623105540819118,-0.3609678579902338,0.7466704006166769,-0.1435914486646652,0.9155789613723755,-0.3756286203861237,0,0,0,-1,-1,4802.9347355,running,2,2022-06-30T09:48:23.219+02:00,2022-06-30T08:20:05.567+02:00,1383,1.400134,0,0,1092.013,0,0,2022-06-30T09:48:28.314+02:00
2022-06-30T09:48:29.285+02:00,4809.002391791667,-2.11639404296875,1.6746826171875,0.4050445556640625,4808.992439791667,-1.044694433513524,-0.2212848241781631,-1.145098803740572,2.36835789680481,5.710567474365234,3.532396078109741,-2.169037103652954,1.036117792129517,0.6407862305641174,XArbitraryZVertical,-0.5129632536077232,0.1882161388473,-0.3649416097428884,0.753830904337081,-0.09063698351383209,0.9107509255409241,-0.4028867781162262,0,0,0,-1,-1,4802.9347355,running,2,2022-06-30T09:48:23.219+02:00,2022-06-30T08:20:05.567+02:00,1383,1.400134,0,0,1092.013,0,0,2022-06-30T09:48:28.314+02:00
2022-06-30T09:48:29.295+02:00,4809.012343791667,-2.072799682617188,1.532699584960938,0.5381927490234375,4809.002391791667,-0.9511981249648972,-0.07933691247492149,-1.127133231720949,2.363006353378296,5.771328449249268,3.757083892822266,-2.145652532577515,0.9337438344955444,0.7191296219825745,XArbitraryZVertical,-0.4898943990841295,0.21459989571576,-0.3679248759119935,0.7606456220464809,-0.03401973098516464,0.9031853675842285,-0.4279007315635681,0,0,0,-1,-1,4802.9347355,running,2,2022-06-30T09:48:23.219+02:00,2022-06-30T08:20:05.567+02:00,1383,1.400134,0,0,1092.013,0,0,2022-06-30T09:48:28.314+02:00
2022-06-30T09:48:29.305+02:00,4809.022294791667,-2.0430908203125,1.432998657226562,0.6426239013671875,4809.012343791667,-0.8630777267764789,0.05758705757256755,-1.104460733789851,2.262017965316772,5.841186046600342,3.983078718185425,-2.142271757125854,0.7814606428146362,0.8539152145385742,XArbitraryZVertical,-0.466045467472608,0.2415908111820879,-0.3696665867682331,0.7666695708591458,0.02587777189910412,0.8932218551635742,-0.4488710165023804,0,0,0,-1,-1,4802.9347355,running,2,2022-06-30T09:48:23.219+02:00,2022-06-30T08:20:05.567+02:00,1383,1.400134,0,0,1092.013,0,0,2022-06-30T09:48:28.314+02:00
2022-06-30T09:48:29.315+02:00,4809.032246791667,-2.011642456054688,1.346786499023438,0.707244873046875,4809.022294791667,-0.7813794849438247,0.1887357315709672,-1.077597090220368,2.169648408889771,5.958387851715088,4.203262805938721,-2.16162633895874,0.6518767476081848,1.003231406211853,XArbitraryZVertical,-0.4415293965754932,0.2693182089423925,-0.370124164603534,0.771704390839885,0.08882669359445572,0.8808227181434631,-0.4650389850139618,0,0,0,-1,-1,4802.9347355,running,2,2022-06-30T09:48:23.219+02:00,2022-06-30T08:20:05.567+02:00,1383,1.400134,0,0,1092.013,0,0,2022-06-30T09:48:28.314+02:00
2022-06-30T09:48:29.326+02:00,4809.042197791667,-1.940078735351562,1.254165649414062,0.7379913330078125,4809.032246791667,-0.7071663702172666,0.3134630827180185,-1.04618256111294,2.137872934341431,6.072713375091553,4.406334400177002,-2.197539329528809,0.5674810409545898,1.119095325469971,XArbitraryZVertical,-0.4160913538208433,0.2977114765278101,-0.3694353236623901,0.7757277163199905,0.1544484049081802,0.8655174374580383,-0.4764717221260071,0,0,0,-1,-1,4802.9347355,running,2,2022-06-30T09:48:23.219+02:00,2022-06-30T08:20:05.567+02:00,1383,1.400134,0,0,1092.013,0,0,2022-06-30T09:48:28.314+02:00
2022-06-30T09:48:29.339+02:00,4809.052149791667,-1.849929809570312,1.170822143554688,0.764129638671875,4809.042197791667,-0.6418393551739831,0.4302214187599832,-1.009458350623543,2.297866106033325,6.153312206268311,4.611592769622803,-2.233657836914062,0.5002426505088806,1.191055417060852,XArbitraryZVertical,-0.3893697630468023,0.3263215160623422,-0.367693303193541,0.7789140601801814,0.2220155298709869,0.8465436100959778,-0.4838109016418457,0,0,0,-1,-1,4802.9347355,running,2,2022-06-30T09:48:23.219+02:00,2022-06-30T08:20:05.567+02:00,1383,1.400134,0,0,1092.013,0,0,2022-06-30T09:48:28.314+02:00
2022-06-30T09:48:29.346+02:00,4809.062100791667,-1.792892456054688,1.056610107421875,0.7262115478515625,4809.052149791667,-0.5866637114109809,0.5377578128812345,-0.9663255244387494,2.530339956283569,6.186738967895508,4.828495979309082,-2.231182336807251,0.431362509727478,1.226103782653809,XArbitraryZVertical,-0.3607396254836021,0.3546978023851936,-0.3649901925803425,0.7815616746307877,0.2911035716533661,0.8228029608726501,-0.4881127774715424,0,0,0,-1,-1,4802.9347355,running,2,2022-06-30T09:48:23.219+02:00,2022-06-30T08:20:05.567+02:00,1383,1.400134,0,0,1092.013,0,0,2022-06-30T09:48:28.314+02:00
2022-06-30T09:48:29.355+02:00,4809.072052791667,-1.78369140625,1.014297485351562,0.67578125,4809.062100791667,-0.5432251789458928,0.6344408597290573,-0.9166573309636901,2.96645188331604,6.184778213500977,4.972263813018799,-2.210590362548828,0.3772498369216919,1.25419807434082,XArbitraryZVertical,-0.3299147185648945,0.3822589229264616,-0.3615444842876022,0.783785753288788,0.3606604933738708,0.7935721278190613,-0.490068793296814,0,0,0,-1,-1,4802.9347355,running,2,2022-06-30T09:48:23.219+02:00,2022-06-30T08:20:05.567+02:00,1383,1.400134,0,0,1092.013,0,0,2022-06-30T09:48:28.314+02:00
2022-06-30T09:48:29.365+02:00,4809.082004791667,-1.802474975585938,1.017242431640625,0.742279052734375,4809.072052791667,-0.513187340712333,0.7194310443428601,-0.8601619569054431,3.476799011230469,6.203982353210449,5.12983512878418,-2.222739696502686,0.2986616492271423,1.216869831085205,XArbitraryZVertical,-0.2962821169967219,0.4085187996650714,-0.3578740006699355,0.7856561004391416,0.429847240447998,0.7579482197761536,-0.4906585812568665,0,0,0,-1,-1,4802.9347355,running,2,2022-06-30T09:48:23.219+02:00,2022-06-30T08:20:05.567+02:00,1383,1.400134,0,0,1092.013,0,0,2022-06-30T09:48:28.314+02:00
2022-06-30T09:48:29.375+02:00,4809.091955791667,-1.814529418945312,0.88092041015625,0.828338623046875,4809.082004791667,-0.4936574596716583,0.7954143329212583,-0.7985281084973683,3.624526500701904,6.173405647277832,5.300933361053467,-2.282000541687012,0.2979674339294434,1.164206504821777,XArbitraryZVertical,-0.2603499982091864,0.4335955010198155,-0.3535411274444755,0.7869063871114809,0.4983092844486237,0.71632981300354,-0.4884256422519684,0,0,0,-1,-1,4802.9347355,running,2,2022-06-30T09:48:23.219+02:00,2022-06-30T08:20:05.567+02:00,1383,1.400134,0,0,1092.013,0,0,2022-06-30T09:48:28.314+02:00
2022-06-30T09:48:29.384+02:00,4809.101907791667,-1.747360229492188,0.7244415283203125,0.846038818359375,4809.091955791667,-0.4796479353615272,0.866523237418106,-0.7356772983910964,3.361531019210815,6.176875591278076,5.404154300689697,-2.367464780807495,0.3461527228355408,1.222305178642273,XArbitraryZVertical,-0.2239792512295949,0.4580612404080081,-0.3478139041693436,0.7867900796171637,0.5649898648262024,0.6710894703865051,-0.4800263941287994,0,0,0,-1,-1,4802.9347355,running,2,2022-06-30T09:48:23.219+02:00,2022-06-30T08:20:05.567+02:00,1383,1.400134,0,0,1092.013,0,0,2022-06-30T09:48:28.314+02:00
2022-06-30T09:48:29.394+02:00,4809.111858791667,-1.636627197265625,0.69464111328125,0.8466644287109375,4809.101907791667,-0.4673867873520728,0.9361677383941213,-0.6731934256439115,2.941823244094849,6.222294807434082,5.632147789001465,-2.444134473800659,0.2574342489242554,1.291871309280396,XArbitraryZVertical,-0.1881212973034156,0.4825390120764305,-0.3400285674372718,0.7849504516793701,0.6296051740646362,0.6234858632087708,-0.463532954454422,0,0,0,-1,-1,4802.9347355,running,2,2022-06-30T09:48:23.219+02:00,2022-06-30T08:20:05.567+02:00,1383,1.400134,0,0,1092.013,0,0,2022-06-30T09:48:28.314+02:00
2022-06-30T09:48:29.404+02:00,4809.121810791667,-1.5570068359375,0.677825927734375,0.7895660400390625,4809.111858791667,-0.4546610588311448,1.00568716094724,-0.610524872827797,2.480583906173706,6.216644287109375,5.916973114013672,-2.439323663711548,0.1511436700820923,1.284805536270142,XArbitraryZVertical,-0.1529732652513462,0.5071643171358701,-0.329460640390435,0.7815621583849722,0.6919635534286499,0.5732976198196411,-0.4387670755386353,0,0,0,-1,-1,4802.9347355,running,2,2022-06-30T09:48:23.219+02:00,2022-06-30T08:20:05.567+02:00,1383,1.400134,0,0,1092.013,0,0,2022-06-30T09:48:28.314+02:00
2022-06-30T09:48:29.415+02:00,4809.131761791667,-1.5205078125,0.6479034423828125,0.78131103515625,4809.121810791667,-0.4426782892537409,1.073782963799199,-0.5470580713103683,2.272246360778809,6.151058197021484,6.097970008850098,-2.387353420257568,0.1744639277458191,1.253881335258484,XArbitraryZVertical,-0.1183501889849649,0.5313987579697148,-0.3164274203795504,0.776841294078904,0.7507265210151672,0.520176887512207,-0.4072171747684479,0,0,0,-1,-1,4802.9347355,running,2,2022-06-30T09:48:23.219+02:00,2022-06-30T08:20:05.567+02:00,1383,1.400134,0,0,1092.013,0,0,2022-06-30T09:48:28.314+02:00
2022-06-30T09:48:29.424+02:00,4809.141713791667,-1.515380859375,0.5764312744140625,0.8402252197265625,4809.131761791667,-0.4343841387395905,1.138769430211058,-0.4821564383293875,2.293676376342773,6.099837303161621,6.209925651550293,-2.361597537994385,0.2141348123550415,1.16054368019104,XArbitraryZVertical,-0.08354550960578952,0.5545549324722061,-0.3019323356571877,0.77092544413693,0.8045908212661743,0.463690847158432,-0.3709779381752014,0,0,0,-1,-1,4802.9347355,running,2,2022-06-30T09:48:23.219+02:00,2022-06-30T08:20:05.567+02:00,1383,1.400134,0,0,1092.013,0,0,2022-06-30T09:48:28.314+02:00
2022-06-30T09:48:29.434+02:00,4809.151665791667,-1.506317138671875,0.5012054443359375,0.9319305419921875,4809.141713791667,-0.4319077611462769,1.200427203353917,-0.4156543322967874,2.522796869277954,6.084809303283691,6.283005237579346,-2.373327255249023,0.2441144287586212,1.112450361251831,XArbitraryZVertical,-0.04789061054563833,0.5763130540464551,-0.286855946850828,0.7637298810587734,0.852819561958313,0.4037886261940002,-0.3311395049095154,0,0,0,-1,-1,4802.9347355,running,2,2022-06-30T09:48:23.219+02:00,2022-06-30T08:20:05.567+02:00,1383,1.400134,0,0,1092.013,0,0,2022-06-30T09:48:28.314+02:00
2022-06-30T09:48:29.444+02:00,4809.161616791667,-1.48876953125,0.4074859619140625,1.015182495117188,4809.151665791667,-0.4359018987089801,1.259579403702192,-0.3476051774358511,2.73803973197937,6.110579013824463,6.355026721954346,-2.410406827926636,0.2357837855815887,1.128127932548523,XArbitraryZVertical,-0.01101149895421153,0.596596433486662,-0.2715547061566271,0.755122306142299,0.8950260877609253,0.3406471908092499,-0.2879028916358948,0,0,0,-1,-1,4802.9347355,running,2,2022-06-30T09:48:23.219+02:00,2022-06-30T08:20:05.567+02:00,1383,1.400134,0,0,1092.013,0,0,2022-06-30T09:48:28.314+02:00
2022-06-30T09:48:29.454+02:00,4809.171568791667,-1.44268798828125,0.3496551513671875,0.9900360107421875,4809.161616791667,-0.4461475373156819,1.317447813048832,-0.2790704687213289,2.994662761688232,6.164362907409668,6.326709747314453,-2.436942577362061,0.2257428467273712,1.172880291938782,XArbitraryZVertical,0.02684155377842255,0.6154710188348083,-0.2562656061030771,0.744850865909069,0.9306253790855408,0.2754622101783752,-0.2409499138593674,0,0,0,-1,-1,4802.9347355,running,2,2022-06-30T09:48:23.219+02:00,2022-06-30T08:20:05.567+02:00,1383,1.400134,0,0,1092.013,0,0,2022-06-30T09:48:28.314+02:00
2022-06-30T09:48:29.464+02:00,4809.181519791667,-1.403167724609375,0.3350982666015625,0.9474945068359375,4809.171568791667,-0.4635848537951905,1.374973300786294,-0.2109139862105739,3.393770694732666,6.251580238342285,6.275194644927979,-2.447920799255371,0.1981318742036819,1.20544445514679,XArbitraryZVertical,0.06579605331666233,0.6328821398971304,-0.2415653545603506,0.7326509171739848,0.9591514468193054,0.2093537151813507,-0.1902621537446976,0,0,0,-1,-1,4802.9347355,running,2,2022-06-30T09:48:23.219+02:00,2022-06-30T08:20:05.567+02:00,1383,1.400134,0,0,1092.013,0,0,2022-06-30T09:48:28.314+02:00
2022-06-30T09:48:29.474+02:00,4809.191471791667,-1.382583618164062,0.343231201171875,1.05816650390625,4809.181519791667,-0.4899640653973633,1.433034185700264,-0.1434664774587367,4.027393817901611,6.349104404449463,6.236791133880615,-2.423037528991699,0.2066799253225327,1.125951886177063,XArbitraryZVertical,0.1064469989951879,0.6486224318592101,-0.22809348523132,0.7182836191452036,0.9803494811058044,0.1429748237133026,-0.1359159499406815,0,0,0,-1,-1,4802.9347355,running,2,2022-06-30T09:48:23.219+02:00,2022-06-30T08:20:05.567+02:00,1383,1.400134,0,0,1092.013,0,0,2022-06-30T09:48:28.314+02:00
2022-06-30T09:48:29.484+02:00,4809.201423791667,-1.368423461914062,0.2974853515625,1.219482421875,4809.191471791667,-0.5264225519421233,1.492359977672837,-0.07738984037090001,4.61700963973999,6.384232997894287,6.176555633544922,-2.397109270095825,0.2577852606773376,1.025615811347961,XArbitraryZVertical,0.1490619989745382,0.6623592738890861,-0.2162623762491231,0.7016347872626441,0.993941605091095,0.07731261104345322,-0.07812142372131348,0,0,0,-1,-1,4802.9347355,running,2,2022-06-30T09:48:23.219+02:00,2022-06-30T08:20:05.567+02:00,1383,1.400134,0,0,1092.013,0,0,2022-06-30T09:48:28.314+02:00
2022-06-30T09:48:29.494+02:00,4809.211374791667,-1.356460571289062,0.21063232421875,1.349014282226562,4809.201423791667,-0.5709926272443286,1.553897421134397,-0.01451887951898168,4.878222942352295,6.408726692199707,6.010947227478027,-2.382335424423218,0.3287124335765839,1.07506275177002,XArbitraryZVertical,0.1924833075404996,0.6741676460705495,-0.2056989362869542,0.6827417121959667,0.9997519850730896,0.0145183689892292,-0.0168963223695755,0,0,0,-1,-1,4802.9347355,running,2,2022-06-30T09:48:23.219+02:00,2022-06-30T08:20:05.567+02:00,1383,1.400134,0,0,1092.013,0,0,2022-06-30T09:48:28.314+02:00
2022-06-30T09:48:29.504+02:00,4809.221326791667,-1.364364624023438,0.16259765625,1.394561767578125,4809.211374791667,-0.6200025773311041,1.61868715583451,0.04361231568867008,4.756452083587646,6.490335464477539,5.827568054199219,-2.366327285766602,0.341083437204361,1.171655297279358,XArbitraryZVertical,0.2350876529122942,0.6845781932359501,-0.1954027752027617,0.6617434931193675,0.9979038834571838,-0.04359849169850349,0.04782701283693314,0,0,0,-1,-1,4802.9347355,running,2,2022-06-30T09:48:23.219+02:00,2022-06-30T08:20:05.567+02:00,1383,1.400134,0,0,1092.013,0,0,2022-06-30T09:48:28.314+02:00
2022-06-30T09:48:29.514+02:00,4809.231277791667,-1.354232788085938,0.17327880859375,1.400863647460938,4809.221326791667,-0.6703112294286557,1.687194246380956,0.0971644093873152,4.411782741546631,6.579287052154541,5.740491390228271,-2.345009326934814,0.3076435029506683,1.233426690101624,XArbitraryZVertical,0.2759108093179991,0.694022311587344,-0.184138889587145,0.6389829218340601,0.9885486364364624,-0.09701159596443176,0.1155874878168106,0,0,0,-1,-1,4802.9347355,running,2,2022-06-30T09:48:23.219+02:00,2022-06-30T08:20:05.567+02:00,1383,1.400134,0,0,1092.013,0,0,2022-06-30T09:48:28.314+02:00
2022-06-30T09:48:29.524+02:00,4809.241229791667,-1.311279296875,0.1900177001953125,1.438232421875,4809.231277791667,-0.7212107170944499,1.759003509003691,0.1470244141610553,4.135895252227783,6.611955165863037,5.694754123687744,-2.336107730865479,0.3090925514698029,1.209482192993164,XArbitraryZVertical,0.3149146645641387,0.7024019551814692,-0.171395735630937,0.6148851502315898,0.971743106842041,-0.1464952975511551,0.185079500079155,0,0,0,-1,-1,4802.9347355,running,2,2022-06-30T09:48:23.219+02:00,2022-06-30T08:20:05.567+02:00,1383,1.400134,0,0,1092.013,0,0,2022-06-30T09:48:28.314+02:00
2022-06-30T09:48:29.534+02:00,4809.251180791667,-1.24945068359375,0.1832122802734375,1.508407592773438,4809.241229791667,-0.7743617647898696,1.833265350825937,0.1926997505356636,4.105518817901611,6.510346412658691,5.60066556930542,-2.302109718322754,0.364787757396698,1.146200299263,XArbitraryZVertical,0.3524458677119776,0.7093049826121053,-0.1579999768828342,0.5896646119901664,0.9478769898414612,-0.1915093660354614,0.2546632885932922,0,0,0,-1,-1,4802.9347355,running,2,2022-06-30T09:48:23.219+02:00,2022-06-30T08:20:05.567+02:00,1383,1.400134,0,0,1092.013,0,0,2022-06-30T09:48:28.314+02:00
2022-06-30T09:48:29.544+02:00,4809.261132791667,-1.224929809570312,0.14569091796875,1.512039184570312,4809.251180791667,-0.8309877686743697,1.909614134958904,0.2333438707014468,4.101222991943359,6.47117805480957,5.479470252990723,-2.228867053985596,0.4212493300437927,1.114867806434631,XArbitraryZVertical,0.3887475262772422,0.7145331840082535,-0.1446970632771318,0.5633653393408589,0.9175876975059509,-0.2312320619821548,0.3233646154403687,0,0,0,-1,-1,4802.9347355,running,2,2022-06-30T09:48:23.219+02:00,2022-06-30T08:20:05.567+02:00,1383,1.400134,0,0,1092.013,0,0,2022-06-30T09:48:28.314+02:00
2022-06-30T09:48:29.554+02:00,4809.271084791667,-1.22332763671875,0.1370849609375,1.520767211914062,4809.261132791667,-0.8906258070206193,1.988868020936363,0.2681893980481498,4.116421699523926,6.510989665985107,5.314225196838379,-2.130655288696289,0.4481978416442871,1.11692214012146,XArbitraryZVertical,0.4236664984577879,0.7185049994780972,-0.1314732714345204,0.5356977743878802,0.8812047243118286,-0.2649860084056854,0.3914854824542999,0,0,0,-1,-1,4802.9347355,running,2,2022-06-30T09:48:23.219+02:00,2022-06-30T08:20:05.567+02:00,1383,1.400134,0,0,1092.013,0,0,2022-06-30T09:48:28.314+02:00
2022-06-30T09:48:29.564+02:00,4809.281035791667,-1.246246337890625,0.1460723876953125,1.553298950195312,4809.271084791667,-0.9528464634492004,2.070852295498919,0.2967857311939326,4.125386238098145,6.502466201782227,5.154650688171387,-2.064120292663574,0.438138484954834,1.053526401519775,XArbitraryZVertical,0.4571279598202905,0.7213115720725186,-0.1183885583196433,0.5066831303677188,0.8391902446746826,-0.2924479842185974,0.4585127234458923,0,0,0,-1,-1,4802.9347355,running,2,2022-06-30T09:48:23.219+02:00,2022-06-30T08:20:05.567+02:00,1383,1.400134,0,0,1092.013,0,0,2022-06-30T09:48:28.314+02:00
2022-06-30T09:48:29.574+02:00,4809.290987791667,-1.247772216796875,0.1070098876953125,1.539779663085938,4809.281035791667,-1.01687010045035,2.154624174887324,0.3191551815877352,4.0687575340271,6.465416431427002,5.023378372192383,-2.015552043914795,0.4508490860462189,0.9973816275596619,XArbitraryZVertical,0.4890309616073039,0.7228702998660853,-0.1054304173780599,0.4766462538637161,0.7922242879867554,-0.3137645125389099,0.5233855247497559,0,0,0,-1,-1,4802.9347355,running,2,2022-06-30T09:48:23.219+02:00,2022-06-30T08:20:05.567+02:00,1383,1.400134,0,0,1092.013,0,0,2022-06-30T09:48:28.314+02:00
2022-06-30T09:48:29.584+02:00,4809.300938791667,-1.257644653320312,0.016845703125,1.531692504882812,4809.290987791667,-1.08147061604275,2.239522375796443,0.3359720194347177,3.92243480682373,6.448031425476074,4.903526306152344,-1.986991286277771,0.475758969783783,0.9679753184318542,XArbitraryZVertical,0.5192494137054501,0.7232163622046185,-0.09221855862085503,0.4459080052426163,0.7407447695732117,-0.3296869993209839,0.585323691368103,0,0,0,-1,-1,4802.9347355,running,2,2022-06-30T09:48:23.219+02:00,2022-06-30T08:20:05.567+02:00,1383,1.400134,0,0,1092.013,0,0,2022-06-30T09:48:28.314+02:00
2022-06-30T09:48:29.594+02:00,4809.310890791667,-1.256805419921875,-0.11083984375,1.517257690429688,4809.300938791667,-1.144867264623886,2.324289358468004,0.3475320599007606,3.698845624923706,6.354670524597168,4.675493717193604,-1.933475255966187,0.4475878775119781,0.8964927792549133,XArbitraryZVertical,0.5473410090531697,0.7225380946531786,-0.07864264889363591,0.414936083576499,0.685702919960022,-0.3405784368515015,0.6432869434356689,0,0,0,-1,-1,4802.9347355,running,2,2022-06-30T09:48:23.219+02:00,2022-06-30T08:20:05.567+02:00,1383,1.400134,0,0,1092.013,0,0,2022-06-30T09:48:28.314+02:00
2022-06-30T09:48:29.604+02:00,4809.320841791667,-1.27349853515625,-0.107757568359375,1.541488647460938,4809.310890791667,-1.20694881103223,2.408293022495016,0.3532196242106732,3.75709056854248,6.30521821975708,4.500124454498291,-1.885648131370544,0.3627657294273376,0.8345906734466553,XArbitraryZVertical,0.5734048810314912,0.7209422988257783,-0.0652356209020631,0.3836579559023379,0.6280033588409424,-0.3459204435348511,0.697101891040802,0,0,0,-1,-1,4802.9347355,running,2,2022-06-30T09:48:23.219+02:00,2022-06-30T08:20:05.567+02:00,1383,1.400134,0,0,1092.013,0,0,2022-06-30T09:48:28.314+02:00
2022-06-30T09:48:29.614+02:00,4809.330793791667,-1.28118896484375,-0.0011138916015625,1.62188720703125,4809.320841791667,-1.269192777479307,2.492300862537392,0.3522485795481094,3.910876512527466,6.29705810546875,4.420189380645752,-1.824303865432739,0.2341689467430115,0.7696518898010254,XArbitraryZVertical,0.5981998437415416,0.7183034902446627,-0.05244666038187425,0.3513494995754887,0.5674983263015747,-0.3450092077255249,0.7476059198379517,0,0,0,-1,-1,4802.9347355,running,2,2022-06-30T09:48:23.219+02:00,2022-06-30T08:20:05.567+02:00,1383,1.400134,0,0,1092.013,0,0,2022-06-30T09:48:28.314+02:00
2022-06-30T09:48:29.623+02:00,4809.340745791667,-1.314743041992188,0.1090850830078125,1.685653686523438,4809.330793791667,-1.331185835032563,2.575586973528054,0.3451025574901216,4.007688045501709,6.217390060424805,4.356825351715088,-1.778145909309387,0.2305351793766022,0.7472034692764282,XArbitraryZVertical,0.6218664862570533,0.7144401585481386,-0.04020150626380297,0.3181843205648034,0.5046472549438477,-0.338293194770813,0.7942853569984436,0,0,0,-1,-1,4802.9347355,running,2,2022-06-30T09:48:23.219+02:00,2022-06-30T08:20:05.567+02:00,1383,1.400134,0,0,1092.013,0,0,2022-06-30T09:48:28.314+02:00
2022-06-30T09:48:29.633+02:00,4809.350696791667,-1.321640014648438,0.18359375,1.746139526367188,4809.340745791667,-1.391767111531957,2.656659198171824,0.3319115385517721,4.111584186553955,6.08310604095459,4.23176383972168,-1.721896886825562,0.3247365355491638,0.7854673862457275,XArbitraryZVertical,0.6442026915944773,0.7093749738344084,-0.02872689952333056,0.2845432995395506,0.4407076835632324,-0.3258508443832397,0.836419939994812,0,0,0,-1,-1,4802.9347355,running,2,2022-06-30T09:48:23.219+02:00,2022-06-30T08:20:05.567+02:00,1383,1.400134,0,0,1092.013,0,0,2022-06-30T09:48:28.314+02:00
2022-06-30T09:48:29.643+02:00,4809.360648791667,-1.28289794921875,0.1884613037109375,1.861831665039062,4809.350696791667,-1.450001206721859,2.73458672600832,0.3124149300470828,4.286306381225586,5.918023109436035,4.086722373962402,-1.691442847251892,0.4164422154426575,0.8117951154708862,XArbitraryZVertical,0.6650783004295515,0.7032781801274642,-0.01834550851186671,0.2504679186584417,0.3766996562480927,-0.3073575496673584,0.8738586902618408,0,0,0,-1,-1,4802.9347355,running,2,2022-06-30T09:48:23.219+02:00,2022-06-30T08:20:05.567+02:00,1383,1.400134,0,0,1092.013,0,0,2022-06-30T09:48:28.314+02:00
2022-06-30T09:48:29.653+02:00,4809.370599791667,-1.265884399414062,0.09088134765625,2.040313720703125,4809.360648791667,-1.504977493595302,2.808405037961075,0.2871589767368549,4.313336372375488,5.709465980529785,3.910416841506958,-1.635305166244507,0.4668220281600952,0.8398305177688599,XArbitraryZVertical,0.6843807307192481,0.696259699705329,-0.009161927252655685,0.2162442846182552,0.3136648535728455,-0.2832286953926086,0.9063091278076172,0,0,0,-1,-1,4802.9347355,running,2,2022-06-30T09:48:23.219+02:00,2022-06-30T08:20:05.567+02:00,1383,1.400134,0,0,1092.013,0,0,2022-06-30T09:48:28.314+02:00
2022-06-30T09:48:29.664+02:00,4809.380551791667,-1.275375366210938,0.0851593017578125,2.263931274414062,4809.370599791667,-1.555581958553196,2.877412184365815,0.2588902313303342,4.071247577667236,5.462854862213135,3.762112379074097,-1.535314679145813,0.4444688856601715,0.928693950176239,XArbitraryZVertical,0.701887726885723,0.688420286561637,-0.0004795032315472635,0.1828412965178952,0.2524164319038391,-0.2560079097747803,0.9331377148628235,0,0,0,-1,-1,4802.9347355,running,2,2022-06-30T09:48:23.219+02:00,2022-06-30T08:20:05.567+02:00,1383,1.400134,0,0,1092.013,0,0,2022-06-30T09:48:28.314+02:00
2022-06-30T09:48:29.673+02:00,4809.390503791667,-1.249649047851562,0.208984375,2.49017333984375,4809.380551791667,-1.601088555867685,2.94091135857834,0.2301150445005964,3.664899110794067,5.118718147277832,3.524160146713257,-1.459967136383057,0.3189705610275269,1.08621346950531,XArbitraryZVertical,0.717411139180092,0.6799788872934658,0.008115824566309869,0.1512747338453372,0.1940824836492538,-0.2280895411968231,0.9541000723838806,0,0,0,-1,-1,4802.9347355,running,2,2022-06-30T09:48:23.219+02:00,2022-06-30T08:20:05.567+02:00,1383,1.400134,0,0,1092.013,0,0,2022-06-30T09:48:28.314+02:00
2022-06-30T09:48:29.683+02:00,4809.400454791667,-1.193313598632812,0.2527313232421875,2.7410888671875,4809.390503791667,-1.641141052676828,2.997932114530548,0.2028339949466624,3.158513307571411,4.653717041015625,3.273818016052246,-1.415607571601868,0.2866050004959106,1.294521808624268,XArbitraryZVertical,0.7308534252221099,0.671236097784475,0.01661862872670596,0.1225526075553723,0.1402319073677063,-0.2014460265636444,0.9694092273712158,0,0,0,-1,-1,4802.9347355,running,2,2022-06-30T09:48:23.219+02:00,2022-06-30T08:20:05.567+02:00,1383,1.400134,0,0,1092.013,0,0,2022-06-30T09:48:28.314+02:00
2022-06-30T09:48:29.693+02:00,4809.410406791667,-1.130722045898438,0.3488006591796875,2.972625732421875,4809.400454791667,-1.676579614801044,3.048406625985486,0.1781477563289447,2.674199819564819,4.181537628173828,3.101645946502686,-1.341227889060974,0.3861909508705139,1.510269641876221,XArbitraryZVertical,0.7425200082585915,0.6622808769223024,0.02493143632422499,0.09709079922397464,0.09157858043909073,-0.1772069483995438,0.9799038171768188,0,0,0,-1,-1,4802.9347355,running,2,2022-06-30T09:48:23.219+02:00,2022-06-30T08:20:05.567+02:00,1383,1.400134,0,0,1092.013,0,0,2022-06-30T09:48:28.314+02:00
2022-06-30T09:48:29.703+02:00,4809.420357791667,-1.100250244140625,0.4002227783203125,3.160018920898438,4809.410406791667,-1.708879357109512,3.092700606219495,0.1571218057495124,2.051761388778687,3.644083499908447,2.967801094055176,-1.241584420204163,0.4092071056365967,1.754587292671204,XArbitraryZVertical,0.7529119108943924,0.6529735800588771,0.03313931001509294,0.07517342288668993,0.04827055707573891,-0.1564761251211166,0.9865016937255859,0,0,0,-1,-1,4802.9347355,running,2,2022-06-30T09:48:23.219+02:00,2022-06-30T08:20:05.567+02:00,1383,1.400134,0,0,1092.013,0,0,2022-06-30T09:48:28.314+02:00
2022-06-30T09:48:29.713+02:00,4809.430309791667,-1.064315795898438,0.3385009765625,3.311981201171875,4809.420357791667,-1.738144634796064,3.130135794286347,0.1405456651269189,1.50905978679657,3.024247646331787,2.763861656188965,-1.14206600189209,0.488883763551712,1.982550978660583,XArbitraryZVertical,0.7620925838483321,0.6436243237175568,0.04096137087232585,0.05731321415473721,0.01134364306926727,-0.1400834172964096,0.9900747537612915,0,0,0,-1,-1,4802.9347355,running,2,2022-06-30T09:48:23.219+02:00,2022-06-30T08:20:05.567+02:00,1383,1.400134,0,0,1092.013,0,0,2022-06-30T09:48:28.314+02:00
2022-06-30T09:48:29.723+02:00,4809.440260791667,-1.068756103515625,0.265228271484375,3.395309448242188,4809.430309791667,-1.765513477151125,-3.122618174360484,0.1286335481343631,0.9226325154304504,2.367056131362915,2.69242000579834,-1.081434011459351,0.528501570224762,2.168459415435791,XArbitraryZVertical,0.7704732912292935,0.6341535538551202,0.04812626360783149,0.04363565809486915,-0.01881658658385277,-0.1282791048288345,0.991559624671936,0,0,0,-1,-1,4802.9347355,running,2,2022-06-30T09:48:23.219+02:00,2022-06-30T08:20:05.567+02:00,1383,1.400134,0,0,1092.013,0,0,2022-06-30T09:48:28.314+02:00
2022-06-30T09:48:29.733+02:00,4809.450212791667,-1.036575317382812,0.2816925048828125,3.421707153320312,4809.440260791667,-1.791482606702244,-3.09932953718338,0.1209245828589135,0.520897388458252,1.667124390602112,2.527280807495117,-1.022374153137207,0.4591307640075684,2.320169925689697,XArbitraryZVertical,0.7782741625860912,0.6246558409376752,0.05421933111200229,0.03398111400703934,-0.04194200783967972,-0.1206300929188728,0.9918111562728882,0,0,0,-1,-1,4802.9347355,running,2,2022-06-30T09:48:23.219+02:00,2022-06-30T08:20:05.567+02:00,1383,1.400134,0,0,1092.013,0,0,2022-06-30T09:48:28.314+02:00
2022-06-30T09:48:29.743+02:00,4809.460164791667,-1.008193969726562,0.2348480224609375,3.423324584960938,4809.450212791667,-1.815720395666185,-3.083407351765379,0.1156776974637123,0.341522604227066,0.9693232178688049,2.359217166900635,-1.010992646217346,0.3806478679180145,2.403673648834229,XArbitraryZVertical,0.7855028019182143,0.6154699772329579,0.0584500048068877,0.02767108962321303,-0.05776383355259895,-0.1154198795557022,0.9916359186172485,0,0,0,-1,-1,4802.9347355,running,2,2022-06-30T09:48:23.219+02:00,2022-06-30T08:20:05.567+02:00,1383,1.400134,0,0,1092.013,0,0,2022-06-30T09:48:28.314+02:00
2022-06-30T09:48:29.753+02:00,4809.470115791667,-0.9278717041015625,0.162353515625,3.373825073242188,4809.460164791667,-1.838294324344381,-3.074408640720188,0.11188381166474,0.1777925789356232,0.3442288935184479,2.191735744476318,-0.9698619246482849,0.3933427333831787,2.430201530456543,XArbitraryZVertical,0.7922541103985317,0.6067011555209314,0.06055354915615311,0.02409246859356858,-0.06671374291181564,-0.1116505339741707,0.9915057420730591,0,0,0,-1,-1,4802.9347355,running,2,2022-06-30T09:48:23.219+02:00,2022-06-30T08:20:05.567+02:00,1383,1.400134,0,0,1092.013,0,0,2022-06-30T09:48:28.314+02:00
2022-06-30T09:48:29.763+02:00,4809.480067791667,-0.88946533203125,0.120147705078125,3.285079956054688,4809.470115791667,-1.859488011688432,-3.071409838670831,0.109896564275003,-0.07490864396095276,-0.2036384642124176,2.050120830535889,-0.9384921193122864,0.3445232212543488,2.431803941726685,XArbitraryZVertical,0.7986122460595905,0.5983133064982624,0.06090086360866485,0.02303990185065904,-0.06970219314098358,-0.1096754893660545,0.9915206432342529,0,0,0,-1,-1,4802.9347355,running,2,2022-06-30T09:48:23.219+02:00,2022-06-30T08:20:05.567+02:00,1383,1.400134,0,0,1092.013,0,0,2022-06-30T09:48:28.314+02:00
2022-06-30T09:48:29.773+02:00,4809.490018791667,-0.8448028564453125,0.052398681640625,3.151336669921875,4809.480067791667,-1.879022934574117,-3.073486280342392,0.1108878773943837,-0.3763760924339294,-0.6190806031227112,1.836258292198181,-0.8602362871170044,0.2730140388011932,2.382270812988281,XArbitraryZVertical,0.8044485971523008,0.5904570043633153,0.06012888117109146,0.02464652846522702,-0.06763575971126556,-0.1106607690453529,0.9915540218353271,0,0,0,-1,-1,4802.9347355,running,2,2022-06-30T09:48:23.219+02:00,2022-06-30T08:20:05.567+02:00,1383,1.400134,0,0,1092.013,0,0,2022-06-30T09:48:28.314+02:00
2022-06-30T09:48:29.783+02:00,4809.499970791667,-0.8009033203125,-0.0445556640625,2.967391967773438,4809.490018791667,-1.89648209646216,-3.078960868132071,0.1150146109569038,-0.6328201293945312,-0.8532078266143799,1.583480358123779,-0.8272883892059326,0.2349086403846741,2.293634414672852,XArbitraryZVertical,0.80960111795643,0.5833256229283197,0.058892890557919,0.02844224005307072,-0.06217732653021812,-0.1147612035274506,0.9914454817771912,0,0,0,-1,-1,4802.9347355,running,2,2022-06-30T09:48:23.219+02:00,2022-06-30T08:20:05.567+02:00,1383,1.400134,0,0,1092.013,0,0,2022-06-30T09:48:28.314+02:00
2022-06-30T09:48:29.793+02:00,4809.509921791667,-0.7576446533203125,-0.1228790283203125,2.790206909179688,4809.499970791667,-1.911535100449776,-3.08625905232294,0.1212941350016379,-0.7817593812942505,-0.9483110308647156,1.333328723907471,-0.7899041771888733,0.1733953207731247,2.160202980041504,XArbitraryZVertical,0.8139758866317,0.5770704483735331,0.05751007289781686,0.03355271874791774,-0.05489905923604965,-0.1209969371557236,0.9911341071128845,0,0,0,-1,-1,4802.9347355,running,2,2022-06-30T09:48:23.219+02:00,2022-06-30T08:20:05.567+02:00,1383,1.400134,0,0,1092.013,0,0,2022-06-30T09:48:28.314+02:00
2022-06-30T09:48:29.803+02:00,4809.519873791667,-0.745452880859375,-0.145294189453125,2.654388427734375,4809.509921791667,-1.92382016321485,-3.093863971843963,0.1292859794253339,-0.9437704086303711,-0.8619311451911926,1.023958802223206,-0.7535912990570068,0.08437016606330872,1.976866960525513,XArbitraryZVertical,0.8174575851744135,0.5718616636420656,0.0564694056350055,0.03935417488660676,-0.04731240123510361,-0.1289261132478714,0.9905253052711487,0,0,0,-1,-1,4802.9347355,running,2,2022-06-30T09:48:23.219+02:00,2022-06-30T08:20:05.567+02:00,1383,1.400134,0,0,1092.013,0,0,2022-06-30T09:48:28.314+02:00
2022-06-30T09:48:29.813+02:00,4809.529825791667,-0.742919921875,-0.1808319091796875,2.50616455078125,4809.519873791667,-1.932694028412695,-3.100051470472209,0.1394316589035696,-1.16672146320343,-0.607729434967041,0.6388983726501465,-0.7165188193321228,0.01610103249549866,1.800765991210938,XArbitraryZVertical,0.8198171827148034,0.5679967189586851,0.05662713027237018,0.04552982351980475,-0.04112620651721954,-0.1389803141355515,0.9894409775733948,0,0,0,-1,-1,4802.9347355,running,2,2022-06-30T09:48:23.219+02:00,2022-06-30T08:20:05.567+02:00,1383,1.400134,0,0,1092.013,0,0,2022-06-30T09:48:28.314+02:00
2022-06-30T09:48:29.823+02:00,4809.539776791667,-0.7392578125,-0.19500732421875,2.4066162109375,4809.529825791667,-1.937399409050289,-3.103599367482853,0.1517311409643239,-1.313518047332764,-0.2189313471317291,0.2051195055246353,-0.7079054713249207,0.005855157971382141,1.666590809822083,XArbitraryZVertical,0.8208156999263432,0.5658273058249397,0.05852927222099141,0.05172579483830469,-0.0375477559864521,-0.1511496156454086,0.9877979159355164,0,0,0,-1,-1,4802.9347355,running,2,2022-06-30T09:48:23.219+02:00,2022-06-30T08:20:05.567+02:00,1383,1.400134,0,0,1092.013,0,0,2022-06-30T09:48:28.314+02:00
2022-06-30T09:48:29.833+02:00,4809.549728791667,-0.7955474853515625,-0.176239013671875,2.381439208984375,4809.539776791667,-1.937673913058398,-3.103202563617943,0.1655935471587724,-1.473746061325073,0.3003717362880707,-0.2605723440647125,-0.7050646543502808,-0.01599441468715668,1.520570516586304,XArbitraryZVertical,0.8203539716367216,0.5655231883321924,0.06258812723501517,0.05732142255395341,-0.03785565122961998,-0.1648377925157547,0.9855942130088806,0,0,0,-1,-1,4802.9347355,running,2,2022-06-30T09:48:23.219+02:00,2022-06-30T08:20:05.567+02:00,1383,1.400134,0,0,1092.013,0,0,2022-06-30T09:48:28.314+02:00
2022-06-30T09:48:29.842+02:00,4809.559679791667,-0.96856689453125,-0.0494537353515625,2.452972412109375,4809.549728791667,-1.933217054938795,-3.098187037767912,0.1814979710463824,-1.681925535202026,0.8736951947212219,-0.7583041191101074,-0.6965789198875427,-0.01450441777706146,1.423968076705933,XArbitraryZVertical,0.8182671471457885,0.5672415008955835,0.06925682041922172,0.06228556053406413,-0.04267925024032593,-0.1805031448602676,0.9826480746269226,0,0,0,-1,-1,4802.9347355,running,2,2022-06-30T09:48:23.219+02:00,2022-06-30T08:20:05.567+02:00,1383,1.400134,0,0,1092.013,0,0,2022-06-30T09:48:28.314+02:00
2022-06-30T09:48:29.852+02:00,4809.569631791667,-1.127578735351562,0.06011962890625,2.593536376953125,4809.559679791667,-1.923392226183303,-3.088291382846874,0.1994966842016829,-1.808107018470764,1.488970756530762,-1.356322169303894,-0.7433284521102905,0.02193669974803925,1.402664661407471,XArbitraryZVertical,0.8142783312353754,0.5712602078995571,0.07870082121610622,0.06647526007226867,-0.05221940577030182,-0.1981760263442993,0.9787748456001282,0,0,0,-1,-1,4802.9347355,running,2,2022-06-30T09:48:23.219+02:00,2022-06-30T08:20:05.567+02:00,1383,1.400134,0,0,1092.013,0,0,2022-06-30T09:48:28.314+02:00
2022-06-30T09:48:29.862+02:00,4809.579582791667,-1.294601440429688,-0.060333251953125,2.8214111328125,4809.569631791667,-1.907869445237028,-3.073824434872626,0.21856988182248,-1.825602412223816,2.060982465744019,-1.9172203540802,-0.9024619460105896,0.1673797518014908,1.479004502296448,XArbitraryZVertical,0.8082289292287363,0.5777109921271827,0.09052601749776663,0.06943453574001233,-0.06610530614852905,-0.2168337553739548,0.973967969417572,0,0,0,-1,-1,4802.9347355,running,2,2022-06-30T09:48:23.219+02:00,2022-06-30T08:20:05.567+02:00,1383,1.400134,0,0,1092.013,0,0,2022-06-30T09:48:28.314+02:00
2022-06-30T09:48:29.873+02:00,4809.589534791667,-1.481903076171875,-0.11962890625,3.08251953125,4809.579582791667,-1.886794285882575,-3.055469051735566,0.2390103221720453,-1.955280542373657,2.577276229858398,-2.512068748474121,-1.044007062911987,0.2968605160713196,1.625564455986023,XArbitraryZVertical,0.8000251108849402,0.5864689912960912,0.1045243716520678,0.07133563143598971,-0.08357197046279907,-0.2367412000894547,0.9679720997810364,0,0,0,-1,-1,4802.9347355,running,2,2022-06-30T09:48:23.219+02:00,2022-06-30T08:20:05.567+02:00,1383,1.400134,0,0,1092.013,0,0,2022-06-30T09:48:28.314+02:00
2022-06-30T09:48:29.882+02:00,4809.599486791667,-1.67620849609375,0.0662078857421875,3.313140869140625,4809.589534791667,-1.859524613821552,-3.034611313598252,0.2616309172521877,-1.992907762527466,2.958140134811401,-3.23063325881958,-1.191458106040955,0.1983228325843811,1.860964059829712,XArbitraryZVertical,0.7893226122059346,0.5976564295789838,0.1203813572452157,0.07269709830004893,-0.1031436771154404,-0.2586563229560852,0.9604467749595642,0,0,0,-1,-1,4802.9347355,running,2,2022-06-30T09:48:23.219+02:00,2022-06-30T08:20:05.567+02:00,1383,1.400134,0,0,1092.013,0,0,2022-06-30T09:48:28.314+02:00
2022-06-30T09:48:29.892+02:00,4809.609437791667,-1.974563598632812,0.127105712890625,3.532669067382812,4809.599486791667,-1.824778380621354,-3.013336811227608,0.2843008387206986,-1.716963887214661,3.179976463317871,-3.984977722167969,-1.359133243560791,0.1608572900295258,2.130545139312744,XArbitraryZVertical,0.7758254122977727,0.6116224414992608,0.1366821376087279,0.07301301113602066,-0.1227701604366302,-0.2804864346981049,0.9519741535186768,0,0,0,-1,-1,4802.9347355,running,2,2022-06-30T09:48:23.219+02:00,2022-06-30T08:20:05.567+02:00,1383,1.400134,0,0,1092.013,0,0,2022-06-30T09:48:28.314+02:00
2022-06-30T09:48:29.902+02:00,4809.619389791667,-2.178680419921875,0.10650634765625,3.7783203125,4809.609437791667,-1.78131082237531,-2.994331376305926,0.3055377575722574,-1.342847585678101,3.134241580963135,-4.900064468383789,-1.536274909973145,0.3670136630535126,2.36977744102478,XArbitraryZVertical,0.7593067389833031,0.6285976008733665,0.1519729793478335,0.07226748040053171,-0.1399338841438293,-0.300806075334549,0.9433633089065552,0,0,0,-1,-1,4802.9347355,running,2,2022-06-30T09:48:23.219+02:00,2022-06-30T08:20:05.567+02:00,1383,1.400134,0,0,1092.013,0,0,2022-06-30T09:48:28.314+02:00
2022-06-30T09:48:29.912+02:00,4809.629340791667,-2.40167236328125,0.070953369140625,4.06707763671875,4809.619389791667,-1.727460036971334,-2.981512044724625,0.3251012704314957,-0.9550276398658752,2.769833564758301,-5.878804206848145,-1.823515653610229,0.4465101063251495,2.597166299819946,XArbitraryZVertical,0.7394412357083627,0.6488282269125696,0.1647789760073279,0.07139056252772598,-0.1510483175516129,-0.3194047510623932,0.935502827167511,0,0,0,-1,-1,4802.9347355,running,2,2022-06-30T09:48:23.219+02:00,2022-06-30T08:20:05.567+02:00,1383,1.400134,0,0,1092.013,0,0,2022-06-30T09:48:28.314+02:00
2022-06-30T09:48:29.922+02:00,4809.639292791667,-2.69415283203125,0.0728302001953125,4.3878173828125,4809.629340791667,-1.66119200015238,-2.978784087229584,0.3422366265977396,-0.3629369139671326,2.10027003288269,-7.12327766418457,-2.02599048614502,0.4421007633209229,2.8487708568573,XArbitraryZVertical,0.7158021632227095,0.6726083923772124,0.1736259257466657,0.07126992768961445,-0.152690127491951,-0.3355948328971863,0.9295495748519897,0,0,0,-1,-1,4802.9347355,running,2,2022-06-30T09:48:23.219+02:00,2022-06-30T08:20:05.567+02:00,1383,1.400134,0,0,1092.013,0,0,2022-06-30T09:48:28.314+02:00
2022-06-30T09:48:29.932+02:00,4809.649243791667,-3.088516235351562,0.1411895751953125,4.808929443359375,4809.639292791667,-1.579389243993671,-2.991180902407295,0.354498584909332,0.2950161993503571,0.9113832712173462,-8.515555381774902,-2.261144638061523,0.4180732071399689,3.139845371246338,XArbitraryZVertical,0.687708891620883,0.7004802702513567,0.1763114819112488,0.0727886055319273,-0.1405279785394669,-0.3471201658248901,0.9272322654724121,0,0,0,-1,-1,4802.9347355,running,2,2022-06-30T09:48:23.219+02:00,2022-06-30T08:20:05.567+02:00,1383,1.400134,0,0,1092.013,0,0,2022-06-30T09:48:28.314+02:00
2022-06-30T09:48:29.942+02:00,4809.659195791667,-3.662673950195312,0.51275634765625,4.958282470703125,4809.649243791667,-1.481093009567322,-3.025273742635307,0.3629411690218252,0.6110056042671204,-0.9098010063171387,-10.0928955078125,-2.585656642913818,0.4278551340103149,3.459277629852295,XArbitraryZVertical,0.6547474650432512,0.7318302719616102,0.1715578384808871,0.0793610534950052,-0.1084964796900749,-0.3550253510475159,0.9285395741462708,0,0,0,-1,-1,4802.9347355,running,2,2022-06-30T09:48:23.219+02:00,2022-06-30T08:20:05.567+02:00,1383,1.400134,0,0,1092.013,0,0,2022-06-30T09:48:28.314+02:00
2022-06-30T09:48:29.952+02:00,4809.669147791667,-3.907989501953125,1.298370361328125,4.504119873046875,4809.659195791667,-1.364680249020203,-3.089028454230293,0.3680150566045653,0.1745661646127701,-3.613546133041382,-11.74887847900391,-3.039494276046753,0.5009533166885376,3.877174615859985,XArbitraryZVertical,0.6160193138324506,0.7657660270640813,0.1582466313377225,0.09529272281172867,-0.04902210459113121,-0.3597640991210938,0.9317548274993896,0,0,0,-1,-1,4802.9347355,running,2,2022-06-30T09:48:23.219+02:00,2022-06-30T08:20:05.567+02:00,1383,1.400134,0,0,1092.013,0,0,2022-06-30T09:48:28.314+02:00
2022-06-30T09:48:29.962+02:00,4809.679098791667,-4.052352905273438,2.215545654296875,4.029434204101562,4809.669147791667,-1.232084103591983,3.09406942666101,0.3696497851346711,-0.4076173603534698,-6.981022357940674,-13.05016613006592,-3.706970691680908,0.8740447759628296,4.026881217956543,XArbitraryZVertical,0.5713716910829525,0.7995218348874424,0.1364545660763954,0.1252180384822318,0.04429655894637108,-0.3612889051437378,0.9314015507698059,0,0,0,-1,-1,4802.9347355,running,2,2022-06-30T09:48:23.219+02:00,2022-06-30T08:20:05.567+02:00,1383,1.400134,0,0,1092.013,0,0,2022-06-30T09:48:28.314+02:00
2022-06-30T09:48:29.972+02:00,4809.689050791667,-4.416107177734375,2.737762451171875,3.76605224609375,4809.679098791667,-1.085665071240396,2.953732261426679,0.3628585179714162,-1.485197901725769,-10.53237247467041,-14.3443717956543,-4.082586288452148,1.653317928314209,3.585681915283203,XArbitraryZVertical,0.5203358854218315,0.8297406296764391,0.106162316506286,0.1717868194383819,0.1745968759059906,-0.3549480736255646,0.9184378981590271,0,0,0,-1,-1,4802.9347355,running,2,2022-06-30T09:48:23.219+02:00,2022-06-30T08:20:05.567+02:00,1383,1.400134,0,0,1092.013,0,0,2022-06-30T09:48:28.314+02:00
2022-06-30T09:48:29.982+02:00,4809.699001791667,-4.804336547851562,2.93853759765625,3.649017333984375,4809.689050791667,-0.9289725063812719,2.781299581787842,0.345223798592849,-3.024803876876831,-13.10779571533203,-15.03989315032959,-4.384100914001465,2.55395245552063,3.148852586746216,XArbitraryZVertical,0.4616788098319086,0.8527271069227502,0.07200324325595632,0.2335054597759762,0.3317481279373169,-0.3384072780609131,0.8805816769599915,0,0,0,-1,-1,4802.9347355,running,2,2022-06-30T09:48:23.219+02:00,2022-06-30T08:20:05.567+02:00,1383,1.400134,0,0,1092.013,0,0,2022-06-30T09:48:28.314+02:00
2022-06-30T09:48:29.992+02:00,4809.708953791667,-5.798110961914062,2.754196166992188,4.112136840820312,4809.699001791667,-0.7681169168105609,2.584134620157631,0.308487744450946,-3.939346551895142,-16.10216331481934,-15.6898021697998,-4.920164585113525,3.041380167007446,2.957508563995361,XArbitraryZVertical,0.3951394267566017,0.864948883552618,0.03507862489039374,0.3074050134252833,0.5040573477745056,-0.3036181032657623,0.8085435032844543,0,0,0,-1,-1,4802.9347355,running,2,2022-06-30T09:48:23.219+02:00,2022-06-30T08:20:05.567+02:00,1383,1.400134,0,0,1092.013,0,0,2022-06-30T09:48:28.314+02:00
2022-06-30T09:48:30.002+02:00,4809.718905791667,-7.050765991210938,2.13525390625,4.154693603515625,4809.708953791667,-0.6086589917321144,2.362618482986127,0.2418984320724635,-4.364578723907471,-19.58462333679199,-16.93521690368652,-5.48643159866333,3.178083419799805,2.958101749420166,XArbitraryZVertical,0.3188944753405477,0.8624175795067925,-0.006462489606660464,0.3930656765995718,0.6820952296257019,-0.2395462095737457,0.6909155249595642,0,0,0,-1,-1,4802.9347355,running,2,2022-06-30T09:48:23.219+02:00,2022-06-30T08:20:05.567+02:00,1383,1.400134,0,0,1092.013,0,0,2022-06-30T09:48:28.314+02:00
2022-06-30T09:48:30.012+02:00,4809.728856791667,-8.505783081054688,2.646194458007812,4.501174926757812,4809.718905791667,-0.4731216736316208,2.128920874656332,0.1345488903910452,-2.821044921875,-22.19782257080078,-16.28576278686523,-6.638694286346436,2.888339042663574,3.587327003479004,XArbitraryZVertical,0.2361850682193135,0.8406078637076206,-0.05625054233934646,0.4841808806899096,0.8405835628509521,-0.1341432929039001,0.5248099565505981,0,0,0,-1,-1,4802.9347355,running,2,2022-06-30T09:48:23.219+02:00,2022-06-30T08:20:05.567+02:00,1383,1.400134,0,0,1092.013,0,0,2022-06-30T09:48:28.314+02:00
2022-06-30T09:48:30.022+02:00,4809.738808791667,-10.30450439453125,1.609878540039062,5.894287109375,4809.728856791667,-0.3895720544357994,1.885773678291591,0.008314265459741833,-2.387398719787598,-25.26042556762695,-13.95759868621826,-8.00153636932373,2.143567800521851,3.844909191131592,XArbitraryZVertical,0.159031704683724,0.7934740174565814,-0.1104041155516095,0.5769911234239431,0.9507704377174377,-0.008314169943332672,0.3097842037677765,0,0,0,-1,-1,4802.9347355,running,2,2022-06-30T09:48:23.219+02:00,2022-06-30T08:20:05.567+02:00,1383,1.400134,0,0,1092.013,0,0,2022-06-30T09:48:28.314+02:00
2022-06-30T09:48:30.032+02:00,4809.748759791667,-12.11984252929688,0.8634490966796875,11.80332946777344,4809.738808791667,-0.3381415740084146,1.607990759809953,-0.1268955277892714,-2.388401985168457,-31.15850448608398,-14.5140905380249,-9.49705696105957,2.519638776779175,4.464287757873535,XArbitraryZVertical,0.07756507600429005,0.7158401320479023,-0.1615234424174415,0.6748828439368022,0.9912735819816589,0.1265552490949631,0.03688687086105347,0,0,0,-1,-1,4802.9347355,running,2,2022-06-30T09:48:23.219+02:00,2022-06-30T08:20:05.567+02:00,1383,1.400134,0,0,1092.013,0,0,2022-06-30T09:48:28.314+02:00
2022-06-30T09:48:30.041+02:00,4809.758711791667,-22.38798522949219,4.126602172851562,14.42140197753906,4809.748759791667,-0.3429855515623532,1.275953563909227,-0.251161009225279,0.9406721591949463,-34.3983039855957,-10.55971527099609,-11.23133087158203,1.361349582672119,6.175758838653564,XArbitraryZVertical,0.001697627403614329,0.5993839237267631,-0.2095082320842507,0.7725558255827166,0.9268264174461365,0.2485287040472031,-0.2814720571041107,0,0,0,-1,-1,4802.9347355,running,2,2022-06-30T09:48:23.219+02:00,2022-06-30T08:20:05.567+02:00,1383,1.400134,0,0,1092.013,0,0,2022-06-30T09:48:28.314+02:00
2022-06-30T09:48:30.051+02:00,4809.768662791667,-27.02165222167969,0.704620361328125,10.15960693359375,4809.758711791667,-0.4381992596902625,0.9226246003151919,-0.3159609977805494,10.36791133880615,-31.46759986877441,-9.966555595397949,-12.8775691986084,0.5527186989784241,12.37717342376709,XArbitraryZVertical,-0.0419678310289879,0.4596918342482851,-0.2605618137382251,0.8479562001022665,0.7577266693115234,0.3107300400733948,-0.5738442540168762,0,0,0,-1,-1,4802.9347355,running,2,2022-06-30T09:48:23.219+02:00,2022-06-30T08:20:05.567+02:00,1383,1.400134,0,0,1092.013,0,0,2022-06-30T09:48:28.314+02:00
2022-06-30T09:48:30.061+02:00,4809.778614666667,-30.40042114257812,-3.76043701171875,-0.7269439697265625,4809.768662791667,-0.5885297480310209,0.57041580786198,-0.268706427543611,15.14437866210938,-29.47868156433105,-4.856454849243164,-22.90859031677246,3.861117362976074,15.23287487030029,XArbitraryZVertical,-0.04214475387966694,0.304117224092743,-0.3118792926531884,0.8991484104395467,0.5206049084663391,0.2654845118522644,-0.8114730715751648,0,0,0,-1,-1,4802.9347355,running,2,2022-06-30T09:48:23.219+02:00,2022-06-30T08:20:05.567+02:00,1383,1.400134,0,0,1092.013,0,0,2022-06-30T09:48:28.314+02:00
2022-06-30T09:48:30.071+02:00,4809.788566666667,-21.48178100585938,-5.0693359375,-4.173385620117188,4809.778614666667,-0.6583552968174894,0.3082749878285407,-0.1810567807531003,5.544898509979248,-19.24078559875488,-0.4392468333244324,-27.32010841369629,0.5245507955551147,11.09688949584961,XArbitraryZVertical,-0.03510961207534016,0.1735680158156342,-0.3312587880649475,0.9267735438174657,0.2984557449817657,0.1800691783428192,-0.937282919883728,0,0,0,-1,-1,4802.9347355,running,2,2022-06-30T09:48:23.219+02:00,2022-06-30T08:20:05.567+02:00,1383,1.400134,0,0,1092.013,0,0,2022-06-30T09:48:28.314+02:00
2022-06-30T09:48:30.081+02:00,4809.798517666667,-12.83889770507812,-1.301361083984375,-1.736801147460938,4809.788566666667,-0.6564437650371853,0.1902343625110232,-0.1752534662659191,-3.156048536300659,-4.277748584747314,1.563664674758911,-30.58661460876465,-3.934795141220093,0.2399746179580688,XArbitraryZVertical,-0.05197004972956437,0.1176426209426062,-0.3275398660790205,0.9360432676677821,0.1861926466226578,0.1743577271699905,-0.9669186472892761,0,0,0,-1,-1,4802.9347355,running,2,2022-06-30T09:48:23.219+02:00,2022-06-30T08:20:05.567+02:00,1383,1.400134,0,0,1092.013,0,0,2022-06-30T09:48:28.314+02:00
2022-06-30T09:48:30.091+02:00,4809.808469666667,-0.923187255859375,0.1519775390625,-0.931976318359375,4809.798517666667,-0.6290941328551638,0.2055526702549832,-0.2006725518600692,-2.583167552947998,4.486199855804443,2.442756652832031,-21.68179321289062,-5.268664836883545,-3.21408224105835,XArbitraryZVertical,-0.06316884272642934,0.1278981537763218,-0.3159779528424315,0.9379817065963139,0.2000123411417007,0.1993284374475479,-0.9593034982681274,0,0,0,-1,-1,4802.9347355,running,2,2022-06-30T09:48:23.219+02:00,2022-06-30T08:20:05.567+02:00,1383,1.400134,0,0,1092.013,0,0,2022-06-30T09:48:28.314+02:00
2022-06-30T09:48:30.101+02:00,4809.818420666667,0.1472930908203125,-0.4219512939453125,-1.702728271484375,4809.808469666667,-0.5944425622554158,0.2301287714608292,-0.2217247042556242,-2.852992057800293,-2.218315362930298,3.111360311508179,-13.06141662597656,-1.521273851394653,-0.7869992256164551,XArbitraryZVertical,-0.07166742335633153,0.1412896540266417,-0.3012870396983416,0.9402804136232058,0.2225188612937927,0.2199124395847321,-0.949802041053772,0,0,0,-1,-1,4802.9347355,running,2,2022-06-30T09:48:23.219+02:00,2022-06-30T08:20:05.567+02:00,1383,1.400134,0,0,1092.013,0,0,2022-06-30T09:48:28.314+02:00
2022-06-30T09:48:30.111+02:00,4809.828372666667,-5.310928344726562,0.720489501953125,-1.840789794921875,4809.818420666667,-0.554665133055866,0.1725665161466009,-0.2381952472885077,-2.462023258209229,-10.14441871643066,3.981545209884644,-1.090050458908081,-0.08397206664085388,0.02535563707351685,XArbitraryZVertical,-0.09042393294138014,0.1147060650818853,-0.2806882231027233,0.9486201642980312,0.1668631136417389,0.2359492182731628,-0.9573320746421814,0,0,0,-1,-1,4802.9347355,running,2,2022-06-30T09:48:23.219+02:00,2022-06-30T08:20:05.567+02:00,1383,1.400134,0,0,1092.013,0,0,2022-06-30T09:48:28.314+02:00
2022-06-30T09:48:30.121+02:00,4809.838324666667,-6.885269165039062,-0.6706695556640625,-2.526687622070312,4809.828372666667,-0.5119402985814134,0.07447053565406765,-0.2690238420183449,-4.483044624328613,-11.08573246002197,3.032605886459351,0.07556736469268799,-0.6877421736717224,-0.7413695454597473,XArbitraryZVertical,-0.1203072178734093,0.06961855972519533,-0.2555527906912233,0.956750919558466,0.07172555476427078,0.2657905220985413,-0.9613588452339172,0,0,0,-1,-1,4802.9347355,running,2,2022-06-30T09:48:23.219+02:00,2022-06-30T08:20:05.567+02:00,1383,1.400134,0,0,1092.013,0,0,2022-06-30T09:48:28.314+02:00
2022-06-30T09:48:30.131+02:00,4809.848275666667,-4.810592651367188,-1.506423950195312,-3.929214477539062,4809.838324666667,-0.4919085228278716,-0.02144038136028233,-0.3152641676173668,-5.098533630371094,-9.451478958129883,0.8583726286888123,-5.290546417236328,0.4104215204715729,-0.8902938961982727,XArbitraryZVertical,-0.154824843333938,0.02795115597231812,-0.2388172186304339,0.9582350900071337,-0.02038211934268475,0.3100676238536835,-0.9504960179328918,0,0,0,-1,-1,4802.9347355,running,2,2022-06-30T09:48:23.219+02:00,2022-06-30T08:20:05.567+02:00,1383,1.400134,0,0,1092.013,0,0,2022-06-30T09:48:28.314+02:00
2022-06-30T09:48:30.141+02:00,4809.858227666667,-4.804901123046875,0.60675048828125,-4.329086303710938,4809.848275666667,-0.4926404942110583,-0.1160504146260801,-0.3698805315702846,-5.765731334686279,-9.566702842712402,-0.2400712966918945,-6.777309894561768,-1.032173871994019,-1.60058856010437,XArbitraryZVertical,-0.1919368629771907,-0.01051995252753252,-0.2289332032714174,0.9542741630745692,-0.1079592779278755,0.3615040481090546,-0.9260991215705872,0,0,0,-1,-1,4802.9347355,running,2,2022-06-30T09:48:23.219+02:00,2022-06-30T08:20:05.567+02:00,1383,1.400134,0,0,1092.013,0,0,2022-06-30T09:48:28.314+02:00
2022-06-30T09:48:30.151+02:00,4809.868178666667,-5.686981201171875,1.488113403320312,-3.748931884765625,4809.858227666667,-0.5151177210479033,-0.2171732789435906,-0.4201094565414272,-4.657820224761963,-8.743887901306152,-2.196468114852905,-4.613859176635742,-1.914284706115723,-3.037617206573486,XArbitraryZVertical,-0.2274461094618281,-0.04969525613882636,-0.2258026095283434,0.9459450245752118,-0.1967338174581528,0.4078603982925415,-0.8915972709655762,0,0,0,-1,-1,4802.9347355,running,2,2022-06-30T09:48:23.219+02:00,2022-06-30T08:20:05.567+02:00,1383,1.400134,0,0,1092.013,0,0,2022-06-30T09:48:28.314+02:00
