loggingTime(txt),accelerometerTimestamp_sinceReboot(s),accelerometerAccelerationX(G),accelerometerAccelerationY(G),accelerometerAccelerationZ(G),motionTimestamp_sinceReboot(s),motionYaw(rad),motionRoll(rad),motionPitch(rad),motionRotationRateX(rad/s),motionRotationRateY(rad/s),motionRotationRateZ(rad/s),motionUserAccelerationX(G),motionUserAccelerationY(G),motionUserAccelerationZ(G),motionAttitudeReferenceFrame(txt),motionQuaternionX(R),motionQuaternionY(R),motionQuaternionZ(R),motionQuaternionW(R),motionGravityX(G),motionGravityY(G),motionGravityZ(G),motionMagneticFieldX(µT),motionMagneticFieldY(µT),motionMagneticFieldZ(µT),motionHeading(°),motionMagneticFieldCalibrationAccuracy(Z),activityTimestamp_sinceReboot(s),activity(txt),activityActivityConfidence(Z),activityActivityStartDate(txt),pedometerStartDate(txt),pedometerNumberofSteps(N),pedometerAverageActivePace(s/m),pedometerCurrentPace(s/m),pedometerCurrentCadence(steps/s),pedometerDistance(m),pedometerFloorAscended(N),pedometerFloorDescended(N),pedometerEndDate(txt)
2022-06-30T09:48:43.890+02:00,4823.591394,-0.0225830078125,-0.4847412109375,-0.90533447265625,4823.581443,-0.3555187330249857,-0.1836407777882385,0.3605526787137692,0.1314677745103836,0.05178370699286461,0.1468921899795532,0.0366981029510498,0.05132320523262024,-0.01664626598358154,XArbitraryZVertical,0.1597821050754814,-0.1203554238375967,-0.1894076363621525,0.9613058885716116,-0.1708688586950302,-0.352791428565979,-0.9199684858322144,0,0,0,-1,-1,4823.314921,unknown,2,2022-06-30T09:48:43.599+02:00,2022-06-30T08:20:05.567+02:00,1383,1.400134,0,0,1092.013,0,0,2022-06-30T09:48:43.599+02:00
2022-06-30T09:48:43.892+02:00,4823.601346,-0.0507659912109375,-0.4918060302734375,-0.9044647216796875,4823.591394,-0.3547027306225793,-0.1826384964013506,0.3621044531744625,-0.0769018828868866,-0.001994073856621981,0.09366115927696228,0.1380475163459778,-0.05832448601722717,-0.007707118988037109,XArbitraryZVertical,0.160676306986867,-0.1199300113518795,-0.1889793159814725,0.9612942492013918,-0.1698470562696457,-0.3542430102825165,-0.9195998311042786,0,0,0,-1,-1,4823.314921,unknown,2,2022-06-30T09:48:43.599+02:00,2022-06-30T08:20:05.567+02:00,1383,1.400134,0,0,1092.013,0,0,2022-06-30T09:48:43.599+02:00
2022-06-30T09:48:43.895+02:00,4823.611297,-0.09759521484375,-0.418365478515625,-0.9108123779296875,4823.601346,-0.3543257172651814,-0.1821048318158784,0.3608569243868204,-0.2713102400302887,-0.01245417073369026,0.1134497821331024,0.1468529552221298,-0.13166543841362,0.01478999853134155,XArbitraryZVertical,0.1601459835706642,-0.1195455377920803,-0.1887199652955787,0.9614816128847511,-0.1694361865520477,-0.3530761003494263,-0.9201242327690125,0,0,0,-1,-1,4823.314921,unknown,2,2022-06-30T09:48:43.599+02:00,2022-06-30T08:20:05.567+02:00,1383,1.400134,0,0,1092.013,0,0,2022-06-30T09:48:43.599+02:00
2022-06-30T09:48:43.904+02:00,4823.621249000001,-0.1288604736328125,-0.345672607421875,-0.9153594970703125,4823.611297,-0.3537681597759503,-0.1817075946906944,0.3577398989560028,-0.3286465704441071,0.006267959251999855,0.1522202491760254,0.1185024976730347,-0.1416482329368591,0.01680493354797363,XArbitraryZVertical,0.1587090085461845,-0.1190660673929037,-0.1883319471188958,0.9618553733985516,-0.1692687273025513,-0.3501581251621246,-0.921269416809082,0,0,0,-1,-1,4823.314921,unknown,2,2022-06-30T09:48:43.599+02:00,2022-06-30T08:20:05.567+02:00,1383,1.400134,0,0,1092.013,0,0,2022-06-30T09:48:43.599+02:00
2022-06-30T09:48:43.914+02:00,4823.631200000001,-0.1181640625,-0.3207244873046875,-0.9137115478515625,4823.621249000001,-0.3530410384865847,-0.1810531286803916,0.3545555095847072,-0.2708740830421448,0.05715563893318176,0.1424874663352966,0.07127021253108978,-0.07119229435920715,0.01165997982025146,XArbitraryZVertical,0.157272956789453,-0.118444618837379,-0.1878401309597766,0.9622641323285359,-0.1688656657934189,-0.3471735417842865,-0.9224721789360046,0,0,0,-1,-1,4823.314921,unknown,2,2022-06-30T09:48:43.599+02:00,2022-06-30T08:20:05.567+02:00,1383,1.400134,0,0,1092.013,0,0,2022-06-30T09:48:43.599+02:00
2022-06-30T09:48:43.924+02:00,4823.641152,-0.083038330078125,-0.337188720703125,-0.9068145751953125,4823.631200000001,-0.3522346217929065,-0.1799683956555184,0.3524110186923826,-0.1430597454309464,0.1032965481281281,0.1266760379076004,0.03913712501525879,-0.0005112886428833008,0.008025884628295898,XArbitraryZVertical,0.156384372045606,-0.1176917301579837,-0.1873062865960057,0.9626053037811619,-0.1679978221654892,-0.345161646604538,-0.9233851432800293,0,0,0,-1,-1,4823.314921,unknown,2,2022-06-30T09:48:43.599+02:00,2022-06-30T08:20:05.567+02:00,1383,1.400134,0,0,1092.013,0,0,2022-06-30T09:48:43.599+02:00
2022-06-30T09:48:43.934+02:00,4823.651103,-0.061614990234375,-0.3787384033203125,-0.8971710205078125,4823.641152,-0.3512218132337233,-0.178846795028274,0.3514741414013186,-0.03338729962706566,0.1000615954399109,0.1329730898141861,0.04885518550872803,0.02355733513832092,0.01017946004867554,XArbitraryZVertical,0.1560951207803311,-0.1169995794133215,-0.1867047516764263,0.9628534391176273,-0.1670194864273071,-0.3442822098731995,-0.9238908290863037,0,0,0,-1,-1,4823.314921,unknown,2,2022-06-30T09:48:43.599+02:00,2022-06-30T08:20:05.567+02:00,1383,1.400134,0,0,1092.013,0,0,2022-06-30T09:48:43.599+02:00
2022-06-30T09:48:43.948+02:00,4823.661055,-0.052520751953125,-0.4144134521484375,-0.88323974609375,4823.651103,-0.3497546590773682,-0.1786539905028837,0.3509057867859129,-0.00672306539490819,0.07645028084516525,0.1328748762607574,0.08383753895759583,0.006559461355209351,0.01730102300643921,XArbitraryZVertical,0.1559236187513734,-0.1167480678976878,-0.1859673283517153,0.9630545003859242,-0.1668761074542999,-0.343748539686203,-0.9241154193878174,0,0,0,-1,-1,4823.314921,unknown,2,2022-06-30T09:48:43.599+02:00,2022-06-30T08:20:05.567+02:00,1383,1.400134,0,0,1092.013,0,0,2022-06-30T09:48:43.599+02:00
2022-06-30T09:48:43.954+02:00,4823.671007,-0.05438232421875,-0.4297637939453125,-0.882354736328125,4823.661055,-0.3486903928791268,-0.1782295698014616,0.3500346560891487,-0.08872845023870468,0.04358234629034996,0.1007006913423538,0.1049216836690903,-0.03580838441848755,0.02730971574783325,XArbitraryZVertical,0.1556031900556743,-0.1163932464971398,-0.1853972603470663,0.9632591211009519,-0.1665368974208832,-0.3429303765296936,-0.9244804978370667,0,0,0,-1,-1,4823.314921,unknown,2,2022-06-30T09:48:43.599+02:00,2022-06-30T08:20:05.567+02:00,1383,1.400134,0,0,1092.013,0,0,2022-06-30T09:48:43.599+02:00
2022-06-30T09:48:43.964+02:00,4823.680958,-0.07879638671875,-0.4113311767578125,-0.88458251953125,4823.671007,-0.3482983898293369,-0.177387664350482,0.3489293362039578,-0.1905983686447144,0.00512240082025528,0.08417364209890366,0.1133043169975281,-0.07252195477485657,0.04175335168838501,XArbitraryZVertical,0.1551685757130316,-0.1158716919004407,-0.1851120412523136,0.9634469046373555,-0.1658253073692322,-0.3418918550014496,-0.9249929189682007,0,0,0,-1,-1,4823.314921,unknown,2,2022-06-30T09:48:43.599+02:00,2022-06-30T08:20:05.567+02:00,1383,1.400134,0,0,1092.013,0,0,2022-06-30T09:48:43.599+02:00
2022-06-30T09:48:43.974+02:00,4823.69091,-0.093414306640625,-0.3724365234375,-0.893096923828125,4823.680958,-0.3482030670366907,-0.1766236079426578,0.3475321936416922,-0.2559331655502319,0.004158070310950279,0.07527203112840652,0.1108197122812271,-0.08918556571006775,0.04323410987854004,XArbitraryZVertical,0.1545679735363943,-0.1153880216583863,-0.1849679505347324,0.9636291307296734,-0.1652022749185562,-0.3405785858631134,-0.9255886673927307,0,0,0,-1,-1,4823.314921,unknown,2,2022-06-30T09:48:43.599+02:00,2022-06-30T08:20:05.567+02:00,1383,1.400134,0,0,1092.013,0,0,2022-06-30T09:48:43.599+02:00
2022-06-30T09:48:43.984+02:00,4823.700861,-0.0930633544921875,-0.35650634765625,-0.8968048095703125,4823.69091,-0.348118536294987,-0.1759118970164513,0.345868953631398,-0.2527287602424622,0.02144129574298859,0.07551354169845581,0.08584575355052948,-0.0723172128200531,0.04168015718460083,XArbitraryZVertical,0.1538327984371865,-0.1149096501188735,-0.1848260672148838,0.9638312049626738,-0.1646423935890198,-0.3390142917633057,-0.9262624979019165,0,0,0,-1,-1,4823.314921,unknown,2,2022-06-30T09:48:43.599+02:00,2022-06-30T08:20:05.567+02:00,1383,1.400134,0,0,1092.013,0,0,2022-06-30T09:48:43.599+02:00
2022-06-30T09:48:43.994+02:00,4823.710813000001,-0.0799102783203125,-0.370086669921875,-0.894775390625,4823.700861,-0.3479936687864474,-0.1753215497066981,0.3439677758069573,-0.2198552489280701,0.03127049282193184,0.05876918882131577,0.07079312205314636,-0.03521177172660828,0.03389573097229004,XArbitraryZVertical,0.1529732247275411,-0.1144681017169514,-0.1846678540215663,0.9640508642213382,-0.1642076671123505,-0.3372251093387604,-0.9269924759864807,0,0,0,-1,-1,4823.314921,unknown,2,2022-06-30T09:48:43.599+02:00,2022-06-30T08:20:05.567+02:00,1383,1.400134,0,0,1092.013,0,0,2022-06-30T09:48:43.599+02:00
2022-06-30T09:48:44.004+02:00,4823.720764000001,-0.067840576171875,-0.393157958984375,-0.8932647705078125,4823.710813000001,-0.3480360429213348,-0.1748101662174993,0.3419330308203,-0.2055627852678299,0.02758928760886192,0.02045239321887493,0.07078902423381805,-0.0211978554725647,0.0309455394744873,XArbitraryZVertical,0.1520318544916585,-0.114066867601526,-0.1845929225448282,0.9642616339957039,-0.1638526022434235,-0.335308849811554,-0.9277501106262207,0,0,0,-1,-1,4823.314921,unknown,2,2022-06-30T09:48:43.599+02:00,2022-06-30T08:20:05.567+02:00,1383,1.400134,0,0,1092.013,0,0,2022-06-30T09:48:43.599+02:00
2022-06-30T09:48:44.013+02:00,4823.730716,-0.06988525390625,-0.396026611328125,-0.8922271728515625,4823.720764000001,-0.3484940878787821,-0.1741880097341054,0.3397208968515532,-0.2383313924074173,0.01590520143508911,-0.0117691932246089,0.08349299430847168,-0.0368630588054657,0.03380495309829712,XArbitraryZVertical,0.1509909034637485,-0.11362952535769,-0.1847054608768325,0.9644553379631096,-0.1634035110473633,-0.3332239389419556,-0.9285801649093628,0,0,0,-1,-1,4823.314921,unknown,2,2022-06-30T09:48:43.599+02:00,2022-06-30T08:20:05.567+02:00,1383,1.400134,0,0,1092.013,0,0,2022-06-30T09:48:43.599+02:00
2022-06-30T09:48:44.024+02:00,4823.740668,-0.08184814453125,-0.36962890625,-0.905792236328125,4823.730716,-0.3494115127083927,-0.1732559355064945,0.3373210735979201,-0.2773886919021606,0.01084235124289989,-0.03548068180680275,0.09483452141284943,-0.0621979832649231,0.03625249862670898,XArbitraryZVertical,0.1498616017299158,-0.1130617368632829,-0.1850117133475051,0.9646394856953662,-0.1626753211021423,-0.3309603333473206,-0.9295170903205872,0,0,0,-1,-1,4823.314921,unknown,2,2022-06-30T09:48:43.599+02:00,2022-06-30T08:20:05.567+02:00,1383,1.400134,0,0,1092.013,0,0,2022-06-30T09:48:43.599+02:00
2022-06-30T09:48:44.033+02:00,4823.750619,-0.085296630859375,-0.3389129638671875,-0.9110565185546875,4823.740668,-0.3506570784190211,-0.17186573291345,0.3351872761651157,-0.2854921817779541,0.02725834213197231,-0.04624224826693535,0.09161786735057831,-0.06708094477653503,0.03820902109146118,XArbitraryZVertical,0.1488855614134655,-0.1123168634887862,-0.1854504042460133,0.9647934005349933,-0.1615033596754074,-0.3289460241794586,-0.9304360151290894,0,0,0,-1,-1,4823.314921,unknown,2,2022-06-30T09:48:43.599+02:00,2022-06-30T08:20:05.567+02:00,1383,1.400134,0,0,1092.013,0,0,2022-06-30T09:48:43.599+02:00
2022-06-30T09:48:44.044+02:00,4823.760571000001,-0.0857086181640625,-0.336700439453125,-0.9100341796875,4823.750619,-0.35195590769606,-0.1702688955563943,0.3334769679224121,-0.2735289931297302,0.04178225249052048,-0.0503951832652092,0.07826411724090576,-0.042298823595047,0.02545374631881714,XArbitraryZVertical,0.1481317932642903,-0.1115081088784518,-0.1859122779750415,0.9649142920473799,-0.1601125001907349,-0.3273304104804993,-0.9312458038330078,0,0,0,-1,-1,4823.314921,unknown,2,2022-06-30T09:48:43.599+02:00,2022-06-30T08:20:05.567+02:00,1383,1.400134,0,0,1092.013,0,0,2022-06-30T09:48:43.599+02:00
2022-06-30T09:48:44.053+02:00,4823.770522000001,-0.076416015625,-0.3544158935546875,-0.9122314453125,4823.760571000001,-0.3533859339805747,-0.168363050378514,0.33236291702321,-0.2574882507324219,0.04852164909243584,-0.06932759284973145,0.07310153543949127,-0.01263579726219177,0.02085185050964355,XArbitraryZVertical,0.147689558214543,-0.1106060149752252,-0.1864316949289837,0.9649856462760686,-0.1583984047174454,-0.3262775540351868,-0.9319081902503967,0,0,0,-1,-1,4823.314921,unknown,2,2022-06-30T09:48:43.599+02:00,2022-06-30T08:20:05.567+02:00,1383,1.400134,0,0,1092.013,0,0,2022-06-30T09:48:43.599+02:00
2022-06-30T09:48:44.063+02:00,4823.780474,-0.0703277587890625,-0.3677978515625,-0.90557861328125,4823.770522000001,-0.3551038031844508,-0.1660340955125046,0.3319439668988104,-0.259070098400116,0.06357672810554504,-0.08972584456205368,0.07054133713245392,-0.01081928610801697,0.02237534523010254,XArbitraryZVertical,0.1476093002242788,-0.109575688331467,-0.187077705370644,0.9649905285411622,-0.1562501788139343,-0.3258814811706543,-0.9324093461036682,0,0,0,-1,-1,4823.314921,unknown,2,2022-06-30T09:48:43.599+02:00,2022-06-30T08:20:05.567+02:00,1383,1.400134,0,0,1092.013,0,0,2022-06-30T09:48:43.599+02:00
2022-06-30T09:48:44.073+02:00,4823.790425,-0.0775146484375,-0.445343017578125,-0.9158477783203125,4823.780474,-0.356936938259703,-0.1639027310299149,0.3303219028491624,-0.3412739038467407,0.06871103495359421,-0.1106937155127525,0.07793231308460236,-0.03006872534751892,0.02102923393249512,XArbitraryZVertical,0.1469224898037514,-0.1085519166730303,-0.1877640020662556,0.9650777804416614,-0.1543485820293427,-0.3243475556373596,-0.9332605004310608,0,0,0,-1,-1,4823.314921,unknown,2,2022-06-30T09:48:43.599+02:00,2022-06-30T08:20:05.567+02:00,1383,1.400134,0,0,1092.013,0,0,2022-06-30T09:48:43.599+02:00
2022-06-30T09:48:44.083+02:00,4823.800378375,-0.0150299072265625,-0.4105377197265625,-0.938934326171875,4823.790426375001,-0.3598074485109118,-0.1611905401698273,0.3274278707784529,-0.4633993804454803,0.09430617094039917,-0.2447684854269028,0.08163885772228241,-0.0461895763874054,0.02901989221572876,XArbitraryZVertical,0.1456196072583536,-0.1072183845745123,-0.1888789349469362,0.9652066529168182,-0.1519668400287628,-0.3216086030006409,-0.9345982670783997,0,0,0,-1,-1,4823.314921,unknown,2,2022-06-30T09:48:43.599+02:00,2022-06-30T08:20:05.567+02:00,1383,1.400134,0,0,1092.013,0,0,2022-06-30T09:48:43.599+02:00
2022-06-30T09:48:44.093+02:00,4823.810329375,-0.115020751953125,-0.2672271728515625,-0.9317779541015625,4823.800378375,-0.3630669485843126,-0.158550091350891,0.3239910862990135,-0.5346519947052002,-0.005649722181260586,-0.09800621122121811,0.07215729355812073,-0.1269908547401428,0.02023458480834961,XArbitraryZVertical,0.1440294439130444,-0.1058981153315661,-0.1901775992574657,0.9653360433470627,-0.1496721804141998,-0.3183525204658508,-0.9360822439193726,0,0,0,-1,-1,4823.314921,unknown,2,2022-06-30T09:48:43.599+02:00,2022-06-30T08:20:05.567+02:00,1383,1.400134,0,0,1092.013,0,0,2022-06-30T09:48:43.599+02:00
2022-06-30T09:48:44.103+02:00,4823.820281375,-0.1675567626953125,-0.2569427490234375,-0.9619293212890625,4823.810329375,-0.3638793573643266,-0.1582215107485611,0.3189089467857952,-0.4851753413677216,0.06972265988588333,0.04416787251830101,0.1345874518156052,-0.09700736403465271,-0.001217246055603027,XArbitraryZVertical,0.14155271481961,-0.1053772191249431,-0.190424460237706,0.9657105744672092,-0.1496175974607468,-0.3135307133197784,-0.9377169609069824,0,0,0,-1,-1,4823.314921,unknown,2,2022-06-30T09:48:43.599+02:00,2022-06-30T08:20:05.567+02:00,1383,1.400134,0,0,1092.013,0,0,2022-06-30T09:48:43.599+02:00
2022-06-30T09:48:44.113+02:00,4823.830233375001,-0.0458984375,-0.29547119140625,-0.9560699462890625,4823.820281375,-0.3652377745317033,-0.1563460996019978,0.3146085415479417,-0.3958265483379364,0.2223950177431107,-0.1797094345092773,0.03304630517959595,0.0422167181968689,0.007541298866271973,XArbitraryZVertical,0.1395738093593593,-0.1042094838374888,-0.1908459285201082,0.9660420534874714,-0.1480672955513,-0.3094442486763,-0.9393190741539001,0,0,0,-1,-1,4823.314921,unknown,2,2022-06-30T09:48:43.599+02:00,2022-06-30T08:20:05.567+02:00,1383,1.400134,0,0,1092.013,0,0,2022-06-30T09:48:43.599+02:00
2022-06-30T09:48:44.123+02:00,4823.840184375001,-0.0178375244140625,-0.3173370361328125,-0.929595947265625,4823.830233375001,-0.3679055489524335,-0.1536468306169755,0.3114796183353821,-0.3089438378810883,0.1570484638214111,-0.1904540956020355,-0.02187822759151459,0.04952430725097656,-0.02126157283782959,XArbitraryZVertical,0.138175653548223,-0.1028285713562226,-0.1918738551941572,0.9661874452404872,-0.1456787586212158,-0.3064673840999603,-0.9406675696372986,0,0,0,-1,-1,4823.314921,unknown,2,2022-06-30T09:48:43.599+02:00,2022-06-30T08:20:05.567+02:00,1383,1.400134,0,0,1092.013,0,0,2022-06-30T09:48:43.599+02:00
2022-06-30T09:48:44.133+02:00,4823.850136375,-0.043243408203125,-0.343017578125,-0.9326019287109375,4823.840184375001,-0.3698375241004787,-0.1519809671772317,0.3085584830831056,-0.3363560438156128,0.09782109409570694,-0.1108077242970467,0.09834778308868408,0.008213967084884644,-0.01427996158599854,XArbitraryZVertical,0.1368192935841313,-0.1019096065848982,-0.1926256629319768,0.9663282751793227,-0.1442464590072632,-0.3036855161190033,-0.9417898058891296,0,0,0,-1,-1,4823.314921,unknown,2,2022-06-30T09:48:43.599+02:00,2022-06-30T08:20:05.567+02:00,1383,1.400134,0,0,1092.013,0,0,2022-06-30T09:48:43.599+02:00
2022-06-30T09:48:44.144+02:00,4823.860087375,-0.0414581298828125,-0.3237762451171875,-0.9315643310546875,4823.850136375,-0.3717512622465345,-0.1503353632748606,0.3049870931507902,-0.4264203310012817,0.1400837302207947,-0.1536906361579895,0.1250202208757401,-0.01705652475357056,0.01349645853042603,XArbitraryZVertical,0.1351477046089033,-0.1009404229374353,-0.1933577019082552,0.9665189962486179,-0.1428579688072205,-0.3002808690071106,-0.9430922865867615,0,0,0,-1,-1,4823.314921,unknown,2,2022-06-30T09:48:43.599+02:00,2022-06-30T08:20:05.567+02:00,1383,1.400134,0,0,1092.013,0,0,2022-06-30T09:48:43.599+02:00
2022-06-30T09:48:44.153+02:00,4823.870039375,-0.0415496826171875,-0.3156890869140625,-0.9261322021484375,4823.860087375,-0.3741412145351309,-0.1483554253474705,0.3005453752565417,-0.5163260102272034,0.1309573352336884,-0.166020542383194,0.0979425460100174,-0.0469767153263092,0.0120813250541687,XArbitraryZVertical,0.1330636427653231,-0.09976240261761016,-0.1942810158300005,0.9667452821008866,-0.1411861777305603,-0.2960411906242371,-0.9446830749511719,0,0,0,-1,-1,4823.314921,unknown,2,2022-06-30T09:48:43.599+02:00,2022-06-30T08:20:05.567+02:00,1383,1.400134,0,0,1092.013,0,0,2022-06-30T09:48:43.599+02:00
2022-06-30T09:48:44.163+02:00,4823.879990375,-0.0406036376953125,-0.326507568359375,-0.910980224609375,4823.870039375,-0.3765908297707144,-0.1465314812348613,0.2953089306134473,-0.5842094421386719,0.1150583401322365,-0.1528042107820511,0.09822896122932434,-0.03274118900299072,0.01489543914794922,XArbitraryZVertical,0.1305775918864091,-0.09858840979890549,-0.1952299789540497,0.9670135270884146,-0.1396873295307159,-0.2910354137420654,-0.9464596509933472,0,0,0,-1,-1,4823.314921,unknown,2,2022-06-30T09:48:43.599+02:00,2022-06-30T08:20:05.567+02:00,1383,1.400134,0,0,1092.013,0,0,2022-06-30T09:48:43.599+02:00
2022-06-30T09:48:44.173+02:00,4823.889942375,-0.0450286865234375,-0.3487701416015625,-0.8950958251953125,4823.879990375,-0.3791459772971895,-0.1447455310769075,0.2894150371272486,-0.6589957475662231,0.1189103424549103,-0.1716719120740891,0.09669187664985657,-0.03029781579971313,0.02225649356842041,XArbitraryZVertical,0.1277652841228593,-0.09737434467200233,-0.1962223223876942,0.9673112720513035,-0.1382417976856232,-0.285391628742218,-0.9483885169029236,0,0,0,-1,-1,4823.314921,unknown,2,2022-06-30T09:48:43.599+02:00,2022-06-30T08:20:05.567+02:00,1383,1.400134,0,0,1092.013,0,0,2022-06-30T09:48:43.599+02:00
2022-06-30T09:48:44.183+02:00,4823.899894375,-0.0512847900390625,-0.36138916015625,-0.88720703125,4823.889942375,-0.3821401114485932,-0.1428685527387839,0.2825958241337918,-0.7847535014152527,0.1128551214933395,-0.212817057967186,0.09613150358200073,-0.04765850305557251,0.03957051038742065,XArbitraryZVertical,0.1244933013018174,-0.09605271385746776,-0.1974059392318862,0.9676291441812771,-0.1367353796958923,-0.2788494527339935,-0.9505506157875061,0,0,0,-1,-1,4823.314921,unknown,2,2022-06-30T09:48:43.599+02:00,2022-06-30T08:20:05.567+02:00,1383,1.400134,0,0,1092.013,0,0,2022-06-30T09:48:43.599+02:00
2022-06-30T09:48:44.193+02:00,4823.909845375,-0.0585174560546875,-0.3545989990234375,-0.8819732666015625,4823.899894375,-0.3857715577019666,-0.1408901184259451,0.2742422784452227,-0.9768326878547668,0.1099211201071739,-0.2531706094741821,0.09014798700809479,-0.07795286178588867,0.05799669027328491,XArbitraryZVertical,0.1204582387497559,-0.09457081115872028,-0.1988645611746729,0.9679871026422409,-0.1351768970489502,-0.2708176076412201,-0.9530923366546631,0,0,0,-1,-1,4823.314921,unknown,2,2022-06-30T09:48:43.599+02:00,2022-06-30T08:20:05.567+02:00,1383,1.400134,0,0,1092.013,0,0,2022-06-30T09:48:43.599+02:00
2022-06-30T09:48:44.203+02:00,4823.919797375001,-0.066497802734375,-0.34075927734375,-0.8640899658203125,4823.909845375,-0.3900540020875837,-0.1387533290001225,0.2637263735829344,-1.236163139343262,0.114805743098259,-0.2798627316951752,0.08224153518676758,-0.1007096171379089,0.0689399242401123,XArbitraryZVertical,0.1153612183701216,-0.09283536243681935,-0.2005901451222361,0.9684197785989105,-0.133526548743248,-0.2606799006462097,-0.956146776676178,0,0,0,-1,-1,4823.314921,unknown,2,2022-06-30T09:48:43.599+02:00,2022-06-30T08:20:05.567+02:00,1383,1.400134,0,0,1092.013,0,0,2022-06-30T09:48:43.599+02:00
2022-06-30T09:48:44.212+02:00,4823.929748375001,-0.07183837890625,-0.3339385986328125,-0.8458099365234375,4823.919797375001,-0.3949960940769182,-0.1364712255494996,0.2504007043360568,-1.551151514053345,0.1138970702886581,-0.3126568794250488,0.07328742742538452,-0.1068071871995926,0.07783228158950806,XArbitraryZVertical,0.1088872363814564,-0.09077915405696328,-0.2025764052184982,0.9689508357811337,-0.1318051069974899,-0.2477921843528748,-0.959805428981781,0,0,0,-1,-1,4823.314921,unknown,2,2022-06-30T09:48:43.599+02:00,2022-06-30T08:20:05.567+02:00,1383,1.400134,0,0,1092.013,0,0,2022-06-30T09:48:43.599+02:00
2022-06-30T09:48:44.223+02:00,4823.939700375,-0.073394775390625,-0.334259033203125,-0.82843017578125,4823.929748375001,-0.400771557452212,-0.1340704297433926,0.2336806155224985,-1.930805325508118,0.1140606552362442,-0.3590749502182007,0.0635380744934082,-0.1091999858617783,0.10000079870224,XArbitraryZVertical,0.1007430880158691,-0.08834882519477186,-0.204898755045013,0.9695679284715575,-0.1300361156463623,-0.2315596640110016,-0.9640906453132629,0,0,0,-1,-1,4823.314921,unknown,2,2022-06-30T09:48:43.599+02:00,2022-06-30T08:20:05.567+02:00,1383,1.400134,0,0,1092.013,0,0,2022-06-30T09:48:43.599+02:00
2022-06-30T09:48:44.232+02:00,4823.949651375,-0.0585784912109375,-0.3306884765625,-0.803375244140625,4823.939700375,-0.4075192313914857,-0.131491942232791,0.213082111910835,-2.348478555679321,0.1313147395849228,-0.4097839295864105,0.05630946159362793,-0.1224656701087952,0.123136579990387,XArbitraryZVertical,0.09069583330769235,-0.08544627291153738,-0.2076123409528876,0.9702425005324535,-0.1281480640172958,-0.2114733010530472,-0.9689463973045349,0,0,0,-1,-1,4823.314921,unknown,2,2022-06-30T09:48:43.599+02:00,2022-06-30T08:20:05.567+02:00,1383,1.400134,0,0,1092.013,0,0,2022-06-30T09:48:43.599+02:00
2022-06-30T09:48:44.242+02:00,4823.959603375,-0.0422210693359375,-0.307647705078125,-0.7805633544921875,4823.949651375,-0.4152340048016824,-0.1286929588774746,0.1881678912755087,-2.811085939407349,0.1435477584600449,-0.450398176908493,0.05267766118049622,-0.1471999734640121,0.1457949876785278,XArbitraryZVertical,0.07854159012381617,-0.08196763045475722,-0.2107034649114974,0.9709359891823635,-0.1260726749897003,-0.1870594471693039,-0.9742250442504883,0,0,0,-1,-1,4823.314921,unknown,2,2022-06-30T09:48:43.599+02:00,2022-06-30T08:20:05.567+02:00,1383,1.400134,0,0,1092.013,0,0,2022-06-30T09:48:43.599+02:00
2022-06-30T09:48:44.252+02:00,4823.969554375,-0.0384063720703125,-0.264984130859375,-0.75433349609375,4823.959603375,-0.4237505335307963,-0.1259074311396654,0.1585182786310965,-3.313027620315552,0.1439983695745468,-0.4695236682891846,0.06542188674211502,-0.1728336215019226,0.1762704849243164,XArbitraryZVertical,0.06406384288968893,-0.07792949079505786,-0.2140878998173301,0.9715910632650946,-0.124000608921051,-0.1578552424907684,-0.9796456098556519,0,0,0,-1,-1,4823.314921,unknown,2,2022-06-30T09:48:43.599+02:00,2022-06-30T08:20:05.567+02:00,1383,1.400134,0,0,1092.013,0,0,2022-06-30T09:48:43.599+02:00
2022-06-30T09:48:44.262+02:00,4823.979506375001,-0.047119140625,-0.206329345703125,-0.7063140869140625,4823.969554375,-0.4329739572105669,-0.1233699954966832,0.1238356528880622,-3.830675840377808,0.1245591267943382,-0.4865700602531433,0.07989364862442017,-0.1841287016868591,0.2042366862297058,XArbitraryZVertical,0.04710281499122532,-0.07335775093740915,-0.2177060762250008,0.9721131362259507,-0.1221149265766144,-0.1235193833708763,-0.9847999215126038,0,0,0,-1,-1,4823.314921,unknown,2,2022-06-30T09:48:43.599+02:00,2022-06-30T08:20:05.567+02:00,1383,1.400134,0,0,1092.013,0,0,2022-06-30T09:48:43.599+02:00
2022-06-30T09:48:44.272+02:00,4823.989458375,-0.0670166015625,-0.1480712890625,-0.666778564453125,4823.979506375001,-0.4428781046197189,-0.1213119492092788,0.08385083498937128,-4.386882781982422,0.103058360517025,-0.5006022453308105,0.08218285441398621,-0.1812318861484528,0.2348297238349915,XArbitraryZVertical,0.02751228831493232,-0.06827526195773348,-0.2215158855191092,0.9723745987747177,-0.120589442551136,-0.08375260978937149,-0.9891631007194519,0,0,0,-1,-1,4823.314921,unknown,2,2022-06-30T09:48:43.599+02:00,2022-06-30T08:20:05.567+02:00,1383,1.400134,0,0,1092.013,0,0,2022-06-30T09:48:43.599+02:00
2022-06-30T09:48:44.282+02:00,4823.999409375,-0.08331298828125,-0.0923004150390625,-0.6176910400390625,4823.989458375,-0.4534879618529453,-0.1198192040261931,0.03833474651681711,-4.952540874481201,0.08692602068185806,-0.5149077773094177,0.07232553511857986,-0.1680043637752533,0.2857868075370789,XArbitraryZVertical,0.005184596795619908,-0.06263143843672701,-0.2254796715954503,0.9722188733225585,-0.1194448918104172,-0.03832535818219185,-0.9921008348464966,0,0,0,-1,-1,4823.314921,unknown,2,2022-06-30T09:48:43.599+02:00,2022-06-30T08:20:05.567+02:00,1383,1.400134,0,0,1092.013,0,0,2022-06-30T09:48:43.599+02:00
2022-06-30T09:48:44.292+02:00,4824.009361375,-0.09869384765625,-0.0709075927734375,-0.575836181640625,4823.999409375,-0.4648975551132791,-0.11893287093688,-0.01310490092311437,-5.598870754241943,0.08368148654699326,-0.5324572324752808,0.05162567645311356,-0.1611762046813965,0.3260720372200012,XArbitraryZVertical,-0.0200552924019211,-0.05632500185530182,-0.2295700416992347,0.9714540953127824,-0.1186424940824509,0.01310452539473772,-0.9928505420684814,0,0,0,-1,-1,4823.314921,unknown,2,2022-06-30T09:48:43.599+02:00,2022-06-30T08:20:05.567+02:00,1383,1.400134,0,0,1092.013,0,0,2022-06-30T09:48:43.599+02:00
2022-06-30T09:48:44.302+02:00,4824.019312375,-0.107940673828125,-0.086090087890625,-0.5124359130859375,4824.009361375,-0.4773421036223422,-0.1186964168106791,-0.07146417156454196,-6.358076572418213,0.08651560544967651,-0.5608163475990295,0.03480243682861328,-0.1637041568756104,0.3727383017539978,XArbitraryZVertical,-0.04866410016720672,-0.04916441875120693,-0.2337858077880136,0.9698242033941383,-0.1181156411767006,0.07140335440635681,-0.9904293417930603,0,0,0,-1,-1,4823.314921,unknown,2,2022-06-30T09:48:43.599+02:00,2022-06-30T08:20:05.567+02:00,1383,1.400134,0,0,1092.013,0,0,2022-06-30T09:48:43.599+02:00
2022-06-30T09:48:44.312+02:00,4824.029264375,-0.11053466796875,-0.1073455810546875,-0.4373321533203125,4824.019312375,-0.491121339873883,-0.1194312242024663,-0.137795859223927,-7.214363098144531,0.06995100528001785,-0.5828529000282288,0.01932407170534134,-0.2082681953907013,0.4076290726661682,XArbitraryZVertical,-0.08113300592666696,-0.0410464266551455,-0.2381058191717115,0.9669738368742768,-0.1180181205272675,0.1373602002859116,-0.9834652543067932,0,0,0,-1,-1,4823.314921,unknown,2,2022-06-30T09:48:43.599+02:00,2022-06-30T08:20:05.567+02:00,1383,1.400134,0,0,1092.013,0,0,2022-06-30T09:48:43.599+02:00
2022-06-30T09:48:44.322+02:00,4824.039215375,-0.118988037109375,-0.0812530517578125,-0.41552734375,4824.029264375,-0.5061723282465542,-0.1215210998822408,-0.2129352533468778,-8.128453254699707,0.05676295608282089,-0.5504029989242554,0.01054351776838303,-0.2974202036857605,0.457770824432373,XArbitraryZVertical,-0.1178101008636971,-0.03189660011473403,-0.2422684455604561,0.9625017040954137,-0.1184844076633453,0.211329773068428,-0.9702067971229553,0,0,0,-1,-1,4823.314921,unknown,2,2022-06-30T09:48:43.599+02:00,2022-06-30T08:20:05.567+02:00,1383,1.400134,0,0,1092.013,0,0,2022-06-30T09:48:43.599+02:00
2022-06-30T09:48:44.332+02:00,4824.049167375,-0.1336669921875,0.0182037353515625,-0.421417236328125,4824.039215375,-0.522078610924536,-0.1249087592241897,-0.2968211967198879,-8.965146064758301,0.0922277420759201,-0.4362417757511139,0.008601397275924683,-0.3998278379440308,0.5114885568618774,XArbitraryZVertical,-0.1585094651952863,-0.02154883784187556,-0.2458338550249169,0.9560210152417834,-0.1191362664103508,0.2924818992614746,-0.9488207697868347,0,0,0,-1,-1,4823.314921,unknown,2,2022-06-30T09:48:43.599+02:00,2022-06-30T08:20:05.567+02:00,1383,1.400134,0,0,1092.013,0,0,2022-06-30T09:48:43.599+02:00
2022-06-30T09:48:44.342+02:00,4824.059119375001,-0.1596832275390625,0.1678466796875,-0.448638916015625,4824.049167375,-0.5383237372185745,-0.1292621229177312,-0.3885168423403087,-9.696694374084473,0.145265594124794,-0.270873099565506,0.0003073513507843018,-0.4600695967674255,0.5022234916687012,XArbitraryZVertical,-0.2025518005710398,-0.00986311410225783,-0.2483583471052998,0.9472030953520124,-0.1192956045269966,0.3788162171840668,-0.9177509546279907,0,0,0,-1,-1,4823.314921,unknown,2,2022-06-30T09:48:43.599+02:00,2022-06-30T08:20:05.567+02:00,1383,1.400134,0,0,1092.013,0,0,2022-06-30T09:48:43.599+02:00
2022-06-30T09:48:44.352+02:00,4824.069070375001,-0.2126312255859375,0.2861480712890625,-0.5486297607421875,4824.059119375001,-0.5549441789253845,-0.1346574318705876,-0.4874437088194783,-10.40290069580078,0.1986633092164993,-0.1148057356476784,-0.01505213230848312,-0.4501654505729675,0.4541173577308655,XArbitraryZVertical,-0.2494446534938513,0.003160521041106801,-0.2496133137421768,0.9356605372041522,-0.118615061044693,0.4683688580989838,-0.8755347728729248,0,0,0,-1,-1,4823.314921,unknown,2,2022-06-30T09:48:43.599+02:00,2022-06-30T08:20:05.567+02:00,1383,1.400134,0,0,1092.013,0,0,2022-06-30T09:48:43.599+02:00
2022-06-30T09:48:44.362+02:00,4824.079022375,-0.2715606689453125,0.377166748046875,-0.7210235595703125,4824.069070375001,-0.5731103818756565,-0.1415723581158189,-0.5929014035463973,-10.99474906921387,0.3186633586883545,-0.08357394486665726,-0.04266603291034698,-0.3909232020378113,0.3723868131637573,XArbitraryZVertical,-0.2986327663090114,0.01747924679460782,-0.2498244154138789,0.9209238717764285,-0.1170174032449722,0.5587695837020874,-0.8210259079933167,0,0,0,-1,-1,4823.314921,unknown,2,2022-06-30T09:48:43.599+02:00,2022-06-30T08:20:05.567+02:00,1383,1.400134,0,0,1092.013,0,0,2022-06-30T09:48:43.599+02:00
2022-06-30T09:48:44.372+02:00,4824.088973375,-0.301361083984375,0.4974365234375,-0.8689422607421875,4824.079022375,-0.5949019819296638,-0.150661801046016,-0.7024435950350358,-11.23882007598877,0.5202925801277161,-0.1622839421033859,-0.09807099401950836,-0.3599368929862976,0.2059894800186157,XArbitraryZVertical,-0.3487150530818938,0.03298604207411873,-0.2496560268258756,0.9027634348064579,-0.1145604476332664,0.646084725856781,-0.7546194791793823,0,0,0,-1,-1,4823.314921,unknown,2,2022-06-30T09:48:43.599+02:00,2022-06-30T08:20:05.567+02:00,1383,1.400134,0,0,1092.013,0,0,2022-06-30T09:48:43.599+02:00
2022-06-30T09:48:44.382+02:00,4824.098925375,-0.32086181640625,0.7047882080078125,-0.902069091796875,4824.088973375,-0.6213275800947293,-0.1624638527559488,-0.8119426380698626,-11.05028247833252,0.7934051752090454,-0.1999435573816299,-0.1602622270584106,-0.3484587669372559,-0.04199457168579102,XArbitraryZVertical,-0.3975557790665323,0.04934387267498896,-0.2494076490432139,0.8816520990450832,-0.111298643052578,0.7256252765655518,-0.6790291666984558,0,0,0,-1,-1,4823.314921,unknown,2,2022-06-30T09:48:43.599+02:00,2022-06-30T08:20:05.567+02:00,1383,1.400134,0,0,1092.013,0,0,2022-06-30T09:48:43.599+02:00
2022-06-30T09:48:44.392+02:00,4824.108876375,-0.33587646484375,0.97406005859375,-0.9004058837890625,4824.098925375,-0.6518705442700684,-0.1761856162465924,-0.9178461226649556,-10.58176517486572,1.152353286743164,-0.1002246886491776,-0.1948757171630859,-0.296858549118042,-0.2708150148391724,XArbitraryZVertical,-0.4432888105583325,0.06656775508978363,-0.2490299776267811,0.8585149929555996,-0.1064855754375458,0.7942948937416077,-0.598127543926239,0,0,0,-1,-1,4823.314921,unknown,2,2022-06-30T09:48:43.599+02:00,2022-06-30T08:20:05.567+02:00,1383,1.400134,0,0,1092.013,0,0,2022-06-30T09:48:43.599+02:00
2022-06-30T09:48:44.402+02:00,4824.118828375001,-0.3570556640625,1.31219482421875,-0.845062255859375,4824.108876375,-0.6847555448177793,-0.1892870011860754,-1.018025065058564,-9.899801254272461,1.682580351829529,0.08280794322490692,-0.2220696806907654,-0.1462846994400024,-0.386399507522583,XArbitraryZVertical,-0.4846814448493804,0.08514079837787839,-0.2484747857221845,0.8343233194486149,-0.09879232943058014,0.8510727286338806,-0.5156698822975159,0,0,0,-1,-1,4823.314921,unknown,2,2022-06-30T09:48:43.599+02:00,2022-06-30T08:20:05.567+02:00,1383,1.400134,0,0,1092.013,0,0,2022-06-30T09:48:43.599+02:00
2022-06-30T09:48:44.412+02:00,4824.128780375,-0.3296051025390625,1.563644409179688,-0.834320068359375,4824.118828375001,-0.7206195452931854,-0.2008640555023354,-1.111731900789164,-9.249377250671387,2.318099737167358,0.1332934945821762,-0.2474691271781921,0.07759243249893188,-0.4662053883075714,XArbitraryZVertical,-0.5213344452533443,0.1054040200900116,-0.248464737480822,0.8095466307041023,-0.08840751647949219,0.8964674472808838,-0.4342007637023926,0,0,0,-1,-1,4823.314921,unknown,2,2022-06-30T09:48:43.599+02:00,2022-06-30T08:20:05.567+02:00,1383,1.400134,0,0,1092.013,0,0,2022-06-30T09:48:43.599+02:00
2022-06-30T09:48:44.421+02:00,4824.138731375,-0.229736328125,1.70751953125,-0.846832275390625,4824.128780375,-0.7633314633533143,-0.2138940950908362,-1.198147101556733,-8.425048828125,2.907457590103149,0.0644429549574852,-0.2797728776931763,0.3808286190032959,-0.489275336265564,XArbitraryZVertical,-0.553148991858052,0.1270140652183693,-0.2499882114212081,0.7844740287652401,-0.07728298008441925,0.9313660860061646,-0.3557872474193573,0,0,0,-1,-1,4823.314921,unknown,2,2022-06-30T09:48:43.599+02:00,2022-06-30T08:20:05.567+02:00,1383,1.400134,0,0,1092.013,0,0,2022-06-30T09:48:43.599+02:00
2022-06-30T09:48:44.431+02:00,4824.148683375,-0.0517730712890625,1.790985107421875,-0.81304931640625,4824.138731375,-0.8159205272368546,-0.2323266713341348,-1.275705131447443,-7.484441757202148,3.375837087631226,0.06576894223690033,-0.2626444697380066,0.6068687438964844,-0.5513065457344055,XArbitraryZVertical,-0.5798600723639988,0.1491823002060083,-0.2532292679436822,0.7598565730569182,-0.06696078181266785,0.9567756056785583,-0.2830138802528381,0,0,0,-1,-1,4823.314921,unknown,2,2022-06-30T09:48:43.599+02:00,2022-06-30T08:20:05.567+02:00,1383,1.400134,0,0,1092.013,0,0,2022-06-30T09:48:43.599+02:00
2022-06-30T09:48:44.452+02:00,4824.158634375,0.109100341796875,1.791702270507812,-0.7003021240234375,4824.148683375,-0.8755935842726335,-0.2545944970526763,-1.344601124555857,-6.757845878601074,3.754820823669434,0.30945685505867,-0.1732530295848846,0.7329927086830139,-0.6297904253005981,XArbitraryZVertical,-0.6015965497661832,0.1719316260023321,-0.2573985730452162,0.7363879028344159,-0.05648344755172729,0.9745267629623413,-0.2170422077178955,0,0,0,-1,-1,4823.314921,unknown,2,2022-06-30T09:48:43.599+02:00,2022-06-30T08:20:05.567+02:00,1383,1.400134,0,0,1092.013,0,0,2022-06-30T09:48:43.599+02:00
2022-06-30T09:48:44.455+02:00,4824.168586375,0.2434539794921875,1.724472045898438,-0.5687103271484375,4824.158634375,-0.9420199717515144,-0.2805559391780041,-1.408634725460595,-6.347829341888428,4.125442504882812,0.6321609020233154,-0.007068753242492676,0.8041044473648071,-0.6579100489616394,XArbitraryZVertical,-0.6196889044594194,0.1959996054209385,-0.2617368243189662,0.7134870092333214,-0.04470446705818176,0.9868806004524231,-0.1551396399736404,0,0,0,-1,-1,4823.314921,unknown,2,2022-06-30T09:48:43.599+02:00,2022-06-30T08:20:05.567+02:00,1383,1.400134,0,0,1092.013,0,0,2022-06-30T09:48:43.599+02:00
2022-06-30T09:48:44.461+02:00,4824.178537375,0.328643798828125,1.650009155273438,-0.3941192626953125,4824.168586375,-1.026869630695504,-0.3221676637330121,-1.47033033967304,-6.185935497283936,4.400027275085449,0.9261291027069092,0.14085653424263,0.7967446446418762,-0.6051658987998962,XArbitraryZVertical,-0.6350980667063655,0.2215448837485512,-0.2658922049767193,0.6905574641646236,-0.03175630420446396,0.9949575066566467,-0.0951366201043129,0,0,0,-1,-1,4823.314921,unknown,2,2022-06-30T09:48:43.599+02:00,2022-06-30T08:20:05.567+02:00,1383,1.400134,0,0,1092.013,0,0,2022-06-30T09:48:43.599+02:00
2022-06-30T09:48:44.471+02:00,4824.188489375,0.351715087890625,1.578292846679688,-0.2499542236328125,4824.178537375,-1.24460566712513,-0.4953102196727812,-1.53166832866679,-6.293685436248779,4.446808815002441,1.160655379295349,0.2620460987091064,0.7252373695373535,-0.5342952013015747,XArbitraryZVertical,-0.6490134904596264,0.2481406030578772,-0.2692848358939013,0.6668533143912125,-0.01859221607446671,0.9992346167564392,-0.03441546112298965,0,0,0,-1,-1,4823.314921,unknown,2,2022-06-30T09:48:43.599+02:00,2022-06-30T08:20:05.567+02:00,1383,1.400134,0,0,1092.013,0,0,2022-06-30T09:48:43.599+02:00
2022-06-30T09:48:44.481+02:00,4824.198440375,0.3302459716796875,1.556350708007812,-0.0986328125,4824.188489375,2.553322325320648,-2.936450881734222,-1.541994450919764,-6.391334056854248,4.345981597900391,1.40061628818512,0.3345099687576294,0.6504238843917847,-0.4223133325576782,XArbitraryZVertical,-0.6621206365280954,0.2751238350171978,-0.2712464349370279,0.6421281024215908,-0.005866231862455606,0.9995852708816528,0.02819372341036797,0,0,0,-1,-1,4823.314921,unknown,2,2022-06-30T09:48:43.599+02:00,2022-06-30T08:20:05.567+02:00,1383,1.400134,0,0,1092.013,0,0,2022-06-30T09:48:43.599+02:00
2022-06-30T09:48:44.491+02:00,4824.208392375001,0.3216400146484375,1.621551513671875,0.0119476318359375,4824.198440375,2.232055251952917,3.069419127296499,-1.479696496050079,-6.152121543884277,4.373326778411865,1.649564623832703,0.3451548516750336,0.5824395418167114,-0.3406912088394165,XArbitraryZVertical,-0.6737566553012259,0.3023578690807855,-0.272003439232634,0.6169649771879031,0.006560176610946655,0.9958533048629761,0.09073662012815475,0,0,0,-1,-1,4823.314921,unknown,2,2022-06-30T09:48:43.599+02:00,2022-06-30T08:20:05.567+02:00,1383,1.400134,0,0,1092.013,0,0,2022-06-30T09:48:43.599+02:00
2022-06-30T09:48:44.501+02:00,4824.218344375,0.315277099609375,1.701416015625,0.048370361328125,4824.208392375001,2.135661785743364,3.017260653566396,-1.420707495562954,-5.346149921417236,4.373909473419189,1.868689060211182,0.3117029070854187,0.567592978477478,-0.2470051199197769,XArbitraryZVertical,-0.6824869831553602,0.3292377372176408,-0.272456157166137,0.5929432515817209,0.01854302734136581,0.9887577891349792,0.1483719348907471,0,0,0,-1,-1,4823.314921,unknown,2,2022-06-30T09:48:43.599+02:00,2022-06-30T08:20:05.567+02:00,1383,1.400134,0,0,1092.013,0,0,2022-06-30T09:48:43.599+02:00
2022-06-30T09:48:44.511+02:00,4824.228295375,0.291534423828125,1.673812866210938,0.09539794921875,4824.218344375,2.062000188634435,2.988202560021853,-1.371988830976702,-3.926422357559204,4.340592861175537,2.070178270339966,0.2914640605449677,0.6412487626075745,-0.183234229683876,XArbitraryZVertical,-0.6867605557906886,0.354895290156818,-0.2737502315187212,0.5722500022861282,0.03017593920230865,0.9803028106689453,0.1951814591884613,0,0,0,-1,-1,4823.314921,unknown,2,2022-06-30T09:48:43.599+02:00,2022-06-30T08:20:05.567+02:00,1383,1.400134,0,0,1092.013,0,0,2022-06-30T09:48:43.599+02:00
2022-06-30T09:48:44.521+02:00,4824.238247375,0.2277069091796875,1.520523071289062,0.14923095703125,4824.228295375,1.986812246805726,2.957453148489864,-1.338825345207234,-2.10650897026062,4.232473850250244,2.277127504348755,0.2731828987598419,0.7282009720802307,-0.1776398569345474,XArbitraryZVertical,-0.6854195842375286,0.378424271272405,-0.2768624165363177,0.5570837671424081,0.04209419339895248,0.9732151627540588,0.226009875535965,0,0,0,-1,-1,4823.314921,unknown,2,2022-06-30T09:48:43.599+02:00,2022-06-30T08:20:05.567+02:00,1383,1.400134,0,0,1092.013,0,0,2022-06-30T09:48:43.599+02:00
2022-06-30T09:48:44.531+02:00,4824.248198375,0.1718597412109375,1.26806640625,0.26171875,4824.238247375,1.900605907165721,2.915286784426776,-1.322643006358323,-0.2965365052223206,4.100323677062988,2.475265502929688,0.2364235520362854,0.704445481300354,-0.1439548432826996,XArbitraryZVertical,-0.6782856441345628,0.3995057180254276,-0.2823143381660987,0.5482905814520121,0.05511092022061348,0.9693676233291626,0.2393524646759033,0,0,0,-1,-1,4823.314921,unknown,2,2022-06-30T09:48:43.599+02:00,2022-06-30T08:20:05.567+02:00,1383,1.400134,0,0,1092.013,0,0,2022-06-30T09:48:43.599+02:00
2022-06-30T09:48:44.541+02:00,4824.258150375001,0.16680908203125,0.92779541015625,0.447784423828125,4824.248198375,1.797409067923839,2.855387537577545,-1.320164126538196,0.9525547027587891,3.934850215911865,2.686158180236816,0.1576884090900421,0.5517674088478088,-0.08869743347167969,XArbitraryZVertical,-0.6662753117542617,0.4183792739806175,-0.2897225979671154,0.5450659404965338,0.07001855969429016,0.968755841255188,0.2379280179738998,0,0,0,-1,-1,4823.314921,unknown,2,2022-06-30T09:48:43.599+02:00,2022-06-30T08:20:05.567+02:00,1383,1.400134,0,0,1092.013,0,0,2022-06-30T09:48:43.599+02:00
2022-06-30T09:48:44.551+02:00,4824.268101375001,0.2025299072265625,0.5850067138671875,0.620391845703125,4824.258150375001,1.678293411532234,2.778290795281736,-1.323089963554587,1.302814126014709,3.738914012908936,2.811063528060913,0.08473163098096848,0.2985891699790955,0.03254054486751556,XArbitraryZVertical,-0.6515937535617209,0.4359065084568366,-0.2976211380679757,0.5448236276512921,0.08712818473577499,0.9694773554801941,0.2291778028011322,0,0,0,-1,-1,4823.314921,unknown,2,2022-06-30T09:48:43.599+02:00,2022-06-30T08:20:05.567+02:00,1383,1.400134,0,0,1092.013,0,0,2022-06-30T09:48:43.599+02:00
2022-06-30T09:48:44.561+02:00,4824.278053375,0.2489471435546875,0.4192352294921875,0.791168212890625,4824.268101375001,1.557606905010082,2.697102027359405,-1.323839504824466,0.9755617380142212,3.41769814491272,2.734412670135498,0.06169411540031433,-0.04186522960662842,0.2270830869674683,XArbitraryZVertical,-0.6368840400360302,0.4524701116001101,-0.3045761955920191,0.5448696578023835,0.105115033686161,0.9696608185768127,0.2207009643316269,0,0,0,-1,-1,4823.314921,unknown,2,2022-06-30T09:48:43.599+02:00,2022-06-30T08:20:05.567+02:00,1383,1.400134,0,0,1092.013,0,0,2022-06-30T09:48:43.599+02:00
2022-06-30T09:48:44.571+02:00,4824.288004375,0.2731170654296875,0.489837646484375,0.86688232421875,4824.278053375,1.452291933337127,2.627302022964752,-1.318762435488687,0.3966595530509949,3.055665016174316,2.515463590621948,0.07985825836658478,-0.3834003210067749,0.4032754004001617,XArbitraryZVertical,-0.6240461851301321,0.4681072597584847,-0.3095560125411321,0.5437068664664668,0.1226717680692673,0.9684072136878967,0.2171161025762558,0,0,0,-1,-1,4823.314921,unknown,2,2022-06-30T09:48:43.599+02:00,2022-06-30T08:20:05.567+02:00,1383,1.400134,0,0,1092.013,0,0,2022-06-30T09:48:43.599+02:00
2022-06-30T09:48:44.581+02:00,4824.297956375,0.3067474365234375,0.6888427734375,0.9153594970703125,4824.288004375,1.367865987021206,2.57458957547932,-1.308896499835233,0.09111208468675613,2.757689237594604,2.31782341003418,0.1098817735910416,-0.5466645956039429,0.5727684497833252,XArbitraryZVertical,-0.6132619237657736,0.4828141565887251,-0.3127599606864973,0.5412776554800179,0.1390654742717743,0.9658998250961304,0.21839939057827,0,0,0,-1,-1,4823.314921,unknown,2,2022-06-30T09:48:43.599+02:00,2022-06-30T08:20:05.567+02:00,1383,1.400134,0,0,1092.013,0,0,2022-06-30T09:48:43.599+02:00
2022-06-30T09:48:44.591+02:00,4824.307908375,0.3267364501953125,0.7762451171875,0.9693450927734375,4824.297956375,1.294174578250125,2.529675341163617,-1.297870571544212,0.2412416636943817,2.488863945007324,2.243914127349854,0.118277445435524,-0.4731487035751343,0.6462423801422119,XArbitraryZVertical,-0.6032450063332735,0.4964023514328799,-0.3150990489686291,0.5388810160961957,0.1548397541046143,0.9629864096641541,0.2206396609544754,0,0,0,-1,-1,4823.314921,unknown,2,2022-06-30T09:48:43.599+02:00,2022-06-30T08:20:05.567+02:00,1383,1.400134,0,0,1092.013,0,0,2022-06-30T09:48:43.599+02:00
2022-06-30T09:48:44.601+02:00,4824.317859375,0.3377227783203125,0.709808349609375,1.094955444335938,4824.307908375,1.219246579578192,2.481169207233402,-1.288771229195327,0.7117193937301636,2.242052793502808,2.21425986289978,0.13602314889431,-0.2716509699821472,0.695575475692749,XArbitraryZVertical,-0.5927019871654786,0.5085235630328283,-0.317470256463962,0.5378854995752601,0.1707243919372559,0.960493803024292,0.2197837233543396,0,0,0,-1,-1,4823.314921,unknown,2,2022-06-30T09:48:43.599+02:00,2022-06-30T08:20:05.567+02:00,1383,1.400134,0,0,1092.013,0,0,2022-06-30T09:48:43.599+02:00
2022-06-30T09:48:44.610+02:00,4824.327811375,0.3333740234375,0.5643157958984375,1.247589111328125,4824.317859375,1.138390870153338,2.424618266741288,-1.28256889238815,1.163263916969299,1.977855205535889,2.142310857772827,0.1399517059326172,-0.1825040578842163,0.755075216293335,XArbitraryZVertical,-0.5812236431202101,0.5189545307128497,-0.3203436114351652,0.5387441729719233,0.1867848932743073,0.9587492346763611,0.2142694592475891,0,0,0,-1,-1,4823.314921,unknown,2,2022-06-30T09:48:43.599+02:00,2022-06-30T08:20:05.567+02:00,1383,1.400134,0,0,1092.013,0,0,2022-06-30T09:48:43.599+02:00
2022-06-30T09:48:44.620+02:00,4824.337762375,0.31170654296875,0.4261932373046875,1.37518310546875,4824.327811375,1.055192327039489,2.363030325285783,-1.278246441534227,1.379966974258423,1.659991383552551,1.99487030506134,0.1351959705352783,-0.2477033138275146,0.889640212059021,XArbitraryZVertical,-0.5694512086814334,0.527619919276317,-0.3234615194397571,0.5410315447442892,0.2025269269943237,0.9575116038322449,0.2053149193525314,0,0,0,-1,-1,4823.314921,unknown,2,2022-06-30T09:48:43.599+02:00,2022-06-30T08:20:05.567+02:00,1383,1.400134,0,0,1092.013,0,0,2022-06-30T09:48:43.599+02:00
2022-06-30T09:48:44.630+02:00,4824.347714375001,0.276580810546875,0.3601226806640625,1.430328369140625,4824.337762375,0.9760792230617836,2.302235096381085,-1.274371775689603,1.359638214111328,1.334795713424683,1.786958694458008,0.1159872710704803,-0.3920711278915405,1.052481412887573,XArbitraryZVertical,-0.5582948329204889,0.534659295406084,-0.3263097585734885,0.5440296692891275,0.217386931180954,0.9563869833946228,0.1951073706150055,0,0,0,-1,-1,4823.314921,unknown,2,2022-06-30T09:48:43.599+02:00,2022-06-30T08:20:05.567+02:00,1383,1.400134,0,0,1092.013,0,0,2022-06-30T09:48:43.599+02:00
2022-06-30T09:48:44.641+02:00,4824.357665375001,0.2293701171875,0.3623809814453125,1.44708251953125,4824.347714375001,0.9059456341310556,2.246807407803038,-1.270202197777371,1.207236289978027,0.9980725049972534,1.569450497627258,0.08073604106903076,-0.5289674997329712,1.189924716949463,XArbitraryZVertical,-0.5484010878798246,0.5402641148451952,-0.3285145256710611,0.5472194875320145,0.2309706509113312,0.9551607370376587,0.1852581351995468,0,0,0,-1,-1,4823.314921,unknown,2,2022-06-30T09:48:43.599+02:00,2022-06-30T08:20:05.567+02:00,1383,1.400134,0,0,1092.013,0,0,2022-06-30T09:48:43.599+02:00
2022-06-30T09:48:44.650+02:00,4824.367617375,0.1968231201171875,0.358917236328125,1.43438720703125,4824.357665375001,0.8471684868888003,2.198829780825361,-1.265584290487096,1.001790642738342,0.6333288550376892,1.334271192550659,0.03342428803443909,-0.5936603546142578,1.253770232200623,XArbitraryZVertical,-0.5401287218661341,0.5445547555418221,-0.3298191131503804,0.5504003961744436,0.243156760931015,0.9537832736968994,0.1765578389167786,0,0,0,-1,-1,4823.314921,unknown,2,2022-06-30T09:48:43.599+02:00,2022-06-30T08:20:05.567+02:00,1383,1.400134,0,0,1092.013,0,0,2022-06-30T09:48:43.599+02:00
2022-06-30T09:48:44.660+02:00,4824.377569375,0.1888580322265625,0.3301239013671875,1.427169799804688,4824.367617375,0.7998437224452284,2.157978409948321,-1.261092307869549,0.8271914124488831,0.2179758101701736,1.075904130935669,-0.02435833215713501,-0.590042769908905,1.278230428695679,XArbitraryZVertical,-0.5336504827038929,0.5473966475963987,-0.3301968572509815,0.5536643678712154,0.2537285983562469,0.9524238109588623,0.1688518524169922,0,0,0,-1,-1,4823.314921,unknown,2,2022-06-30T09:48:43.599+02:00,2022-06-30T08:20:05.567+02:00,1383,1.400134,0,0,1092.013,0,0,2022-06-30T09:48:43.599+02:00
2022-06-30T09:48:44.670+02:00,4824.387520375,0.193450927734375,0.316162109375,1.44805908203125,4824.377569375,0.7620748444548411,2.121902105757524,-1.257530015464491,0.7321833968162537,-0.2493240088224411,0.799902617931366,-0.06571930646896362,-0.5924147367477417,1.27302098274231,XArbitraryZVertical,-0.5289651454081233,0.5485242521428851,-0.3297434528366788,0.5573028000461551,0.2625426054000854,0.9513320922851562,0.1613659560680389,0,0,0,-1,-1,4823.314921,unknown,2,2022-06-30T09:48:43.599+02:00,2022-06-30T08:20:05.567+02:00,1383,1.400134,0,0,1092.013,0,0,2022-06-30T09:48:43.599+02:00
2022-06-30T09:48:44.680+02:00,4824.397472375001,0.157867431640625,0.3343963623046875,1.483978271484375,4824.387520375,0.7320284374614653,2.08826428329571,-1.255454328565976,0.6378189921379089,-0.7664540410041809,0.5285107493400574,-0.08067789673805237,-0.6205664873123169,1.273748278617859,XArbitraryZVertical,-0.5260720201460894,0.5476849645717591,-0.3284866141807572,0.5615923150255315,0.2695361077785492,0.9506903886795044,0.1534211784601212,0,0,0,-1,-1,4823.314921,unknown,2,2022-06-30T09:48:43.599+02:00,2022-06-30T08:20:05.567+02:00,1383,1.400134,0,0,1092.013,0,0,2022-06-30T09:48:43.599+02:00
2022-06-30T09:48:44.690+02:00,4824.407423375001,0.1210784912109375,0.3421478271484375,1.483932495117188,4824.397472375001,0.7094409983809257,2.056504921417402,-1.255124281335825,0.5634366273880005,-1.303992629051208,0.2182894647121429,-0.08109861612319946,-0.6344257593154907,1.30312705039978,XArbitraryZVertical,-0.5250682143341138,0.5447652478067773,-0.3263862613480638,0.5665741632564586,0.2745497226715088,0.9505879282951355,0.1449316143989563,0,0,0,-1,-1,4823.314921,unknown,2,2022-06-30T09:48:43.599+02:00,2022-06-30T08:20:05.567+02:00,1383,1.400134,0,0,1092.013,0,0,2022-06-30T09:48:43.599+02:00
2022-06-30T09:48:44.700+02:00,4824.417375375,0.097412109375,0.3190460205078125,1.427444458007812,4824.407423375001,0.6922225115382645,2.024423758491154,-1.257251960109637,0.5846295356750488,-1.850585579872131,-0.0962291806936264,-0.1193706393241882,-0.6168500781059265,1.348814129829407,XArbitraryZVertical,-0.5258544534091131,0.5394988378805288,-0.3236619948493494,0.5724167652743705,0.2772381603717804,0.9512463212013245,0.1351637989282608,0,0,0,-1,-1,4823.314921,unknown,2,2022-06-30T09:48:43.599+02:00,2022-06-30T08:20:05.567+02:00,1383,1.400134,0,0,1092.013,0,0,2022-06-30T09:48:43.599+02:00
2022-06-30T09:48:44.710+02:00,4824.427326375,0.0609130859375,0.3051910400390625,1.343719482421875,4824.417375375,0.6763077017951034,1.988050360033942,-1.262465322622371,0.7457787394523621,-2.414981603622437,-0.425628662109375,-0.1563546359539032,-0.6106933355331421,1.360950708389282,XArbitraryZVertical,-0.528083805569721,0.5316184921746747,-0.3206108838190767,0.5794118557890949,0.2774332761764526,0.9528414011001587,0.1229814514517784,0,0,0,-1,-1,4823.314921,unknown,2,2022-06-30T09:48:43.599+02:00,2022-06-30T08:20:05.567+02:00,1383,1.400134,0,0,1092.013,0,0,2022-06-30T09:48:43.599+02:00
2022-06-30T09:48:44.720+02:00,4824.437278375,0.0096588134765625,0.303924560546875,1.291717529296875,4824.427326375,0.6577867825445711,1.943439888305511,-1.271088923826516,0.9335890412330627,-3.004832983016968,-0.7278997898101807,-0.1775659322738647,-0.6363767981529236,1.319953083992004,XArbitraryZVertical,-0.5314520743925372,0.5208687144855566,-0.3173950478467258,0.5878052279381266,0.2749781906604767,0.9554229378700256,0.1074910536408424,0,0,0,-1,-1,4823.314921,unknown,2,2022-06-30T09:48:43.599+02:00,2022-06-30T08:20:05.567+02:00,1383,1.400134,0,0,1092.013,0,0,2022-06-30T09:48:43.599+02:00
2022-06-30T09:48:44.730+02:00,4824.447229375,-0.0487060546875,0.325897216796875,1.21258544921875,4824.437278375,0.6360241475182153,1.889607835195979,-1.282578958648779,1.017521977424622,-3.631456136703491,-1.002722859382629,-0.209007054567337,-0.653560996055603,1.254626274108887,XArbitraryZVertical,-0.5359761902595346,0.5072237572812103,-0.3136840034021432,0.5975416019193621,0.269920289516449,0.9587520956993103,0.08909283578395844,0,0,0,-1,-1,4823.314921,unknown,2,2022-06-30T09:48:43.599+02:00,2022-06-30T08:20:05.567+02:00,1383,1.400134,0,0,1092.013,0,0,2022-06-30T09:48:43.599+02:00
2022-06-30T09:48:44.740+02:00,4824.457181375,-0.1083831787109375,0.392303466796875,1.066146850585938,4824.447229375,0.6126039606561019,1.827780116494389,-1.296309291094042,1.012864351272583,-4.274091720581055,-1.259289264678955,-0.2524934411048889,-0.6586397886276245,1.222824931144714,XArbitraryZVertical,-0.5418676249118184,0.4907398192557111,-0.3090272284999486,0.6083224039014045,0.2621523439884186,0.9625643491744995,0.06889218837022781,0,0,0,-1,-1,4823.314921,unknown,2,2022-06-30T09:48:43.599+02:00,2022-06-30T08:20:05.567+02:00,1383,1.400134,0,0,1092.013,0,0,2022-06-30T09:48:43.599+02:00
2022-06-30T09:48:44.750+02:00,4824.467133375,-0.16400146484375,0.471710205078125,0.9195709228515625,4824.457181375,0.5869162631648822,1.757159947085756,-1.312167584927222,1.008271455764771,-4.936209201812744,-1.536903619766235,-0.3000325560569763,-0.6408444046974182,1.165197014808655,XArbitraryZVertical,-0.5491495162436165,0.4713054420637148,-0.3032445490632561,0.6199586456933789,0.2513265609741211,0.9667416214942932,0.04738802090287209,0,0,0,-1,-1,4823.314921,unknown,2,2022-06-30T09:48:43.599+02:00,2022-06-30T08:20:05.567+02:00,1383,1.400134,0,0,1092.013,0,0,2022-06-30T09:48:43.599+02:00
2022-06-30T09:48:44.760+02:00,4824.477084375,-0.191986083984375,0.51348876953125,0.7747650146484375,4824.467133375,0.5562819071899774,1.67515684071312,-1.330207886578012,1.024590253829956,-5.577558517456055,-1.815138101577759,-0.3453606963157654,-0.5788945555686951,1.041325211524963,XArbitraryZVertical,-0.5576832384300863,0.4487761599018267,-0.2963366330425919,0.6322767584529296,0.2369775176048279,0.9711979031562805,0.02482127211987972,0,0,0,-1,-1,4823.314921,unknown,2,2022-06-30T09:48:43.599+02:00,2022-06-30T08:20:05.567+02:00,1383,1.400134,0,0,1092.013,0,0,2022-06-30T09:48:43.599+02:00
2022-06-30T09:48:44.770+02:00,4824.487036375001,-0.198394775390625,0.468780517578125,0.692626953125,4824.477084375,0.5169163579174584,1.578297536040938,-1.350066674328649,0.975576639175415,-6.181807041168213,-2.050765991210938,-0.3829374015331268,-0.5040277242660522,0.9179282188415527,XArbitraryZVertical,-0.567226258065187,0.4231731676105894,-0.2882465055611857,0.6450526344247524,0.2189359664916992,0.9757379293441772,0.001642315299250185,0,0,0,-1,-1,4823.314921,unknown,2,2022-06-30T09:48:43.599+02:00,2022-06-30T08:20:05.567+02:00,1383,1.400134,0,0,1092.013,0,0,2022-06-30T09:48:43.599+02:00
2022-06-30T09:48:44.780+02:00,4824.496987375001,-0.2472381591796875,0.366058349609375,0.6454620361328125,4824.487036375001,0.4698225518099173,1.467807264766939,-1.370933616945812,0.7825883030891418,-6.75636625289917,-2.210207223892212,-0.3894692063331604,-0.4666050672531128,0.7951754331588745,XArbitraryZVertical,-0.5778404703600968,0.3948353834975755,-0.2785473418660969,0.6577361658119671,0.197483167052269,0.9800938367843628,-0.02041082084178925,0,0,0,-1,-1,4823.314921,unknown,2,2022-06-30T09:48:43.599+02:00,2022-06-30T08:20:05.567+02:00,1383,1.400134,0,0,1092.013,0,0,2022-06-30T09:48:43.599+02:00
2022-06-30T09:48:44.790+02:00,4824.506939375,-0.4228668212890625,0.24755859375,0.5133209228515625,4824.496987375001,0.4195058246578507,1.348417530494182,-1.392305242873265,0.3679333627223969,-7.298933982849121,-2.331861734390259,-0.3715677857398987,-0.5153322219848633,0.7317842245101929,XArbitraryZVertical,-0.589721691199577,0.3642108158887959,-0.2667457553796911,0.6696458233174051,0.1731729805469513,0.9841127395629883,-0.03915761783719063,0,0,0,-1,-1,4823.314921,unknown,2,2022-06-30T09:48:43.599+02:00,2022-06-30T08:20:05.567+02:00,1383,1.400134,0,0,1092.013,0,0,2022-06-30T09:48:43.599+02:00
2022-06-30T09:48:44.800+02:00,4824.516890375,-0.6551971435546875,0.18096923828125,0.2309112548828125,4824.506939375,0.3717175869662501,1.226687759786385,-1.415391345542696,-0.1223911419510841,-7.668383598327637,-2.573300361633301,-0.392944872379303,-0.6218905448913574,0.6976779699325562,XArbitraryZVertical,-0.6032608358112156,0.331614514934537,-0.2529259586005936,0.6798063473272833,0.1457066535949707,0.9879489541053772,-0.05221635475754738,0,0,0,-1,-1,4823.314921,unknown,2,2022-06-30T09:48:43.599+02:00,2022-06-30T08:20:05.567+02:00,1383,1.400134,0,0,1092.013,0,0,2022-06-30T09:48:43.599+02:00
2022-06-30T09:48:44.810+02:00,4824.526842375,-0.8892974853515625,0.3285369873046875,-0.144317626953125,4824.516890375,0.315167650390598,1.093322844712441,-1.441325619002167,-0.43571737408638,-7.843475818634033,-2.826187133789062,-0.5375367999076843,-0.7440717816352844,0.572651207447052,XArbitraryZVertical,-0.6180260443480674,0.2972852135239886,-0.2380518452739659,0.6877475388214019,0.1146698668599129,0.9916303753852844,-0.05933061987161636,0,0,0,-1,-1,4823.314921,unknown,2,2022-06-30T09:48:43.599+02:00,2022-06-30T08:20:05.567+02:00,1383,1.400134,0,0,1092.013,0,0,2022-06-30T09:48:43.599+02:00
2022-06-30T09:48:44.820+02:00,4824.536793375,-1.101577758789062,0.7724151611328125,-0.808837890625,4824.526842375,0.2146709442999922,0.9168146717744922,-1.468484500985921,-0.5029599070549011,-7.491049766540527,-3.027132034301758,-0.7362582683563232,-0.8138013482093811,0.2930446863174438,XArbitraryZVertical,-0.6325843182391628,0.262240725310684,-0.2234769337028828,0.6936318032435298,0.08106100559234619,0.9947707056999207,-0.06213376298546791,0,0,0,-1,-1,4823.314921,unknown,2,2022-06-30T09:48:43.599+02:00,2022-06-30T08:20:05.567+02:00,1383,1.400134,0,0,1092.013,0,0,2022-06-30T09:48:43.599+02:00
2022-06-30T09:48:44.829+02:00,4824.546745375001,-1.150161743164062,1.2840576171875,-1.553466796875,4824.536793375,-0.007007188372048741,0.625213767965846,-1.493311890523544,-0.195320338010788,-6.710608005523682,-3.296048641204834,-0.9346014857292175,-0.6684626340866089,-0.08155374974012375,XArbitraryZVertical,-0.6454766219971794,0.2279864274239452,-0.2113233624657115,0.6976564565736101,0.045303825289011,0.9969995617866516,-0.0627642422914505,0,0,0,-1,-1,4823.314921,unknown,2,2022-06-30T09:48:43.599+02:00,2022-06-30T08:20:05.567+02:00,1383,1.400134,0,0,1092.013,0,0,2022-06-30T09:48:43.599+02:00
2022-06-30T09:48:44.839+02:00,4824.556697375,-1.064926147460938,1.627883911132812,-1.982101440429688,4824.546745375001,-0.4635802565650894,0.1068974138251462,-1.50389514180998,0.6620486378669739,-5.947646141052246,-3.551226854324341,-1.108710527420044,-0.2253478169441223,-0.7423686385154724,XArbitraryZVertical,-0.6548825553673548,0.1946638910089533,-0.2030543340883432,0.7014297825141146,0.00713261915370822,0.9977629780769348,-0.06646961718797684,0,0,0,-1,-1,4823.314921,unknown,2,2022-06-30T09:48:43.599+02:00,2022-06-30T08:20:05.567+02:00,1383,1.400134,0,0,1092.013,0,0,2022-06-30T09:48:43.599+02:00
2022-06-30T09:48:44.849+02:00,4824.566648375,-2.430557250976562,1.70135498046875,-3.3148193359375,4824.556697375,-0.91046578064612,-0.3950212495934686,-1.48677204130034,1.728933811187744,-5.436708450317383,-3.546175956726074,-1.117865085601807,0.2875855565071106,-1.476004838943481,XArbitraryZVertical,-0.6595568824949491,0.1620295945750771,-0.1981052599835553,0.7067428382035056,-0.03229686245322227,0.9964720606803894,-0.07746225595474243,0,0,0,-1,-1,4823.314921,unknown,2,2022-06-30T09:48:43.599+02:00,2022-06-30T08:20:05.567+02:00,1383,1.400134,0,0,1092.013,0,0,2022-06-30T09:48:43.599+02:00
2022-06-30T09:48:44.859+02:00,4824.576600375,-1.709152221679688,2.716995239257812,-7.631240844726562,4824.566648375,-1.086876303292735,-0.5898597573899598,-1.449244081028568,2.530003786087036,1.88159966468811,-2.67485523223877,-0.9974793195724487,0.6352623105049133,-1.88133716583252,XArbitraryZVertical,-0.6554001979618593,0.1416625805087736,-0.2055325407009903,0.7128385678012312,-0.06744703650474548,0.9926216006278992,-0.100764587521553,0,0,0,-1,-1,4823.314921,unknown,2,2022-06-30T09:48:43.599+02:00,2022-06-30T08:20:05.567+02:00,1383,1.400134,0,0,1092.013,0,0,2022-06-30T09:48:43.599+02:00
2022-06-30T09:48:44.869+02:00,4824.586551375,-0.2302703857421875,1.69989013671875,-4.561676025390625,4824.576600375,-1.135986041847052,-0.6231469671634141,-1.421956063690437,2.065019845962524,0.03264970332384109,-2.218979120254517,-2.344015121459961,0.7124113440513611,-3.194399833679199,XArbitraryZVertical,-0.6485786001616261,0.1383322593294805,-0.2193459279000227,0.7156098629187508,-0.08654229342937469,0.9889436960220337,-0.1204199716448784,0,0,0,-1,-1,4823.314921,unknown,2,2022-06-30T09:48:43.599+02:00,2022-06-30T08:20:05.567+02:00,1383,1.400134,0,0,1092.013,0,0,2022-06-30T09:48:43.599+02:00
2022-06-30T09:48:44.879+02:00,4824.596503375,-0.4468231201171875,0.8285675048828125,-2.043426513671875,4824.586551375,-1.20525752671106,-0.7056507651751834,-1.392646105360406,0.7844143509864807,-2.117601156234741,-2.862199783325195,-1.594227075576782,1.732821941375732,-7.49635124206543,XArbitraryZVertical,-0.6461329814835969,0.1227487953283154,-0.2254777910560621,0.7187521351132956,-0.114925354719162,0.9841731786727905,-0.1348898112773895,0,0,0,-1,-1,4823.314921,unknown,2,2022-06-30T09:48:43.599+02:00,2022-06-30T08:20:05.567+02:00,1383,1.400134,0,0,1092.013,0,0,2022-06-30T09:48:43.599+02:00
2022-06-30T09:48:44.889+02:00,4824.606454375,-0.4036865234375,1.181121826171875,-1.229629516601562,4824.596503375,-1.308712459886879,-0.8240934814665468,-1.376243957289656,-0.9608504176139832,-1.293631076812744,-2.214719533920288,-0.08838149905204773,0.7187557220458984,-4.43036413192749,XArbitraryZVertical,-0.6500148344375269,0.1087410747545193,-0.2289885973229135,0.7163939385444112,-0.1418890804052353,0.981134295463562,-0.1313121914863586,0,0,0,-1,-1,4823.314921,unknown,2,2022-06-30T09:48:43.599+02:00,2022-06-30T08:20:05.567+02:00,1383,1.400134,0,0,1092.013,0,0,2022-06-30T09:48:43.599+02:00
2022-06-30T09:48:44.899+02:00,4824.616406375,-0.8852691650390625,2.434967041015625,-1.710601806640625,4824.606454375,-1.440679466654586,-0.9620309092383781,-1.36806683161639,-2.068232774734497,-0.4196199774742126,-2.359880447387695,-0.2816500663757324,-0.1509532332420349,-1.928287386894226,XArbitraryZVertical,-0.6575895557138464,0.100031306462835,-0.2334819075791872,0.7092643519892946,-0.1651732474565506,0.9795206785202026,-0.1151394248008728,0,0,0,-1,-1,4823.314921,unknown,2,2022-06-30T09:48:43.599+02:00,2022-06-30T08:20:05.567+02:00,1383,1.400134,0,0,1092.013,0,0,2022-06-30T09:48:43.599+02:00
2022-06-30T09:48:44.909+02:00,4824.626357375,-1.274642944335938,2.635757446289062,-2.113510131835938,4824.616406375,-1.59530364993239,-1.113478257979729,-1.359873362788689,-2.393982887268066,0.3617445528507233,-2.241774797439575,-0.2158379852771759,0.2032837271690369,-1.137187004089355,XArbitraryZVertical,-0.6668882017039478,0.09507223094177725,-0.2404689837671403,0.6988534579660678,-0.1878487467765808,0.9778380990028381,-0.09244279563426971,0,0,0,-1,-1,4823.314921,unknown,2,2022-06-30T09:48:43.599+02:00,2022-06-30T08:20:05.567+02:00,1383,1.400134,0,0,1092.013,0,0,2022-06-30T09:48:43.599+02:00
2022-06-30T09:48:44.919+02:00,4824.636309375001,-1.535064697265625,2.398330688476562,-1.999374389648438,4824.626357375,-1.710875981289012,-1.221454470307105,-1.346425450156889,-0.973685622215271,0.557960033416748,-2.251705884933472,-0.6762151122093201,1.46003270149231,-1.634447336196899,XArbitraryZVertical,-0.6734600918631279,0.09150993143480954,-0.2489658226902282,0.6899952915363748,-0.209054246544838,0.9749342799186707,-0.07615487277507782,0,0,0,-1,-1,4823.314921,unknown,2,2022-06-30T09:48:43.599+02:00,2022-06-30T08:20:05.567+02:00,1383,1.400134,0,0,1092.013,0,0,2022-06-30T09:48:43.599+02:00
2022-06-30T09:48:44.929+02:00,4824.646261375,-1.728378295898438,2.162185668945312,-1.630035400390625,4824.636309375001,-1.741887863265058,-1.247202888684495,-1.324210089768408,1.03572952747345,0.3324978947639465,-2.40484619140625,-1.043216943740845,1.666006088256836,-2.035894155502319,XArbitraryZVertical,-0.6737583428751794,0.08509749416118097,-0.2585135609121846,0.6870071815179265,-0.2314261645078659,0.9697513580322266,-0.07761622220277786,0,0,0,-1,-1,4823.314921,unknown,2,2022-06-30T09:48:43.599+02:00,2022-06-30T08:20:05.567+02:00,1383,1.400134,0,0,1092.013,0,0,2022-06-30T09:48:43.599+02:00
2022-06-30T09:48:44.942+02:00,4824.656212375,-1.819717407226562,2.122390747070312,-0.941131591796875,4824.646261375,-1.708663844433261,-1.211941558090478,-1.296018695287779,2.406518697738647,0.3700034320354462,-2.28040075302124,-1.281015872955322,1.435845136642456,-1.904082059860229,XArbitraryZVertical,-0.6682728957711914,0.07592739292470811,-0.2684327539742541,0.6896305123093283,-0.2540489733219147,0.9624855518341064,-0.09529273211956024,0,0,0,-1,-1,4823.314921,unknown,2,2022-06-30T09:48:43.599+02:00,2022-06-30T08:20:05.567+02:00,1383,1.400134,0,0,1092.013,0,0,2022-06-30T09:48:43.599+02:00
2022-06-30T09:48:44.952+02:00,4824.666164375,-1.980911254882812,2.683837890625,-0.5355377197265625,4824.656212375,-1.639737919841767,-1.141155855217206,-1.265313878397323,3.529201984405518,0.654141366481781,-1.63569188117981,-1.45495879650116,1.208483695983887,-1.504758596420288,XArbitraryZVertical,-0.6579726618348599,0.06658413835216577,-0.2782642258226954,0.6965684528804469,-0.2734196782112122,0.9537019729614258,-0.1252770572900772,0,0,0,-1,-1,4823.314921,unknown,2,2022-06-30T09:48:43.599+02:00,2022-06-30T08:20:05.567+02:00,1383,1.400134,0,0,1092.013,0,0,2022-06-30T09:48:43.599+02:00
2022-06-30T09:48:44.959+02:00,4824.676115375,-2.163681030273438,3.30267333984375,-0.8113250732421875,4824.666164375,-1.548764791193601,-1.044900283350648,-1.236609202431546,4.200743675231934,1.399685859680176,-0.8032594919204712,-1.53603732585907,1.177713394165039,-0.7764789462089539,XArbitraryZVertical,-0.6434300272026827,0.06059141370889184,-0.2870277015566059,0.7070655542514293,-0.2836802899837494,0.9446772336959839,-0.1646529585123062,0,0,0,-1,-1,4823.314921,unknown,2,2022-06-30T09:48:43.599+02:00,2022-06-30T08:20:05.567+02:00,1383,1.400134,0,0,1092.013,0,0,2022-06-30T09:48:43.599+02:00
2022-06-30T09:48:44.969+02:00,4824.686067375001,-2.128143310546875,3.588211059570312,-1.28515625,4824.676115375,-1.445429322333876,-0.9298169442710932,-1.204701671082733,5.325711250305176,2.203519344329834,-0.6618272662162781,-1.693993330001831,1.750105381011963,-0.3214778304100037,XArbitraryZVertical,-0.6241940880909176,0.05789332435438252,-0.2966505474757302,0.7204364070579031,-0.2869181334972382,0.9337324500083923,-0.2140602022409439,0,0,0,-1,-1,4823.314921,unknown,2,2022-06-30T09:48:43.599+02:00,2022-06-30T08:20:05.567+02:00,1383,1.400134,0,0,1092.013,0,0,2022-06-30T09:48:43.599+02:00
2022-06-30T09:48:44.979+02:00,4824.696018375001,-1.908462524414062,3.310317993164062,-1.427947998046875,4824.686067375001,-1.336021818394419,-0.803435050754834,-1.160111590274267,6.809295654296875,2.821942567825317,-0.7217052578926086,-1.87633216381073,2.385825634002686,-0.5341595411300659,XArbitraryZVertical,-0.5985924983475355,0.05571435300680879,-0.3086276020544209,0.7371105498065715,-0.2873490452766418,0.9168476462364197,-0.2771658599376678,0,0,0,-1,-1,4823.314921,unknown,2,2022-06-30T09:48:43.599+02:00,2022-06-30T08:20:05.567+02:00,1383,1.400134,0,0,1092.013,0,0,2022-06-30T09:48:43.599+02:00
2022-06-30T09:48:44.989+02:00,4824.705970375,-1.814315795898438,2.639450073242188,-1.302932739257812,4824.696018375001,-1.230913908414584,-0.6781948473126196,-1.101858785643283,7.75078296661377,3.183644533157349,-0.4943501353263855,-1.844602346420288,2.69616174697876,-0.9332289695739746,XArbitraryZVertical,-0.5667129231792162,0.05359724393656869,-0.3217198452860419,0.7566109125160034,-0.2835410833358765,0.8920489549636841,-0.3519276082515717,0,0,0,-1,-1,4823.314921,unknown,2,2022-06-30T09:48:43.599+02:00,2022-06-30T08:20:05.567+02:00,1383,1.400134,0,0,1092.013,0,0,2022-06-30T09:48:43.599+02:00
2022-06-30T09:48:44.999+02:00,4824.715922375,-1.884902954101562,2.094467163085938,-1.12249755859375,4824.705970375,-1.144205552369831,-0.570095170994429,-1.037154267373368,7.542004585266113,3.216451644897461,-0.3231181502342224,-1.633925914764404,2.449357748031616,-0.9997225403785706,XArbitraryZVertical,-0.5321325917503015,0.05217295652665693,-0.3340633153453057,0.7762182216228801,-0.2745367586612701,0.8609601855278015,-0.4282257854938507,0,0,0,-1,-1,4823.314921,unknown,2,2022-06-30T09:48:43.599+02:00,2022-06-30T08:20:05.567+02:00,1383,1.400134,0,0,1092.013,0,0,2022-06-30T09:48:43.599+02:00
2022-06-30T09:48:45.009+02:00,4824.725873375,-1.965164184570312,1.86260986328125,-0.9007415771484375,4824.715922375,-1.083706946050176,-0.4870754625714764,-0.9752551250400394,6.380327224731445,3.208403825759888,-0.3320676982402802,-1.551763653755188,1.811604857444763,-0.8072122931480408,XArbitraryZVertical,-0.4994366860211685,0.05198658350117177,-0.3453742800307422,0.7928285944149317,-0.2625522613525391,0.82784503698349,-0.495720773935318,0,0,0,-1,-1,4823.314921,unknown,2,2022-06-30T09:48:43.599+02:00,2022-06-30T08:20:05.567+02:00,1383,1.400134,0,0,1092.013,0,0,2022-06-30T09:48:43.599+02:00
2022-06-30T09:48:45.020+02:00,4824.735825375,-2.03521728515625,1.898529052734375,-0.656494140625,4824.725873375,-1.046373399213704,-0.423944305356688,-0.9243278160324362,4.695830345153809,3.406628370285034,-0.2189353257417679,-1.637112379074097,1.296250820159912,-0.5734522342681885,XArbitraryZVertical,-0.4716865447302435,0.0546718432321224,-0.355955075020143,0.8048720146979356,-0.2477907687425613,0.7982160449028015,-0.5490455627441406,0,0,0,-1,-1,4823.314921,unknown,2,2022-06-30T09:48:43.599+02:00,2022-06-30T08:20:05.567+02:00,1383,1.400134,0,0,1092.013,0,0,2022-06-30T09:48:43.599+02:00
2022-06-30T09:48:45.030+02:00,4824.745776375,-2.07928466796875,2.087127685546875,-0.43963623046875,4824.735825375,-1.023045866552669,-0.3698159422548033,-0.8883297250650615,3.134654521942139,3.798200607299805,0.1032006293535233,-1.737198352813721,1.08659029006958,-0.3126725554466248,XArbitraryZVertical,-0.449580407742822,0.06199052194061815,-0.3655829274332558,0.8126399720573444,-0.2279658913612366,0.7760193943977356,-0.5880692601203918,0,0,0,-1,-1,4823.314921,unknown,2,2022-06-30T09:48:43.599+02:00,2022-06-30T08:20:05.567+02:00,1383,1.400134,0,0,1092.013,0,0,2022-06-30T09:48:43.599+02:00
2022-06-30T09:48:45.039+02:00,4824.755728375,-2.080184936523438,2.264312744140625,-0.260284423828125,4824.745776375,-1.005506735569043,-0.3163822107869823,-0.86458790162503,2.230378389358521,4.238427639007568,0.3909456729888916,-1.833308100700378,1.137700915336609,-0.03974997997283936,XArbitraryZVertical,-0.4314516925579349,0.0740081804033994,-0.3742191737954149,0.8175160132565015,-0.2019092440605164,0.760827898979187,-0.6167444586753845,0,0,0,-1,-1,4823.314921,unknown,2,2022-06-30T09:48:43.599+02:00,2022-06-30T08:20:05.567+02:00,1383,1.400134,0,0,1092.013,0,0,2022-06-30T09:48:43.599+02:00
2022-06-30T09:48:45.048+02:00,4824.765679375,-2.0037841796875,2.287689208984375,-0.036529541015625,4824.755728375,-0.9896182062845014,-0.260116343866226,-0.8451579660834856,2.189402341842651,4.646698951721191,0.5010351538658142,-1.908608078956604,1.339051485061646,0.2016527652740479,XArbitraryZVertical,-0.4140448171735707,0.08900697118445565,-0.3826252180457143,0.8211228569423802,-0.170676663517952,0.7480759620666504,-0.6412892937660217,0,0,0,-1,-1,4823.314921,unknown,2,2022-06-30T09:48:43.599+02:00,2022-06-30T08:20:05.567+02:00,1383,1.400134,0,0,1092.013,0,0,2022-06-30T09:48:43.599+02:00
2022-06-30T09:48:45.058+02:00,4824.775631375001,-1.926589965820312,2.168975830078125,0.1588592529296875,4824.765679375,-0.9735643722404608,-0.2002681003432793,-0.8233158678246097,2.614845752716064,4.989222049713135,0.6206972599029541,-1.944952368736267,1.530908584594727,0.4059215784072876,XArbitraryZVertical,-0.3947360691837918,0.1052629228651815,-0.3912040783519004,0.8246591112980977,-0.1352326571941376,0.7334039807319641,-0.6662063002586365,0,0,0,-1,-1,4823.314921,unknown,2,2022-06-30T09:48:43.599+02:00,2022-06-30T08:20:05.567+02:00,1383,1.400134,0,0,1092.013,0,0,2022-06-30T09:48:43.599+02:00
2022-06-30T09:48:45.068+02:00,4824.785582375001,-1.895904541015625,2.01702880859375,0.289459228515625,4824.775631375001,-0.9567461781236098,-0.1368166150208828,-0.796038511622278,3.172934532165527,5.310024261474609,0.769980251789093,-1.908373355865479,1.573098421096802,0.6564761996269226,XArbitraryZVertical,-0.3722856241322903,0.1220672185645888,-0.3998389210551432,0.8286326194080754,-0.09541080892086029,0.7145904898643494,-0.6930060386657715,0,0,0,-1,-1,4823.314921,unknown,2,2022-06-30T09:48:43.599+02:00,2022-06-30T08:20:05.567+02:00,1383,1.400134,0,0,1092.013,0,0,2022-06-30T09:48:43.599+02:00
2022-06-30T09:48:45.078+02:00,4824.795533250001,-1.909774780273438,1.856658935546875,0.344879150390625,4824.785582375001,-0.9400196019050893,-0.07076224533478907,-0.7632773813814411,3.58469557762146,5.606622695922852,0.9393693208694458,-1.87550163269043,1.477682113647461,0.8796249032020569,XArbitraryZVertical,-0.3467158158497531,0.1393025213393869,-0.4083026647546564,0.8328695969934605,-0.05108831450343132,0.6912932991981506,-0.7207658886909485,0,0,0,-1,-1,4823.314921,unknown,2,2022-06-30T09:48:43.599+02:00,2022-06-30T08:20:05.567+02:00,1383,1.400134,0,0,1092.013,0,0,2022-06-30T09:48:43.599+02:00
2022-06-30T09:48:45.088+02:00,4824.80548525,-1.926956176757812,1.689422607421875,0.436553955078125,4824.795533250001,-0.9242578028474696,-0.002756489256608032,-0.7270483882346338,3.746007204055786,5.914652347564697,1.130271434783936,-1.893845081329346,1.35236120223999,1.036595582962036,XArbitraryZVertical,-0.3188469120220527,0.1573794558376666,-0.416278813801539,0.836827614243144,-0.002059479476884007,0.6646672487258911,-0.7471367120742798,0,0,0,-1,-1,4823.314921,unknown,2,2022-06-30T09:48:43.599+02:00,2022-06-30T08:20:05.567+02:00,1383,1.400134,0,0,1092.013,0,0,2022-06-30T09:48:43.599+02:00
2022-06-30T09:48:45.098+02:00,4824.81543625,-1.899520874023438,1.515365600585938,0.5429840087890625,4824.80548525,-0.9095006760609077,0.06726109899376574,-0.6897479583899788,3.629408121109009,6.232234477996826,1.369988679885864,-1.961621284484863,1.22031581401825,1.114541053771973,XArbitraryZVertical,-0.2896482978205489,0.1768411255965371,-0.4233534227460698,0.8400018021390816,0.05184653028845787,0.6363427639007568,-0.7696621417999268,0,0,0,-1,-1,4823.314921,unknown,2,2022-06-30T09:48:43.599+02:00,2022-06-30T08:20:05.567+02:00,1383,1.400134,0,0,1092.013,0,0,2022-06-30T09:48:43.599+02:00
2022-06-30T09:48:45.108+02:00,4824.82538825,-1.84661865234375,1.370803833007812,0.5922088623046875,4824.81543625,-0.895068657808297,0.139736631908243,-0.6537044598726438,3.332297325134277,6.528398990631104,1.636521816253662,-2.037523508071899,1.08129096031189,1.222652435302734,XArbitraryZVertical,-0.2601268822697191,0.1982035550435427,-0.4290401384597827,0.8420059122088218,0.1105673834681511,0.6081312894821167,-0.7860987186431885,0,0,0,-1,-1,4823.314921,unknown,2,2022-06-30T09:48:43.599+02:00,2022-06-30T08:20:05.567+02:00,1383,1.400134,0,0,1092.013,0,0,2022-06-30T09:48:43.599+02:00
2022-06-30T09:48:45.118+02:00,4824.83533925,-1.8076171875,1.314132690429688,0.6404266357421875,4824.82538825,-0.880450245259335,0.2146942719877736,-0.6193893691764321,3.028451442718506,6.781213283538818,1.910552859306335,-2.072992086410522,0.9348272085189819,1.338523387908936,XArbitraryZVertical,-0.2306375987096342,0.2214418502968278,-0.4330736808351948,0.8427437693323097,0.1734713315963745,0.5805380940437317,-0.7955396175384521,0,0,0,-1,-1,4823.314921,unknown,2,2022-06-30T09:48:43.599+02:00,2022-06-30T08:20:05.567+02:00,1383,1.400134,0,0,1092.013,0,0,2022-06-30T09:48:43.599+02:00
2022-06-30T09:48:45.128+02:00,4824.845291250001,-1.7877197265625,1.369338989257812,0.6255035400390625,4824.83533925,-0.8653745973416124,0.2917732543081144,-0.5860808653476697,2.867127656936646,6.999867916107178,2.17667555809021,-2.086264848709106,0.8177033066749573,1.390112042427063,XArbitraryZVertical,-0.2011008379139152,0.2461843385212323,-0.4352945862768712,0.8423007433602466,0.2396462857723236,0.5531001687049866,-0.7979034781455994,0,0,0,-1,-1,4823.314921,unknown,2,2022-06-30T09:48:43.599+02:00,2022-06-30T08:20:05.567+02:00,1383,1.400134,0,0,1092.013,0,0,2022-06-30T09:48:43.599+02:00
2022-06-30T09:48:45.138+02:00,4824.855242250001,-1.756515502929688,1.491912841796875,0.6160125732421875,4824.845291250001,-0.8512576346643609,0.3702252560174875,-0.5509923864628471,3.075087070465088,7.24582576751709,2.386114835739136,-2.115894317626953,0.7905992865562439,1.434705018997192,XArbitraryZVertical,-0.1703912172944845,0.2717123126901935,-0.436136400263189,0.8407878933821855,0.3082772195339203,0.5235329866409302,-0.7942785024642944,0,0,0,-1,-1,4823.314921,unknown,2,2022-06-30T09:48:43.599+02:00,2022-06-30T08:20:05.567+02:00,1383,1.400134,0,0,1092.013,0,0,2022-06-30T09:48:43.599+02:00
2022-06-30T09:48:45.148+02:00,4824.86519425,-1.680511474609375,1.47723388671875,0.6194915771484375,4824.855242250001,-0.8400730596605659,0.4490231831416179,-0.5107792507773468,3.559453725814819,7.445343494415283,2.616833686828613,-2.16640043258667,0.8804814219474792,1.411391139030457,XArbitraryZVertical,-0.1370314675875005,0.2971169808823453,-0.4360170851500669,0.8383513275124118,0.3786807060241699,0.4888571798801422,-0.7858877778053284,0,0,0,-1,-1,4823.314921,unknown,2,2022-06-30T09:48:43.599+02:00,2022-06-30T08:20:05.567+02:00,1383,1.400134,0,0,1092.013,0,0,2022-06-30T09:48:43.599+02:00
2022-06-30T09:48:45.158+02:00,4824.87514625,-1.58221435546875,1.287322998046875,0.6012420654296875,4824.86519425,-0.8333526903970603,0.5269058869397042,-0.4649284315622321,4.029035568237305,7.573958873748779,2.746359348297119,-2.205999851226807,1.043553590774536,1.388630151748657,XArbitraryZVertical,-0.1008348754546696,0.3217506453290808,-0.4351087956727423,0.8348587655455394,0.4494844079017639,0.4483588337898254,-0.7726176977157593,0,0,0,-1,-1,4823.314921,unknown,2,2022-06-30T09:48:43.599+02:00,2022-06-30T08:20:05.567+02:00,1383,1.400134,0,0,1092.013,0,0,2022-06-30T09:48:43.599+02:00
2022-06-30T09:48:45.168+02:00,4824.88509725,-1.503997802734375,1.131561279296875,0.60711669921875,4824.87514625,-0.8327829343682702,0.6028753677788704,-0.4143812203750123,4.467555046081543,7.634688854217529,2.794336557388306,-2.199535846710205,1.074609994888306,1.373486042022705,XArbitraryZVertical,-0.0621373168587931,0.3451690171657724,-0.4338213955426297,0.8299375774812561,0.5190244913101196,0.4026235938072205,-0.7539945840835571,0,0,0,-1,-1,4823.314921,unknown,2,2022-06-30T09:48:43.599+02:00,2022-06-30T08:20:05.567+02:00,1383,1.400134,0,0,1092.013,0,0,2022-06-30T09:48:43.599+02:00
2022-06-30T09:48:45.178+02:00,4824.895049250001,-1.502609252929688,0.954620361328125,0.610198974609375,4824.88509725,-0.8373249140422112,0.6769871189697947,-0.3611904255710626,4.551774978637695,7.598697185516357,2.92245078086853,-2.168241262435913,0.9339345097541809,1.330412149429321,XArbitraryZVertical,-0.0219881545498326,0.3673301212450581,-0.4317266492827126,0.8235273674968754,0.5860270857810974,0.3533881008625031,-0.7291702032089233,0,0,0,-1,-1,4823.314921,unknown,2,2022-06-30T09:48:43.599+02:00,2022-06-30T08:20:05.567+02:00,1383,1.400134,0,0,1092.013,0,0,2022-06-30T09:48:43.599+02:00
2022-06-30T09:48:45.188+02:00,4824.905000250001,-1.546875,0.7806396484375,0.6206817626953125,4824.895049250001,-0.8440848361272737,0.7500526453096633,-0.3080236286263576,4.340163230895996,7.548791885375977,3.107300043106079,-2.153591632843018,0.8283849954605103,1.304334044456482,XArbitraryZVertical,0.01805142344873668,0.3886713446778453,-0.427904038875761,0.8157860617592068,0.6495938897132874,0.3031758666038513,-0.6972174644470215,0,0,0,-1,-1,4823.314921,unknown,2,2022-06-30T09:48:43.599+02:00,2022-06-30T08:20:05.567+02:00,1383,1.400134,0,0,1092.013,0,0,2022-06-30T09:48:43.599+02:00
2022-06-30T09:48:45.198+02:00,4824.91495225,-1.551544189453125,0.70538330078125,0.6522064208984375,4824.905000250001,-0.8514418696643333,0.8235016784495929,-0.2559943833540206,4.062819480895996,7.655094623565674,3.286617040634155,-2.21223521232605,0.7014124393463135,1.267707109451294,XArbitraryZVertical,0.05738953907672034,0.4098199071645138,-0.4218920737737882,0.8066977925334352,0.7096260190010071,0.2532075047492981,-0.6575081944465637,0,0,0,-1,-1,4823.314921,unknown,2,2022-06-30T09:48:43.599+02:00,2022-06-30T08:20:05.567+02:00,1383,1.400134,0,0,1092.013,0,0,2022-06-30T09:48:43.599+02:00
2022-06-30T09:48:45.208+02:00,4824.92490325,-1.486083984375,0.791259765625,0.795257568359375,4824.91495225,-0.8599612448864911,0.8984709566545822,-0.2046149513057612,3.93602991104126,7.810731887817383,3.476815223693848,-2.312929630279541,0.5774490833282471,1.230496525764465,XArbitraryZVertical,0.09646139531434819,0.4310310814053385,-0.4138444493207047,0.7960152446396396,0.766054630279541,0.2031901627779007,-0.6098148226737976,0,0,0,-1,-1,4823.314921,unknown,2,2022-06-30T09:48:43.599+02:00,2022-06-30T08:20:05.567+02:00,1383,1.400134,0,0,1092.013,0,0,2022-06-30T09:48:43.599+02:00
2022-06-30T09:48:45.218+02:00,4824.934855250001,-1.451217651367188,0.857391357421875,0.8656005859375,4824.92490325,-0.8693706950548554,0.9749947838808982,-0.1535082279728829,3.623877286911011,7.922883987426758,3.681747913360596,-2.369509935379028,0.5524768233299255,1.206779837608337,XArbitraryZVertical,0.1352349411016849,0.4521335966301381,-0.4035491937739107,0.7838590196179211,0.8179659247398376,0.1529060453176498,-0.5545734167098999,0,0,0,-1,-1,4823.314921,unknown,2,2022-06-30T09:48:43.599+02:00,2022-06-30T08:20:05.567+02:00,1383,1.400134,0,0,1092.013,0,0,2022-06-30T09:48:43.599+02:00
2022-06-30T09:48:45.228+02:00,4824.944806250001,-1.478103637695312,0.9583892822265625,0.9327545166015625,4824.934855250001,-0.8793359888595862,1.052906913295154,-0.103742798042061,3.365769624710083,8.016965866088867,3.746429920196533,-2.350278377532959,0.6877025365829468,1.287643432617188,XArbitraryZVertical,0.173019040553064,0.4731505895142336,-0.3910846273045971,0.7702245797107521,0.8641946315765381,0.1035568118095398,-0.4923858642578125,0,0,0,-1,-1,4823.314921,unknown,2,2022-06-30T09:48:43.599+02:00,2022-06-30T08:20:05.567+02:00,1383,1.400134,0,0,1092.013,0,0,2022-06-30T09:48:43.599+02:00
2022-06-30T09:48:45.238+02:00,4824.95475825,-1.5770263671875,1.054855346679688,0.9914093017578125,4824.944806250001,-0.8911144209127032,1.13215483747909,-0.05571608308236329,3.193492650985718,8.133318901062012,3.741045713424683,-2.35514235496521,0.8017036914825439,1.28965151309967,XArbitraryZVertical,0.209831274504782,0.4939082512557613,-0.3770751445748315,0.7548774368695431,0.9039247035980225,0.05568725988268852,-0.4240509569644928,0,0,0,-1,-1,4823.314921,unknown,2,2022-06-30T09:48:43.599+02:00,2022-06-30T08:20:05.567+02:00,1383,1.400134,0,0,1092.013,0,0,2022-06-30T09:48:43.599+02:00
2022-06-30T09:48:45.247+02:00,4824.96471025,-1.696487426757812,1.083404541015625,1.14581298828125,4824.95475825,-0.9061543187834701,1.21330332274972,-0.008985538815453204,3.274170637130737,8.328174591064453,3.747231960296631,-2.414842844009399,0.9494034051895142,1.282667279243469,XArbitraryZVertical,0.2462397893474725,0.5142077431891261,-0.3619250159435725,0.7375409846757883,0.9367392659187317,0.008985417895019054,-0.3499127328395844,0,0,0,-1,-1,4823.314921,unknown,2,2022-06-30T09:48:43.599+02:00,2022-06-30T08:20:05.567+02:00,1383,1.400134,0,0,1092.013,0,0,2022-06-30T09:48:43.599+02:00
2022-06-30T09:48:45.257+02:00,4824.97466125,-1.753204345703125,1.012237548828125,1.413497924804688,4824.96471025,-0.9269545809338963,1.296453768240149,0.03696303356725827,3.594711065292358,8.489500045776367,3.742313861846924,-2.5389723777771,1.091809511184692,1.262138366699219,XArbitraryZVertical,0.2830554409193269,0.5333995314886015,-0.3463356395732841,0.7179249967889393,0.9619460701942444,-0.0369546189904213,-0.270729124546051,0,0,0,-1,-1,4823.314921,unknown,2,2022-06-30T09:48:43.599+02:00,2022-06-30T08:20:05.567+02:00,1383,1.400134,0,0,1092.013,0,0,2022-06-30T09:48:43.599+02:00
2022-06-30T09:48:45.267+02:00,4824.984613250001,-1.748504638671875,0.8326416015625,1.679168701171875,4824.97466125,-0.9549461760124336,1.382871628762257,0.08163559501692569,3.927175045013428,8.699718475341797,3.72576117515564,-2.675609827041626,1.164949059486389,1.332011461257935,XArbitraryZVertical,0.3206952906237643,0.5514121380651316,-0.3305904779731706,0.6955639322794802,0.9791224002838135,-0.08154495060443878,-0.1861983686685562,0,0,0,-1,-1,4823.314921,unknown,2,2022-06-30T09:48:43.599+02:00,2022-06-30T08:20:05.567+02:00,1383,1.400134,0,0,1092.013,0,0,2022-06-30T09:48:43.599+02:00
2022-06-30T09:48:45.277+02:00,4824.994564250001,-1.713729858398438,0.6089935302734375,1.893753051757812,4824.984613250001,-0.9892941418351546,1.473831787187803,0.1239137585861232,4.053118705749512,8.902997016906738,3.704622983932495,-2.740875720977783,1.135833978652954,1.509568333625793,XArbitraryZVertical,0.3587602718347569,0.5685559645184319,-0.3142561579028746,0.670282299252638,0.9876712560653687,-0.1235968917608261,-0.09607036411762238,0,0,0,-1,-1,4823.314921,unknown,2,2022-06-30T09:48:43.599+02:00,2022-06-30T08:20:05.567+02:00,1383,1.400134,0,0,1092.013,0,0,2022-06-30T09:48:43.599+02:00
2022-06-30T09:48:45.287+02:00,4825.00451625,-1.655197143554688,0.4090576171875,1.938873291015625,4824.994564250001,-1.027487150486618,1.568394791346804,0.1624045272565181,3.898514270782471,9.029904365539551,3.643662452697754,-2.735343217849731,0.9943326711654663,1.681538701057434,XArbitraryZVertical,0.3959516001581102,0.5848396054589794,-0.2968802819449349,0.6426874552197177,0.9868385791778564,-0.1616915613412857,-0.002369932364672422,0,0,0,-1,-1,4823.314921,unknown,2,2022-06-30T09:48:43.599+02:00,2022-06-30T08:20:05.567+02:00,1383,1.400134,0,0,1092.013,0,0,2022-06-30T09:48:43.599+02:00
2022-06-30T09:48:45.298+02:00,4825.01446725,-1.553573608398438,0.2901763916015625,1.810760498046875,4825.00451625,-1.066952505456338,1.665661051752819,0.197098680148741,3.564398765563965,9.111302375793457,3.707033395767212,-2.689959526062012,0.8048180937767029,1.800864577293396,XArbitraryZVertical,0.4314013442970578,0.6002809103438608,-0.2777930266470818,0.6135037834782457,0.9762297868728638,-0.1958250105381012,0.09288857877254486,0,0,0,-1,-1,4823.314921,unknown,2,2022-06-30T09:48:43.599+02:00,2022-06-30T08:20:05.567+02:00,1383,1.400134,0,0,1092.013,0,0,2022-06-30T09:48:43.599+02:00
2022-06-30T09:48:45.307+02:00,4825.02441925,-1.495315551757812,0.2998046875,1.656158447265625,4825.01446725,-1.10717981531564,1.764848211740608,0.2297739295818068,3.354359149932861,9.115594863891602,3.935707092285156,-2.610639572143555,0.6368145942687988,1.751105189323425,XArbitraryZVertical,0.4652938941067382,0.6143172521444072,-0.2564862084941474,0.5833788204061752,0.9554423093795776,-0.2277573943138123,0.1877681910991669,0,0,0,-1,-1,4823.314921,unknown,2,2022-06-30T09:48:43.599+02:00,2022-06-30T08:20:05.567+02:00,1383,1.400134,0,0,1092.013,0,0,2022-06-30T09:48:43.599+02:00
2022-06-30T09:48:45.317+02:00,4825.03437025,-1.518569946289062,0.41253662109375,1.523513793945312,4825.02441925,-1.150354500622705,1.865595513757929,0.2608236803019441,3.305384635925293,9.027324676513672,4.13762092590332,-2.478071212768555,0.5480524301528931,1.53003978729248,XArbitraryZVertical,0.4982551104933071,0.62618068118242,-0.2335859470455986,0.5523380134620683,0.9244975447654724,-0.257876455783844,0.2807208001613617,0,0,0,-1,-1,4823.314921,unknown,2,2022-06-30T09:48:43.599+02:00,2022-06-30T08:20:05.567+02:00,1383,1.400134,0,0,1092.013,0,0,2022-06-30T09:48:43.599+02:00
2022-06-30T09:48:45.327+02:00,4825.044322250001,-1.638992309570312,0.5398406982421875,1.54425048828125,4825.03437025,-1.197377704513658,1.967640287026244,0.2887266937187563,3.391689538955688,8.90203857421875,4.209408760070801,-2.379425048828125,0.5845361351966858,1.285647749900818,XArbitraryZVertical,0.5301693779880527,0.6357482448511498,-0.2099290201237719,0.5202637975320085,0.8841094970703125,-0.2847318649291992,0.3705107867717743,0,0,0,-1,-1,4823.314921,unknown,2,2022-06-30T09:48:43.599+02:00,2022-06-30T08:20:05.567+02:00,1383,1.400134,0,0,1092.013,0,0,2022-06-30T09:48:43.599+02:00
2022-06-30T09:48:45.337+02:00,4825.05427425,-1.783111572265625,0.7266387939453125,1.654296875,4825.044322250001,-1.24954413296221,2.070671132429886,0.3109885867364083,3.727614164352417,8.709854125976562,4.164379119873047,-2.354113578796387,0.7185361385345459,1.067190170288086,XArbitraryZVertical,0.5610677123924361,0.6429345864026456,-0.1868118787190813,0.486764409582634,0.8355435729026794,-0.3059999644756317,0.4563237130641937,0,0,0,-1,-1,4823.314921,unknown,2,2022-06-30T09:48:43.599+02:00,2022-06-30T08:20:05.567+02:00,1383,1.400134,0,0,1092.013,0,0,2022-06-30T09:48:43.599+02:00
2022-06-30T09:48:45.347+02:00,4825.06422525,-1.831283569335938,0.82476806640625,1.886703491210938,4825.05427425,-1.307103509790683,2.174395480683718,0.3255092654140122,4.088967323303223,8.503007888793945,4.080300807952881,-2.419057369232178,0.8596316576004028,1.006447553634644,XArbitraryZVertical,0.5909906202203543,0.6477897698244095,-0.165075450113262,0.4514959354474889,0.7800650000572205,-0.3197913467884064,0.5378029942512512,0,0,0,-1,-1,4823.314921,unknown,2,2022-06-30T09:48:43.599+02:00,2022-06-30T08:20:05.567+02:00,1383,1.400134,0,0,1092.013,0,0,2022-06-30T09:48:43.599+02:00
2022-06-30T09:48:45.357+02:00,4825.074177250001,-1.794448852539062,0.7163543701171875,2.082015991210938,4825.06422525,-1.367566624661639,2.277134231536864,0.3311657543324361,4.346530437469482,8.229940414428711,3.803607940673828,-2.502519845962524,1.051784038543701,1.040511608123779,XArbitraryZVertical,0.6193100814702824,0.6506517571291004,-0.1449883804025244,0.4148322183338234,0.7194081544876099,-0.3251456618309021,0.6137853860855103,0,0,0,-1,-1,4823.314921,unknown,2,2022-06-30T09:48:43.599+02:00,2022-06-30T08:20:05.567+02:00,1383,1.400134,0,0,1092.013,0,0,2022-06-30T09:48:43.599+02:00
2022-06-30T09:48:45.367+02:00,4825.084128250001,-1.72418212890625,0.5747833251953125,2.3721923828125,4825.074177250001,-1.427886269241935,2.377634060192325,0.3270527930680575,4.539053440093994,8.0689697265625,3.485974311828613,-2.48639988899231,1.146021127700806,1.202876687049866,XArbitraryZVertical,0.6453836287819068,0.6522219213445833,-0.1266595191877875,0.3768872115617686,0.6551161408424377,-0.3212534487247467,0.6838269233703613,0,0,0,-1,-1,4823.314921,unknown,2,2022-06-30T09:48:43.599+02:00,2022-06-30T08:20:05.567+02:00,1383,1.400134,0,0,1092.013,0,0,2022-06-30T09:48:43.599+02:00
2022-06-30T09:48:45.377+02:00,4825.09408025,-1.620407104492188,0.36859130859375,2.607330322265625,4825.084128250001,-1.485255382290094,2.475274561029683,0.3152442103289593,4.397787094116211,7.902828216552734,3.220710515975952,-2.382085561752319,1.026402592658997,1.334651947021484,XArbitraryZVertical,0.6689384860918132,0.65284259922696,-0.1091242241689672,0.3382452572113759,0.5876365900039673,-0.3100486695766449,0.747364342212677,0,0,0,-1,-1,4823.314921,unknown,2,2022-06-30T09:48:43.599+02:00,2022-06-30T08:20:05.567+02:00,1383,1.400134,0,0,1092.013,0,0,2022-06-30T09:48:43.599+02:00
2022-06-30T09:48:45.387+02:00,4825.10403125,-1.501495361328125,0.2938690185546875,2.8248291015625,4825.09408025,-1.537349359512574,2.568634719563125,0.2989408767369058,4.034698009490967,7.70355224609375,3.029343605041504,-2.242258787155151,0.8692911267280579,1.569159507751465,XArbitraryZVertical,0.6896637637755634,0.6525951821270514,-0.09157013633664723,0.3001641548742015,0.5180765986442566,-0.2945082187652588,0.803033173084259,0,0,0,-1,-1,4823.314921,unknown,2,2022-06-30T09:48:43.599+02:00,2022-06-30T08:20:05.567+02:00,1383,1.400134,0,0,1092.013,0,0,2022-06-30T09:48:43.599+02:00
2022-06-30T09:48:45.397+02:00,4825.11398325,-1.44097900390625,0.34716796875,3.009811401367188,4825.10403125,-1.583902007835288,2.657853491965186,0.2826391625313149,3.277002334594727,7.554766178131104,3.080727815628052,-2.067046403884888,0.6474819183349609,1.757193088531494,XArbitraryZVertical,0.7078176410134677,0.6512011707216013,-0.0727107268362189,0.2639024968598844,0.4466390907764435,-0.2788910567760468,0.8501375317573547,0,0,0,-1,-1,4823.314921,unknown,2,2022-06-30T09:48:43.599+02:00,2022-06-30T08:20:05.567+02:00,1383,1.400134,0,0,1092.013,0,0,2022-06-30T09:48:43.599+02:00
2022-06-30T09:48:45.407+02:00,4825.123935250001,-1.395553588867188,0.477935791015625,3.168472290039062,4825.11398325,-1.625706457001272,2.743177516067278,0.2703950892461185,2.42309308052063,7.266279220581055,3.156830549240112,-1.875357389450073,0.5609807968139648,1.936640739440918,XArbitraryZVertical,0.7237286832805369,0.6483140497255667,-0.0515849074422943,0.2307485108655069,0.3738619685173035,-0.2671121954917908,0.8881886005401611,0,0,0,-1,-1,4823.314921,unknown,2,2022-06-30T09:48:43.599+02:00,2022-06-30T08:20:05.567+02:00,1383,1.400134,0,0,1092.013,0,0,2022-06-30T09:48:43.599+02:00
2022-06-30T09:48:45.417+02:00,4825.133886250001,-1.326507568359375,0.6177520751953125,3.342269897460938,4825.123935250001,-1.664048036636196,2.823252269227352,0.2613604775950651,1.944961428642273,6.783536911010742,3.175164222717285,-1.743340730667114,0.605562686920166,2.092309474945068,XArbitraryZVertical,0.7376344150358136,0.6439305170657932,-0.02954039098184815,0.200938959680316,0.3023614883422852,-0.2583950757980347,0.9175021052360535,0,0,0,-1,-1,4823.314921,unknown,2,2022-06-30T09:48:43.599+02:00,2022-06-30T08:20:05.567+02:00,1383,1.400134,0,0,1092.013,0,0,2022-06-30T09:48:43.599+02:00
2022-06-30T09:48:45.427+02:00,4825.14383825,-1.2529296875,0.628570556640625,3.592620849609375,4825.133886250001,-1.700695071895475,2.897081636635446,0.2521431138373786,1.851836085319519,6.167943477630615,3.163478851318359,-1.629981160163879,0.7274153828620911,2.228895902633667,XArbitraryZVertical,0.7500967918622062,0.6380775174107735,-0.008587254449126757,0.1736032935709358,0.2344272583723068,-0.2494798749685287,0.9395762085914612,0,0,0,-1,-1,4823.314921,unknown,2,2022-06-30T09:48:43.599+02:00,2022-06-30T08:20:05.567+02:00,1383,1.400134,0,0,1092.013,0,0,2022-06-30T09:48:43.599+02:00
2022-06-30T09:48:45.437+02:00,4825.15378925,-1.257888793945312,0.4384002685546875,3.8831787109375,4825.14383825,-1.736589574299312,2.963691730177576,0.2413482278900977,1.695555210113525,5.442555904388428,3.244007587432861,-1.498342871665955,0.8567637801170349,2.386578559875488,XArbitraryZVertical,0.7615919931656632,0.6307323531784653,0.01016747502352747,0.1484955764211015,0.1718349903821945,-0.2390119880437851,0.9556913375854492,0,0,0,-1,-1,4823.314921,unknown,2,2022-06-30T09:48:43.599+02:00,2022-06-30T08:20:05.567+02:00,1383,1.400134,0,0,1092.013,0,0,2022-06-30T09:48:43.599+02:00
2022-06-30T09:48:45.446+02:00,4825.16374125,-1.21240234375,0.4123382568359375,4.124847412109375,4825.15378925,-1.772046463334866,3.021943360215761,0.2316172735455843,1.223397254943848,4.571709156036377,3.297223567962646,-1.369106531143188,0.8581221699714661,2.626282930374146,XArbitraryZVertical,0.77236760572809,0.6217855054132837,0.02695418490395349,0.1269036046986003,0.1161765679717064,-0.2295519113540649,0.9663378596305847,0,0,0,-1,-1,4823.314921,unknown,2,2022-06-30T09:48:43.599+02:00,2022-06-30T08:20:05.567+02:00,1383,1.400134,0,0,1092.013,0,0,2022-06-30T09:48:43.599+02:00
2022-06-30T09:48:45.456+02:00,4825.17369225,-1.162353515625,0.6421051025390625,4.303329467773438,4825.16374125,-1.806255219622099,3.07003398630417,0.2261746655196248,0.5070352554321289,3.516039133071899,3.254568099975586,-1.327565789222717,0.6626511812210083,2.911141395568848,XArbitraryZVertical,0.7822512935862576,0.6116386072636488,0.04191402829262429,0.1105647191689848,0.06967669725418091,-0.2242512702941895,0.9720377326011658,0,0,0,-1,-1,4823.314921,unknown,2,2022-06-30T09:48:43.599+02:00,2022-06-30T08:20:05.567+02:00,1383,1.400134,0,0,1092.013,0,0,2022-06-30T09:48:43.599+02:00
2022-06-30T09:48:45.467+02:00,4825.183644250001,-1.105209350585938,0.6834564208984375,4.399917602539062,4825.17369225,-1.839120259772804,3.106443038250405,0.2255115868169232,0.0001355730928480625,2.279570579528809,3.156577825546265,-1.246655225753784,0.6359429359436035,3.150769710540771,XArbitraryZVertical,0.7913611107904092,0.6006551755574016,0.05430553006692265,0.100060027702283,0.03425257652997971,-0.2236050218343735,0.9740781188011169,0,0,0,-1,-1,4823.314921,unknown,2,2022-06-30T09:48:43.599+02:00,2022-06-30T08:20:05.567+02:00,1383,1.400134,0,0,1092.013,0,0,2022-06-30T09:48:43.599+02:00
2022-06-30T09:48:45.476+02:00,4825.19359625,-1.065032958984375,0.4789276123046875,4.486236572265625,4825.183644250001,-1.870067883104139,3.129924495468534,0.2268507019024862,-0.118708461523056,1.060568690299988,2.922726392745972,-1.173722863197327,0.8670148849487305,3.329016208648682,XArbitraryZVertical,0.7998274136517024,0.5894341646081149,0.06254147753013711,0.09450905447030518,0.01136895455420017,-0.2249100357294083,0.9743130803108215,0,0,0,-1,-1,4823.314921,unknown,2,2022-06-30T09:48:43.599+02:00,2022-06-30T08:20:05.567+02:00,1383,1.400134,0,0,1092.013,0,0,2022-06-30T09:48:43.599+02:00
2022-06-30T09:48:45.486+02:00,4825.20354725,-1.072723388671875,0.174346923828125,4.4178466796875,4825.19359625,-1.899098648412421,-3.141551564566918,0.2305976641707331,-0.6578798294067383,0.001683848444372416,2.751731157302856,-1.105169653892517,0.9120156168937683,3.426387548446655,XArbitraryZVertical,0.8077529221749987,0.5781869817677914,0.06697764402554021,0.09353615472231872,-4.000139233539812e-05,-0.2285594046115875,0.9735299348831177,0,0,0,-1,-1,4823.314921,unknown,2,2022-06-30T09:48:43.599+02:00,2022-06-30T08:20:05.567+02:00,1383,1.400134,0,0,1092.013,0,0,2022-06-30T09:48:43.599+02:00
2022-06-30T09:48:45.496+02:00,4825.21349925,-1.050872802734375,0.0249786376953125,4.120651245117188,4825.20354725,-1.925802100096958,-3.139372637035744,0.2411780218196654,-1.471257448196411,-0.780036985874176,2.449018478393555,-1.062877535820007,0.7177740335464478,3.515181541442871,XArbitraryZVertical,0.8148141211631432,0.5671027847651168,0.06961102961053371,0.09811655009348665,-0.002155762165784836,-0.2388467192649841,0.971055269241333,0,0,0,-1,-1,4823.314921,unknown,2,2022-06-30T09:48:43.599+02:00,2022-06-30T08:20:05.567+02:00,1383,1.400134,0,0,1092.013,0,0,2022-06-30T09:48:43.599+02:00
2022-06-30T09:48:45.506+02:00,4825.22345025,-1.051589965820312,-0.1278839111328125,3.750762939453125,4825.21349925,-1.949062926952792,3.139116359375597,0.2589975766180243,-2.097398042678833,-1.293237447738647,2.091537237167358,-1.075117468833923,0.4304583966732025,3.451202392578125,XArbitraryZVertical,0.8205996734409489,0.5567210371130052,0.0715017444614362,0.107542475355958,0.00239370041526854,-0.2561116814613342,0.966644287109375,0,0,0,-1,-1,4823.314921,unknown,2,2022-06-30T09:48:43.599+02:00,2022-06-30T08:20:05.567+02:00,1383,1.400134,0,0,1092.013,0,0,2022-06-30T09:48:43.599+02:00
2022-06-30T09:48:45.516+02:00,4825.23340225,-1.033126831054688,-0.38641357421875,3.289260864257812,4825.22345025,-1.968614947432617,3.129974655770225,0.2823133846440053,-2.504746198654175,-1.551360845565796,1.69596254825592,-1.062031030654907,0.3035566210746765,3.160302400588989,XArbitraryZVertical,0.8250434381411746,0.547245593582431,0.07307117621104033,0.1203587777330366,0.01115783303976059,-0.2785781919956207,0.9603488445281982,0,0,0,-1,-1,4823.314921,unknown,2,2022-06-30T09:48:43.599+02:00,2022-06-30T08:20:05.567+02:00,1383,1.400134,0,0,1092.013,0,0,2022-06-30T09:48:43.599+02:00
2022-06-30T09:48:45.526+02:00,4825.24335325,-0.932525634765625,-0.6152496337890625,2.8878173828125,4825.23340225,-1.983154783125852,3.118787184078149,0.3081244824428923,-2.591524839401245,-1.496774911880493,1.188968300819397,-1.073319911956787,0.1753878593444824,2.798106670379639,XArbitraryZVertical,0.827882212957904,0.5393878624939578,0.0745608490572732,0.1345828821678554,0.02172954566776752,-0.3032719790935516,0.9526564478874207,0,0,0,-1,-1,4823.314921,unknown,2,2022-06-30T09:48:43.599+02:00,2022-06-30T08:20:05.567+02:00,1383,1.400134,0,0,1092.013,0,0,2022-06-30T09:48:43.599+02:00
2022-06-30T09:48:45.536+02:00,4825.25330525,-0.8801727294921875,-0.789306640625,2.63275146484375,4825.24335325,-1.991924607361597,3.10860297978368,0.3335402914312637,-2.373697757720947,-1.064802169799805,0.6115784645080566,-1.064293146133423,-0.05902352929115295,2.34488582611084,XArbitraryZVertical,0.8290144354596222,0.5337813921752725,0.07658904220431829,0.1481437684479419,0.03116593137383461,-0.3273902535438538,0.9443750381469727,0,0,0,-1,-1,4823.314921,unknown,2,2022-06-30T09:48:43.599+02:00,2022-06-30T08:20:05.567+02:00,1383,1.400134,0,0,1092.013,0,0,2022-06-30T09:48:43.599+02:00
2022-06-30T09:48:45.546+02:00,4825.26325625,-0.8915252685546875,-0.7473297119140625,2.521896362304688,4825.25330525,-1.994030413511475,3.102260068836404,0.3553501317986311,-1.971870183944702,-0.338026374578476,-0.06011229008436203,-0.9693917632102966,-0.2673312127590179,1.951017618179321,XArbitraryZVertical,0.8283597214426224,0.5312439072018282,0.07966313112454183,0.1589149803416112,0.03686577081680298,-0.3479186296463013,0.9367998242378235,0,0,0,-1,-1,4823.314921,unknown,2,2022-06-30T09:48:43.599+02:00,2022-06-30T08:20:05.567+02:00,1383,1.400134,0,0,1092.013,0,0,2022-06-30T09:48:43.599+02:00
2022-06-30T09:48:45.556+02:00,4825.273208250001,-0.9721832275390625,-0.486236572265625,2.554122924804688,4825.26325625,-1.988451417775903,3.101264319681758,0.3724183693760095,-1.467415928840637,0.5601946115493774,-0.8782690167427063,-0.9177267551422119,-0.425437867641449,1.702058553695679,XArbitraryZVertical,0.8257123874920971,0.5324900285206108,0.08429518280093962,0.165975707629727,0.03755366429686546,-0.3638690710067749,0.9306931495666504,0,0,0,-1,-1,4823.314921,unknown,2,2022-06-30T09:48:43.599+02:00,2022-06-30T08:20:05.567+02:00,1383,1.400134,0,0,1092.013,0,0,2022-06-30T09:48:43.599+02:00
2022-06-30T09:48:45.566+02:00,4825.28316025,-1.180130004882812,-0.412139892578125,2.76983642578125,4825.273208250001,-1.973994601738668,3.106080628393702,0.3842649313903318,-1.071972131729126,1.476214170455933,-1.705787897109985,-0.9244409799575806,-0.3724521994590759,1.595406532287598,XArbitraryZVertical,0.8207612406963369,0.5381412255974953,0.09069422824481269,0.1689073233962375,0.03291537240147591,-0.3748777806758881,0.9264900088310242,0,0,0,-1,-1,4823.314921,unknown,2,2022-06-30T09:48:43.599+02:00,2022-06-30T08:20:05.567+02:00,1383,1.400134,0,0,1092.013,0,0,2022-06-30T09:48:43.599+02:00
2022-06-30T09:48:45.576+02:00,4825.29311125,-1.507293701171875,-0.3072052001953125,3.0924072265625,4825.28316025,-1.950449539705827,3.116356382572075,0.395163568024148,-1.343847036361694,2.365514278411865,-2.659086942672729,-0.9954724907875061,-0.1012777090072632,1.63148307800293,XArbitraryZVertical,0.8130467662839859,0.5479734904460914,0.09986914854007696,0.1694292849946738,0.02328893728554249,-0.3849591612815857,0.9226399660110474,0,0,0,-1,-1,4823.314921,unknown,2,2022-06-30T09:48:43.599+02:00,2022-06-30T08:20:05.567+02:00,1383,1.400134,0,0,1092.013,0,0,2022-06-30T09:48:43.599+02:00
2022-06-30T09:48:45.586+02:00,4825.30306325,-1.7647705078125,-0.1114349365234375,3.516708374023438,4825.29311125,-1.915023296205725,3.129537077265053,0.4114201919919707,-2.037439107894897,3.047257900238037,-3.849338054656982,-1.191179633140564,-0.01222872734069824,1.853349208831787,XArbitraryZVertical,0.8012144909683421,0.5624046683227877,0.1127370720551879,0.1704310799748813,0.01104931812733412,-0.3999114036560059,0.9164873361587524,0,0,0,-1,-1,4823.314921,unknown,2,2022-06-30T09:48:43.599+02:00,2022-06-30T08:20:05.567+02:00,1383,1.400134,0,0,1092.013,0,0,2022-06-30T09:48:43.599+02:00
2022-06-30T09:48:45.596+02:00,4825.31301425,-1.9066162109375,-0.2315673828125,3.992218017578125,4825.30306325,-1.86570986864877,-3.141477913210664,0.4337436600897331,-2.449190139770508,3.417936086654663,-5.16229248046875,-1.507189869880676,0.1130653321743011,2.18500828742981,XArbitraryZVertical,0.7844985122609408,0.5816025042745145,0.1281914361152787,0.1728223873490866,-0.0001041152791003697,-0.4202707409858704,0.9073987603187561,0,0,0,-1,-1,4823.314921,unknown,2,2022-06-30T09:48:43.599+02:00,2022-06-30T08:20:05.567+02:00,1383,1.400134,0,0,1092.013,0,0,2022-06-30T09:48:43.599+02:00
2022-06-30T09:48:45.606+02:00,4825.322966250001,-2.308807373046875,-0.3031005859375,4.467742919921875,4825.31301425,-1.801855379187231,-3.134721210879071,0.4587833604280095,-2.461230993270874,3.441338062286377,-6.436400413513184,-1.758610010147095,0.3314225077629089,2.620137453079224,XArbitraryZVertical,0.7628792460271482,0.6052277310072689,0.1438014802216389,0.1761696362553754,-0.006160831078886986,-0.4428575932979584,0.8965706825256348,0,0,0,-1,-1,4823.314921,unknown,2,2022-06-30T09:48:43.599+02:00,2022-06-30T08:20:05.567+02:00,1383,1.400134,0,0,1092.013,0,0,2022-06-30T09:48:43.599+02:00
2022-06-30T09:48:45.616+02:00,4825.332917250001,-2.696578979492188,-0.0201416015625,4.744842529296875,4825.322966250001,-1.721578964683971,-3.138677959462306,0.4809542320837094,-1.965604066848755,2.959047079086304,-7.963645935058594,-1.904032468795776,0.2310576438903809,3.105667591094971,XArbitraryZVertical,0.7363082406533106,0.6333445481560162,0.1563191278371456,0.1796921552696342,-0.002584030153229833,-0.4626253545284271,0.8865503072738647,0,0,0,-1,-1,4823.314921,unknown,2,2022-06-30T09:48:43.599+02:00,2022-06-30T08:20:05.567+02:00,1383,1.400134,0,0,1092.013,0,0,2022-06-30T09:48:43.599+02:00
2022-06-30T09:48:45.626+02:00,4825.34286925,-3.05322265625,0.3038787841796875,4.928680419921875,4825.332917250001,-1.62226476147619,3.120711931180019,0.496702971199238,-1.374602079391479,1.525745391845703,-9.662623405456543,-2.327163696289062,0.173428475856781,3.588775873184204,XArbitraryZVertical,0.704550683970752,0.6656515588391717,0.1619345817637355,0.1851857612719764,0.01835614070296288,-0.4765295088291168,0.8789673447608948,0,0,0,-1,-1,4823.314921,unknown,2,2022-06-30T09:48:43.599+02:00,2022-06-30T08:20:05.567+02:00,1383,1.400134,0,0,1092.013,0,0,2022-06-30T09:48:43.599+02:00
2022-06-30T09:48:45.636+02:00,4825.35282025,-3.301315307617188,0.97540283203125,4.932449340820312,4825.34286925,-1.502086544627222,3.066557922539023,0.5035011055437638,-0.9917681813240051,-0.9228428602218628,-11.43911170959473,-2.762240409851074,0.4623531997203827,3.871408224105835,XArbitraryZVertical,0.6672556941135885,0.7010612517883389,0.1571690389428588,0.1964200973562758,0.06566116958856583,-0.4824950993061066,0.8734340667724609,0,0,0,-1,-1,4823.314921,unknown,2,2022-06-30T09:48:43.599+02:00,2022-06-30T08:20:05.567+02:00,1383,1.400134,0,0,1092.013,0,0,2022-06-30T09:48:43.599+02:00
2022-06-30T09:48:45.645+02:00,4825.36277225,-3.339874267578125,1.799819946289062,4.867950439453125,4825.35282025,-1.36251117818824,2.974260568316121,0.4979393147522735,-0.8258638978004456,-4.271412372589111,-13.09241962432861,-3.19955039024353,0.7814946174621582,4.06238317489624,XArbitraryZVertical,0.6242113797253027,0.7372304700179301,0.139727897510358,0.2175487200591261,0.1463275998830795,-0.4776161015033722,0.8662972450256348,0,0,0,-1,-1,4823.314921,unknown,2,2022-06-30T09:48:43.599+02:00,2022-06-30T08:20:05.567+02:00,1383,1.400134,0,0,1092.013,0,0,2022-06-30T09:48:43.599+02:00
2022-06-30T09:48:45.656+02:00,4825.37272425,-3.684677124023438,2.511444091796875,4.756134033203125,4825.36277225,-1.209499195141592,2.840764011676602,0.4747166738516739,-1.060122132301331,-8.037738800048828,-14.38853359222412,-3.56486177444458,1.432489037513733,4.082969665527344,XArbitraryZVertical,0.5753612269086947,0.7705187457353382,0.1084410112601713,0.2519936966709677,0.2635462284088135,-0.4570864737033844,0.8494793772697449,0,0,0,-1,-1,4823.314921,unknown,2,2022-06-30T09:48:43.599+02:00,2022-06-30T08:20:05.567+02:00,1383,1.400134,0,0,1092.013,0,0,2022-06-30T09:48:43.599+02:00
2022-06-30T09:48:45.665+02:00,4825.38267525,-4.30902099609375,3.1302490234375,4.846572875976562,4825.37272425,-1.049769731169031,2.6783241455702,0.4354565472734603,-2.410732746124268,-10.30975246429443,-15.22303485870361,-3.74504542350769,2.221643924713135,4.056839466094971,XArbitraryZVertical,0.5191288264802639,0.7975340770793613,0.06961659076119367,0.2993295341176451,0.4051710367202759,-0.4218243956565857,0.8111106753349304,0,0,0,-1,-1,4823.314921,unknown,2,2022-06-30T09:48:43.599+02:00,2022-06-30T08:20:05.567+02:00,1383,1.400134,0,0,1092.013,0,0,2022-06-30T09:48:43.599+02:00
2022-06-30T09:48:45.675+02:00,4825.39262725,-5.215164184570312,3.07513427734375,4.322845458984375,4825.38267525,-0.8894161292350642,2.500334959175508,0.380868924108049,-3.770009994506836,-12.68974304199219,-15.73811817169189,-4.240015029907227,2.88317084312439,4.012212753295898,XArbitraryZVertical,0.4547433660587507,0.8155790736603667,0.02903616613465774,0.3566458728441416,0.5553377866744995,-0.3717272579669952,0.7439215183258057,0,0,0,-1,-1,4823.314921,unknown,2,2022-06-30T09:48:43.599+02:00,2022-06-30T08:20:05.567+02:00,1383,1.400134,0,0,1092.013,0,0,2022-06-30T09:48:43.599+02:00
2022-06-30T09:48:45.686+02:00,4825.40257825,-6.03680419921875,2.658721923828125,3.915924072265625,4825.39262725,-0.7332417272361533,2.307689191806514,0.3000085033077441,-3.586477279663086,-15.56125640869141,-17.25121688842773,-5.01650333404541,3.425776958465576,4.204597473144531,XArbitraryZVertical,0.380570516088762,0.8222856293288432,-0.01597967647061042,0.4227968710297825,0.7074823975563049,-0.2955283224582672,0.6419751644134521,0,0,0,-1,-1,4823.314921,unknown,2,2022-06-30T09:48:43.599+02:00,2022-06-30T08:20:05.567+02:00,1383,1.400134,0,0,1092.013,0,0,2022-06-30T09:48:43.599+02:00
2022-06-30T09:48:45.696+02:00,4825.412530250001,-6.877975463867188,3.018829345703125,4.529541015625,4825.40257825,-0.6067051428349352,2.107745065303398,0.1750032908356184,-1.422579288482666,-18.5571231842041,-17.27931976318359,-6.061313152313232,3.249245166778564,3.819141864776611,XArbitraryZVertical,0.2999148248132194,0.8135741902595482,-0.07456265367477051,0.4925329708591799,0.8461490869522095,-0.1741113811731339,0.5037037134170532,0,0,0,-1,-1,4823.314921,unknown,2,2022-06-30T09:48:43.599+02:00,2022-06-30T08:20:05.567+02:00,1383,1.400134,0,0,1092.013,0,0,2022-06-30T09:48:43.599+02:00
2022-06-30T09:48:45.705+02:00,4825.422481250001,-8.779022216796875,3.33392333984375,4.782485961914062,4825.412530250001,-0.5305671719105868,1.896286294425704,0.03281324568813108,-0.5864924192428589,-22.12491607666016,-15.00698184967041,-6.98378849029541,2.691528797149658,3.596323013305664,XArbitraryZVertical,0.2221845556163042,0.7813030641457751,-0.1400216854144209,0.5662097004061168,0.9469840526580811,-0.032807357609272,0.319600909948349,0,0,0,-1,-1,4823.314921,unknown,2,2022-06-30T09:48:43.599+02:00,2022-06-30T08:20:05.567+02:00,1383,1.400134,0,0,1092.013,0,0,2022-06-30T09:48:43.599+02:00
2022-06-30T09:48:45.715+02:00,4825.43243325,-10.98402404785156,2.013168334960938,5.977188110351562,4825.422481250001,-0.4899415467418345,1.661091487886167,-0.1004559347096809,-2.556835174560547,-25.64316749572754,-13.11457443237305,-7.868880748748779,2.91854190826416,4.439822673797607,XArbitraryZVertical,0.1459803248524309,0.7235666509244506,-0.1993332733632285,0.6445209484595668,0.990905225276947,0.100287064909935,0.08971790969371796,0,0,0,-1,-1,4823.314921,unknown,2,2022-06-30T09:48:43.599+02:00,2022-06-30T08:20:05.567+02:00,1383,1.400134,0,0,1092.013,0,0,2022-06-30T09:48:43.599+02:00
2022-06-30T09:48:45.725+02:00,4825.44238525,-13.82185363769531,1.71282958984375,9.3992919921875,4825.43243325,-0.4590766665116969,1.385066497651916,-0.2345267090895329,-3.935502290725708,-30.70497894287109,-13.30128192901611,-9.734919548034668,3.101540327072144,4.962094306945801,XArbitraryZVertical,0.05659526941146772,0.6379597755232509,-0.2466506275999663,0.7273017836661225,0.9558970928192139,0.232382670044899,-0.1796085983514786,0,0,0,-1,-1,4823.314921,unknown,2,2022-06-30T09:48:43.599+02:00,2022-06-30T08:20:05.567+02:00,1383,1.400134,0,0,1092.013,0,0,2022-06-30T09:48:43.599+02:00
2022-06-30T09:48:45.735+02:00,4825.45233625,-21.25746154785156,3.779220581054688,11.84231567382812,4825.44238525,-0.470879638429797,1.058667837790485,-0.3482932625903641,-1.33536970615387,-33.3621711730957,-9.273765563964844,-11.80338764190674,1.671873927116394,6.437798500061035,XArbitraryZVertical,-0.02941860302437942,0.5184875239526204,-0.2833799488199672,0.8062264244588321,0.8193634152412415,0.3412940502166748,-0.4606104791164398,0,0,0,-1,-1,4823.314921,unknown,2,2022-06-30T09:48:43.599+02:00,2022-06-30T08:20:05.567+02:00,1383,1.400134,0,0,1092.013,0,0,2022-06-30T09:48:43.599+02:00
2022-06-30T09:48:45.745+02:00,4825.462288250001,-25.24908447265625,0.420806884765625,8.268096923828125,4825.45233625,-0.5449333410306809,0.7052132813175988,-0.4030064993284683,5.038907051086426,-32.265869140625,-7.691401958465576,-14.41812038421631,1.320643424987793,10.09976005554199,XArbitraryZVertical,-0.08984499868901479,0.3764220279304701,-0.314009805398108,0.86696718911271,0.5962666869163513,0.3921857476234436,-0.7004686594009399,0,0,0,-1,-1,4823.314921,unknown,2,2022-06-30T09:48:43.599+02:00,2022-06-30T08:20:05.567+02:00,1383,1.400134,0,0,1092.013,0,0,2022-06-30T09:48:43.599+02:00
2022-06-30T09:48:45.755+02:00,4825.472239250001,-28.19375610351562,-2.153976440429688,-2.182174682617188,4825.462288250001,-0.6297438372557984,0.3597588960465582,-0.3806483408868459,6.233599185943604,-29.33255195617676,-3.962318658828735,-21.58431243896484,3.407697677612305,12.7113037109375,XArbitraryZVertical,-0.1225669868533611,0.224685122443085,-0.331377795575827,0.9081203969929896,0.3268503248691559,0.3715224862098694,-0.8689878582954407,0,0,0,-1,-1,4823.314921,unknown,2,2022-06-30T09:48:43.599+02:00,2022-06-30T08:20:05.567+02:00,1383,1.400134,0,0,1092.013,0,0,2022-06-30T09:48:43.599+02:00
2022-06-30T09:48:45.765+02:00,4825.48219125,-20.49876403808594,-3.512405395507812,-4.938873291015625,4825.472239250001,-0.656986355452548,0.1201219914993404,-0.3611340001320868,-1.828206300735474,-16.27610015869141,-0.2733307480812073,-25.3611888885498,0.06747117638587952,9.196852684020996,XArbitraryZVertical,-0.1506280350120197,0.1137251203820652,-0.3270030843761423,0.9259842743432759,0.1121036857366562,0.3533353209495544,-0.9287555813789368,0,0,0,-1,-1,4823.314921,unknown,2,2022-06-30T09:48:43.599+02:00,2022-06-30T08:20:05.567+02:00,1383,1.400134,0,0,1092.013,0,0,2022-06-30T09:48:43.599+02:00
2022-06-30T09:48:45.775+02:00,4825.49214225,-9.0909423828125,0.8536224365234375,-1.835540771484375,4825.48219125,-0.6447092551095592,0.04288959987152258,-0.422089281189972,-9.275986671447754,-0.5969855785369873,1.450564503669739,-28.23287010192871,-2.563643932342529,-1.270778656005859,XArbitraryZVertical,-0.192003347325999,0.08623602767672606,-0.3139611341254673,0.925811305142748,0.03911340236663818,0.4096672534942627,-0.9113961458206177,0,0,0,-1,-1,4823.314921,unknown,2,2022-06-30T09:48:43.599+02:00,2022-06-30T08:20:05.567+02:00,1383,1.400134,0,0,1092.013,0,0,2022-06-30T09:48:43.599+02:00
2022-06-30T09:48:45.785+02:00,4825.50209425,1.383438110351562,2.486648559570312,-1.794357299804688,4825.49214225,-0.6224037380458268,0.07679431373339277,-0.507299900427912,-7.580848217010498,2.889398097991943,1.715984225273132,-20.56582069396973,-3.99822473526001,-4.067389965057373,XArbitraryZVertical,-0.2273308401921941,0.1121560843678664,-0.3053571816630439,0.9178773129235465,0.06705684214830399,0.4858189821243286,-0.8714833855628967,0,0,0,-1,-1,4823.314921,unknown,2,2022-06-30T09:48:43.599+02:00,2022-06-30T08:20:05.567+02:00,1383,1.400134,0,0,1092.013,0,0,2022-06-30T09:48:43.599+02:00
2022-06-30T09:48:45.795+02:00,4825.51204625,-1.942733764648438,0.238922119140625,-1.183319091796875,4825.50209425,-0.5913854214185553,0.08191659955391582,-0.5680207391696618,-5.042923927307129,-5.535670757293701,2.205929517745972,-9.159918785095215,0.3156574368476868,-0.9954002499580383,XArbitraryZVertical,-0.2563679094123533,0.1191853325472896,-0.2904698658712704,0.9141650317287435,0.06897582113742828,0.5379646420478821,-0.840140700340271,0,0,0,-1,-1,4823.314921,unknown,2,2022-06-30T09:48:43.599+02:00,2022-06-30T08:20:05.567+02:00,1383,1.400134,0,0,1092.013,0,0,2022-06-30T09:48:43.599+02:00
2022-06-30T09:48:45.805+02:00,4825.52199725,-5.487960815429688,0.6902313232421875,-2.69598388671875,4825.51204625,-0.5594612073725719,0.02582836757414735,-0.6111187151945938,-4.270721912384033,-8.15773868560791,2.686622142791748,1.362286686897278,1.912864208221436,-0.9756240248680115,XArbitraryZVertical,-0.2857090514164887,0.09488724150244039,-0.2670194505719243,0.9154602791623612,0.02115125395357609,0.5737840533256531,-0.8187335133552551,0,0,0,-1,-1,4823.314921,unknown,2,2022-06-30T09:48:43.599+02:00,2022-06-30T08:20:05.567+02:00,1383,1.400134,0,0,1092.013,0,0,2022-06-30T09:48:43.599+02:00
2022-06-30T09:48:45.815+02:00,4825.53194925,-4.564285278320312,-0.426513671875,-3.782760620117188,4825.52199725,-0.5397619519338316,-0.04042874011146842,-0.6616944120241597,-5.673954963684082,-7.633073329925537,0.2321533560752869,-1.910846352577209,-0.3755327463150024,-0.3950117826461792,XArbitraryZVertical,-0.3181187954938096,0.06816644986284387,-0.2457775113104274,0.9130975455631003,-0.03188765421509743,0.6144545674324036,-0.7883075475692749,0,0,0,-1,-1,4823.314921,unknown,2,2022-06-30T09:48:43.599+02:00,2022-06-30T08:20:05.567+02:00,1383,1.400134,0,0,1092.013,0,0,2022-06-30T09:48:43.599+02:00
2022-06-30T09:48:45.825+02:00,4825.54190025,-4.327163696289062,-0.247314453125,-3.658859252929688,4825.53194925,-0.559088004445141,-0.1322484838591838,-0.7165393069958378,-5.550905227661133,-8.424939155578613,-2.118942022323608,-5.388525009155273,0.03345203399658203,-1.948485612869263,XArbitraryZVertical,-0.3533797214789242,0.0370617357689844,-0.2355628700322429,0.9045768379797674,-0.09943591058254242,0.6567789316177368,-0.7474983930587769,0,0,0,-1,-1,4823.314921,unknown,2,2022-06-30T09:48:43.599+02:00,2022-06-30T08:20:05.567+02:00,1383,1.400134,0,0,1092.013,0,0,2022-06-30T09:48:43.599+02:00
2022-06-30T09:48:45.835+02:00,4825.551852250001,-4.690567016601562,1.497024536132812,-3.549423217773438,4825.54190025,-0.6109683959390045,-0.2503363474842604,-0.7627792998449426,-4.883757591247559,-7.933181285858154,-3.575189113616943,-4.385197162628174,-1.117447257041931,-3.08237624168396,XArbitraryZVertical,-0.387049627194901,0.0005615918369628579,-0.2326453890503721,0.892226689177134,-0.1790884882211685,0.6909333467483521,-0.7003845572471619,0,0,0,-1,-1,4823.314921,unknown,2,2022-06-30T09:48:43.599+02:00,2022-06-30T08:20:05.567+02:00,1383,1.400134,0,0,1092.013,0,0,2022-06-30T09:48:43.599+02:00
