loggingTime(txt),accelerometerTimestamp_sinceReboot(s),accelerometerAccelerationX(G),accelerometerAccelerationY(G),accelerometerAccelerationZ(G),motionTimestamp_sinceReboot(s),motionYaw(rad),motionRoll(rad),motionPitch(rad),motionRotationRateX(rad/s),motionRotationRateY(rad/s),motionRotationRateZ(rad/s),motionUserAccelerationX(G),motionUserAccelerationY(G),motionUserAccelerationZ(G),motionAttitudeReferenceFrame(txt),motionQuaternionX(R),motionQuaternionY(R),motionQuaternionZ(R),motionQuaternionW(R),motionGravityX(G),motionGravityY(G),motionGravityZ(G),motionMagneticFieldX(µT),motionMagneticFieldY(µT),motionMagneticFieldZ(µT),motionHeading(°),motionMagneticFieldCalibrationAccuracy(Z),activityTimestamp_sinceReboot(s),activity(txt),activityActivityConfidence(Z),activityActivityStartDate(txt),pedometerStartDate(txt),pedometerNumberofSteps(N),pedometerAverageActivePace(s/m),pedometerCurrentPace(s/m),pedometerCurrentCadence(steps/s),pedometerDistance(m),pedometerFloorAscended(N),pedometerFloorDescended(N),pedometerEndDate(txt)
2022-06-30T09:48:50.570+02:00,4830.268890375,0.0075836181640625,-0.24542236328125,-0.93756103515625,4830.258938375,-0.5621990469192948,0.03872206359657569,0.2733123737185967,-0.08210064470767975,-0.1826191544532776,0.01252862345427275,0.05738988146185875,-0.02083426713943481,-0.01099932193756104,XArbitraryZVertical,0.1361803507823585,-0.01935855979200213,-0.2722404799052101,0.9523472669496709,0.03727546334266663,-0.2699223458766937,-0.9621602892875671,0,0,0,-1,-1,4825.861256875,running,2,2022-06-30T09:48:46.145+02:00,2022-06-30T08:20:05.567+02:00,1383,1.400134,0,0,1092.013,0,0,2022-06-30T09:48:48.694+02:00
2022-06-30T09:48:50.572+02:00,4830.278841375,0.0412750244140625,-0.270294189453125,-0.9458160400390625,4830.268890375,-0.5625203005744349,0.03810915963357112,0.2723338549302702,-0.2062510848045349,-0.09508610516786575,-0.05001012235879898,0.03584431484341621,-0.006761997938156128,0.01412808895111084,XArbitraryZVertical,0.1356285279651769,-0.01953653577221133,-0.2724625085063412,0.9523588675117409,0.03669579327106476,-0.2689799964427948,-0.9624464511871338,0,0,0,-1,-1,4825.861256875,running,2,2022-06-30T09:48:46.145+02:00,2022-06-30T08:20:05.567+02:00,1383,1.400134,0,0,1092.013,0,0,2022-06-30T09:48:48.694+02:00
2022-06-30T09:48:50.573+02:00,4830.288793375,0.0512237548828125,-0.2853240966796875,-0.951324462890625,4830.278841375,-0.5627883444727758,0.03712665326431974,0.2700812774209861,-0.2221288532018661,-0.1410515904426575,0.04446471482515335,-0.02818912267684937,0.02138704061508179,0.02552419900894165,XArbitraryZVertical,0.1344208905931824,-0.01970998462183556,-0.272718907637899,0.9524531363369048,0.03577256202697754,-0.2668097615242004,-0.9630850553512573,0,0,0,-1,-1,4825.861256875,running,2,2022-06-30T09:48:46.145+02:00,2022-06-30T08:20:05.567+02:00,1383,1.400134,0,0,1092.013,0,0,2022-06-30T09:48:48.694+02:00
2022-06-30T09:48:50.582+02:00,4830.298745375,0.049346923828125,-0.2754669189453125,-0.921875,4830.288793375,-0.5612589471761064,0.03566409088449882,0.2684089574684494,-0.1223026588559151,-0.07507389783859253,0.2014913558959961,0.006895028054714203,-0.005096882581710815,0.01776504516601562,XArbitraryZVertical,0.1334414900333147,-0.02007247413030903,-0.2721340076340871,0.9527505033291923,0.03437981382012367,-0.2651976943016052,-0.9635809063911438,0,0,0,-1,-1,4825.861256875,running,2,2022-06-30T09:48:46.145+02:00,2022-06-30T08:20:05.567+02:00,1383,1.400134,0,0,1092.013,0,0,2022-06-30T09:48:48.694+02:00
2022-06-30T09:48:50.592+02:00,4830.308696375,0.0712432861328125,-0.2931060791015625,-0.9261016845703125,4830.298745375,-0.5594783334092795,0.03447738168407568,0.267493485045483,-0.1220595091581345,-0.04882561415433884,0.110487274825573,0.01797892525792122,-0.02100959420204163,0.01253890991210938,XArbitraryZVertical,0.1328626667146754,-0.02039287286281037,-0.2713891871930003,0.9530370383534732,0.03324465453624725,-0.2643148899078369,-0.9638633131980896,0,0,0,-1,-1,4825.861256875,running,2,2022-06-30T09:48:46.145+02:00,2022-06-30T08:20:05.567+02:00,1383,1.400134,0,0,1092.013,0,0,2022-06-30T09:48:48.694+02:00
2022-06-30T09:48:50.601+02:00,4830.318648375001,0.0777587890625,-0.290435791015625,-0.9491729736328125,4830.308696375,-0.5588336224784487,0.03365662101051312,0.2662011366362599,-0.10236756503582,-0.08040165156126022,0.01521055959165096,0.01688173413276672,-0.01239904761314392,0.04235595464706421,XArbitraryZVertical,0.1321428638121168,-0.02056318769631115,-0.2711705138917498,0.9531957280242457,0.03246501088142395,-0.263068288564682,-0.9642308354377747,0,0,0,-1,-1,4825.861256875,running,2,2022-06-30T09:48:46.145+02:00,2022-06-30T08:20:05.567+02:00,1383,1.400134,0,0,1092.013,0,0,2022-06-30T09:48:48.694+02:00
2022-06-30T09:48:50.611+02:00,4830.328599375001,0.04541015625,-0.261077880859375,-0.97021484375,4830.318648375001,-0.5586709118991435,0.03287619859926371,0.2645112669777093,-0.08996376395225525,-0.1035569384694099,0.03469244763255119,0.03951605036854744,-0.03166890144348145,0.0385972261428833,XArbitraryZVertical,0.1312343121416605,-0.02069174158778447,-0.2711885563323846,0.9533133262635429,0.03172706067562103,-0.2614375650882721,-0.9646987915039062,0,0,0,-1,-1,4825.861256875,running,2,2022-06-30T09:48:46.145+02:00,2022-06-30T08:20:05.567+02:00,1383,1.400134,0,0,1092.013,0,0,2022-06-30T09:48:48.694+02:00
2022-06-30T09:48:50.621+02:00,4830.338551375,0.021240234375,-0.255859375,-0.992523193359375,4830.328599375001,-0.558234659043897,0.0323591569537586,0.2630464677063684,-0.1096285432577133,-0.07733438909053802,0.06517045944929123,0.0465179905295372,-0.03041273355484009,0.01592397689819336,XArbitraryZVertical,0.1304713412065044,-0.0207080783529802,-0.2710523444796991,0.9534564508427458,0.03124062344431877,-0.260023444890976,-0.9650968313217163,0,0,0,-1,-1,4825.861256875,running,2,2022-06-30T09:48:46.145+02:00,2022-06-30T08:20:05.567+02:00,1383,1.400134,0,0,1092.013,0,0,2022-06-30T09:48:48.694+02:00
2022-06-30T09:48:50.631+02:00,4830.348502375,0.0361480712890625,-0.256072998046875,-1.005783081054688,4830.338551375,-0.5578555359079339,0.03272678087530112,0.26242111466475,-0.1155249774456024,-0.0478525348007679,0.05524415895342827,0.01380925253033638,-0.001658737659454346,-0.004967153072357178,XArbitraryZVertical,0.1302272740805307,-0.02042210049837739,-0.2708637647725554,0.9535495723922381,0.03160072863101959,-0.2594195306301117,-0.9652475714683533,0,0,0,-1,-1,4825.861256875,running,2,2022-06-30T09:48:46.145+02:00,2022-06-30T08:20:05.567+02:00,1383,1.400134,0,0,1092.013,0,0,2022-06-30T09:48:48.694+02:00
2022-06-30T09:48:50.641+02:00,4830.358454375,0.059234619140625,-0.2526092529296875,-1.00701904296875,4830.348502375,-0.5575007599279823,0.03305869201008437,0.2616473886423802,-0.1297209560871124,-0.03113507106900215,0.05193811282515526,-0.01068767532706261,0.002812445163726807,-0.02708572149276733,XArbitraryZVertical,0.1299073602164242,-0.02013442557792341,-0.2706930073788887,0.9536477585499784,0.03192772716283798,-0.2586722075939178,-0.9654373526573181,0,0,0,-1,-1,4825.861256875,running,2,2022-06-30T09:48:46.145+02:00,2022-06-30T08:20:05.567+02:00,1383,1.400134,0,0,1092.013,0,0,2022-06-30T09:48:48.694+02:00
2022-06-30T09:48:50.651+02:00,4830.368405375,0.0717620849609375,-0.2541351318359375,-0.996826171875,4830.358454375,-0.5567177880563763,0.03192060432082996,0.2601306691629628,-0.1499195694923401,-0.03334537521004677,0.05518430471420288,0.005306456238031387,0.00113341212272644,-0.03991889953613281,XArbitraryZVertical,0.129038936588003,-0.02041819219909112,-0.2704321665712956,0.9538336321880769,0.03084144182503223,-0.2572068274021149,-0.9658641219139099,0,0,0,-1,-1,4825.861256875,running,2,2022-06-30T09:48:46.145+02:00,2022-06-30T08:20:05.567+02:00,1383,1.400134,0,0,1092.013,0,0,2022-06-30T09:48:48.694+02:00
2022-06-30T09:48:50.661+02:00,4830.378357375001,0.070770263671875,-0.2590789794921875,-0.9823455810546875,4830.368405375,-0.556199767727215,0.03164524307492077,0.2590731405945518,-0.1516772657632828,-0.04506035521626472,0.0479639433324337,0.02865037694573402,0.00357508659362793,-0.04087507724761963,XArbitraryZVertical,0.1285032147444387,-0.02037114370863486,-0.2702296432448206,0.9539643060634949,0.03058406710624695,-0.2561847269535065,-0.9661439061164856,0,0,0,-1,-1,4825.861256875,running,2,2022-06-30T09:48:46.145+02:00,2022-06-30T08:20:05.567+02:00,1383,1.400134,0,0,1092.013,0,0,2022-06-30T09:48:48.694+02:00
2022-06-30T09:48:50.671+02:00,4830.388309375,0.0642242431640625,-0.2757720947265625,-0.959625244140625,4830.378357375001,-0.5558284893048014,0.03152737006812662,0.2583275196872054,-0.1584271043539047,-0.05493870750069618,0.039693932980299,0.04128570854663849,0.001328378915786743,-0.03048795461654663,XArbitraryZVertical,0.1281358187188422,-0.02030137113681188,-0.2700789125854182,0.9540579006110629,0.03047619760036469,-0.2554639279842377,-0.9663381576538086,0,0,0,-1,-1,4825.861256875,running,2,2022-06-30T09:48:46.145+02:00,2022-06-30T08:20:05.567+02:00,1383,1.400134,0,0,1092.013,0,0,2022-06-30T09:48:48.694+02:00
2022-06-30T09:48:50.696+02:00,4830.398260375,0.0582733154296875,-0.2800140380859375,-0.93682861328125,4830.388309375,-0.5555155837743734,0.03145461362826382,0.2575519521205918,-0.1849854737520218,-0.06329037994146347,0.04376989975571632,0.04035797342658043,-0.004365354776382446,-0.0158073902130127,XArbitraryZVertical,0.1277596034028934,-0.02020983825040034,-0.2699537815436711,0.9541457705371503,0.03041211329400539,-0.2547140121459961,-0.9665380716323853,0,0,0,-1,-1,4825.861256875,running,2,2022-06-30T09:48:46.145+02:00,2022-06-30T08:20:05.567+02:00,1383,1.400134,0,0,1092.013,0,0,2022-06-30T09:48:48.694+02:00
2022-06-30T09:48:50.698+02:00,4830.408212375,0.053741455078125,-0.259979248046875,-0.9430999755859375,4830.398260375,-0.5553635838827848,0.03219759287513686,0.2572128860097463,-0.2083878666162491,-0.05754078552126884,0.04891679063439369,0.03309106454253197,-0.02138638496398926,0.00697636604309082,XArbitraryZVertical,0.1276998166120989,-0.01979924563696801,-0.2698423554658879,0.9541938828009094,0.03113299980759621,-0.2543861269950867,-0.9666014909744263,0,0,0,-1,-1,4825.861256875,running,2,2022-06-30T09:48:46.145+02:00,2022-06-30T08:20:05.567+02:00,1383,1.400134,0,0,1092.013,0,0,2022-06-30T09:48:48.694+02:00
2022-06-30T09:48:50.701+02:00,4830.418163375,0.047454833984375,-0.23529052734375,-0.9671783447265625,4830.408212375,-0.5550866040183301,0.03304897285241103,0.256360080824258,-0.2033398449420929,-0.03619395196437836,0.06525049358606339,0.02631004527211189,-0.0264531672000885,0.02996259927749634,XArbitraryZVertical,0.1274109524638538,-0.01925863035063069,-0.2696774987027903,0.9542901610572568,0.03196309134364128,-0.2535612881183624,-0.9667910933494568,0,0,0,-1,-1,4825.861256875,running,2,2022-06-30T09:48:46.145+02:00,2022-06-30T08:20:05.567+02:00,1383,1.400134,0,0,1092.013,0,0,2022-06-30T09:48:48.694+02:00
2022-06-30T09:48:50.711+02:00,4830.428115375001,0.0454254150390625,-0.2257843017578125,-0.990753173828125,4830.418163375,-0.5543969604749608,0.03302283794133148,0.2547094840111885,-0.1685865372419357,-0.01128644868731499,0.07696273922920227,0.02178967744112015,-0.008015364408493042,0.02410906553268433,XArbitraryZVertical,0.1266273262588325,-0.01900151570516895,-0.2693918627061819,0.9544802692123392,0.03195159882307053,-0.251964271068573,-0.9672089219093323,0,0,0,-1,-1,4825.861256875,running,2,2022-06-30T09:48:46.145+02:00,2022-06-30T08:20:05.567+02:00,1383,1.400134,0,0,1092.013,0,0,2022-06-30T09:48:48.694+02:00
2022-06-30T09:48:50.721+02:00,4830.438066375001,0.048980712890625,-0.234161376953125,-1.015457153320312,4830.428115375001,-0.5534341487618084,0.03242294957518205,0.253195213233333,-0.128218337893486,0.001609110739082098,0.08563026785850525,0.01607094705104828,0.01520764827728271,0.0004299283027648926,XArbitraryZVertical,0.1258338374685836,-0.01902022989822579,-0.2690082091881297,0.9546930369644795,0.0313837081193924,-0.2504985630512238,-0.9676081538200378,0,0,0,-1,-1,4825.861256875,running,2,2022-06-30T09:48:46.145+02:00,2022-06-30T08:20:05.567+02:00,1383,1.400134,0,0,1092.013,0,0,2022-06-30T09:48:48.694+02:00
2022-06-30T09:48:50.731+02:00,4830.448018375,0.0561981201171875,-0.2349853515625,-1.022674560546875,4830.438066375001,-0.552482848428034,0.03233169905419861,0.2519999703798634,-0.0984877422451973,0.0103052519261837,0.09325788915157318,0.01412016898393631,0.02355654537677765,-0.02284348011016846,XArbitraryZVertical,0.1252606375859419,-0.0188410900463002,-0.2685895660679052,0.9548898342067301,0.03130507096648216,-0.2493412643671036,-0.967909574508667,0,0,0,-1,-1,4825.861256875,running,2,2022-06-30T09:48:46.145+02:00,2022-06-30T08:20:05.567+02:00,1383,1.400134,0,0,1092.013,0,0,2022-06-30T09:48:48.694+02:00
2022-06-30T09:48:50.741+02:00,4830.457969375,0.05841064453125,-0.22900390625,-1.018798828125,4830.448018375,-0.5515725988480444,0.03286516562287717,0.2508386688617545,-0.1141995936632156,0.02228468097746372,0.1118241176009178,0.01714963093400002,0.01405468583106995,-0.04727554321289062,XArbitraryZVertical,0.1247868204875832,-0.01837134844555043,-0.268150448475157,0.9550844281812922,0.03183090686798096,-0.2482164651155472,-0.9681814908981323,0,0,0,-1,-1,4825.861256875,running,2,2022-06-30T09:48:46.145+02:00,2022-06-30T08:20:05.567+02:00,1383,1.400134,0,0,1092.013,0,0,2022-06-30T09:48:48.694+02:00
2022-06-30T09:48:50.751+02:00,4830.467921375001,0.0555419921875,-0.2350921630859375,-1.010238647460938,4830.457969375,-0.5505501494469881,0.03363589248015007,0.2495658871946638,-0.1408800035715103,0.03377405554056168,0.1153103560209274,0.02361024171113968,0.01199756562709808,-0.05420279502868652,XArbitraryZVertical,0.1242921479156094,-0.01776656297693572,-0.2676458574606337,0.9553017977577832,0.03258769959211349,-0.2469833195209503,-0.9684716463088989,0,0,0,-1,-1,4825.861256875,running,2,2022-06-30T09:48:46.145+02:00,2022-06-30T08:20:05.567+02:00,1383,1.400134,0,0,1092.013,0,0,2022-06-30T09:48:48.694+02:00
2022-06-30T09:48:50.761+02:00,4830.477873375,0.057861328125,-0.2318878173828125,-0.9923095703125,4830.467921375001,-0.5496097084665316,0.03456317231646804,0.2483945139095091,-0.1336055845022202,0.03868625685572624,0.1013751029968262,0.02491476386785507,0.0168437659740448,-0.05006927251815796,XArbitraryZVertical,0.1238654302411097,-0.01710624958482714,-0.2671683551043326,0.9555029521414319,0.0334957018494606,-0.2458480596542358,-0.9687294363975525,0,0,0,-1,-1,4825.861256875,running,2,2022-06-30T09:48:46.145+02:00,2022-06-30T08:20:05.567+02:00,1383,1.400134,0,0,1092.013,0,0,2022-06-30T09:48:48.694+02:00
2022-06-30T09:48:50.771+02:00,4830.487824375,0.056488037109375,-0.2382659912109375,-0.9763031005859375,4830.477873375,-0.5486645078906353,0.03546126985499478,0.2478394930112946,-0.1356647312641144,0.04537710919976234,0.1106771230697632,0.02117127180099487,0.01021747291088104,-0.04140335321426392,XArbitraryZVertical,0.1237283887678694,-0.01654341153446623,-0.2666751134760546,0.955668345269718,0.0343705341219902,-0.2453100383281708,-0.968835175037384,0,0,0,-1,-1,4825.861256875,running,2,2022-06-30T09:48:46.145+02:00,2022-06-30T08:20:05.567+02:00,1383,1.400134,0,0,1092.013,0,0,2022-06-30T09:48:48.694+02:00
2022-06-30T09:48:50.781+02:00,4830.497776375,0.0519256591796875,-0.2609100341796875,-0.9718170166015625,4830.487824375,-0.5475611813000841,0.03622678621651347,0.247234776048589,-0.1757642179727554,0.05693176761269569,0.1160620376467705,0.0227435976266861,0.01283553242683411,-0.02335280179977417,XArbitraryZVertical,0.123550714533641,-0.01602754158758534,-0.2661158023577367,0.9558560371922368,0.03511755168437958,-0.2447237521409988,-0.9689566493034363,0,0,0,-1,-1,4825.861256875,running,2,2022-06-30T09:48:46.145+02:00,2022-06-30T08:20:05.567+02:00,1383,1.400134,0,0,1092.013,0,0,2022-06-30T09:48:48.694+02:00
2022-06-30T09:48:50.791+02:00,4830.507727375,0.047210693359375,-0.2746734619140625,-0.9703521728515625,4830.497776375,-0.5464550288713795,0.03694939117846654,0.2456294987527389,-0.2482841610908508,0.06114141270518303,0.1047148033976555,0.02065566927194595,0.004900604486465454,-0.006980597972869873,XArbitraryZVertical,0.1228891291791528,-0.0153971400379699,-0.2655832296445567,0.9560997548686158,0.03583218157291412,-0.243166983127594,-0.9693223834037781,0,0,0,-1,-1,4825.861256875,running,2,2022-06-30T09:48:46.145+02:00,2022-06-30T08:20:05.567+02:00,1383,1.400134,0,0,1092.013,0,0,2022-06-30T09:48:48.694+02:00
2022-06-30T09:48:50.800+02:00,4830.517679375001,0.0373687744140625,-0.261138916015625,-0.985321044921875,4830.507727375,-0.5453870447244444,0.03758025180579597,0.2426180020245663,-0.3286391794681549,0.06845179200172424,0.09459079802036285,0.01545444503426552,-0.02066564559936523,-0.00178992748260498,XArbitraryZVertical,0.1215427976862233,-0.0146241184395226,-0.2651102689180389,0.9564152306420795,0.03647102788090706,-0.2402447760105133,-0.970026969909668,0,0,0,-1,-1,4825.861256875,running,2,2022-06-30T09:48:46.145+02:00,2022-06-30T08:20:05.567+02:00,1383,1.400134,0,0,1092.013,0,0,2022-06-30T09:48:48.694+02:00
2022-06-30T09:48:50.810+02:00,4830.527630375001,0.023590087890625,-0.22332763671875,-1.009750366210938,4830.517679375001,-0.5444045881228327,0.03833135984344251,0.2386590216179285,-0.3700953423976898,0.09316442906856537,0.0775749683380127,0.009974736720323563,-0.03827400505542755,0.0005900263786315918,XArbitraryZVertical,0.1197580920296635,-0.01367254139228761,-0.2646948902424605,0.9567694437187519,0.03723577037453651,-0.2363998740911484,-0.9709421396255493,0,0,0,-1,-1,4825.861256875,running,2,2022-06-30T09:48:46.145+02:00,2022-06-30T08:20:05.567+02:00,1383,1.400134,0,0,1092.013,0,0,2022-06-30T09:48:48.694+02:00
2022-06-30T09:48:50.820+02:00,4830.537582375,0.0243988037109375,-0.1869049072265625,-1.01947021484375,4830.527630375001,-0.5436533564894264,0.03954084489779066,0.2349105453297848,-0.3089978992938995,0.1341355741024017,0.051036037504673,-0.001076251268386841,-0.02838332951068878,-0.0135459303855896,XArbitraryZVertical,0.1181317960090421,-0.01254508325704156,-0.2643578872460172,0.9570801971198626,0.03844484314322472,-0.2327559888362885,-0.9717749953269958,0,0,0,-1,-1,4825.861256875,running,2,2022-06-30T09:48:46.145+02:00,2022-06-30T08:20:05.567+02:00,1383,1.400134,0,0,1092.013,0,0,2022-06-30T09:48:48.694+02:00
2022-06-30T09:48:50.830+02:00,4830.547533375,0.046966552734375,-0.177398681640625,-1.019195556640625,4830.537582375,-0.5431873470847715,0.04129247589138275,0.2322900613245853,-0.1694187074899673,0.1604167073965073,0.04208808019757271,-0.01658210903406143,0.006878644227981567,-0.0374380350112915,XArbitraryZVertical,0.1171135063033754,-0.01132721397792126,-0.264098151596152,0.9572921777733586,0.04017201438546181,-0.2302066832780838,-0.9723122119903564,0,0,0,-1,-1,4825.861256875,running,2,2022-06-30T09:48:46.145+02:00,2022-06-30T08:20:05.567+02:00,1383,1.400134,0,0,1092.013,0,0,2022-06-30T09:48:48.694+02:00
2022-06-30T09:48:50.840+02:00,4830.557485375,0.06103515625,-0.20660400390625,-1.013916015625,4830.547533375,-0.5426823357205496,0.04314936895550692,0.2309534565032844,-0.05904612317681313,0.1623451113700867,0.0654517263174057,-0.01759203895926476,0.04200045764446259,-0.04692763090133667,XArbitraryZVertical,0.1167223422305957,-0.01022929334210364,-0.2637820531354577,0.9574394929665204,0.04199066013097763,-0.2289057672023773,-0.9725425243377686,0,0,0,-1,-1,4825.861256875,running,2,2022-06-30T09:48:46.145+02:00,2022-06-30T08:20:05.567+02:00,1383,1.400134,0,0,1092.013,0,0,2022-06-30T09:48:48.694+02:00
2022-06-30T09:48:50.850+02:00,4830.567437375001,0.0637054443359375,-0.248809814453125,-0.9946746826171875,4830.557485375,-0.5420194816761825,0.04477860460870123,0.2305064721870742,-0.03830895572900772,0.1489352583885193,0.0646020770072937,0.003386691212654114,0.05107153952121735,-0.04662054777145386,XArbitraryZVertical,0.116726617969577,-0.009350616111171396,-0.2633812237477387,0.9575582659856374,0.04357967898249626,-0.2284706234931946,-0.9725749492645264,0,0,0,-1,-1,4825.861256875,running,2,2022-06-30T09:48:46.145+02:00,2022-06-30T08:20:05.567+02:00,1383,1.400134,0,0,1092.013,0,0,2022-06-30T09:48:48.694+02:00
2022-06-30T09:48:50.860+02:00,4830.577388375001,0.0582122802734375,-0.264007568359375,-0.9795074462890625,4830.567437375001,-0.5414928160724816,0.04631018417670742,0.2297729236316641,-0.1189569234848022,0.1410349905490875,0.03928953036665916,0.0159580186009407,0.02115203440189362,-0.04124170541763306,XArbitraryZVertical,0.1165798241082456,-0.008488176152673145,-0.2630589826829256,0.9576727395643571,0.04507695138454437,-0.2277564257383347,-0.9726741909980774,0,0,0,-1,-1,4825.861256875,running,2,2022-06-30T09:48:46.145+02:00,2022-06-30T08:20:05.567+02:00,1383,1.400134,0,0,1092.013,0,0,2022-06-30T09:48:48.694+02:00
2022-06-30T09:48:50.870+02:00,4830.587340375,0.048187255859375,-0.249847412109375,-0.9727935791015625,4830.577388375001,-0.5411454743820048,0.04778541143747377,0.2282051928290302,-0.2228038311004639,0.1448431462049484,0.02452556416392326,0.01717644557356834,-0.02258060872554779,-0.02171248197555542,XArbitraryZVertical,0.1160255580499299,-0.007551353680399318,-0.2628484426584048,0.9578057389930525,0.04652881622314453,-0.2262296080589294,-0.9729620814323425,0,0,0,-1,-1,4825.861256875,running,2,2022-06-30T09:48:46.145+02:00,2022-06-30T08:20:05.567+02:00,1383,1.400134,0,0,1092.013,0,0,2022-06-30T09:48:48.694+02:00
2022-06-30T09:48:50.880+02:00,4830.597291375,0.0366058349609375,-0.2302093505859375,-0.96099853515625,4830.587340375,-0.5407171529704793,0.04925483023177022,0.2259755097050548,-0.3072321712970734,0.1568337678909302,0.03861129283905029,0.01022892817854881,-0.03995078802108765,-0.006113290786743164,XArbitraryZVertical,0.1151538318675677,-0.006524012379688531,-0.2626179990603306,0.9579817154343667,0.04798316955566406,-0.2240571826696396,-0.9733940362930298,0,0,0,-1,-1,4825.861256875,running,2,2022-06-30T09:48:46.145+02:00,2022-06-30T08:20:05.567+02:00,1383,1.400134,0,0,1092.013,0,0,2022-06-30T09:48:48.694+02:00
2022-06-30T09:48:50.890+02:00,4830.607243375001,0.0303802490234375,-0.2181549072265625,-0.9455413818359375,4830.597291375,-0.5400777762778955,0.05068121718208232,0.2235016338750954,-0.3246400952339172,0.1604261696338654,0.05268526449799538,-0.001212421804666519,-0.02820228040218353,0.001081764698028564,XArbitraryZVertical,0.1141596875921489,-0.0054727349423053,-0.2622965429779018,0.9581953116014648,0.049399483948946,-0.2216455191373825,-0.9738752245903015,0,0,0,-1,-1,4825.861256875,running,2,2022-06-30T09:48:46.145+02:00,2022-06-30T08:20:05.567+02:00,1383,1.400134,0,0,1092.013,0,0,2022-06-30T09:48:48.694+02:00
2022-06-30T09:48:50.900+02:00,4830.617194375001,0.028961181640625,-0.237579345703125,-0.9365386962890625,4830.607243375001,-0.539267915571835,0.05193053056991508,0.2207733193750994,-0.3456228971481323,0.1623084992170334,0.06082628294825554,-0.01404167339205742,-0.01122550666332245,0.01341456174850464,XArbitraryZVertical,0.1130201931812308,-0.004463091148708433,-0.2619113429903331,0.9584409815044668,0.05064732208848,-0.2189842313528061,-0.9744130373001099,0,0,0,-1,-1,4825.861256875,running,2,2022-06-30T09:48:46.145+02:00,2022-06-30T08:20:05.567+02:00,1383,1.400134,0,0,1092.013,0,0,2022-06-30T09:48:48.694+02:00
2022-06-30T09:48:50.910+02:00,4830.627146375,0.0272369384765625,-0.26666259765625,-0.940948486328125,4830.617194375001,-0.5384560778191081,0.05334594934770246,0.2171362783248018,-0.3969148993492126,0.1708600074052811,0.05535018816590309,-0.02168853580951691,-0.002721264958381653,0.02958792448043823,XArbitraryZVertical,0.1114665635359605,-0.003253096051374318,-0.2615415252935283,0.9587287308255712,0.05206859856843948,-0.2154340296983719,-0.975129246711731,0,0,0,-1,-1,4825.861256875,running,2,2022-06-30T09:48:46.145+02:00,2022-06-30T08:20:05.567+02:00,1383,1.400134,0,0,1092.013,0,0,2022-06-30T09:48:48.694+02:00
2022-06-30T09:48:50.920+02:00,4830.637097375,0.0235748291015625,-0.289337158203125,-0.9522857666015625,4830.627146375,-0.5377379113307351,0.05481339106636882,0.2126683709171925,-0.5172149538993835,0.1716549694538116,0.03283023089170456,-0.02459068596363068,-0.02651084959506989,0.03946453332901001,XArbitraryZVertical,0.1095206217386411,-0.001913448073667187,-0.2612376923023331,0.9590393617522237,0.05355168506503105,-0.2110688984394073,-0.9760031700134277,0,0,0,-1,-1,4825.861256875,running,2,2022-06-30T09:48:46.145+02:00,2022-06-30T08:20:05.567+02:00,1383,1.400134,0,0,1092.013,0,0,2022-06-30T09:48:48.694+02:00
2022-06-30T09:48:50.930+02:00,4830.647049375,0.014739990234375,-0.29742431640625,-0.9460601806640625,4830.637097375,-0.5371960075278596,0.05631202827536387,0.2065952862017549,-0.7128873467445374,0.1648069769144058,0.0004622062551788986,-0.02784867584705353,-0.06153422594070435,0.03623521327972412,XArbitraryZVertical,0.1068085885611905,-0.0003553711379535488,-0.2610619245356406,0.9593949218087234,0.0550854280591011,-0.2051287889480591,-0.9771835803985596,0,0,0,-1,-1,4825.861256875,running,2,2022-06-30T09:48:46.145+02:00,2022-06-30T08:20:05.567+02:00,1383,1.400134,0,0,1092.013,0,0,2022-06-30T09:48:48.694+02:00
2022-06-30T09:48:50.940+02:00,4830.657001375001,0.0098114013671875,-0.29534912109375,-0.92919921875,4830.647049375,-0.5368981935319393,0.05780634011612085,0.1982756609324867,-0.9669222831726074,0.1615816205739975,-0.04076432436704636,-0.03306758031249046,-0.09235849976539612,0.02648442983627319,XArbitraryZVertical,0.1030181496866167,0.001486321803689794,-0.2610659302622736,0.9598072075536974,0.05664222314953804,-0.1969790756702423,-0.9787700772285461,0,0,0,-1,-1,4825.861256875,running,2,2022-06-30T09:48:46.145+02:00,2022-06-30T08:20:05.567+02:00,1383,1.400134,0,0,1092.013,0,0,2022-06-30T09:48:48.694+02:00
2022-06-30T09:48:50.950+02:00,4830.666952375001,0.012542724609375,-0.3207855224609375,-0.9368133544921875,4830.657001375001,-0.5368695803072236,0.05931992241751491,0.1870884134553041,-1.27970027923584,0.163679376244545,-0.09124757349491119,-0.0435108058154583,-0.1114258021116257,0.03476160764694214,XArbitraryZVertical,0.09785398101598265,0.00370557579185066,-0.2612760257805819,0.9602842034109937,0.05825060978531837,-0.1859989017248154,-0.9808217287063599,0,0,0,-1,-1,4825.861256875,running,2,2022-06-30T09:48:46.145+02:00,2022-06-30T08:20:05.567+02:00,1383,1.400134,0,0,1092.013,0,0,2022-06-30T09:48:48.694+02:00
2022-06-30T09:48:50.960+02:00,4830.676904375,0.01287841796875,-0.37060546875,-0.9600067138671875,4830.666952375001,-0.5372535188240629,0.06099888853194313,0.1725780620519739,-1.626562833786011,0.1752526760101318,-0.1646687984466553,-0.0502442941069603,-0.1236268430948257,0.05411392450332642,XArbitraryZVertical,0.09111595781303376,0.006428947254068255,-0.2617634062415068,0.9607999146260615,0.06005550920963287,-0.1717226803302765,-0.9833130836486816,0,0,0,-1,-1,4825.861256875,running,2,2022-06-30T09:48:46.145+02:00,2022-06-30T08:20:05.567+02:00,1383,1.400134,0,0,1092.013,0,0,2022-06-30T09:48:48.694+02:00
2022-06-30T09:48:50.970+02:00,4830.686855375,0.0146636962890625,-0.4072723388671875,-0.9412689208984375,4830.676904375,-0.5382039801120477,0.06291308725190067,0.1544503108814707,-2.001937389373779,0.1942178457975388,-0.251270204782486,-0.0495806522667408,-0.1669489294290543,0.04932814836502075,XArbitraryZVertical,0.08267197360729872,0.009728077895603321,-0.2626032283064714,0.9613065903304944,0.06212318688631058,-0.1538369804620743,-0.9861414432525635,0,0,0,-1,-1,4825.861256875,running,2,2022-06-30T09:48:46.145+02:00,2022-06-30T08:20:05.567+02:00,1383,1.400134,0,0,1092.013,0,0,2022-06-30T09:48:48.694+02:00
2022-06-30T09:48:50.980+02:00,4830.696807375,0.0016937255859375,-0.42327880859375,-0.9066314697265625,4830.686855375,-0.5397782289584493,0.06507640915974278,0.1322691082251375,-2.432674884796143,0.2133084535598755,-0.3510122299194336,-0.05158422887325287,-0.23872210085392,0.02916032075881958,XArbitraryZVertical,0.07231533422965941,0.01367534068878164,-0.2638287467102489,0.9617577355866027,0.06446246057748795,-0.1318837702274323,-0.9891669750213623,0,0,0,-1,-1,4825.861256875,running,2,2022-06-30T09:48:46.145+02:00,2022-06-30T08:20:05.567+02:00,1383,1.400134,0,0,1092.013,0,0,2022-06-30T09:48:48.694+02:00
2022-06-30T09:48:50.990+02:00,4830.706758375,-0.01385498046875,-0.4113922119140625,-0.895111083984375,4830.696807375,-0.5421630718206748,0.06764125167627083,0.1054231874527506,-2.919739484786987,0.2706116735935211,-0.4857754707336426,-0.05255091190338135,-0.3020447194576263,0.05090510845184326,XArbitraryZVertical,0.05977608806423104,0.01843392546962032,-0.2655322807272179,0.962070490692823,0.06721443682909012,-0.1052280142903328,-0.9921740293502808,0,0,0,-1,-1,4825.861256875,running,2,2022-06-30T09:48:46.145+02:00,2022-06-30T08:20:05.567+02:00,1383,1.400134,0,0,1092.013,0,0,2022-06-30T09:48:48.694+02:00
2022-06-30T09:48:50.999+02:00,4830.716710375001,-0.0185394287109375,-0.3846893310546875,-0.894073486328125,4830.706758375,-0.5454963728844898,0.07115334026147312,0.07343981347047729,-3.452072620391846,0.3916797637939453,-0.6228407025337219,-0.06920813769102097,-0.349905401468277,0.0881495475769043,XArbitraryZVertical,0.04490733690781376,0.02434814027742806,-0.2677695786937283,0.9621278461888951,0.07090168446302414,-0.07337381690740585,-0.9947810173034668,0,0,0,-1,-1,4825.861256875,running,2,2022-06-30T09:48:46.145+02:00,2022-06-30T08:20:05.567+02:00,1383,1.400134,0,0,1092.013,0,0,2022-06-30T09:48:48.694+02:00
2022-06-30T09:48:51.010+02:00,4830.726661375001,-0.0143585205078125,-0.322052001953125,-0.9080352783203125,4830.716710375001,-0.54940780500748,0.07595788365469128,0.03577086858941681,-4.045082092285156,0.5426015257835388,-0.7044801712036133,-0.08969147503376007,-0.3756293654441833,0.1013676524162292,XArbitraryZVertical,0.02749961294977249,0.03169242787772054,-0.2703693578067895,0.9618419621666643,0.07583631575107574,-0.03576324135065079,-0.9964787364006042,0,0,0,-1,-1,4825.861256875,running,2,2022-06-30T09:48:46.145+02:00,2022-06-30T08:20:05.567+02:00,1383,1.400134,0,0,1092.013,0,0,2022-06-30T09:48:48.694+02:00
2022-06-30T09:48:51.020+02:00,4830.736613375,-0.0124664306640625,-0.239166259765625,-0.901123046875,4830.726661375001,-0.552914450909099,0.0820627252789041,-0.008665425207894184,-4.843871593475342,0.6892240047454834,-0.6912128329277039,-0.1005071774125099,-0.3933550417423248,0.1025238633155823,XArbitraryZVertical,0.007031554375132552,0.04064350336300918,-0.2728877967404333,0.9611612658361864,0.08196756988763809,0.008665316738188267,-0.9965973496437073,0,0,0,-1,-1,4825.861256875,running,2,2022-06-30T09:48:46.145+02:00,2022-06-30T08:20:05.567+02:00,1383,1.400134,0,0,1092.013,0,0,2022-06-30T09:48:48.694+02:00
2022-06-30T09:48:51.029+02:00,4830.746565375001,-0.0077972412109375,-0.145263671875,-0.84033203125,4830.736613375,-0.5548457926059132,0.0895175367302553,-0.0626710292877684,-5.982718467712402,0.8411000967025757,-0.6162081360816956,-0.1035812199115753,-0.3846824169158936,0.08600533008575439,XArbitraryZVertical,-0.01785394135337139,0.05158400141109117,-0.274817616226923,0.959945678045075,0.08922252058982849,0.06263001263141632,-0.9940406680107117,0,0,0,-1,-1,4825.861256875,running,2,2022-06-30T09:48:46.145+02:00,2022-06-30T08:20:05.567+02:00,1383,1.400134,0,0,1092.013,0,0,2022-06-30T09:48:48.694+02:00
2022-06-30T09:48:51.039+02:00,4830.756516375001,0.0007781982421875,-0.0323638916015625,-0.7730865478515625,4830.746565375001,-0.554230804867872,0.09883713897228043,-0.129435054028564,-7.435949802398682,1.036868572235107,-0.5212715268135071,-0.1103174760937691,-0.3682405948638916,0.08567231893539429,XArbitraryZVertical,-0.04864282852869168,0.06508598214016767,-0.2757490531935246,0.9577891539277209,0.09785086661577225,0.1290739476680756,-0.9867953658103943,0,0,0,-1,-1,4825.861256875,running,2,2022-06-30T09:48:46.145+02:00,2022-06-30T08:20:05.567+02:00,1383,1.400134,0,0,1092.013,0,0,2022-06-30T09:48:48.694+02:00
2022-06-30T09:48:51.049+02:00,4830.766468375,0.035308837890625,0.154571533203125,-0.72265625,4830.756516375001,-0.5503785007782206,0.1112089355968276,-0.2114623461035812,-9.037433624267578,1.34596312046051,-0.4386622607707977,-0.1163051724433899,-0.3551539480686188,0.1313531398773193,XArbitraryZVertical,-0.08638922719678206,0.08181844271113441,-0.2754384860615701,0.9539268118614941,0.1085077747702599,0.2098898887634277,-0.9716852903366089,0,0,0,-1,-1,4825.861256875,running,2,2022-06-30T09:48:46.145+02:00,2022-06-30T08:20:05.567+02:00,1383,1.400134,0,0,1092.013,0,0,2022-06-30T09:48:48.694+02:00
2022-06-30T09:48:51.059+02:00,4830.776419375,0.08502197265625,0.416412353515625,-0.6501922607421875,4830.766468375,-0.5422520638587016,0.1285443488603795,-0.3086855744292464,-10.52659225463867,1.731454610824585,-0.3172897398471832,-0.1213535070419312,-0.3361708521842957,0.1717865467071533,XArbitraryZVertical,-0.1308122945443976,0.1022326999644194,-0.2735996270770568,0.9474069137509219,0.1221315413713455,0.3038066029548645,-0.9448732137680054,0,0,0,-1,-1,4825.861256875,running,2,2022-06-30T09:48:46.145+02:00,2022-06-30T08:20:05.567+02:00,1383,1.400134,0,0,1092.013,0,0,2022-06-30T09:48:48.694+02:00
2022-06-30T09:48:51.069+02:00,4830.786371375,0.14227294921875,0.6507415771484375,-0.6139984130859375,4830.776419375,-0.528325100489179,0.1526456386239532,-0.4191920803665732,-11.7880392074585,2.121642112731934,-0.2003189027309418,-0.1035797595977783,-0.2524514198303223,0.1801406741142273,XArbitraryZVertical,-0.1807897219763701,0.1261607420675498,-0.269957664016939,0.9372947074507998,0.1388884484767914,0.407022625207901,-0.9027971029281616,0,0,0,-1,-1,4825.861256875,running,2,2022-06-30T09:48:46.145+02:00,2022-06-30T08:20:05.567+02:00,1383,1.400134,0,0,1092.013,0,0,2022-06-30T09:48:48.694+02:00
2022-06-30T09:48:51.079+02:00,4830.796322375,0.2238922119140625,0.8472442626953125,-0.569610595703125,4830.786371375,-0.5071278826153861,0.1853594665196278,-0.5394211725082557,-12.59778594970703,2.492878198623657,-0.1238696724176407,-0.07310858368873596,-0.09722739458084106,0.1931160688400269,XArbitraryZVertical,-0.2344489287094724,0.1529033073144178,-0.2646198390128565,0.9228383883806128,0.158130407333374,0.5136394500732422,-0.8433085680007935,0,0,0,-1,-1,4825.861256875,running,2,2022-06-30T09:48:46.145+02:00,2022-06-30T08:20:05.567+02:00,1383,1.400134,0,0,1092.013,0,0,2022-06-30T09:48:48.694+02:00
2022-06-30T09:48:51.089+02:00,4830.806274291667,0.3320159912109375,1.0257568359375,-0.4959259033203125,4830.796322375,-0.4762438740716601,0.2292001141967666,-0.6642334566582471,-12.94730663299561,2.796037912368774,-0.005164153873920441,-0.03662103414535522,0.03428554534912109,0.1527994275093079,XArbitraryZVertical,-0.2892678158804635,0.1814526814393794,-0.2577565731574009,0.9038587672963688,0.1788938343524933,0.6164557337760925,-0.7667981386184692,0,0,0,-1,-1,4825.861256875,running,2,2022-06-30T09:48:46.145+02:00,2022-06-30T08:20:05.567+02:00,1383,1.400134,0,0,1092.013,0,0,2022-06-30T09:48:48.694+02:00
2022-06-30T09:48:51.099+02:00,4830.816225291667,0.42755126953125,1.15753173828125,-0.4090576171875,4830.806274291667,-0.4307211959298927,0.2884081558582059,-0.7889818264641454,-13.0201416015625,3.001985549926758,0.2366759032011032,0.02349421381950378,0.137607753276825,0.1058571338653564,XArbitraryZVertical,-0.3432118274841317,0.2108829842086315,-0.2491936171300312,0.8807022835479875,0.200397863984108,0.7096362709999084,-0.6754680275917053,0,0,0,-1,-1,4825.861256875,running,2,2022-06-30T09:48:46.145+02:00,2022-06-30T08:20:05.567+02:00,1383,1.400134,0,0,1092.013,0,0,2022-06-30T09:48:48.694+02:00
2022-06-30T09:48:51.109+02:00,4830.826177291667,0.48516845703125,1.2259521484375,-0.3440399169921875,4830.816225291667,-0.3623314414525232,0.3703432769066262,-0.9099863700977102,-12.88154125213623,3.104578495025635,0.5057398676872253,0.1098756343126297,0.236261248588562,0.07621955871582031,XArbitraryZVertical,-0.3950761848014742,0.2405034699131929,-0.2386655283523739,0.8538803714861115,0.2221402525901794,0.7894953489303589,-0.5721457600593567,0,0,0,-1,-1,4825.861256875,running,2,2022-06-30T09:48:46.145+02:00,2022-06-30T08:20:05.567+02:00,1383,1.400134,0,0,1092.013,0,0,2022-06-30T09:48:48.694+02:00
2022-06-30T09:48:51.119+02:00,4830.836129291667,0.51788330078125,1.269088745117188,-0.28314208984375,4830.826177291667,-0.2609631912436393,0.4846383584547086,-1.02220516843047,-12.38991737365723,3.061118602752686,0.6976525783538818,0.184597060084343,0.3042714595794678,0.05237522721290588,XArbitraryZVertical,-0.4435810104899272,0.2692940994184104,-0.2265421211629871,0.8242543402397914,0.2429540902376175,0.8532600402832031,-0.4614331424236298,0,0,0,-1,-1,4825.861256875,running,2,2022-06-30T09:48:46.145+02:00,2022-06-30T08:20:05.567+02:00,1383,1.400134,0,0,1092.013,0,0,2022-06-30T09:48:48.694+02:00
2022-06-30T09:48:51.129+02:00,4830.846080291667,0.549896240234375,1.338836669921875,-0.2313232421875,4830.836129291667,-0.1146807580366165,0.6437047168058686,-1.118814085264132,-11.4864559173584,3.038537740707397,0.8932445645332336,0.2230475246906281,0.3263688683509827,0.005305975675582886,XArbitraryZVertical,-0.4872413883768634,0.2965176518551441,-0.2136714901242543,0.7931062595598044,0.2621208131313324,0.899583101272583,-0.3493462204933167,0,0,0,-1,-1,4825.861256875,running,2,2022-06-30T09:48:46.145+02:00,2022-06-30T08:20:05.567+02:00,1383,1.400134,0,0,1092.013,0,0,2022-06-30T09:48:48.694+02:00
2022-06-30T09:48:51.139+02:00,4830.856032291667,0.5335693359375,1.396194458007812,-0.2555389404296875,4830.846080291667,0.08558441813060588,0.8572390440698957,-1.191378620491556,-10.10863876342773,2.999202013015747,1.093662977218628,0.2378620803356171,0.3402081727981567,-0.04071889817714691,XArbitraryZVertical,-0.5245746221063835,0.321884596982093,-0.2007722543286374,0.7621694195060091,0.2800211310386658,0.9288804531097412,-0.2424235492944717,0,0,0,-1,-1,4825.861256875,running,2,2022-06-30T09:48:46.145+02:00,2022-06-30T08:20:05.567+02:00,1383,1.400134,0,0,1092.013,0,0,2022-06-30T09:48:48.694+02:00
2022-06-30T09:48:51.149+02:00,4830.865983291667,0.5069122314453125,1.477249145507812,-0.275421142578125,4830.856032291667,0.3165133662725071,1.10291389394344,-1.232452627880792,-7.883102893829346,2.872692108154297,1.170890808105469,0.2536445558071136,0.3955308794975281,-0.08162622153759003,XArbitraryZVertical,-0.5535145031978472,0.3446346179831969,-0.1894810701491437,0.734129142070126,0.2962515950202942,0.9433057308197021,-0.1496973484754562,0,0,0,-1,-1,4825.861256875,running,2,2022-06-30T09:48:46.145+02:00,2022-06-30T08:20:05.567+02:00,1383,1.400134,0,0,1092.013,0,0,2022-06-30T09:48:48.694+02:00
2022-06-30T09:48:51.159+02:00,4830.875935291667,0.4498291015625,1.443359375,-0.224853515625,4830.865983291667,0.5169391140666159,1.319989807159371,-1.244265910741318,-5.238240718841553,2.663191795349121,1.266884684562683,0.2228461503982544,0.4490334987640381,-0.1759316921234131,XArbitraryZVertical,-0.5724428111164498,0.364012926759222,-0.1813439816362769,0.7119818946907444,0.3107230961322784,0.9471609592437744,-0.07960763573646545,0,0,0,-1,-1,4825.861256875,running,2,2022-06-30T09:48:46.145+02:00,2022-06-30T08:20:05.567+02:00,1383,1.400134,0,0,1092.013,0,0,2022-06-30T09:48:48.694+02:00
2022-06-30T09:48:51.168+02:00,4830.885886291667,0.3916473388671875,1.20623779296875,-0.070037841796875,4830.875935291667,0.6446700320885136,1.466391796477107,-1.23815484272835,-2.765702962875366,2.474345207214355,1.443523287773132,0.1821491420269012,0.5320661067962646,-0.2413910627365112,XArbitraryZVertical,-0.581628146858809,0.3803859399545519,-0.1766546698895152,0.6969996110277979,0.3247630596160889,0.9451830983161926,-0.03403047099709511,0,0,0,-1,-1,4825.861256875,running,2,2022-06-30T09:48:46.145+02:00,2022-06-30T08:20:05.567+02:00,1383,1.400134,0,0,1092.013,0,0,2022-06-30T09:48:48.694+02:00
2022-06-30T09:48:51.181+02:00,4830.895838291667,0.3892059326171875,0.875457763671875,0.1412506103515625,4830.885886291667,0.7010176372976281,1.543468662994524,-1.224173091227126,-0.9221580624580383,2.339726686477661,1.62031090259552,0.110231876373291,0.5028342008590698,-0.2155711650848389,XArbitraryZVertical,-0.5827507929775049,0.394664615807182,-0.1749151897251263,0.6885100608375514,0.3395971953868866,0.940525233745575,-0.009282708168029785,0,0,0,-1,-1,4825.861256875,running,2,2022-06-30T09:48:46.145+02:00,2022-06-30T08:20:05.567+02:00,1383,1.400134,0,0,1092.013,0,0,2022-06-30T09:48:48.694+02:00
2022-06-30T09:48:51.190+02:00,4830.905789291667,0.452301025390625,0.5594329833984375,0.3462371826171875,4830.895838291667,0.7126878636278304,1.576594680727868,-1.207900321384072,0.03216920793056488,2.100751161575317,1.658045768737793,0.03666996955871582,0.2713651061058044,-0.07209658622741699,XArbitraryZVertical,-0.5788702650307487,0.4073553362175473,-0.1749793957846465,0.6843633013047149,0.3549773395061493,0.9348726868629456,0.002058307407423854,0,0,0,-1,-1,4825.861256875,running,2,2022-06-30T09:48:46.145+02:00,2022-06-30T08:20:05.567+02:00,1383,1.400134,0,0,1092.013,0,0,2022-06-30T09:48:48.694+02:00
2022-06-30T09:48:51.198+02:00,4830.915741291667,0.5181427001953125,0.3423004150390625,0.50201416015625,4830.905789291667,0.7079310859152785,1.59127886274734,-1.192179840980839,0.1743266135454178,1.726610064506531,1.496110439300537,0.01964840292930603,-0.05371922254562378,0.1336796283721924,XArbitraryZVertical,-0.5734280337260272,0.4182888433081239,-0.1754216984976539,0.6822329879522119,0.3695574700832367,0.929176926612854,0.007570532616227865,0,0,0,-1,-1,4825.861256875,running,2,2022-06-30T09:48:46.145+02:00,2022-06-30T08:20:05.567+02:00,1383,1.400134,0,0,1092.013,0,0,2022-06-30T09:48:48.694+02:00
2022-06-30T09:48:51.209+02:00,4830.925693291667,0.53948974609375,0.3003692626953125,0.5485076904296875,4830.915741291667,0.707280560545138,1.605507893689768,-1.178978141644122,-0.2431481182575226,1.252758383750916,1.155692338943481,0.07066130638122559,-0.3647832274436951,0.3329842090606689,XArbitraryZVertical,-0.5693783190281438,0.4271236918285375,-0.1751362558522685,0.6802213609956785,0.3816397488117218,0.9242162704467773,0.01325263641774654,0,0,0,-1,-1,4825.861256875,running,2,2022-06-30T09:48:46.145+02:00,2022-06-30T08:20:05.567+02:00,1383,1.400134,0,0,1092.013,0,0,2022-06-30T09:48:48.694+02:00
2022-06-30T09:48:51.219+02:00,4830.935644291667,0.531768798828125,0.479095458984375,0.5331573486328125,4830.925693291667,0.7189407276046033,1.626341022605302,-1.16940288830062,-0.7351056337356567,0.7817314267158508,0.746345043182373,0.1280434727668762,-0.5782169699668884,0.4803235530853271,XArbitraryZVertical,-0.5681585096354705,0.433636986190765,-0.1737632374475616,0.6774668716748929,0.3900992572307587,0.9205174446105957,0.02169025503098965,0,0,0,-1,-1,4825.861256875,running,2,2022-06-30T09:48:46.145+02:00,2022-06-30T08:20:05.567+02:00,1383,1.400134,0,0,1092.013,0,0,2022-06-30T09:48:48.694+02:00
2022-06-30T09:48:51.228+02:00,4830.945596291667,0.5382232666015625,0.7116851806640625,0.5489349365234375,4830.935644291667,0.7403263517174961,1.651775171123557,-1.163147893408389,-1.007958173751831,0.3882312774658203,0.4307168126106262,0.1443370282649994,-0.6176862716674805,0.5164382457733154,XArbitraryZVertical,-0.5694070899221704,0.4379613400888488,-0.171568084752776,0.6741883614755315,0.3951527178287506,0.9180556535720825,0.0320691391825676,0,0,0,-1,-1,4825.861256875,running,2,2022-06-30T09:48:46.145+02:00,2022-06-30T08:20:05.567+02:00,1383,1.400134,0,0,1092.013,0,0,2022-06-30T09:48:48.694+02:00
2022-06-30T09:48:51.238+02:00,4830.955547291667,0.5478363037109375,0.8234405517578125,0.5558929443359375,4830.945596291667,0.7642318373673377,1.676004382534765,-1.15897027715021,-0.9360789656639099,0.07709735631942749,0.255967378616333,0.1336983144283295,-0.4372957944869995,0.4911215305328369,XArbitraryZVertical,-0.5718117025520314,0.4405100389800422,-0.1689560813438236,0.6711455102849077,0.3980705440044403,0.9163914322853088,0.04203543439507484,0,0,0,-1,-1,4825.861256875,running,2,2022-06-30T09:48:46.145+02:00,2022-06-30T08:20:05.567+02:00,1383,1.400134,0,0,1092.013,0,0,2022-06-30T09:48:48.694+02:00
2022-06-30T09:48:51.249+02:00,4830.965499291667,0.5382843017578125,0.7975006103515625,0.5751800537109375,4830.955547291667,0.7825530199897256,1.691911296335336,-1.156402009361355,-0.5806319117546082,-0.2588505446910858,0.1088559553027153,0.138536810874939,-0.2036750912666321,0.5002884864807129,XArbitraryZVertical,-0.574051680644054,0.4413476206729164,-0.1664540805516893,0.669305707865852,0.3996864855289459,0.9153603315353394,0.04864610731601715,0,0,0,-1,-1,4830.959364291667,unknown,2,2022-06-30T09:48:51.244+02:00,2022-06-30T08:20:05.567+02:00,1383,1.400134,0,0,1092.013,0,0,2022-06-30T09:48:51.243+02:00
2022-06-30T09:48:51.258+02:00,4830.975450291667,0.4970855712890625,0.6953277587890625,0.6260986328125,4830.965499291667,0.7918290382655609,1.69596886808577,-1.155841968952106,-0.1945724636316299,-0.6254658102989197,-0.06886483728885651,0.1478419899940491,-0.09169399738311768,0.5055611133575439,XArbitraryZVertical,-0.5756610025106503,0.4402046549254618,-0.164315172956743,0.6692047147700345,0.3999943733215332,0.9151347279548645,0.05033145472407341,0,0,0,-1,-1,4830.959364291667,unknown,2,2022-06-30T09:48:51.244+02:00,2022-06-30T08:20:05.567+02:00,1383,1.400134,0,0,1092.013,0,0,2022-06-30T09:48:51.243+02:00
2022-06-30T09:48:51.268+02:00,4830.985402291667,0.440277099609375,0.607574462890625,0.6599884033203125,4830.975450291667,0.7939466555059509,1.689946119527519,-1.15738860099285,0.02793704345822334,-0.9671822190284729,-0.2352265119552612,0.1394004225730896,-0.1182566285133362,0.5274264812469482,XArbitraryZVertical,-0.5768910767576623,0.4371192544739504,-0.1624262221931911,0.6706273696648459,0.3988837897777557,0.9157571196556091,0.04775311425328255,0,0,0,-1,-1,4830.959364291667,unknown,2,2022-06-30T09:48:51.244+02:00,2022-06-30T08:20:05.567+02:00,1383,1.400134,0,0,1092.013,0,0,2022-06-30T09:48:51.243+02:00
2022-06-30T09:48:51.278+02:00,4830.995353291667,0.39459228515625,0.5429534912109375,0.650360107421875,4830.985402291667,0.7937373668283597,1.678472642398038,-1.160824363943249,0.03749619424343109,-1.29490065574646,-0.4309169352054596,0.1008099913597107,-0.2218040823936462,0.5832631587982178,XArbitraryZVertical,-0.5783829296109797,0.4323086535327765,-0.1604137116932695,0.6729413050173801,0.3962755799293518,0.9171320199966431,0.04283516854047775,0,0,0,-1,-1,4830.959364291667,unknown,2,2022-06-30T09:48:51.244+02:00,2022-06-30T08:20:05.567+02:00,1383,1.400134,0,0,1092.013,0,0,2022-06-30T09:48:51.243+02:00
2022-06-30T09:48:51.288+02:00,4831.005305291667,0.355560302734375,0.5147552490234375,0.6229248046875,4830.995353291667,0.7955105781226508,1.665693811371344,-1.166144323514145,-0.08240151405334473,-1.599509954452515,-0.621579110622406,0.04834938049316406,-0.311664879322052,0.622683048248291,XArbitraryZVertical,-0.5807349184014599,0.425910152189361,-0.1580126396439227,0.6755587266124312,0.3919277191162109,0.9192394614219666,0.03730500489473343,0,0,0,-1,-1,4830.959364291667,unknown,2,2022-06-30T09:48:51.244+02:00,2022-06-30T08:20:05.567+02:00,1383,1.400134,0,0,1092.013,0,0,2022-06-30T09:48:51.243+02:00
2022-06-30T09:48:51.298+02:00,4831.015256291667,0.315032958984375,0.5190277099609375,0.56298828125,4831.005305291667,0.8009122539255611,1.653360851650377,-1.173281110743293,-0.2124452739953995,-1.87703549861908,-0.8295096755027771,0.008782297372817993,-0.3790721893310547,0.6184329986572266,XArbitraryZVertical,-0.5841259642715695,0.4180433652402,-0.1551322756497534,0.678211363124341,0.3858099281787872,0.9220257997512817,0.03192679584026337,0,0,0,-1,-1,4830.959364291667,unknown,2,2022-06-30T09:48:51.244+02:00,2022-06-30T08:20:05.567+02:00,1383,1.400134,0,0,1092.013,0,0,2022-06-30T09:48:51.243+02:00
2022-06-30T09:48:51.308+02:00,4831.025208291667,0.286285400390625,0.531890869140625,0.4822845458984375,4831.015256291667,0.8086150699630406,1.640445650119151,-1.182664710059036,-0.2118342071771622,-2.145043849945068,-1.077889084815979,-0.02198189496994019,-0.4108625054359436,0.5965862274169922,XArbitraryZVertical,-0.5884009272477781,0.4085993495789221,-0.1520557928557523,0.6809625457097268,0.3775421679019928,0.9256177544593811,0.02633816003799438,0,0,0,-1,-1,4830.959364291667,unknown,2,2022-06-30T09:48:51.244+02:00,2022-06-30T08:20:05.567+02:00,1383,1.400134,0,0,1092.013,0,0,2022-06-30T09:48:51.243+02:00
2022-06-30T09:48:51.318+02:00,4831.035160291667,0.2527313232421875,0.5417022705078125,0.42431640625,4831.025208291667,0.8142900875835632,1.623136531123418,-1.194532798799278,-0.05376840382814407,-2.395852327346802,-1.305388808250427,-0.05191206932067871,-0.4110162854194641,0.5437643527984619,XArbitraryZVertical,-0.5929884487122029,0.3974625337881164,-0.1491954857488787,0.6841995437121502,0.3669449687004089,0.9300440549850464,0.0192235317081213,0,0,0,-1,-1,4830.959364291667,unknown,2,2022-06-30T09:48:51.244+02:00,2022-06-30T08:20:05.567+02:00,1383,1.400134,0,0,1092.013,0,0,2022-06-30T09:48:51.243+02:00
2022-06-30T09:48:51.328+02:00,4831.045111291667,0.2034149169921875,0.5339508056640625,0.433929443359375,4831.035160291667,0.8139460284803491,1.597311205136679,-1.208695916256512,0.1842641979455948,-2.739266633987427,-1.50048041343689,-0.0678296685218811,-0.4032638669013977,0.4728926420211792,XArbitraryZVertical,-0.5974058685889269,0.3844502405068551,-0.1465933582384423,0.6883420291224989,0.3541150391101837,0.9351548552513123,0.00939151830971241,0,0,0,-1,-1,4830.959364291667,unknown,2,2022-06-30T09:48:51.244+02:00,2022-06-30T08:20:05.567+02:00,1383,1.400134,0,0,1092.013,0,0,2022-06-30T09:48:51.243+02:00
2022-06-30T09:48:51.338+02:00,4831.055063291667,0.15814208984375,0.5058135986328125,0.4462738037109375,4831.045111291667,0.806331649136973,1.561269562878712,-1.224661786726347,0.3672627806663513,-3.058387279510498,-1.687661528587341,-0.08651748299598694,-0.3989889025688171,0.4275480508804321,XArbitraryZVertical,-0.6015512706634596,0.3694861952673603,-0.14396216797817,0.6934629869559136,0.3392487466335297,0.9406911730766296,-0.00323204044252634,0,0,0,-1,-1,4830.959364291667,unknown,2,2022-06-30T09:48:51.244+02:00,2022-06-30T08:20:05.567+02:00,1383,1.400134,0,0,1092.013,0,0,2022-06-30T09:48:51.243+02:00
2022-06-30T09:48:51.348+02:00,4831.065014291667,0.1283721923828125,0.511688232421875,0.434112548828125,4831.055063291667,0.7903709339132824,1.514240667731102,-1.242526437703583,0.5798656344413757,-3.363472700119019,-1.913899540901184,-0.1184755861759186,-0.4126507043838501,0.452153205871582,XArbitraryZVertical,-0.6054544562673605,0.3525802358940974,-0.141440669248346,0.6993615951763739,0.3218903839588165,0.9466015696525574,-0.01822415739297867,0,0,0,-1,-1,4830.959364291667,unknown,2,2022-06-30T09:48:51.244+02:00,2022-06-30T08:20:05.567+02:00,1383,1.400134,0,0,1092.013,0,0,2022-06-30T09:48:51.243+02:00
2022-06-30T09:48:51.358+02:00,4831.074966291667,0.107208251953125,0.5263824462890625,0.3816680908203125,4831.065014291667,0.7629589768472573,1.453145055362889,-1.262196099997529,0.7807140350341797,-3.681745290756226,-2.138133764266968,-0.1434835493564606,-0.4469460844993591,0.4819246530532837,XArbitraryZVertical,-0.6090002223213956,0.3336061975527239,-0.1391161965259416,0.7060256855953516,0.3016254901885986,0.9527596235275269,-0.03565126657485962,0,0,0,-1,-1,4830.959364291667,unknown,2,2022-06-30T09:48:51.244+02:00,2022-06-30T08:20:05.567+02:00,1383,1.400134,0,0,1092.013,0,0,2022-06-30T09:48:51.243+02:00
2022-06-30T09:48:51.368+02:00,4831.084917291667,0.0569610595703125,0.5075531005859375,0.2740325927734375,4831.074966291667,0.7242678566272167,1.377856959149241,-1.282879280348593,0.809776246547699,-4.022068500518799,-2.276164293289185,-0.1503148376941681,-0.4471491575241089,0.4885591268539429,XArbitraryZVertical,-0.6123751786955999,0.312687003843415,-0.1365921085503934,0.7131382015187935,0.2786868512630463,0.9588374495506287,-0.05444695800542831,0,0,0,-1,-1,4830.959364291667,unknown,2,2022-06-30T09:48:51.244+02:00,2022-06-30T08:20:05.567+02:00,1383,1.400134,0,0,1092.013,0,0,2022-06-30T09:48:51.243+02:00
2022-06-30T09:48:51.378+02:00,4831.094869291667,-0.0338592529296875,0.468841552734375,0.136871337890625,4831.084917291667,0.6782154470645747,1.291731373952063,-1.303955085021885,0.6406348943710327,-4.384407043457031,-2.417193412780762,-0.1462768316268921,-0.4382261037826538,0.4543018937110901,XArbitraryZVertical,-0.6161003113371804,0.2900057531811893,-0.1332482791209519,0.7201125170149674,0.2534849345684052,0.9646086096763611,-0.07263413816690445,0,0,0,-1,-1,4830.959364291667,unknown,2,2022-06-30T09:48:51.244+02:00,2022-06-30T08:20:05.567+02:00,1383,1.400134,0,0,1092.013,0,0,2022-06-30T09:48:51.243+02:00
2022-06-30T09:48:51.388+02:00,4831.104821291667,-0.11102294921875,0.4268951416015625,0.0007171630859375,4831.094869291667,0.6275041730117028,1.197271414987414,-1.326576596704394,0.3406721949577332,-4.727246761322021,-2.693593502044678,-0.1681660413742065,-0.4627731442451477,0.36226487159729,XArbitraryZVertical,-0.6208537015924784,0.2653758918985639,-0.1291231875859889,0.7262531612367497,0.2251269370317459,0.97032630443573,-0.08823263645172119,0,0,0,-1,-1,4830.959364291667,unknown,2,2022-06-30T09:48:51.244+02:00,2022-06-30T08:20:05.567+02:00,1383,1.400134,0,0,1092.013,0,0,2022-06-30T09:48:51.243+02:00
2022-06-30T09:48:51.398+02:00,4831.114772291667,-0.1688995361328125,0.426177978515625,-0.0597076416015625,4831.104821291667,0.5690401989803053,1.091671256550102,-1.35187197895354,0.01161279808729887,-5.056525230407715,-2.99640679359436,-0.2265849560499191,-0.5072899460792542,0.2369918078184128,XArbitraryZVertical,-0.6269008473983007,0.2386104223998909,-0.1245671239042286,0.7311248657430389,0.1927255541086197,0.9761316180229187,-0.1001207903027534,0,0,0,-1,-1,4830.959364291667,unknown,2,2022-06-30T09:48:51.244+02:00,2022-06-30T08:20:05.567+02:00,1383,1.400134,0,0,1092.013,0,0,2022-06-30T09:48:51.243+02:00
2022-06-30T09:48:51.407+02:00,4831.124724291667,-0.2158355712890625,0.4506683349609375,0.1346588134765625,4831.114772291667,0.4985703839294438,0.9708977777304261,-1.379550777794062,-0.4040087759494781,-5.329445362091064,-3.208877325057983,-0.2679155468940735,-0.5548730492591858,0.1080293655395508,XArbitraryZVertical,-0.6342438108345259,0.2099488960031828,-0.1194293927756183,0.7344337352542653,0.156892403960228,0.9817682504653931,-0.1073125004768372,0,0,0,-1,-1,4830.959364291667,unknown,2,2022-06-30T09:48:51.244+02:00,2022-06-30T08:20:05.567+02:00,1383,1.400134,0,0,1092.013,0,0,2022-06-30T09:48:51.243+02:00
2022-06-30T09:48:51.417+02:00,4831.134675291667,-0.485565185546875,0.196746826171875,0.0328216552734375,4831.124724291667,0.4062543993505079,0.8259735868297582,-1.409268712934514,-0.6091587543487549,-5.517856121063232,-3.445958852767944,-0.2871405780315399,-0.5608047842979431,0.04930675774812698,XArbitraryZVertical,-0.6427811640612279,0.1797915477581539,-0.1138606907942303,0.7358961557307883,0.1182408034801483,0.9869827628135681,-0.1090147495269775,0,0,0,-1,-1,4830.959364291667,unknown,2,2022-06-30T09:48:51.244+02:00,2022-06-30T08:20:05.567+02:00,1383,1.400134,0,0,1092.013,0,0,2022-06-30T09:48:51.243+02:00
2022-06-30T09:48:51.427+02:00,4831.144627291667,-1.470413208007812,1.364303588867188,-3.4791259765625,4831.134675291667,0.2302551678819555,0.6065981603736497,-1.436848363683039,-0.1509019434452057,-3.011263608932495,-3.787908792495728,-0.2919688820838928,-0.5403739213943481,0.2443812936544418,XArbitraryZVertical,-0.649827348017131,0.1512051539335231,-0.1127484324785233,0.736307952825782,0.07613308727741241,0.9910423755645752,-0.109722837805748,0,0,0,-1,-1,4830.959364291667,unknown,2,2022-06-30T09:48:51.244+02:00,2022-06-30T08:20:05.567+02:00,1383,1.400134,0,0,1092.013,0,0,2022-06-30T09:48:51.243+02:00
2022-06-30T09:48:51.437+02:00,4831.154578291667,-1.852462768554688,2.259140014648438,-3.667739868164062,4831.144627291667,0.04703905087105965,0.4112920235501026,-1.444541205102584,0.3838852941989899,0.00539806205779314,-1.309945106506348,-0.5359079837799072,-0.7952934503555298,0.1482413858175278,XArbitraryZVertical,-0.6505841123509798,0.1379503641625529,-0.1176832870860559,0.7374692072499826,0.05034253746271133,0.9920403957366943,-0.1154200211167336,0,0,0,-1,-1,4830.959364291667,unknown,2,2022-06-30T09:48:51.244+02:00,2022-06-30T08:20:05.567+02:00,1383,1.400134,0,0,1092.013,0,0,2022-06-30T09:48:51.243+02:00
2022-06-30T09:48:51.447+02:00,4831.164530291667,-1.055084228515625,1.743423461914062,-3.406341552734375,4831.154578291667,-0.07118647677954436,0.2969349050882554,-1.449677681148591,0.244098499417305,0.1483799815177917,-2.002557992935181,-1.505765199661255,0.371629536151886,-3.363590478897095,XArbitraryZVertical,-0.6513647939067312,0.1339999074929043,-0.1243592890367084,0.7364121009291239,0.03535178303718567,0.9926741123199463,-0.1155358627438545,0,0,0,-1,-1,4830.959364291667,unknown,2,2022-06-30T09:48:51.244+02:00,2022-06-30T08:20:05.567+02:00,1383,1.400134,0,0,1092.013,0,0,2022-06-30T09:48:51.243+02:00
2022-06-30T09:48:51.458+02:00,4831.174481291667,-0.57647705078125,1.189697265625,-2.40899658203125,4831.164530291667,-0.2986966481740641,0.06664954162459212,-1.447605949903509,0.8271046876907349,-0.9624620079994202,-3.235049724578857,-1.860646724700928,1.26671826839447,-3.545134305953979,XArbitraryZVertical,-0.6507889704780619,0.12316985744157,-0.1332474564717025,0.7372570525062589,0.008183741942048073,0.9924216270446777,-0.1226058006286621,0,0,0,-1,-1,4830.959364291667,unknown,2,2022-06-30T09:48:51.244+02:00,2022-06-30T08:20:05.567+02:00,1383,1.400134,0,0,1092.013,0,0,2022-06-30T09:48:51.243+02:00
2022-06-30T09:48:51.467+02:00,4831.184433291667,-0.1630096435546875,0.8204498291015625,-1.669784545898438,4831.174481291667,-0.5732289258250658,-0.2151876516883019,-1.442578567355893,-0.3469978272914886,-0.8418352007865906,-3.526242971420288,-1.027780890464783,0.7516320943832397,-3.281423807144165,XArbitraryZVertical,-0.6525504187651437,0.1082538617851993,-0.1430519890027548,0.7362032648431824,-0.02730357833206654,0.9917913675308228,-0.1249181032180786,0,0,0,-1,-1,4830.959364291667,unknown,2,2022-06-30T09:48:51.244+02:00,2022-06-30T08:20:05.567+02:00,1383,1.400134,0,0,1092.013,0,0,2022-06-30T09:48:51.243+02:00
2022-06-30T09:48:51.477+02:00,4831.194385291667,-0.1518707275390625,1.013107299804688,-1.163833618164062,4831.184433291667,-0.8406143928826215,-0.48631638697947,-1.438866864790707,-1.29595959186554,-0.3574655652046204,-3.238154172897339,-0.514995276927948,0.1983873844146729,-2.292700290679932,XArbitraryZVertical,-0.6578039916442183,0.09563276680058473,-0.1530432277782298,0.7312497655898879,-0.0614820159971714,0.9913099408149719,-0.1162965670228004,0,0,0,-1,-1,4830.959364291667,unknown,2,2022-06-30T09:48:51.244+02:00,2022-06-30T08:20:05.567+02:00,1383,1.400134,0,0,1092.013,0,0,2022-06-30T09:48:51.243+02:00
2022-06-30T09:48:51.487+02:00,4831.204336291667,-0.41357421875,1.002395629882812,-0.3794403076171875,4831.194385291667,-1.103946573551327,-0.7503084597783674,-1.433757854169565,-1.917813062667847,-0.3179386258125305,-3.081578493118286,-0.06986035406589508,-0.1701751351356506,-1.569857478141785,XArbitraryZVertical,-0.6653943069488437,0.08536241708631212,-0.1628127687003695,0.7235023811873125,-0.09314955770969391,0.9906249046325684,-0.09992735087871552,0,0,0,-1,-1,4830.959364291667,unknown,2,2022-06-30T09:48:51.244+02:00,2022-06-30T08:20:05.567+02:00,1383,1.400134,0,0,1092.013,0,0,2022-06-30T09:48:51.243+02:00
2022-06-30T09:48:51.497+02:00,4831.214288291667,-0.96380615234375,0.8939971923828125,-0.14031982421875,4831.204336291667,-1.344060352726073,-0.9923058153858751,-1.422837535058408,-1.789623975753784,-0.5139092206954956,-2.961680173873901,-0.02843765914440155,0.02403324842453003,-1.083230376243591,XArbitraryZVertical,-0.6738160267833221,0.07530052906274681,-0.1714702711332909,0.7147725860215218,-0.1234333291649818,0.9890740513801575,-0.08060358464717865,0,0,0,-1,-1,4830.959364291667,unknown,2,2022-06-30T09:48:51.244+02:00,2022-06-30T08:20:05.567+02:00,1383,1.400134,0,0,1092.013,0,0,2022-06-30T09:48:51.243+02:00
2022-06-30T09:48:51.507+02:00,4831.224239291667,-1.72308349609375,1.259323120117188,-0.586181640625,4831.214288291667,-1.507852130108695,-1.158070609609981,-1.403044151293141,-0.7549964785575867,-0.1578313261270523,-2.962421178817749,-0.2606278657913208,0.0164330005645752,-0.3124690055847168,XArbitraryZVertical,-0.6799154509536728,0.06503212985210748,-0.1801767396429201,0.7078291964627038,-0.1529466211795807,0.9859625697135925,-0.06697160005569458,0,0,0,-1,-1,4830.959364291667,unknown,2,2022-06-30T09:48:51.244+02:00,2022-06-30T08:20:05.567+02:00,1383,1.400134,0,0,1092.013,0,0,2022-06-30T09:48:51.243+02:00
2022-06-30T09:48:51.517+02:00,4831.234191291667,-2.420822143554688,2.246673583984375,-1.28033447265625,4831.224239291667,-1.576251365841832,-1.220984178112035,-1.376817207979721,0.3101158738136292,1.132633447647095,-2.752185583114624,-0.782715916633606,-0.08724790811538696,-0.07425551861524582,XArbitraryZVertical,-0.6809775299997062,0.05689716953631237,-0.1918211952405742,0.7044408680928083,-0.181090459227562,0.9812449812889099,-0.06606463342905045,0,0,0,-1,-1,4830.959364291667,unknown,2,2022-06-30T09:48:51.244+02:00,2022-06-30T08:20:05.567+02:00,1383,1.400134,0,0,1092.013,0,0,2022-06-30T09:48:51.243+02:00
2022-06-30T09:48:51.527+02:00,4831.244142291667,-2.732620239257812,2.84991455078125,-1.889358520507812,4831.234191291667,-1.595533158022412,-1.22137574579227,-1.352285781439155,0.6305046677589417,2.517245292663574,-2.083312034606934,-1.519406795501709,0.2831017971038818,-0.5119677782058716,XArbitraryZVertical,-0.6781645346272621,0.05464216724623334,-0.2068182136816094,0.7030885355241563,-0.2036769986152649,0.9762213826179504,-0.07421419769525528,0,0,0,-1,-1,4830.959364291667,unknown,2,2022-06-30T09:48:51.244+02:00,2022-06-30T08:20:05.567+02:00,1383,1.400134,0,0,1092.013,0,0,2022-06-30T09:48:51.243+02:00
2022-06-30T09:48:51.537+02:00,4831.254094291667,-2.410690307617188,2.6773681640625,-1.863677978515625,4831.244142291667,-1.585232441420258,-1.181249353232845,-1.332038553549542,1.295260667800903,3.560393810272217,-1.576221585273743,-2.202044248580933,1.275041103363037,-1.190520763397217,XArbitraryZVertical,-0.6720980378302751,0.05811418408539391,-0.2235871420887806,0.7035025278999233,-0.2187780141830444,0.9716324806213379,-0.08981394022703171,0,0,0,-1,-1,4830.959364291667,unknown,2,2022-06-30T09:48:51.244+02:00,2022-06-30T08:20:05.567+02:00,1383,1.400134,0,0,1092.013,0,0,2022-06-30T09:48:51.243+02:00
2022-06-30T09:48:51.547+02:00,4831.264045291667,-1.940933227539062,2.218276977539062,-1.598434448242188,4831.254094291667,-1.558482859489924,-1.114602652636747,-1.313310875707811,1.295904636383057,4.55555248260498,-1.258370280265808,-2.504012107849121,1.882881045341492,-1.777176856994629,XArbitraryZVertical,-0.6629821928227567,0.06605789615809321,-0.2426661098873528,0.7051270370472174,-0.2286082059144974,0.9670333862304688,-0.1121819317340851,0,0,0,-1,-1,4830.959364291667,unknown,2,2022-06-30T09:48:51.244+02:00,2022-06-30T08:20:05.567+02:00,1383,1.400134,0,0,1092.013,0,0,2022-06-30T09:48:51.243+02:00
2022-06-30T09:48:51.557+02:00,4831.273997291667,-1.878494262695312,1.938262939453125,-1.333084106445312,4831.264045291667,-1.547866098711037,-1.057513542025158,-1.300807324257802,0.2899444699287415,4.773207187652588,-0.6680673360824585,-2.17833948135376,1.713594317436218,-1.732707500457764,XArbitraryZVertical,-0.654509525077033,0.07830641785583173,-0.2618388007538801,0.7049297811843747,-0.2323509305715561,0.9637738466262817,-0.1309707760810852,0,0,0,-1,-1,4830.959364291667,unknown,2,2022-06-30T09:48:51.244+02:00,2022-06-30T08:20:05.567+02:00,1383,1.400134,0,0,1092.013,0,0,2022-06-30T09:48:51.243+02:00
2022-06-30T09:48:51.567+02:00,4831.283948291667,-2.130691528320312,1.968643188476562,-1.06903076171875,4831.273997291667,-1.565006033198724,-1.026350643511612,-1.299633107961581,-0.9647301435470581,4.851982593536377,0.01637682504951954,-1.711808681488037,1.254816770553589,-1.459702253341675,XArbitraryZVertical,-0.6493957845176551,0.09443992187647698,-0.2784055460176597,0.7013248338388157,-0.2291246503591537,0.9634599685668945,-0.1387324333190918,0,0,0,-1,-1,4830.959364291667,unknown,2,2022-06-30T09:48:51.244+02:00,2022-06-30T08:20:05.567+02:00,1383,1.400134,0,0,1092.013,0,0,2022-06-30T09:48:51.243+02:00
2022-06-30T09:48:51.577+02:00,4831.293900291667,-2.323837280273438,2.182388305664062,-0.8763427734375,4831.283948291667,-1.605034223310761,-1.014547507404259,-1.309998298117317,-1.846874475479126,5.324835777282715,0.650715172290802,-1.659515857696533,0.9720784425735474,-1.196937561035156,XArbitraryZVertical,-0.6470410976453049,0.1151710181880284,-0.2928329043148366,0.6944943594415254,-0.2189785987138748,0.9661844968795776,-0.1361469030380249,0,0,0,-1,-1,4830.959364291667,unknown,2,2022-06-30T09:48:51.244+02:00,2022-06-30T08:20:05.567+02:00,1383,1.400134,0,0,1092.013,0,0,2022-06-30T09:48:51.243+02:00
2022-06-30T09:48:51.587+02:00,4831.303852291667,-2.261398315429688,2.38336181640625,-0.687164306640625,4831.293900291667,-1.65243191173928,-1.004499252700331,-1.328232983671123,-2.038992643356323,5.908376216888428,1.19531786441803,-1.927995443344116,0.997917652130127,-0.940165638923645,XArbitraryZVertical,-0.6448704947594647,0.1403897820339425,-0.306488594385284,0.6859282167468331,-0.2026962786912918,0.9707254767417908,-0.128865510225296,0,0,0,-1,-1,4830.959364291667,unknown,2,2022-06-30T09:48:51.244+02:00,2022-06-30T08:20:05.567+02:00,1383,1.400134,0,0,1092.013,0,0,2022-06-30T09:48:51.243+02:00
2022-06-30T09:48:51.597+02:00,4831.313803291667,-2.091766357421875,2.49603271484375,-0.5048980712890625,4831.303852291667,-1.687511653120327,-0.9774916790257558,-1.35059834321587,-1.743906021118164,6.353240489959717,1.700721621513367,-2.142743349075317,1.206534028053284,-0.7542219758033752,XArbitraryZVertical,-0.6406598393422522,0.1688027767442137,-0.3198010479888825,0.6773388631643137,-0.1810940206050873,0.975854218006134,-0.1221211850643158,0,0,0,-1,-1,4830.959364291667,unknown,2,2022-06-30T09:48:51.244+02:00,2022-06-30T08:20:05.567+02:00,1383,1.400134,0,0,1092.013,0,0,2022-06-30T09:48:51.243+02:00
2022-06-30T09:48:51.606+02:00,4831.323755291667,-2.021270751953125,2.566513061523438,-0.33074951171875,4831.313803291667,-1.693282243563093,-0.9187337710151934,-1.375570606650291,-1.401706576347351,6.562474250793457,2.260396003723145,-2.107209444046021,1.402358055114746,-0.5694469809532166,XArbitraryZVertical,-0.6335880137434781,0.1992671194279185,-0.3322905416421177,0.6696581461836973,-0.1541889160871506,0.9810038805007935,-0.1177176907658577,0,0,0,-1,-1,4830.959364291667,unknown,2,2022-06-30T09:48:51.244+02:00,2022-06-30T08:20:05.567+02:00,1383,1.400134,0,0,1092.013,0,0,2022-06-30T09:48:51.243+02:00
2022-06-30T09:48:51.616+02:00,4831.333706291667,-2.066436767578125,2.649276733398438,-0.1873321533203125,4831.323755291667,-1.656766142969831,-0.8169648070913932,-1.403131868095152,-1.191695809364319,6.674022674560547,2.83668041229248,-1.970098495483398,1.510055541992188,-0.3906791210174561,XArbitraryZVertical,-0.6240061366225255,0.2313151277311829,-0.3431921622651097,0.6628189088253067,-0.1216679513454437,0.9859772324562073,-0.1142193078994751,0,0,0,-1,-1,4830.959364291667,unknown,2,2022-06-30T09:48:51.244+02:00,2022-06-30T08:20:05.567+02:00,1383,1.400134,0,0,1092.013,0,0,2022-06-30T09:48:51.243+02:00
2022-06-30T09:48:51.626+02:00,4831.343658291667,-2.151565551757812,2.679046630859375,-0.0546417236328125,4831.333706291667,-1.553754784634451,-0.6480327921125686,-1.432238432597312,-1.062164306640625,6.815600872039795,3.435986995697021,-1.937901377677917,1.576097011566162,-0.220633938908577,XArbitraryZVertical,-0.6121405213589362,0.2650018395923577,-0.3522884962032483,0.6564685519520773,-0.08336938172578812,0.9904162287712097,-0.1101160123944283,0,0,0,-1,-1,4830.959364291667,unknown,2,2022-06-30T09:48:51.244+02:00,2022-06-30T08:20:05.567+02:00,1383,1.400134,0,0,1092.013,0,0,2022-06-30T09:48:51.243+02:00
2022-06-30T09:48:51.636+02:00,4831.353609291667,-2.201217651367188,2.638961791992188,0.1258697509765625,4831.343658291667,-1.332316291651068,-0.359895155089588,-1.459245982583819,-1.014447331428528,6.922557830810547,4.030979156494141,-2.027233123779297,1.655491828918457,-0.08314590156078339,XArbitraryZVertical,-0.5980573824719265,0.3003898465969838,-0.3594151247430967,0.6503183672478704,-0.03920366987586021,0.9937847256660461,-0.1041866168379784,0,0,0,-1,-1,4830.959364291667,unknown,2,2022-06-30T09:48:51.244+02:00,2022-06-30T08:20:05.567+02:00,1383,1.400134,0,0,1092.013,0,0,2022-06-30T09:48:51.243+02:00
2022-06-30T09:48:51.646+02:00,4831.363561291667,-2.1705322265625,2.60028076171875,0.35107421875,4831.353609291667,-0.9281213013668024,0.1114765565518104,-1.475072080398034,-1.058937788009644,6.993407249450684,4.651173114776611,-2.162198305130005,1.683624744415283,0.04034287482500076,XArbitraryZVertical,-0.5819592061808075,0.3373884956035414,-0.3642548603379033,0.6440581445072633,0.01063267793506384,0.9954219460487366,-0.09498497098684311,0,0,0,-1,-1,4830.959364291667,unknown,2,2022-06-30T09:48:51.244+02:00,2022-06-30T08:20:05.567+02:00,1383,1.400134,0,0,1092.013,0,0,2022-06-30T09:48:51.243+02:00
2022-06-30T09:48:51.657+02:00,4831.373512291667,-2.07220458984375,2.626724243164062,0.550201416015625,4831.363561291667,-0.4312746386724666,0.67580667450313,-1.46540818508196,-0.9913187623023987,7.033934116363525,5.242252349853516,-2.267019033432007,1.64451003074646,0.2079415917396545,XArbitraryZVertical,-0.5637134563623353,0.3757539306330818,-0.3666694455770697,0.6376438497717813,0.06580136716365814,0.9944518208503723,-0.08207224309444427,0,0,0,-1,-1,4830.959364291667,unknown,2,2022-06-30T09:48:51.244+02:00,2022-06-30T08:20:05.567+02:00,1383,1.400134,0,0,1092.013,0,0,2022-06-30T09:48:51.243+02:00
2022-06-30T09:48:51.666+02:00,4831.383464291667,-2.039474487304688,2.632781982421875,0.6937408447265625,4831.373512291667,-0.09283969708670067,1.081386363208463,-1.427865007371202,-0.7058250308036804,6.93535852432251,5.860615730285645,-2.296256303787231,1.610478162765503,0.4180384278297424,XArbitraryZVertical,-0.5427465213551786,0.4146612250674708,-0.3667560633975755,0.6316426112384629,0.1257242411375046,0.9898027181625366,-0.06696456670761108,0,0,0,-1,-1,4830.959364291667,unknown,2,2022-06-30T09:48:51.244+02:00,2022-06-30T08:20:05.567+02:00,1383,1.400134,0,0,1092.013,0,0,2022-06-30T09:48:51.243+02:00
2022-06-30T09:48:51.681+02:00,4831.393416291667,-2.090316772460938,2.5323486328125,0.8094024658203125,4831.383464291667,0.06607218051594846,1.306171468882894,-1.372363508513602,-0.2287745624780655,6.736798763275146,6.482335090637207,-2.262476205825806,1.646347522735596,0.6017608642578125,XArbitraryZVertical,-0.5184566014824813,0.4532359775350581,-0.364487255693818,0.6268405571280303,0.1902717351913452,0.9803767204284668,-0.05155980214476585,0,0,0,-1,-1,4830.959364291667,unknown,2,2022-06-30T09:48:51.244+02:00,2022-06-30T08:20:05.567+02:00,1383,1.400134,0,0,1092.013,0,0,2022-06-30T09:48:51.243+02:00
2022-06-30T09:48:51.691+02:00,4831.403367291667,-2.17657470703125,2.405807495117188,0.926483154296875,4831.393416291667,0.1224330396597536,1.427021874057808,-1.306406995188954,0.3591927886009216,6.516119003295898,7.019894123077393,-2.29809832572937,1.667529702186584,0.731182336807251,XArbitraryZVertical,-0.490425561587892,0.4906748838447894,-0.3602787751150588,0.6236346718870277,0.2586238980293274,0.9652522802352905,-0.03744185343384743,0,0,0,-1,-1,4830.959364291667,unknown,2,2022-06-30T09:48:51.244+02:00,2022-06-30T08:20:05.567+02:00,1383,1.400134,0,0,1092.013,0,0,2022-06-30T09:48:51.243+02:00
2022-06-30T09:48:51.696+02:00,4831.413319291667,-2.277206420898438,2.30816650390625,1.059417724609375,4831.403367291667,0.1268841344928315,1.495120915631281,-1.233963873532927,0.9728500843048096,6.312490463256836,7.489865303039551,-2.419870138168335,1.588542342185974,0.8343889117240906,XArbitraryZVertical,-0.4586004324005767,0.5264904919454784,-0.3546328055905592,0.6218754163460066,0.329553484916687,0.9438062906265259,-0.02498681098222733,0,0,0,-1,-1,4830.959364291667,unknown,2,2022-06-30T09:48:51.244+02:00,2022-06-30T08:20:05.567+02:00,1383,1.400134,0,0,1092.013,0,0,2022-06-30T09:48:51.243+02:00
2022-06-30T09:48:51.706+02:00,4831.423270291667,-2.335845947265625,2.22979736328125,1.22576904296875,4831.413319291667,0.1027836403437446,1.53475498957288,-1.156863947748425,1.636397838592529,6.154891967773438,7.891194343566895,-2.578526020050049,1.490261077880859,0.9409759640693665,XArbitraryZVertical,-0.4228288105693043,0.5603295694446648,-0.3480960194965331,0.6213498871235279,0.4019513726234436,0.9155462384223938,-0.01449314132332802,0,0,0,-1,-1,4830.959364291667,unknown,2,2022-06-30T09:48:51.244+02:00,2022-06-30T08:20:05.567+02:00,1383,1.400134,0,0,1092.013,0,0,2022-06-30T09:48:51.243+02:00
2022-06-30T09:48:51.716+02:00,4831.433222291667,-2.423980712890625,2.028121948242188,1.27777099609375,4831.423270291667,0.06460587386595518,1.560649350501406,-1.075995010184706,2.053106546401978,5.940405368804932,8.281756401062012,-2.752038955688477,1.428103446960449,1.064235687255859,XArbitraryZVertical,-0.3834892294857522,0.5920530969282409,-0.3405918697992888,0.6216160638966756,0.4748328030109406,0.8800630569458008,-0.004818282555788755,0,0,0,-1,-1,4830.959364291667,unknown,2,2022-06-30T09:48:51.244+02:00,2022-06-30T08:20:05.567+02:00,1383,1.400134,0,0,1092.013,0,0,2022-06-30T09:48:51.243+02:00
2022-06-30T09:48:51.726+02:00,4831.443173291667,-2.459930419921875,1.844528198242188,1.281707763671875,4831.433222291667,0.02304474066218827,1.582844627562635,-0.9919198809774598,2.163775444030762,5.69745922088623,8.621045112609863,-2.882889986038208,1.392719507217407,1.219177484512329,XArbitraryZVertical,-0.3416486036796668,0.6217490392176448,-0.3313712978509334,0.6220108610189559,0.5470442175865173,0.8370778560638428,0.006591272540390491,0,0,0,-1,-1,4830.959364291667,unknown,2,2022-06-30T09:48:51.244+02:00,2022-06-30T08:20:05.567+02:00,1383,1.400134,0,0,1092.013,0,0,2022-06-30T09:48:51.243+02:00
2022-06-30T09:48:51.736+02:00,4831.453125291667,-2.43304443359375,1.713241577148438,1.224288940429688,4831.443173291667,-0.01719662696432179,1.605650326244461,-0.9050076669160734,2.12029767036438,5.465451717376709,8.966578483581543,-3.041284799575806,1.241691827774048,1.256246447563171,XArbitraryZVertical,-0.2981522963715177,0.6495131470029663,-0.3198610951129365,0.6220343130103394,0.617304265499115,0.7864298820495605,0.02152423933148384,0,0,0,-1,-1,4830.959364291667,unknown,2,2022-06-30T09:48:51.244+02:00,2022-06-30T08:20:05.567+02:00,1383,1.400134,0,0,1092.013,0,0,2022-06-30T09:48:51.243+02:00
2022-06-30T09:48:51.746+02:00,4831.463076291667,-2.426254272460938,1.61395263671875,1.141098022460938,4831.453125291667,-0.05622129011096948,1.629420818903795,-0.8152244952386899,2.16442346572876,5.260464668273926,9.293781280517578,-3.144457340240479,1.116648554801941,1.241531372070312,XArbitraryZVertical,-0.2530936827372361,0.6753011434669276,-0.305994725411019,0.6215136923147967,0.6845271587371826,0.7278795838356018,0.04017609357833862,0,0,0,-1,-1,4830.959364291667,unknown,2,2022-06-30T09:48:51.244+02:00,2022-06-30T08:20:05.567+02:00,1383,1.400134,0,0,1092.013,0,0,2022-06-30T09:48:51.243+02:00
2022-06-30T09:48:51.756+02:00,4831.473028291667,-2.449996948242188,1.532135009765625,1.136337280273438,4831.463076291667,-0.09632056846923925,1.653082464044135,-0.7232338343819915,2.308468818664551,5.108735084533691,9.560331344604492,-3.180177211761475,1.051429033279419,1.162670850753784,XArbitraryZVertical,-0.2062635860352532,0.698759075233659,-0.2904445489111449,0.6203492124940153,0.7471330165863037,0.661812424659729,0.06161782518029213,0,0,0,-1,-1,4830.959364291667,unknown,2,2022-06-30T09:48:51.244+02:00,2022-06-30T08:20:05.567+02:00,1383,1.400134,0,0,1092.013,0,0,2022-06-30T09:48:51.243+02:00
2022-06-30T09:48:51.766+02:00,4831.482980291667,-2.460708618164062,1.357269287109375,1.1973876953125,4831.473028291667,-0.1382458182107632,1.676972943568808,-0.6296536561509767,2.464060544967651,4.974026203155518,9.774164199829102,-3.229934215545654,1.025087594985962,1.055443644523621,XArbitraryZVertical,-0.1576987422199982,0.7196931117891205,-0.2736255094948928,0.6183057509640364,0.8036800026893616,0.5888648629188538,0.08565413951873779,0,0,0,-1,-1,4830.959364291667,unknown,2,2022-06-30T09:48:51.244+02:00,2022-06-30T08:20:05.567+02:00,1383,1.400134,0,0,1092.013,0,0,2022-06-30T09:48:51.243+02:00
2022-06-30T09:48:51.783+02:00,4831.492931291667,-2.478195190429688,1.181991577148438,1.23980712890625,4831.482980291667,-0.1826861171783286,1.701733278615979,-0.5353796706373608,2.712674617767334,4.935286998748779,9.918826103210449,-3.302709579467773,1.021967172622681,1.024042963981628,XArbitraryZVertical,-0.1075305790762084,0.7379595000945068,-0.2560387005526772,0.6150587099030709,0.852712869644165,0.5101675987243652,0.1122941002249718,0,0,0,-1,-1,4830.959364291667,unknown,2,2022-06-30T09:48:51.244+02:00,2022-06-30T08:20:05.567+02:00,1383,1.400134,0,0,1092.013,0,0,2022-06-30T09:48:51.243+02:00
2022-06-30T09:48:51.787+02:00,4831.502883291667,-2.532974243164062,1.080780029296875,1.17510986328125,4831.492931291667,-0.2310308655254917,1.728698052983239,-0.4415059923769498,3.077031135559082,5.066460609436035,9.98100757598877,-3.353569984436035,0.9299674034118652,1.055219650268555,XArbitraryZVertical,-0.05564371509058021,0.7536496026557378,-0.2384531209890015,0.6099640431942004,0.8928614854812622,0.4273015260696411,0.1421678960323334,0,0,0,-1,-1,4830.959364291667,unknown,2,2022-06-30T09:48:51.244+02:00,2022-06-30T08:20:05.567+02:00,1383,1.400134,0,0,1092.013,0,0,2022-06-30T09:48:51.243+02:00
2022-06-30T09:48:51.796+02:00,4831.512834291667,-2.5926513671875,0.98223876953125,1.131546020507812,4831.502883291667,-0.284810237700176,1.759470313757295,-0.3494624614334343,3.567569017410278,5.278105735778809,9.952900886535645,-3.401078462600708,0.8395984768867493,1.063586831092834,XArbitraryZVertical,-0.001981095799427084,0.766880775506359,-0.2216814207884299,0.6022851343159743,0.9228834509849548,0.3423928022384644,0.17622010409832,0,0,0,-1,-1,4830.959364291667,unknown,2,2022-06-30T09:48:51.244+02:00,2022-06-30T08:20:05.567+02:00,1383,1.400134,0,0,1092.013,0,0,2022-06-30T09:48:51.243+02:00
2022-06-30T09:48:51.806+02:00,4831.522786291667,-2.64093017578125,0.8341064453125,1.151840209960938,4831.512834291667,-0.3451318050222034,1.794849243445787,-0.2608089854838727,4.128934383392334,5.477535247802734,9.856050491333008,-3.475006103515625,0.8229174613952637,0.9604403972625732,XArbitraryZVertical,0.05320177264329434,0.7774986684998551,-0.2063157091072466,0.591691892658248,0.9420320391654968,0.2578622698783875,0.2146692126989365,0,0,0,-1,-1,4830.959364291667,unknown,2,2022-06-30T09:48:51.244+02:00,2022-06-30T08:20:05.567+02:00,1383,1.400134,0,0,1092.013,0,0,2022-06-30T09:48:51.243+02:00
2022-06-30T09:48:51.815+02:00,4831.532737291667,-2.64837646484375,0.6636962890625,1.290252685546875,4831.522786291667,-0.4128754298637588,1.835839628077425,-0.1769011704697029,4.648834228515625,5.707744598388672,9.728612899780273,-3.542671203613281,0.8062584400177002,0.8736828565597534,XArbitraryZVertical,0.1096609167652247,0.7854336284978598,-0.1927082921382035,0.5778685569121766,0.9500199556350708,0.17597995698452,0.2578630149364471,0,0,0,-1,-1,4830.959364291667,unknown,2,2022-06-30T09:48:51.244+02:00,2022-06-30T08:20:05.567+02:00,1383,1.400134,0,0,1092.013,0,0,2022-06-30T09:48:51.243+02:00
2022-06-30T09:48:51.825+02:00,4831.542689291667,-2.701995849609375,0.5413360595703125,1.41802978515625,4831.532737291667,-0.4855163246401382,1.883594220833999,-0.09807954856469248,4.625226497650146,5.900338172912598,9.569780349731445,-3.587833642959595,0.7361837029457092,0.845596969127655,XArbitraryZVertical,0.1661476243884453,0.7908960068091981,-0.1797308596568321,0.5608700772801418,0.9469035267829895,0.09792237728834152,0.3062430620193481,0,0,0,-1,-1,4830.959364291667,unknown,2,2022-06-30T09:48:51.244+02:00,2022-06-30T08:20:05.567+02:00,1383,1.400134,0,0,1092.013,0,0,2022-06-30T09:48:51.243+02:00
2022-06-30T09:48:51.835+02:00,4831.552640291667,-2.721725463867188,0.665313720703125,1.483963012695312,4831.542689291667,-0.5586073895874867,1.938950205503461,-0.02371285544858687,4.182328701019287,6.112864971160889,9.422444343566895,-3.581107616424561,0.6399852633476257,0.9304600954055786,XArbitraryZVertical,0.220864459915925,0.7944275521141054,-0.1653513638141238,0.5410755656544515,0.9327311515808105,0.02371063269674778,0.3597925007343292,0,0,0,-1,-1,4830.959364291667,unknown,2,2022-06-30T09:48:51.244+02:00,2022-06-30T08:20:05.567+02:00,1383,1.400134,0,0,1092.013,0,0,2022-06-30T09:48:51.243+02:00
2022-06-30T09:48:51.845+02:00,4831.562592291667,-2.66082763671875,0.740264892578125,1.467193603515625,4831.552640291667,-0.6313372077703596,2.00084958143321,0.04668994635601661,3.852248668670654,6.141257286071777,9.291204452514648,-3.609948873519897,0.5880086421966553,1.001564860343933,XArbitraryZVertical,0.2732175475839662,0.7959802827124649,-0.1489044530808677,0.5192254384857568,0.9079530239105225,-0.04667298495769501,0.4164648652076721,0,0,0,-1,-1,4830.959364291667,unknown,2,2022-06-30T09:48:51.244+02:00,2022-06-30T08:20:05.567+02:00,1383,1.400134,0,0,1092.013,0,0,2022-06-30T09:48:51.243+02:00
2022-06-30T09:48:51.855+02:00,4831.572543291667,-2.5809326171875,0.6345062255859375,1.467697143554688,4831.562592291667,-0.7070042922188415,2.067174713365167,0.1114296326672224,3.920248031616211,5.998404979705811,9.128480911254883,-3.595585346221924,0.7765125036239624,1.010672450065613,XArbitraryZVertical,0.3236951180304281,0.7949004653213668,-0.1319983058764823,0.4959145070747082,0.8738597631454468,-0.111199177801609,0.4732905626296997,0,0,0,-1,-1,4830.959364291667,unknown,2,2022-06-30T09:48:51.244+02:00,2022-06-30T08:20:05.567+02:00,1383,1.400134,0,0,1092.013,0,0,2022-06-30T09:48:51.243+02:00
2022-06-30T09:48:51.865+02:00,4831.582495291667,-2.528854370117188,0.3726806640625,1.456466674804688,4831.572543291667,-0.7869754844138189,2.137706030349631,0.1695190180520825,3.849243402481079,5.978710174560547,8.999789237976074,-3.492300510406494,0.9089727401733398,0.9378635287284851,XArbitraryZVertical,0.3725298620547185,0.791129902414897,-0.115265082007077,0.4712207301427792,0.8314729928970337,-0.1687082797288895,0.5293300151824951,0,0,0,-1,-1,4830.959364291667,unknown,2,2022-06-30T09:48:51.244+02:00,2022-06-30T08:20:05.567+02:00,1383,1.400134,0,0,1092.013,0,0,2022-06-30T09:48:51.243+02:00
2022-06-30T09:48:51.875+02:00,4831.592447291667,-2.378890991210938,0.2260589599609375,1.428848266601562,4831.582495291667,-0.8695078172992466,2.213102566431846,0.220848010789581,3.704557180404663,5.968338012695312,8.73227596282959,-3.36220121383667,0.8535628914833069,0.8832029700279236,XArbitraryZVertical,0.4190665454787325,0.7852581499217147,-0.09806738979782084,0.4451244727919465,0.7812687754631042,-0.2190571129322052,0.5844942927360535,0,0,0,-1,-1,4830.959364291667,unknown,2,2022-06-30T09:48:51.244+02:00,2022-06-30T08:20:05.567+02:00,1383,1.400134,0,0,1092.013,0,0,2022-06-30T09:48:51.243+02:00
2022-06-30T09:48:51.885+02:00,4831.602398291667,-2.285079956054688,0.3794708251953125,1.448287963867188,4831.592447291667,-0.9550218338464874,2.292122165837722,0.2643934813501985,3.7678382396698,5.822007656097412,8.615557670593262,-3.253691434860229,0.6340040564537048,0.8190332055091858,XArbitraryZVertical,0.4633237868495219,0.7772051569405966,-0.08106099121260935,0.4179862174131634,0.724837064743042,-0.261323869228363,0.6374335885047913,0,0,0,-1,-1,4830.959364291667,unknown,2,2022-06-30T09:48:51.244+02:00,2022-06-30T08:20:05.567+02:00,1383,1.400134,0,0,1092.013,0,0,2022-06-30T09:48:51.243+02:00
2022-06-30T09:48:51.895+02:00,4831.612350291667,-2.365921020507812,0.4978790283203125,1.470123291015625,4831.602398291667,-1.044788965502368,2.37405182039944,0.3005504776764121,3.75059175491333,5.704559326171875,8.605727195739746,-3.04213285446167,0.5221045017242432,0.7414857745170593,XArbitraryZVertical,0.5060263078138005,0.7665629757901095,-0.06440819593528832,0.3900903212511682,0.6632421016693115,-0.2960460484027863,0.6873628497123718,0,0,0,-1,-1,4830.959364291667,unknown,2,2022-06-30T09:48:51.244+02:00,2022-06-30T08:20:05.567+02:00,1383,1.400134,0,0,1092.013,0,0,2022-06-30T09:48:51.243+02:00
2022-06-30T09:48:51.905+02:00,4831.622301291667,-2.404937744140625,0.4195709228515625,1.54083251953125,4831.612350291667,-1.137297514527251,2.457846281167746,0.3294131102362319,3.725029230117798,5.508997917175293,8.467498779296875,-2.882816791534424,0.7029581069946289,0.7147576212882996,XArbitraryZVertical,0.5467828825680356,0.7535208905605548,-0.0479238469660007,0.3618538567666206,0.5977367758750916,-0.3234877586364746,0.7335305213928223,0,0,0,-1,-1,4830.959364291667,unknown,2,2022-06-30T09:48:51.244+02:00,2022-06-30T08:20:05.567+02:00,1383,1.400134,0,0,1092.013,0,0,2022-06-30T09:48:51.243+02:00
2022-06-30T09:48:51.915+02:00,4831.632253291667,-2.365325927734375,0.298614501953125,1.638763427734375,4831.622301291667,-1.229846530806755,2.537734079451179,0.3516311904107239,3.642048358917236,5.277338027954102,8.321399688720703,-2.89900016784668,0.8423082828521729,0.6973392963409424,XArbitraryZVertical,0.5847930865487017,0.7378408014747748,-0.03249505097179368,0.3354878881784197,0.5330790877342224,-0.3444296419620514,0.7727839946746826,0,0,0,-1,-1,4830.959364291667,unknown,2,2022-06-30T09:48:51.244+02:00,2022-06-30T08:20:05.567+02:00,1383,1.400134,0,0,1092.013,0,0,2022-06-30T09:48:51.243+02:00
2022-06-30T09:48:51.925+02:00,4831.642204291667,-2.345611572265625,0.15875244140625,1.694595336914062,4831.632253291667,-1.323254801433518,2.621052720804366,0.3671667655960065,3.189663887023926,5.08615255355835,8.225347518920898,-2.869137287139893,0.7785429954528809,0.7311055660247803,XArbitraryZVertical,0.6207980472190212,0.7207449466301971,-0.01627125054801051,0.3080126678350344,0.4641994833946228,-0.3589724898338318,0.8097270131111145,0,0,0,-1,-1,4830.959364291667,unknown,2,2022-06-30T09:48:51.244+02:00,2022-06-30T08:20:05.567+02:00,1383,1.400134,0,0,1092.013,0,0,2022-06-30T09:48:51.243+02:00
2022-06-30T09:48:51.935+02:00,4831.652156291667,-2.31158447265625,0.19464111328125,1.743209838867188,4831.642204291667,-1.414866575160713,2.703748868529634,0.3785677045749801,2.764602661132812,4.912646293640137,8.057173728942871,-2.7592933177948,0.6682040691375732,0.797221302986145,XArbitraryZVertical,0.6541006735075439,0.7020850995325262,0.0009716536615168634,0.2814747141314592,0.3939673006534576,-0.3695899546146393,0.8415423631668091,0,0,0,-1,-1,4830.959364291667,unknown,2,2022-06-30T09:48:51.244+02:00,2022-06-30T08:20:05.567+02:00,1383,1.400134,0,0,1092.013,0,0,2022-06-30T09:48:51.243+02:00
2022-06-30T09:48:51.945+02:00,4831.662107291667,-2.30340576171875,0.2612457275390625,1.836135864257812,4831.652156291667,-1.504449707675793,2.784561830134092,0.3854383423309274,2.524848222732544,4.652456283569336,7.888576030731201,-2.669464588165283,0.5347175002098083,0.8263962864875793,XArbitraryZVertical,0.6847912832715819,0.6820266540281493,0.01854558613077384,0.2560401950885053,0.3238527774810791,-0.3759653568267822,0.8681989312171936,0,0,0,-1,-1,4830.959364291667,unknown,2,2022-06-30T09:48:51.244+02:00,2022-06-30T08:20:05.567+02:00,1383,1.400134,0,0,1092.013,0,0,2022-06-30T09:48:51.243+02:00
2022-06-30T09:48:51.955+02:00,4831.672059291667,-2.2882080078125,0.2227935791015625,1.960784912109375,4831.662107291667,-1.592362444905967,2.861966948683199,0.3862652062220376,2.502268075942993,4.297924518585205,7.722582817077637,-2.567245960235596,0.5713721513748169,0.8528666496276855,XArbitraryZVertical,0.7132667297890782,0.660622558841081,0.03519075489508564,0.2314953159218084,0.255661278963089,-0.3767314255237579,0.890343189239502,0,0,0,-1,-1,4830.959364291667,unknown,2,2022-06-30T09:48:51.244+02:00,2022-06-30T08:20:05.567+02:00,1383,1.400134,0,0,1092.013,0,0,2022-06-30T09:48:51.243+02:00
2022-06-30T09:48:51.965+02:00,4831.682011291667,-2.244537353515625,0.140167236328125,2.08489990234375,4831.672059291667,-1.678290016945373,2.93508664189646,0.3806265530769866,2.483341455459595,3.965163230895996,7.557858943939209,-2.493773221969604,0.6327477693557739,0.9274298548698425,XArbitraryZVertical,0.739772839069672,0.638035331166554,0.05040233210235898,0.2076213809980181,0.1903669983148575,-0.3715022504329681,0.9087058901786804,0,0,0,-1,-1,4830.959364291667,unknown,2,2022-06-30T09:48:51.244+02:00,2022-06-30T08:20:05.567+02:00,1383,1.400134,0,0,1092.013,0,0,2022-06-30T09:48:51.243+02:00
2022-06-30T09:48:51.975+02:00,4831.691962291667,-2.1962890625,0.0559234619140625,2.168228149414062,4831.682011291667,-1.761111999517015,3.00303199754508,0.3695878542852596,2.401978492736816,3.602611064910889,7.310214996337891,-2.416999816894531,0.5840244889259338,1.037245512008667,XArbitraryZVertical,0.7642450902794624,0.6145722990135869,0.06424323301896699,0.1846704200707359,0.1287914961576462,-0.3612311482429504,0.9235393404960632,0,0,0,-1,-1,4830.959364291667,unknown,2,2022-06-30T09:48:51.244+02:00,2022-06-30T08:20:05.567+02:00,1383,1.400134,0,0,1092.013,0,0,2022-06-30T09:48:51.243+02:00
2022-06-30T09:48:51.985+02:00,4831.701914291667,-2.132827758789062,-0.041534423828125,2.335647583007812,4831.691962291667,-1.839441767786492,3.06443410207724,0.3538308034109783,2.361063003540039,3.182283878326416,7.004538536071777,-2.316844701766968,0.4866608083248138,1.149638414382935,XArbitraryZVertical,0.7865479935364564,0.590739340672319,0.07637967578657349,0.1628971647652016,0.07230696827173233,-0.3464938402175903,0.9352614283561707,0,0,0,-1,-1,4830.959364291667,unknown,2,2022-06-30T09:48:51.244+02:00,2022-06-30T08:20:05.567+02:00,1383,1.400134,0,0,1092.013,0,0,2022-06-30T09:48:51.243+02:00
2022-06-30T09:48:51.995+02:00,4831.711865291667,-2.098037719726562,-0.1085052490234375,2.53851318359375,4831.701914291667,-1.913282156699036,3.118918105631263,0.3352004551551516,2.082842826843262,2.773689746856689,6.760324001312256,-2.217700242996216,0.3848817050457001,1.22412645816803,XArbitraryZVertical,0.8068470785328824,0.5666114816012607,0.08698951492269338,0.14276556577059,0.0214107446372509,-0.3289584815502167,0.9441015720367432,0,0,0,-1,-1,4830.959364291667,unknown,2,2022-06-30T09:48:51.244+02:00,2022-06-30T08:20:05.567+02:00,1383,1.400134,0,0,1092.013,0,0,2022-06-30T09:48:51.243+02:00
2022-06-30T09:48:52.005+02:00,4831.721817291667,-2.008148193359375,-0.0879364013671875,2.70172119140625,4831.711865291667,-1.982563460657907,-3.116665678101934,0.3173686174945951,1.507472515106201,2.345947980880737,6.432914257049561,-2.109148502349854,0.27053302526474,1.38588273525238,XArbitraryZVertical,0.8250732790930082,0.5423434621148034,0.09682466936120364,0.125469594893736,-0.02367966622114182,-0.3120676875114441,0.9497646689414978,0,0,0,-1,-1,4830.959364291667,unknown,2,2022-06-30T09:48:51.244+02:00,2022-06-30T08:20:05.567+02:00,1383,1.400134,0,0,1092.013,0,0,2022-06-30T09:48:51.243+02:00
2022-06-30T09:48:52.015+02:00,4831.731768291667,-1.938796997070312,0.015106201171875,2.831039428710938,4831.721817291667,-2.047087952287543,-3.075831845161503,0.3028423577645388,0.9255598187446594,1.930434584617615,6.038461208343506,-2.035315036773682,0.1897289454936981,1.5860835313797,XArbitraryZVertical,0.8411496274194805,0.5183456081709166,0.1061999399261645,0.1118337726782488,-0.06272298842668533,-0.2982344031333923,0.9524297118186951,0,0,0,-1,-1,4830.959364291667,unknown,2,2022-06-30T09:48:51.244+02:00,2022-06-30T08:20:05.567+02:00,1383,1.400134,0,0,1092.013,0,0,2022-06-30T09:48:51.243+02:00
2022-06-30T09:48:52.024+02:00,4831.741720291667,-1.937698364257812,0.0140838623046875,3.00390625,4831.731768291667,-2.107228523066053,-3.041097347243571,0.2920725702435182,0.3300130665302277,1.530645608901978,5.669487476348877,-1.912071228027344,0.2000010013580322,1.748903632164001,XArbitraryZVertical,0.8552645627843931,0.4949054634197966,0.1150509191169985,0.1017573906098434,-0.09607736766338348,-0.2879376411437988,0.9528177976608276,0,0,0,-1,-1,4830.959364291667,unknown,2,2022-06-30T09:48:51.244+02:00,2022-06-30T08:20:05.567+02:00,1383,1.400134,0,0,1092.013,0,0,2022-06-30T09:48:51.243+02:00
2022-06-30T09:48:52.034+02:00,4831.751671291667,-1.920394897460938,-0.1787872314453125,3.143844604492188,4831.741720291667,-2.163574237773825,-3.011883499732682,0.2868344025148404,-0.3878403902053833,1.127158164978027,5.234477519989014,-1.814736127853394,0.2980234622955322,1.879952192306519,XArbitraryZVertical,0.8675471995079184,0.4721285149431432,0.1236245916873917,0.09577807024896215,-0.124061219394207,-0.2829173803329468,0.9510869383811951,0,0,0,-1,-1,4830.959364291667,unknown,2,2022-06-30T09:48:51.244+02:00,2022-06-30T08:20:05.567+02:00,1383,1.400134,0,0,1092.013,0,0,2022-06-30T09:48:51.243+02:00
2022-06-30T09:48:52.044+02:00,4831.761623291667,-1.913055419921875,-0.3910064697265625,3.227279663085938,4831.751671291667,-2.215807119265491,-2.987891583522438,0.2891571263719048,-1.058016061782837,0.7534928321838379,4.746835708618164,-1.790958046913147,0.2992281913757324,2.056720972061157,XArbitraryZVertical,0.877876467146279,0.4504725682800125,0.1321240483424455,0.09460780222095033,-0.1467407494783401,-0.2851444482803345,0.9471852779388428,0,0,0,-1,-1,4830.959364291667,unknown,2,2022-06-30T09:48:51.244+02:00,2022-06-30T08:20:05.567+02:00,1383,1.400134,0,0,1092.013,0,0,2022-06-30T09:48:51.243+02:00
2022-06-30T09:48:52.055+02:00,4831.771575291667,-1.849578857421875,-0.591094970703125,3.2093505859375,4831.761623291667,-2.264384472404338,-2.967980170566192,0.2964958378836111,-1.648179292678833,0.4430848956108093,4.270326137542725,-1.755191087722778,0.1133833825588226,2.201855182647705,XArbitraryZVertical,0.8866052344281374,0.4300300945881269,0.1401208471007156,0.09680654719888138,-0.1652043014764786,-0.2921707332134247,0.9419894218444824,0,0,0,-1,-1,4830.959364291667,unknown,2,2022-06-30T09:48:51.244+02:00,2022-06-30T08:20:05.567+02:00,1383,1.400134,0,0,1092.013,0,0,2022-06-30T09:48:51.243+02:00
2022-06-30T09:48:52.064+02:00,4831.781526291667,-1.772537231445312,-0.7368621826171875,3.173294067382812,4831.771575291667,-2.309173446920081,-2.951561113366636,0.3076843819838878,-2.019022464752197,0.1873385459184647,3.785926580429077,-1.733036637306213,-0.08815395832061768,2.291398525238037,XArbitraryZVertical,0.8938713885424659,0.4110163721142007,0.1474219153863458,0.1016180517865942,-0.1800190955400467,-0.3028525710105896,0.9358810186386108,0,0,0,-1,-1,4830.959364291667,unknown,2,2022-06-30T09:48:51.244+02:00,2022-06-30T08:20:05.567+02:00,1383,1.400134,0,0,1092.013,0,0,2022-06-30T09:48:51.243+02:00
2022-06-30T09:48:52.074+02:00,4831.791478291667,-1.670455932617188,-0.9508056640625,3.076187133789062,4831.781526291667,-2.349360862990896,-2.938099545285941,0.3218545614779657,-2.195642232894897,0.02396479807794094,3.180152654647827,-1.657865047454834,-0.2747686505317688,2.280273914337158,XArbitraryZVertical,0.8996570950313655,0.393897809141352,0.153999797771797,0.1083779971631053,-0.1917143166065216,-0.3163264393806458,0.9290767312049866,0,0,0,-1,-1,4830.959364291667,unknown,2,2022-06-30T09:48:51.244+02:00,2022-06-30T08:20:05.567+02:00,1383,1.400134,0,0,1092.013,0,0,2022-06-30T09:48:51.243+02:00
2022-06-30T09:48:52.084+02:00,4831.801429541667,-1.578033447265625,-1.172744750976562,2.940322875976562,4831.791478291667,-2.383488578077169,-2.926972959519502,0.3371413633124864,-2.094838380813599,0.00674706231802702,2.529410123825073,-1.571551442146301,-0.4060715436935425,2.251240730285645,XArbitraryZVertical,0.9039301797977027,0.3793902609417804,0.1598167504166527,0.1158966187535133,-0.2009862661361694,-0.3307907283306122,0.9220534563064575,0,0,0,-1,-1,4830.959364291667,unknown,2,2022-06-30T09:48:51.244+02:00,2022-06-30T08:20:05.567+02:00,1383,1.400134,0,0,1092.013,0,0,2022-06-30T09:48:51.243+02:00
2022-06-30T09:48:52.094+02:00,4831.811381541667,-1.53887939453125,-1.434555053710938,2.902847290039062,4831.801429541667,-2.41031371616149,-2.917275304454378,0.3516539638587888,-1.813019514083862,0.1413410902023315,1.778012275695801,-1.461627960205078,-0.6063547134399414,2.160903453826904,XArbitraryZVertical,0.9067193145859487,0.3681058645500329,0.165063395050799,0.122931879348724,-0.2088284492492676,-0.3444510400295258,0.9152836799621582,0,0,0,-1,-1,4830.959364291667,unknown,2,2022-06-30T09:48:51.244+02:00,2022-06-30T08:20:05.567+02:00,1383,1.400134,0,0,1092.013,0,0,2022-06-30T09:48:51.243+02:00
2022-06-30T09:48:52.104+02:00,4831.821332541667,-1.526275634765625,-1.621124267578125,2.9022216796875,4831.811381541667,-2.428459467866927,-2.908060426762843,0.3647009545011755,-1.49077844619751,0.4416958093643188,0.9459328055381775,-1.361838579177856,-0.8160749673843384,2.031451940536499,XArbitraryZVertical,0.9079141806741181,0.3607317237177912,0.1702309442957222,0.1287866926524069,-0.216195285320282,-0.3566699326038361,0.908871054649353,0,0,0,-1,-1,4830.959364291667,unknown,2,2022-06-30T09:48:51.244+02:00,2022-06-30T08:20:05.567+02:00,1383,1.400134,0,0,1092.013,0,0,2022-06-30T09:48:51.243+02:00
2022-06-30T09:48:52.114+02:00,4831.831284541667,-1.494064331054688,-1.644805908203125,2.921417236328125,4831.821332541667,-2.436956713273067,-2.898366850402843,0.3766932192291441,-1.214229941368103,0.9092547297477722,0.02660110034048557,-1.31493091583252,-1.066707611083984,2.000331163406372,XArbitraryZVertical,0.9073292810000488,0.3577871029680668,0.1759809053335072,0.1333144235249052,-0.2239488959312439,-0.3678475618362427,0.9025160670280457,0,0,0,-1,-1,4830.959364291667,unknown,2,2022-06-30T09:48:51.244+02:00,2022-06-30T08:20:05.567+02:00,1383,1.400134,0,0,1092.013,0,0,2022-06-30T09:48:51.243+02:00
2022-06-30T09:48:52.126+02:00,4831.841235541667,-1.412673950195312,-1.418304443359375,2.903411865234375,4831.831284541667,-2.434867095639154,-2.886905530066845,0.3886586311357219,-0.9930123090744019,1.568929433822632,-1.018077492713928,-1.293123722076416,-1.24217677116394,2.006655216217041,XArbitraryZVertical,0.9046138358053812,0.359801207590605,0.1831951513132233,0.1365885343190074,-0.2331523001194,-0.3789474368095398,0.8955662250518799,0,0,0,-1,-1,4830.959364291667,unknown,2,2022-06-30T09:48:51.244+02:00,2022-06-30T08:20:05.567+02:00,1383,1.400134,0,0,1092.013,0,0,2022-06-30T09:48:51.243+02:00
2022-06-30T09:48:52.135+02:00,4831.851187541667,-1.298965454101562,-1.054046630859375,2.96124267578125,4831.841235541667,-2.420907453308054,-2.873084194843722,0.4012643156689236,-0.8063883781433105,2.280888795852661,-2.142657518386841,-1.249843955039978,-1.254223585128784,2.033835411071777,XArbitraryZVertical,0.8993479908192548,0.3673748648897079,0.1923782700131562,0.1385629718642624,-0.2442209124565125,-0.3905825316905975,0.8875821828842163,0,0,0,-1,-1,4830.959364291667,unknown,2,2022-06-30T09:48:51.244+02:00,2022-06-30T08:20:05.567+02:00,1383,1.400134,0,0,1092.013,0,0,2022-06-30T09:48:51.243+02:00
2022-06-30T09:48:52.144+02:00,4831.861139541667,-1.255569458007812,-0.644287109375,3.038497924804688,4831.851187541667,-2.3949883286532,-2.857261006298598,0.4172641808488927,-1.038099884986877,2.979264974594116,-3.343453884124756,-1.156226277351379,-1.013043642044067,2.025916337966919,XArbitraryZVertical,0.8910442995023281,0.3805098522920506,0.2038419550756794,0.1403595419945256,-0.2564480602741241,-0.4052608907222748,0.8774954080581665,0,0,0,-1,-1,4830.959364291667,unknown,2,2022-06-30T09:48:51.244+02:00,2022-06-30T08:20:05.567+02:00,1383,1.400134,0,0,1092.013,0,0,2022-06-30T09:48:51.243+02:00
2022-06-30T09:48:52.154+02:00,4831.871090541667,-1.286178588867188,-0.2497711181640625,3.0968017578125,4831.861139541667,-2.357336220450732,-2.839607081522558,0.4407828314418271,-1.484863758087158,3.707639694213867,-4.600275993347168,-1.029976963996887,-0.6273990869522095,2.097751379013062,XArbitraryZVertical,0.8789192438235435,0.3990569983604403,0.2182334956600838,0.1436266169298588,-0.2689888179302216,-0.4266476035118103,0.8634910583496094,0,0,0,-1,-1,4830.959364291667,unknown,2,2022-06-30T09:48:51.244+02:00,2022-06-30T08:20:05.567+02:00,1383,1.400134,0,0,1092.013,0,0,2022-06-30T09:48:51.243+02:00
2022-06-30T09:48:52.164+02:00,4831.881042541667,-1.449600219726562,-0.15643310546875,3.259307861328125,4831.871090541667,-2.308630182542419,-2.821067738149921,0.4724872718055174,-1.854479789733887,4.326515674591064,-5.687717914581299,-0.9750238060951233,-0.1891849040985107,2.193408489227295,XArbitraryZVertical,0.8626133482294007,0.4224251208312624,0.2353541819189221,0.1485389821056307,-0.2805461287498474,-0.4551024436950684,0.8450895547866821,0,0,0,-1,-1,4830.959364291667,unknown,2,2022-06-30T09:48:51.244+02:00,2022-06-30T08:20:05.567+02:00,1383,1.400134,0,0,1092.013,0,0,2022-06-30T09:48:51.243+02:00
2022-06-30T09:48:52.174+02:00,4831.890993541667,-1.59161376953125,-0.237884521484375,3.455978393554688,4831.881042541667,-2.249500141787338,-2.80346104588972,0.5101129700557704,-1.828571677207947,4.773727893829346,-6.66966438293457,-0.9966859817504883,0.2385044097900391,2.273527145385742,XArbitraryZVertical,0.8422135527859833,0.4497929486182833,0.2541789411218988,0.1541295827505359,-0.2894931137561798,-0.4882758259773254,0.8232747316360474,0,0,0,-1,-1,4830.959364291667,unknown,2,2022-06-30T09:48:51.244+02:00,2022-06-30T08:20:05.567+02:00,1383,1.400134,0,0,1092.013,0,0,2022-06-30T09:48:51.243+02:00
2022-06-30T09:48:52.184+02:00,4831.900945541667,-1.866973876953125,-0.5044708251953125,3.742019653320312,4831.890993541667,-2.177795639794997,-2.791372178282389,0.5486267339814234,-1.180306792259216,4.887243747711182,-7.653813362121582,-1.156849145889282,0.3650826215744019,2.457860231399536,XArbitraryZVertical,0.8180694955151955,0.4811300487359627,0.2722299915188647,0.1586417393231518,-0.2927514910697937,-0.521515965461731,0.8014476299285889,0,0,0,-1,-1,4830.959364291667,unknown,2,2022-06-30T09:48:51.244+02:00,2022-06-30T08:20:05.567+02:00,1383,1.400134,0,0,1092.013,0,0,2022-06-30T09:48:51.243+02:00
2022-06-30T09:48:52.194+02:00,4831.910896541667,-2.275421142578125,-0.548919677734375,3.983367919921875,4831.900945541667,-2.08909049440303,-2.791993644777724,0.5822431301041909,0.1090949475765228,4.469680309295654,-8.789738655090332,-1.305529713630676,0.3120140433311462,2.67126989364624,XArbitraryZVertical,0.7906166447130036,0.5169908501940045,0.2860275409835639,0.160729988141559,-0.2860844135284424,-0.5498988628387451,0.7847084403038025,0,0,0,-1,-1,4830.959364291667,unknown,2,2022-06-30T09:48:51.244+02:00,2022-06-30T08:20:05.567+02:00,1383,1.400134,0,0,1092.013,0,0,2022-06-30T09:48:51.243+02:00
2022-06-30T09:48:52.204+02:00,4831.920848541667,-2.761062622070312,-0.1412506103515625,4.167160034179688,4831.910896541667,-1.979487677463913,-2.814492218801386,0.6055147104742836,1.452917456626892,3.216660499572754,-10.00540828704834,-1.602799534797668,0.06471425294876099,2.96340537071228,XArbitraryZVertical,0.7605734311505994,0.557525931806016,0.2913840755460883,0.1605873837261993,-0.2641746997833252,-0.5691853761672974,0.7786142230033875,0,0,0,-1,-1,4830.959364291667,unknown,2,2022-06-30T09:48:51.244+02:00,2022-06-30T08:20:05.567+02:00,1383,1.400134,0,0,1092.013,0,0,2022-06-30T09:48:51.243+02:00
2022-06-30T09:48:52.214+02:00,4831.930799541667,-3.120010375976562,0.7700347900390625,4.156570434570312,4831.920848541667,-1.847841893042283,-2.868921381355142,0.6194952741217937,2.321917057037354,0.9637815356254578,-11.54881763458252,-2.056160926818848,0.03170430660247803,3.199275493621826,XArbitraryZVertical,0.7279745654384492,0.6017468061211083,0.2853018967565189,0.1629626239600561,-0.219260573387146,-0.5806242823600769,0.7840923666954041,0,0,0,-1,-1,4830.959364291667,unknown,2,2022-06-30T09:48:51.244+02:00,2022-06-30T08:20:05.567+02:00,1383,1.400134,0,0,1092.013,0,0,2022-06-30T09:48:51.243+02:00
2022-06-30T09:48:52.224+02:00,4831.940751541667,-3.229049682617188,1.782455444335938,3.9410400390625,4831.930799541667,-1.692252013240393,-2.965034868493333,0.6210703571553234,3.086866617202759,-2.131062269210815,-13.32568454742432,-2.618221044540405,0.4406549334526062,3.366546392440796,XArbitraryZVertical,0.6922725036344101,0.6488957144480222,0.2646219030591304,0.1722457047078042,-0.1428419351577759,-0.5819059610366821,0.8006137609481812,0,0,0,-1,-1,4830.959364291667,unknown,2,2022-06-30T09:48:51.244+02:00,2022-06-30T08:20:05.567+02:00,1383,1.400134,0,0,1092.013,0,0,2022-06-30T09:48:51.243+02:00
2022-06-30T09:48:52.233+02:00,4831.950702541667,-3.418258666992188,2.879806518554688,3.844680786132812,4831.940751541667,-1.516587981605568,-3.104487826524309,0.6036205492553761,3.42207145690918,-5.571080684661865,-14.92956066131592,-3.08946967124939,1.337661385536194,3.333850860595703,XArbitraryZVertical,0.6524840343369087,0.6968674597781451,0.2279496157651795,0.1915185520257043,-0.03054087609052658,-0.567626953125,0.8227193355560303,0,0,0,-1,-1,4830.959364291667,unknown,2,2022-06-30T09:48:51.244+02:00,2022-06-30T08:20:05.567+02:00,1383,1.400134,0,0,1092.013,0,0,2022-06-30T09:48:51.243+02:00
2022-06-30T09:48:52.244+02:00,4831.960654541667,-3.649673461914062,3.3331298828125,3.714630126953125,4831.950702541667,-1.334013251398972,3.007112035124389,0.5691306959040325,1.662049651145935,-8.421607971191406,-15.83139991760254,-3.341991186141968,2.321354866027832,3.10627555847168,XArbitraryZVertical,0.6072360221551723,0.7407068278162224,0.1801783752808617,0.2239502116548086,0.1129413023591042,-0.5388999581336975,0.8347643613815308,0,0,0,-1,-1,4830.959364291667,unknown,2,2022-06-30T09:48:51.244+02:00,2022-06-30T08:20:05.567+02:00,1383,1.400134,0,0,1092.013,0,0,2022-06-30T09:48:51.243+02:00
2022-06-30T09:48:52.254+02:00,4831.970606541667,-4.181015014648438,2.809463500976562,3.722015380859375,4831.960654541667,-1.149846587470098,2.812728191909743,0.5338046489795113,-2.058717727661133,-11.36017036437988,-16.47838973999023,-3.696295261383057,3.388618469238281,3.029937744140625,XArbitraryZVertical,0.5536741214602392,0.7751234764167937,0.1324985784736604,0.2739940545796082,0.2780363857746124,-0.5088123679161072,0.8147428631782532,0,0,0,-1,-1,4830.959364291667,unknown,2,2022-06-30T09:48:51.244+02:00,2022-06-30T08:20:05.567+02:00,1383,1.400134,0,0,1092.013,0,0,2022-06-30T09:48:51.243+02:00
2022-06-30T09:48:52.263+02:00,4831.980557541667,-5.659713745117188,1.528182983398438,4.248703002929688,4831.970606541667,-0.9514572500930848,2.586459065304433,0.4980180073412407,-6.32863187789917,-14.45884704589844,-18.1215648651123,-4.112709522247314,3.810814619064331,2.968027830123901,XArbitraryZVertical,0.4869029609338168,0.7976381658532585,0.08906802646870504,0.3446242354993709,0.46303591132164,-0.4776852428913116,0.7466022968292236,0,0,0,-1,-1,4830.959364291667,unknown,2,2022-06-30T09:48:51.244+02:00,2022-06-30T08:20:05.567+02:00,1383,1.400134,0,0,1092.013,0,0,2022-06-30T09:48:51.243+02:00
2022-06-30T09:48:52.273+02:00,4831.990509541667,-7.497238159179688,0.385345458984375,3.99981689453125,4831.980557541667,-0.7293874132175708,2.32630484799348,0.4326256805666615,-8.088757514953613,-17.4038028717041,-20.94124603271484,-4.841873168945312,3.228719234466553,3.099527359008789,XArbitraryZVertical,0.3992998792816017,0.807343469666248,0.04598069996467134,0.4320206423850701,0.6608579158782959,-0.4192560017108917,0.6224877238273621,0,0,0,-1,-1,4830.959364291667,unknown,2,2022-06-30T09:48:51.244+02:00,2022-06-30T08:20:05.567+02:00,1383,1.400134,0,0,1092.013,0,0,2022-06-30T09:48:51.243+02:00
2022-06-30T09:48:52.283+02:00,4832.000460541667,-10.01480102539062,2.256454467773438,4.117782592773438,4831.990509541667,-0.5372594130783248,2.074291757815129,0.3073923370017114,-5.83895206451416,-19.22037315368652,-20.08210182189941,-6.494557857513428,1.830756783485413,3.78882908821106,XArbitraryZVertical,0.3008948299734194,0.7996244449315657,-0.006339325127174545,0.5196373692444612,0.8348444104194641,-0.3025742471218109,0.4598739147186279,0,0,0,-1,-1,4830.959364291667,unknown,2,2022-06-30T09:48:51.244+02:00,2022-06-30T08:20:05.567+02:00,1383,1.400134,0,0,1092.013,0,0,2022-06-30T09:48:51.243+02:00
2022-06-30T09:48:52.293+02:00,4832.010412541667,-12.53428649902344,3.321914672851562,7.0380859375,4832.000460541667,-0.4262280696497859,1.844655535070592,0.1487938328394237,-2.328985691070557,-21.38311958312988,-17.99137878417969,-8.449335098266602,0.5335904359817505,3.732356071472168,XArbitraryZVertical,0.2119810433502415,0.7673293508383673,-0.06948811585224887,0.6011998490112015,0.9520968794822693,-0.1482453942298889,0.2674605846405029,0,0,0,-1,-1,4830.959364291667,unknown,2,2022-06-30T09:48:51.244+02:00,2022-06-30T08:20:05.567+02:00,1383,1.400134,0,0,1092.013,0,0,2022-06-30T09:48:51.243+02:00
2022-06-30T09:48:52.304+02:00,4832.020363541667,-12.75494384765625,1.016952514648438,9.331130981445312,4832.010412541667,-0.3681085140660983,1.613721798455158,-0.01755674936127267,-4.095516681671143,-24.98171615600586,-17.0994873046875,-11.01372623443604,2.238898277282715,4.07487678527832,XArbitraryZVertical,0.1261849140264941,0.7110064756178349,-0.1328323226330159,0.6788982542827546,0.9989249706268311,0.0175558477640152,0.04290568083524704,0,0,0,-1,-1,4830.959364291667,unknown,2,2022-06-30T09:48:51.244+02:00,2022-06-30T08:20:05.567+02:00,1383,1.400134,0,0,1092.013,0,0,2022-06-30T09:48:51.243+02:00
2022-06-30T09:48:52.313+02:00,4832.030315541667,-18.12222290039062,4.242233276367188,10.63919067382812,4832.020363541667,-0.3496564401938617,1.343826124264905,-0.1778001855885115,-1.856622576713562,-29.40253448486328,-14.47708225250244,-13.49327850341797,3.145049571990967,7.259564876556396,XArbitraryZVertical,0.03942144325657864,0.6226608023526599,-0.1900162786201727,0.7580456677268265,0.958992063999176,0.1768648624420166,-0.2214789539575577,0,0,0,-1,-1,4830.959364291667,unknown,2,2022-06-30T09:48:51.244+02:00,2022-06-30T08:20:05.567+02:00,1383,1.400134,0,0,1092.013,0,0,2022-06-30T09:48:51.243+02:00
2022-06-30T09:48:52.323+02:00,4832.040266541667,-22.8759765625,4.391021728515625,10.21781921386719,4832.030315541667,-0.4188772369422403,1.0274816749446,-0.2873392660287889,7.166327476501465,-30.25138473510742,-11.49539947509766,-13.57584857940674,0.7335505485534668,9.826911926269531,XArbitraryZVertical,-0.020846078215692,0.5016722401370574,-0.2480311379275018,0.8284750337283237,0.8209049105644226,0.2834015786647797,-0.4957807958126068,0,0,0,-1,-1,4830.959364291667,unknown,2,2022-06-30T09:48:51.244+02:00,2022-06-30T08:20:05.567+02:00,1383,1.400134,0,0,1092.013,0,0,2022-06-30T09:48:51.243+02:00
2022-06-30T09:48:52.333+02:00,4832.050218541667,-28.52699279785156,-1.61248779296875,2.457244873046875,4832.040266541667,-0.5705723326733405,0.6765053657587142,-0.2817323462659934,15.16025924682617,-31.48295402526855,-6.976997852325439,-18.72361183166504,3.964212894439697,11.38821411132812,XArbitraryZVertical,-0.03462663471258513,0.3525469429055408,-0.30756265169573,0.883128972100525,0.6013891100883484,0.2780201137065887,-0.7490233182907104,0,0,0,-1,-1,4830.959364291667,unknown,2,2022-06-30T09:48:51.244+02:00,2022-06-30T08:20:05.567+02:00,1383,1.400134,0,0,1092.013,0,0,2022-06-30T09:48:51.243+02:00
2022-06-30T09:48:52.343+02:00,4832.060170541667,-24.24610900878906,-6.327407836914062,-5.765365600585938,4832.050218541667,-0.6785344575579046,0.3595051547269879,-0.1728922982771631,12.19030284881592,-25.68235015869141,-0.9188932776451111,-23.22254180908203,4.21898889541626,11.13993453979492,XArbitraryZVertical,-0.020828154073946,0.1962357459063839,-0.3407677323645373,0.9192034531625549,0.3465660214424133,0.1720322370529175,-0.9221154451370239,0,0,0,-1,-1,4830.959364291667,unknown,2,2022-06-30T09:48:51.244+02:00,2022-06-30T08:20:05.567+02:00,1383,1.400134,0,0,1092.013,0,0,2022-06-30T09:48:51.243+02:00
2022-06-30T09:48:52.353+02:00,4832.070121541667,-16.36796569824219,-4.325424194335938,-3.730682373046875,4832.060170541667,-0.6923597439289141,0.1662484980669794,-0.1211568692534187,-1.662712812423706,-12.052001953125,0.9726296663284302,-28.69126319885254,-1.733348846435547,3.436227798461914,XArbitraryZVertical,-0.02863270406282413,0.09843086281721057,-0.3422434394520694,0.9340026445795792,0.1642706692218781,0.1208606734871864,-0.9789830446243286,0,0,0,-1,-1,4830.959364291667,unknown,2,2022-06-30T09:48:51.244+02:00,2022-06-30T08:20:05.567+02:00,1383,1.400134,0,0,1092.013,0,0,2022-06-30T09:48:51.243+02:00
2022-06-30T09:48:52.363+02:00,4832.080073541667,-5.642807006835938,2.001724243164062,-2.260330200195312,4832.070121541667,-0.6808656384160818,0.1160186881932605,-0.1675180777046977,-5.374674797058105,0.8038539886474609,0.118908628821373,-24.3602466583252,-6.494143962860107,-4.785992622375488,XArbitraryZVertical,-0.05943688641244753,0.0823450111539069,-0.3367369347806434,0.9361061716979694,0.1141381561756134,0.1667356789112091,-0.9793730974197388,0,0,0,-1,-1,4830.959364291667,unknown,2,2022-06-30T09:48:51.244+02:00,2022-06-30T08:20:05.567+02:00,1383,1.400134,0,0,1092.013,0,0,2022-06-30T09:48:51.243+02:00
2022-06-30T09:48:52.373+02:00,4832.090024541667,-0.004302978515625,3.075225830078125,-1.989990234375,4832.080073541667,-0.6685115177403194,0.1326281674666608,-0.1881329766730596,0.9031953811645508,0.07442134618759155,2.338442087173462,-16.49787139892578,-4.512449741363525,-2.756954669952393,XArbitraryZVertical,-0.06689098053167973,0.09306807157721843,-0.3317776163006181,0.9363694117566428,0.1299063265323639,0.1870251446962357,-0.9737278819084167,0,0,0,-1,-1,4830.959364291667,unknown,2,2022-06-30T09:48:51.244+02:00,2022-06-30T08:20:05.567+02:00,1383,1.400134,0,0,1092.013,0,0,2022-06-30T09:48:51.243+02:00
2022-06-30T09:48:52.383+02:00,4832.099976541667,-5.134185791015625,-1.305648803710938,-2.113555908203125,4832.090024541667,-0.6415123507115646,0.09947783266241933,-0.1547808486153882,4.51723575592041,-7.403419017791748,3.204077005386353,-5.740933895111084,1.847560286521912,-1.277169704437256,XArbitraryZVertical,-0.05765075935262344,0.07138689299895885,-0.3175996402046027,0.9437748058224285,0.09812658280134201,0.1541635692119598,-0.9831606149673462,0,0,0,-1,-1,4830.959364291667,unknown,2,2022-06-30T09:48:51.244+02:00,2022-06-30T08:20:05.567+02:00,1383,1.400134,0,0,1092.013,0,0,2022-06-30T09:48:51.243+02:00
2022-06-30T09:48:52.393+02:00,4832.109927541667,-5.966171264648438,-3.754440307617188,-3.079010009765625,4832.099976541667,-0.6135232142621472,0.0227409102664336,-0.1211356805740983,1.116815090179443,-7.787878036499023,2.87551212310791,-0.0268754493445158,2.954385757446289,-0.9975748658180237,XArbitraryZVertical,-0.05427408829995751,0.02909701702558611,-0.3020558988578355,0.951299186209025,0.02257231995463371,0.1208396404981613,-0.9924153685569763,0,0,0,-1,-1,4830.959364291667,unknown,2,2022-06-30T09:48:51.244+02:00,2022-06-30T08:20:05.567+02:00,1383,1.400134,0,0,1092.013,0,0,2022-06-30T09:48:51.243+02:00
2022-06-30T09:48:52.403+02:00,4832.119879541667,-3.490982055664062,-3.0189208984375,-3.555099487304688,4832.109927541667,-0.5856546449455504,-0.04696459972895146,-0.1382916342341896,-4.479908466339111,-7.621017932891846,2.694004774093628,-5.087687015533447,-1.443500518798828,-1.124195098876953,XArbitraryZVertical,-0.07289299405020973,-0.002488655722560844,-0.2863379431528097,0.9553486975367119,-0.04649912938475609,0.1378512680530548,-0.9893608093261719,0,0,0,-1,-1,4830.959364291667,unknown,2,2022-06-30T09:48:51.244+02:00,2022-06-30T08:20:05.567+02:00,1383,1.400134,0,0,1092.013,0,0,2022-06-30T09:48:51.243+02:00
2022-06-30T09:48:52.416+02:00,4832.129830541667,-4.4993896484375,-0.40557861328125,-3.587188720703125,4832.119879541667,-0.570502791230375,-0.1341582473618643,-0.2033780611833075,-7.946916103363037,-10.31165409088135,1.448147296905518,-5.835172176361084,-3.956419706344604,-2.108420848846436,XArbitraryZVertical,-0.1159570889361652,-0.03548636344577875,-0.2727860279213656,0.9544016934020022,-0.130999431014061,0.2019789218902588,-0.9705893397331238,0,0,0,-1,-1,4830.959364291667,unknown,2,2022-06-30T09:48:51.244+02:00,2022-06-30T08:20:05.567+02:00,1383,1.400134,0,0,1092.013,0,0,2022-06-30T09:48:51.243+02:00
2022-06-30T09:48:52.423+02:00,4832.139782541667,-5.348983764648438,1.913726806640625,-3.858551025390625,4832.129830541667,-0.5783106411266125,-0.2399594030640557,-0.2854376919042124,-8.081839561462402,-10.04396152496338,0.04811394959688187,-3.262935161590576,-3.300498723983765,-2.623054027557373,XArbitraryZVertical,-0.1691322183176222,-0.07329098730626495,-0.2638969986952548,0.9467740884484079,-0.2280469834804535,0.281577467918396,-0.9320454597473145,0,0,0,-1,-1,4830.959364291667,unknown,2,2022-06-30T09:48:51.244+02:00,2022-06-30T08:20:05.567+02:00,1383,1.400134,0,0,1092.013,0,0,2022-06-30T09:48:51.243+02:00
2022-06-30T09:48:52.432+02:00,4832.149734541667,-4.93963623046875,2.358779907226562,-4.15533447265625,4832.139782541667,-0.6044329706693964,-0.3378685405754646,-0.3445451532954573,-4.529331207275391,-7.925203323364258,-1.37147581577301,-4.187394142150879,-0.7433476448059082,-2.699173450469971,XArbitraryZVertical,-0.2106245751461962,-0.1078409356777332,-0.2615417230649019,0.9357369746734858,-0.3119957447052002,0.3377685844898224,-0.8880152702331543,0,0,0,-1,-1,4830.959364291667,unknown,2,2022-06-30T09:48:51.244+02:00,2022-06-30T08:20:05.567+02:00,1383,1.400134,0,0,1092.013,0,0,2022-06-30T09:48:51.243+02:00
2022-06-30T09:48:52.442+02:00,4832.159685541667,-3.807586669921875,1.5909423828125,-4.242523193359375,4832.149734541667,-0.6313460790741816,-0.4143559824972397,-0.363506145709866,-1.077889323234558,-5.655130863189697,-1.818637013435364,-4.972691059112549,1.558172941207886,-3.002989768981934,XArbitraryZVertical,-0.2309568674812313,-0.1373979909065142,-0.2634691864526082,0.9264797586658272,-0.3762929439544678,0.3555534482002258,-0.8555614352226257,0,0,0,-1,-1,4830.959364291667,unknown,2,2022-06-30T09:48:51.244+02:00,2022-06-30T08:20:05.567+02:00,1383,1.400134,0,0,1092.013,0,0,2022-06-30T09:48:51.243+02:00
2022-06-30T09:48:52.453+02:00,4832.169637541667,-3.103317260742188,1.095321655273438,-3.98504638671875,4832.159685541667,-0.6472821031184691,-0.4700605221244408,-0.3592535294590238,0.3482243716716766,-4.519940853118896,-1.225145697593689,-4.515612125396729,2.007204055786133,-3.320710182189941,XArbitraryZVertical,-0.2375966355936194,-0.1619740298573727,-0.264855758340587,0.9204150212624971,-0.4240243434906006,0.3515755236148834,-0.8346245288848877,0,0,0,-1,-1,4830.959364291667,unknown,2,2022-06-30T09:48:51.244+02:00,2022-06-30T08:20:05.567+02:00,1383,1.400134,0,0,1092.013,0,0,2022-06-30T09:48:51.243+02:00
2022-06-30T09:48:52.462+02:00,4832.179588541667,-2.73895263671875,0.4890594482421875,-3.715744018554688,4832.169637541667,-0.6542786710738437,-0.5147174043123519,-0.3519346281478174,0.1712643057107925,-3.994234085083008,-0.6580482125282288,-3.345471620559692,1.246227502822876,-3.425442218780518,XArbitraryZVertical,-0.240842148031734,-0.182905855618024,-0.2637590930072135,0.9159540186170021,-0.4621153175830841,0.344714492559433,-0.8170810341835022,0,0,0,-1,-1,4830.959364291667,unknown,2,2022-06-30T09:48:51.244+02:00,2022-06-30T08:20:05.567+02:00,1383,1.400134,0,0,1092.013,0,0,2022-06-30T09:48:51.243+02:00
2022-06-30T09:48:52.472+02:00,4832.189540541667,-2.40875244140625,0.1717529296875,-4.00213623046875,4832.179588541667,-0.6597820211301832,-0.5540632351702443,-0.3529987265204101,-0.9877135753631592,-3.534258604049683,-0.1371719539165497,-2.609612703323364,0.7496080994606018,-3.187087774276733,XArbitraryZVertical,-0.2470043873047527,-0.2000238077195585,-0.2613147299183665,0.9114241306945438,-0.4937048256397247,0.345713198184967,-0.7979586124420166,0,0,0,-1,-1,4830.959364291667,unknown,2,2022-06-30T09:48:51.244+02:00,2022-06-30T08:20:05.567+02:00,1383,1.400134,0,0,1092.013,0,0,2022-06-30T09:48:51.243+02:00
2022-06-30T09:48:52.482+02:00,4832.199491541667,-2.20977783203125,0.1477813720703125,-4.317901611328125,4832.189540541667,-0.6707998444684231,-0.5917969360690816,-0.3686955675697557,-2.841160297393799,-3.322788238525391,0.06337575614452362,-2.218588352203369,0.1286600828170776,-2.941577911376953,XArbitraryZVertical,-0.2599217077969382,-0.2129732684165901,-0.2590342619917115,0.9055298178801438,-0.52036452293396,0.3603989779949188,-0.7741661667823792,0,0,0,-1,-1,4830.959364291667,unknown,2,2022-06-30T09:48:51.244+02:00,2022-06-30T08:20:05.567+02:00,1383,1.400134,0,0,1092.013,0,0,2022-06-30T09:48:51.243+02:00
