loggingTime(txt),accelerometerTimestamp_sinceReboot(s),accelerometerAccelerationX(G),accelerometerAccelerationY(G),accelerometerAccelerationZ(G),motionTimestamp_sinceReboot(s),motionYaw(rad),motionRoll(rad),motionPitch(rad),motionRotationRateX(rad/s),motionRotationRateY(rad/s),motionRotationRateZ(rad/s),motionUserAccelerationX(G),motionUserAccelerationY(G),motionUserAccelerationZ(G),motionAttitudeReferenceFrame(txt),motionQuaternionX(R),motionQuaternionY(R),motionQuaternionZ(R),motionQuaternionW(R),motionGravityX(G),motionGravityY(G),motionGravityZ(G),motionMagneticFieldX(µT),motionMagneticFieldY(µT),motionMagneticFieldZ(µT),motionHeading(°),motionMagneticFieldCalibrationAccuracy(Z),activityTimestamp_sinceReboot(s),activity(txt),activityActivityConfidence(Z),activityActivityStartDate(txt),pedometerStartDate(txt),pedometerNumberofSteps(N),pedometerAverageActivePace(s/m),pedometerCurrentPace(s/m),pedometerCurrentCadence(steps/s),pedometerDistance(m),pedometerFloorAscended(N),pedometerFloorDescended(N),pedometerEndDate(txt)
2022-06-30T09:51:16.553+02:00,4954.473989125,0.1006317138671875,0.120208740234375,-1.036575317382812,4954.464037125001,0.5036830338172004,0.08627496357335786,-0.0640734440364102,-0.4040474593639374,0.1136974543333054,0.112875297665596,0.03864219784736633,0.02788929641246796,-0.02643942832946777,XArbitraryZVertical,-0.04173244685941609,0.03376796119052599,0.2474904847904738,0.9674020579834532,0.08599115908145905,0.06402961164712906,-0.9942362308502197,0,0,0,-1,-1,4949.395771,unknown,2,2022-06-30T09:51:11.456+02:00,2022-06-30T08:20:05.567+02:00,1418,1.388076,0,0,1121.329,0,0,2022-06-30T09:50:28.075+02:00
2022-06-30T09:51:16.556+02:00,4954.483940125,0.0739288330078125,0.1277008056640625,-1.049118041992188,4954.473989125,0.5047608038159905,0.08753818384003705,-0.06671715927852019,-0.1478801369667053,0.1311201304197311,0.04795835167169571,0.05656646937131882,0.03426917642354965,-0.04301732778549194,XArbitraryZVertical,-0.04318487453673862,0.0340249775256064,0.2479185835125353,0.9672197111441386,0.08723192662000656,0.06666767597198486,-0.9939547181129456,0,0,0,-1,-1,4949.395771,unknown,2,2022-06-30T09:51:11.456+02:00,2022-06-30T08:20:05.567+02:00,1418,1.388076,0,0,1121.329,0,0,2022-06-30T09:50:28.075+02:00
2022-06-30T09:51:16.557+02:00,4954.493892125,0.0689239501953125,0.0923004150390625,-1.057586669921875,4954.483940125,0.5052135303733383,0.08867160516771314,-0.06735330236744067,0.01054067723453045,0.1014847308397293,0.05003295466303825,-0.009085685014724731,0.06467084586620331,-0.04604321718215942,XArbitraryZVertical,-0.04364058039416902,0.03448346886915338,0.2480967202872883,0.9671372364091884,0.08835466206073761,0.0673023909330368,-0.9938127994537354,0,0,0,-1,-1,4949.395771,unknown,2,2022-06-30T09:51:11.456+02:00,2022-06-30T08:20:05.567+02:00,1418,1.388076,0,0,1121.329,0,0,2022-06-30T09:50:28.075+02:00
2022-06-30T09:51:16.567+02:00,4954.503843125,0.0724639892578125,0.071868896484375,-1.050689697265625,4954.493892125,0.5060058747728825,0.08965831466433151,-0.06684631765335891,0.0696306899189949,0.1036384403705597,0.1085741296410561,-0.02000276744365692,0.04416532814502716,-0.06123369932174683,XArbitraryZVertical,-0.04353187961003823,0.03500698785013413,0.2484714062813294,0.9670271248717682,0.0893382653594017,0.06679654866456985,-0.9937589764595032,0,0,0,-1,-1,4949.395771,unknown,2,2022-06-30T09:51:11.456+02:00,2022-06-30T08:20:05.567+02:00,1418,1.388076,0,0,1121.329,0,0,2022-06-30T09:50:28.075+02:00
2022-06-30T09:51:16.577+02:00,4954.513795125,0.0758056640625,0.0611572265625,-1.040023803710938,4954.503843125,0.5069929082509314,0.09083866021162308,-0.06616839595033648,0.05462963879108429,0.1305611282587051,0.09667086601257324,-0.02143917232751846,0.01298139244318008,-0.06127971410751343,XArbitraryZVertical,-0.04336858842786442,0.03564150380025533,0.248940598133286,0.9668905584107117,0.09051527082920074,0.06612012535333633,-0.9936977028846741,0,0,0,-1,-1,4949.395771,unknown,2,2022-06-30T09:51:11.456+02:00,2022-06-30T08:20:05.567+02:00,1418,1.388076,0,0,1121.329,0,0,2022-06-30T09:50:28.075+02:00
2022-06-30T09:51:16.587+02:00,4954.523746125,0.0775604248046875,0.045745849609375,-1.007369995117188,4954.513795125,0.5077847385319267,0.09222438579306973,-0.06561967769295322,0.049481350928545,0.1474659889936447,0.07153668254613876,-0.0180586576461792,0.0002995505928993225,-0.0530998706817627,XArbitraryZVertical,-0.04329039267879597,0.03636337894720013,0.2493077449398025,0.9667726975490953,0.09189550578594208,0.0655725970864296,-0.9936072826385498,0,0,0,-1,-1,4949.395771,unknown,2,2022-06-30T09:51:11.456+02:00,2022-06-30T08:20:05.567+02:00,1418,1.388076,0,0,1121.329,0,0,2022-06-30T09:50:28.075+02:00
2022-06-30T09:51:16.597+02:00,4954.533698125,0.073333740234375,0.03411865234375,-0.9495849609375,4954.523746125,0.508338750275476,0.09364473885852723,-0.06520443839596754,0.03233059495687485,0.1396975517272949,0.0498814545571804,-0.0154440626502037,-0.009936727583408356,-0.03637391328811646,XArbitraryZVertical,-0.04327715800710392,0.03709033449774345,0.2495558436578608,0.9666815871828768,0.09330922365188599,0.06515824049711227,-0.9935027956962585,0,0,0,-1,-1,4949.395771,unknown,2,2022-06-30T09:51:11.456+02:00,2022-06-30T08:20:05.567+02:00,1418,1.388076,0,0,1121.329,0,0,2022-06-30T09:50:28.075+02:00
2022-06-30T09:51:16.607+02:00,4954.543649125,0.0740203857421875,0.0135498046875,-0.9188995361328125,4954.533698125,0.5087649335769296,0.0948660847281671,-0.06496537111663979,0.01938163861632347,0.1115632653236389,0.04331070184707642,-0.01960381865501404,-0.02526213228702545,0.01549828052520752,XArbitraryZVertical,-0.04332212401923229,0.03770160702531027,0.2497418027468824,0.9666079347007372,0.09452403336763382,0.06491968035697937,-0.9934035539627075,0,0,0,-1,-1,4949.395771,unknown,2,2022-06-30T09:51:11.456+02:00,2022-06-30T08:20:05.567+02:00,1418,1.388076,0,0,1121.329,0,0,2022-06-30T09:50:28.075+02:00
2022-06-30T09:51:16.617+02:00,4954.553601125001,0.070037841796875,-0.002227783203125,-0.904327392578125,4954.543649125,0.5090789731487182,0.09575802912214201,-0.06488318063903259,-0.004372426308691502,0.0766015499830246,0.02069620415568352,-0.02203148603439331,-0.03955388814210892,0.06229382753372192,XArbitraryZVertical,-0.04339979724691801,0.03813625565787611,0.2498764701654047,0.9665525756469574,0.09541057050228119,0.06483766436576843,-0.9933241605758667,0,0,0,-1,-1,4949.395771,unknown,2,2022-06-30T09:51:11.456+02:00,2022-06-30T08:20:05.567+02:00,1418,1.388076,0,0,1121.329,0,0,2022-06-30T09:50:28.075+02:00
2022-06-30T09:51:16.627+02:00,4954.563552125001,0.0604095458984375,-0.0103759765625,-0.904083251953125,4954.553601125001,0.5092305473982347,0.09636378877699033,-0.06515990966849552,-0.04494834691286087,0.05524236708879471,0.007499842438846827,-0.0233791396021843,-0.0614364817738533,0.08281737565994263,XArbitraryZVertical,-0.04361201258335144,0.03839070693413892,0.2499289851983777,0.9665193812248588,0.09601053595542908,0.06511381268501282,-0.9932482838630676,0,0,0,-1,-1,4949.395771,unknown,2,2022-06-30T09:51:11.456+02:00,2022-06-30T08:20:05.567+02:00,1418,1.388076,0,0,1121.329,0,0,2022-06-30T09:50:28.075+02:00
2022-06-30T09:51:16.637+02:00,4954.573504125,0.0549468994140625,-0.0065155029296875,-0.9235687255859375,4954.563552125001,0.5092255966101441,0.09673031671136803,-0.06582088688730808,-0.0775102898478508,0.03112797439098358,-0.02160797454416752,-0.03075804561376572,-0.07096139341592789,0.09125345945358276,XArbitraryZVertical,-0.04397687671251096,0.03848433791495629,0.249900420914809,0.9665065038043318,0.09637040644884109,0.0657733678817749,-0.9931699633598328,0,0,0,-1,-1,4949.395771,unknown,2,2022-06-30T09:51:11.456+02:00,2022-06-30T08:20:05.567+02:00,1418,1.388076,0,0,1121.329,0,0,2022-06-30T09:50:28.075+02:00
2022-06-30T09:51:16.647+02:00,4954.583455125,0.0640716552734375,0.03118896484375,-0.9371185302734375,4954.573504125,0.5090102217192045,0.09686602603435876,-0.06685007060459253,-0.09051070362329483,0.02451920695602894,-0.03119925037026405,-0.03943114727735519,-0.0787021815776825,0.07878232002258301,XArbitraryZVertical,-0.0444866328307884,0.03842452389549934,0.2497649678383162,0.9665205568999534,0.09649858623743057,0.06680028885602951,-0.9930890202522278,0,0,0,-1,-1,4949.395771,unknown,2,2022-06-30T09:51:11.456+02:00,2022-06-30T08:20:05.567+02:00,1418,1.388076,0,0,1121.329,0,0,2022-06-30T09:50:28.075+02:00
2022-06-30T09:51:16.657+02:00,4954.593407125,0.0745086669921875,0.0623321533203125,-0.9489898681640625,4954.583455125,0.508836812546179,0.09688044864283755,-0.06778667300005628,-0.08523152023553848,0.003734567202627659,-0.01683202758431435,-0.03873748332262039,-0.05764875560998917,0.06284910440444946,XArbitraryZVertical,-0.04493734418928802,0.0383169531488838,0.2496549363645031,0.966532466774753,0.09650681912899017,0.06773477047681808,-0.9930248856544495,0,0,0,-1,-1,4949.395771,unknown,2,2022-06-30T09:51:11.456+02:00,2022-06-30T08:20:05.567+02:00,1418,1.388076,0,0,1121.329,0,0,2022-06-30T09:50:28.075+02:00
2022-06-30T09:51:16.667+02:00,4954.603358125,0.084716796875,0.0679779052734375,-0.960723876953125,4954.593407125,0.5087558038453649,0.09667880175881446,-0.06843362596763197,-0.04338047653436661,-0.02216818556189537,-0.01617888920009136,-0.02714992314577103,-0.01779737323522568,0.04941219091415405,XArbitraryZVertical,-0.04522301360560866,0.03813955009187879,0.2496024387713726,0.9665396736486178,0.09630232304334641,0.06838022172451019,-0.9930005073547363,0,0,0,-1,-1,4949.395771,unknown,2,2022-06-30T09:51:11.456+02:00,2022-06-30T08:20:05.567+02:00,1418,1.388076,0,0,1121.329,0,0,2022-06-30T09:50:28.075+02:00
2022-06-30T09:51:16.677+02:00,4954.613310125001,0.09124755859375,0.066009521484375,-0.96331787109375,4954.603358125,0.5084918591636247,0.09621923782862085,-0.06857834067201311,0.003164119552820921,-0.04716674610972404,-0.04030925780534744,-0.01622508466243744,-0.001569069921970367,0.03746837377548218,XArbitraryZVertical,-0.04523053249212322,0.03790513323225482,0.2494812733467508,0.9665798349254519,0.09584501385688782,0.06852459907531738,-0.9930347800254822,0,0,0,-1,-1,4949.395771,unknown,2,2022-06-30T09:51:11.456+02:00,2022-06-30T08:20:05.567+02:00,1418,1.388076,0,0,1121.329,0,0,2022-06-30T09:50:28.075+02:00
2022-06-30T09:51:16.687+02:00,4954.623261125001,0.0903167724609375,0.052642822265625,-0.9597930908203125,4954.613310125001,0.5080380690687213,0.09558490497521699,-0.06838224166833913,0.01215521804988384,-0.05875188484787941,-0.04768861085176468,-0.006807371973991394,-0.001129284501075745,0.02966874837875366,XArbitraryZVertical,-0.04504816960238447,0.03763355981654442,0.2492816502602671,0.9666505058425252,0.09521636366844177,0.06832896173000336,-0.9931087493896484,0,0,0,-1,-1,4949.395771,unknown,2,2022-06-30T09:51:11.456+02:00,2022-06-30T08:20:05.567+02:00,1418,1.388076,0,0,1121.329,0,0,2022-06-30T09:50:28.075+02:00
2022-06-30T09:51:16.696+02:00,4954.633213125,0.0921478271484375,0.0430450439453125,-0.956939697265625,4954.623261125001,0.5075015902564783,0.09483813100928726,-0.06825717749550336,-0.01759841665625572,-0.06636772304773331,-0.05825656652450562,-0.00354883074760437,-0.008740723133087158,0.03066360950469971,XArbitraryZVertical,-0.04488469267877507,0.03730045023484405,0.2490425677393453,0.9667325572608048,0.09447551518678665,0.06820418685674667,-0.9931880831718445,0,0,0,-1,-1,4949.395771,unknown,2,2022-06-30T09:51:11.456+02:00,2022-06-30T08:20:05.567+02:00,1418,1.388076,0,0,1121.329,0,0,2022-06-30T09:50:28.075+02:00
2022-06-30T09:51:16.707+02:00,4954.643164125,0.0998687744140625,0.047088623046875,-0.9561767578125,4954.633213125,0.506912563844495,0.09405869546490477,-0.06838188655405979,-0.06175030022859573,-0.0689428299665451,-0.06310891360044479,-0.003933541476726532,-0.02201822400093079,0.03487890958786011,XArbitraryZVertical,-0.0448369912526984,0.03692117735160481,0.2487719389880315,0.9668190162491258,0.09370056539773941,0.0683286041021347,-0.9932529330253601,0,0,0,-1,-1,4949.395771,unknown,2,2022-06-30T09:51:11.456+02:00,2022-06-30T08:20:05.567+02:00,1418,1.388076,0,0,1121.329,0,0,2022-06-30T09:50:28.075+02:00
2022-06-30T09:51:16.716+02:00,4954.653116125,0.104644775390625,0.0511016845703125,-0.9588470458984375,4954.643164125,0.5063695789256825,0.09315308458028916,-0.0688365769690981,-0.09653517603874207,-0.08240298181772232,-0.05885451287031174,0.003926903009414673,-0.0246538445353508,0.03865545988082886,XArbitraryZVertical,-0.04493407250729097,0.03643832991086965,0.2485175233882638,0.9668982647086835,0.09279812127351761,0.06878222525119781,-0.9933063387870789,0,0,0,-1,-1,4949.395771,unknown,2,2022-06-30T09:51:11.456+02:00,2022-06-30T08:20:05.567+02:00,1418,1.388076,0,0,1121.329,0,0,2022-06-30T09:50:28.075+02:00
2022-06-30T09:51:16.726+02:00,4954.663067125,0.1067352294921875,0.059722900390625,-0.964111328125,4954.653116125,0.5058676047840878,0.09202474645931856,-0.06928560446508158,-0.0990300253033638,-0.09548481553792953,-0.0577532984316349,0.01106256246566772,-0.02038683742284775,0.03601258993148804,XArbitraryZVertical,-0.04500177209607067,0.0358476360730659,0.2482882163818119,0.9669760851644073,0.09167443215847015,0.06923018395900726,-0.9933795928955078,0,0,0,-1,-1,4949.395771,unknown,2,2022-06-30T09:51:11.456+02:00,2022-06-30T08:20:05.567+02:00,1418,1.388076,0,0,1121.329,0,0,2022-06-30T09:50:28.075+02:00
2022-06-30T09:51:16.736+02:00,4954.673019125,0.1056365966796875,0.06427001953125,-0.9709320068359375,4954.663067125,0.5053843938757826,0.09077207546307325,-0.06991193430223015,-0.08981069922447205,-0.1123982816934586,-0.05294789001345634,0.01559159904718399,-0.01387053728103638,0.03295522928237915,XArbitraryZVertical,-0.04514033505423553,0.03517416597399631,0.2480662409820079,0.9670513433531311,0.09042603522539139,0.06985499709844589,-0.9934502840042114,0,0,0,-1,-1,4949.395771,unknown,2,2022-06-30T09:51:11.456+02:00,2022-06-30T08:20:05.567+02:00,1418,1.388076,0,0,1121.329,0,0,2022-06-30T09:50:28.075+02:00
2022-06-30T09:51:16.746+02:00,4954.682970125,0.102020263671875,0.0742034912109375,-0.9781341552734375,4954.673019125,0.5049573731928146,0.08948787134882906,-0.07070057640707028,-0.0792350172996521,-0.1240014880895615,-0.04442217573523521,0.01789475977420807,-0.00814172625541687,0.02555382251739502,XArbitraryZVertical,-0.04535470766460374,0.03446387156873115,0.2478681530210227,0.9671177228600844,0.08914522081613541,0.07064168900251389,-0.993510365486145,0,0,0,-1,-1,4949.395771,unknown,2,2022-06-30T09:51:11.456+02:00,2022-06-30T08:20:05.567+02:00,1418,1.388076,0,0,1121.329,0,0,2022-06-30T09:50:28.075+02:00
2022-06-30T09:51:16.756+02:00,4954.692922125,0.0993804931640625,0.0885772705078125,-0.9879608154296875,4954.682970125,0.5046153478660931,0.08819560408680015,-0.0714011723643414,-0.05823146179318428,-0.1251114904880524,-0.0332864373922348,0.01632969826459885,-0.003286354243755341,0.01983553171157837,XArbitraryZVertical,-0.04552728199246096,0.0337588665842701,0.2477139649116048,0.9671739739979348,0.08785688132047653,0.07134051620960236,-0.9935752153396606,0,0,0,-1,-1,4949.395771,unknown,2,2022-06-30T09:51:11.456+02:00,2022-06-30T08:20:05.567+02:00,1418,1.388076,0,0,1121.329,0,0,2022-06-30T09:50:28.075+02:00
2022-06-30T09:51:16.766+02:00,4954.702873125,0.1004791259765625,0.098602294921875,-0.996795654296875,4954.692922125,0.5043803801735924,0.08695551989043837,-0.07192037827617949,-0.04328900203108788,-0.1258724331855774,-0.02419587038457394,0.01454386860132217,0.01012703776359558,0.01079720258712769,XArbitraryZVertical,-0.0456206781406389,0.03309943626768524,0.2476152849227536,0.9672175945442917,0.0866214707493782,0.07185839116573334,-0.9936463832855225,0,0,0,-1,-1,4949.395771,unknown,2,2022-06-30T09:51:11.456+02:00,2022-06-30T08:20:05.567+02:00,1418,1.388076,0,0,1121.329,0,0,2022-06-30T09:50:28.075+02:00
2022-06-30T09:51:16.776+02:00,4954.712825125001,0.1004638671875,0.09783935546875,-1.006561279296875,4954.702873125,0.5042405624681074,0.08571604295394462,-0.07220105388462135,-0.0222146064043045,-0.1292985826730728,-0.01099164970219135,0.01339689642190933,0.02350371330976486,0.0003093481063842773,XArbitraryZVertical,-0.04560057677719356,0.03246802359093149,0.2475688195773758,0.9672518028106358,0.08538807183504105,0.07213833928108215,-0.9937328100204468,0,0,0,-1,-1,4949.395771,unknown,2,2022-06-30T09:51:11.456+02:00,2022-06-30T08:20:05.567+02:00,1418,1.388076,0,0,1121.329,0,0,2022-06-30T09:50:28.075+02:00
2022-06-30T09:51:16.786+02:00,4954.722776125001,0.09674072265625,0.09283447265625,-1.016082763671875,4954.712825125001,0.5042040494383032,0.08450275754657165,-0.0722179880814556,-0.0135850990191102,-0.125030905008316,-0.003139619249850512,0.01757820695638657,0.02778980135917664,-0.008103430271148682,XArbitraryZVertical,-0.04545798350746728,0.03187994976659712,0.2475783538701781,0.9672756455058086,0.08418222516775131,0.07215522974729538,-0.9938344955444336,0,0,0,-1,-1,4949.395771,unknown,2,2022-06-30T09:51:11.456+02:00,2022-06-30T08:20:05.567+02:00,1418,1.388076,0,0,1121.329,0,0,2022-06-30T09:50:28.075+02:00
2022-06-30T09:51:16.796+02:00,4954.732728125,0.0934600830078125,0.097991943359375,-1.0203857421875,4954.722776125001,0.5042263620503824,0.08351288024051111,-0.07209260088140476,-0.01283888146281242,-0.1109702065587044,0.003356363391503692,0.01573839783668518,0.0239017978310585,-0.0174567699432373,XArbitraryZVertical,-0.04527519670877831,0.03141640462276693,0.2476147112258716,0.9672900733881657,0.08319916576147079,0.07203017175197601,-0.9939263463020325,0,0,0,-1,-1,4949.395771,unknown,2,2022-06-30T09:51:11.456+02:00,2022-06-30T08:20:05.567+02:00,1418,1.388076,0,0,1121.329,0,0,2022-06-30T09:50:28.075+02:00
2022-06-30T09:51:16.806+02:00,4954.742679125,0.08935546875,0.0935516357421875,-1.022247314453125,4954.732728125,0.5043764437056585,0.08286790084122821,-0.07199567024736837,-0.03132814541459084,-0.09373920410871506,0.01670279540121555,0.01334239542484283,0.02289984375238419,-0.02642953395843506,XArbitraryZVertical,-0.04515082866426051,0.03111321490329262,0.2477042530234618,0.9672828105764815,0.08255866169929504,0.07193349301815033,-0.9939867258071899,0,0,0,-1,-1,4949.395771,unknown,2,2022-06-30T09:51:11.456+02:00,2022-06-30T08:20:05.567+02:00,1418,1.388076,0,0,1121.329,0,0,2022-06-30T09:50:28.075+02:00
2022-06-30T09:51:16.816+02:00,4954.752631125,0.087982177734375,0.087677001953125,-1.022430419921875,4954.742679125,0.5046945876506662,0.08267002190960895,-0.07205849248147621,-0.04915454611182213,-0.07559961080551147,0.03180558234453201,0.01036563515663147,0.02469875663518906,-0.02658557891845703,XArbitraryZVertical,-0.04516161340161642,0.03100245750531624,0.2478610467726212,0.9672456926675327,0.08236159384250641,0.07199615240097046,-0.9939985275268555,0,0,0,-1,-1,4949.395771,unknown,2,2022-06-30T09:51:11.456+02:00,2022-06-30T08:20:05.567+02:00,1418,1.388076,0,0,1121.329,0,0,2022-06-30T09:50:28.075+02:00
2022-06-30T09:51:16.826+02:00,4954.762582125,0.0854034423828125,0.089202880859375,-1.020477294921875,4954.752631125,0.5051339472292612,0.08269797060930792,-0.07236706826947589,-0.06022757291793823,-0.06149393692612648,0.03771679848432541,0.006433442234992981,0.01879101246595383,-0.02795284986495972,XArbitraryZVertical,-0.04532099608705776,0.03096733102905145,0.2480653177738411,0.9671870622990386,0.0823875367641449,0.07230392098426819,-0.9939740896224976,0,0,0,-1,-1,4949.395771,unknown,2,2022-06-30T09:51:11.456+02:00,2022-06-30T08:20:05.567+02:00,1418,1.388076,0,0,1121.329,0,0,2022-06-30T09:50:28.075+02:00
2022-06-30T09:51:16.836+02:00,4954.772534125001,0.0803680419921875,0.09088134765625,-1.015823364257812,4954.762582125,0.505643402221903,0.08275776480613901,-0.07286806628980572,-0.05890557914972305,-0.04258815571665764,0.04916786029934883,0.00523260235786438,0.01511751115322113,-0.02752101421356201,XArbitraryZVertical,-0.04557838849651106,0.03092177244170266,0.2482980511701365,0.967116573485149,0.082443967461586,0.07280360162258148,-0.9939329028129578,0,0,0,-1,-1,4949.395771,unknown,2,2022-06-30T09:51:11.456+02:00,2022-06-30T08:20:05.567+02:00,1418,1.388076,0,0,1121.329,0,0,2022-06-30T09:50:28.075+02:00
2022-06-30T09:51:16.846+02:00,4954.782485125001,0.0812530517578125,0.0894775390625,-1.016769409179688,4954.772534125001,0.5062776722849354,0.08287066824382432,-0.0736225732613961,-0.05742106214165688,-0.03136918693780899,0.06372160464525223,-0.0009785592555999756,0.01598244905471802,-0.02460986375808716,XArbitraryZVertical,-0.04596675188058569,0.03086701627258983,0.248583581315519,0.9670266588929495,0.08255161345005035,0.0735560804605484,-0.9938685894012451,0,0,0,-1,-1,4949.395771,unknown,2,2022-06-30T09:51:11.456+02:00,2022-06-30T08:20:05.567+02:00,1418,1.388076,0,0,1121.329,0,0,2022-06-30T09:50:28.075+02:00
2022-06-30T09:51:16.856+02:00,4954.792437125,0.082916259765625,0.0926513671875,-1.015960693359375,4954.782485125001,0.5070019450803742,0.08302115635261084,-0.07456681713277272,-0.04787922278046608,-0.02266651019454002,0.06979307532310486,-0.001702159643173218,0.0164293497800827,-0.02078568935394287,XArbitraryZVertical,-0.04645280065142945,0.03080419910636267,0.2489069618524666,0.9669222641975941,0.0826953798532486,0.07449773699045181,-0.9937864542007446,0,0,0,-1,-1,4949.395771,unknown,2,2022-06-30T09:51:11.456+02:00,2022-06-30T08:20:05.567+02:00,1418,1.388076,0,0,1121.329,0,0,2022-06-30T09:50:28.075+02:00
2022-06-30T09:51:16.866+02:00,4954.802388125,0.08551025390625,0.091064453125,-1.016036987304688,4954.792437125,0.5078002710777501,0.0833516037356568,-0.07544469229795886,-0.02588117867708206,-0.0124615803360939,0.08012371510267258,-0.002482838928699493,0.01524876803159714,-0.02170258760452271,XArbitraryZVertical,-0.04693030911292211,0.0308346530362754,0.2492634092396358,0.9668063691544218,0.08301829546689987,0.07537314295768738,-0.9936935305595398,0,0,0,-1,-1,4949.395771,unknown,2,2022-06-30T09:51:11.456+02:00,2022-06-30T08:20:05.567+02:00,1418,1.388076,0,0,1121.329,0,0,2022-06-30T09:50:28.075+02:00
2022-06-30T09:51:16.875+02:00,4954.812340125,0.0858612060546875,0.0850982666015625,-1.018325805664062,4954.802388125,0.5086736977103423,0.0837225760180496,-0.07605632594124649,-0.004772433079779148,-0.006183976773172617,0.08509423583745956,0.001516416668891907,0.01569174975156784,-0.02156597375869751,XArbitraryZVertical,-0.0472854664473193,0.03091617208625686,0.2496615954878208,0.9666837429874698,0.08338305354118347,0.07598302513360977,-0.99361652135849,0,0,0,-1,-1,4949.395771,unknown,2,2022-06-30T09:51:11.456+02:00,2022-06-30T08:20:05.567+02:00,1418,1.388076,0,0,1121.329,0,0,2022-06-30T09:50:28.075+02:00
2022-06-30T09:51:16.885+02:00,4954.822291125,0.083465576171875,0.07373046875,-1.016860961914062,4954.812340125,0.5095170712331636,0.08409044599763246,-0.07646803352176865,0.00529737863689661,0.006507413927465677,0.07894479483366013,0.002191133797168732,0.01348070055246353,-0.02512222528457642,XArbitraryZVertical,-0.04754329812625596,0.03102190316424294,0.2500501549814965,0.966567314725686,0.08374593406915665,0.07639352977275848,-0.9935545325279236,0,0,0,-1,-1,4949.395771,unknown,2,2022-06-30T09:51:11.456+02:00,2022-06-30T08:20:05.567+02:00,1418,1.388076,0,0,1121.329,0,0,2022-06-30T09:50:28.075+02:00
2022-06-30T09:51:16.910+02:00,4954.832243125,0.0804443359375,0.0598602294921875,-1.007858276367188,4954.822291125,0.5103003704640952,0.08441806020221285,-0.07674586644036292,0.002436344511806965,0.02041124552488327,0.07566085457801819,0.001653805375099182,0.003895819187164307,-0.02456057071685791,XArbitraryZVertical,-0.04773061390409802,0.0311263735753529,0.2504139030865344,0.9664604803020403,0.0840696394443512,0.07667054980993271,-0.9935058951377869,0,0,0,-1,-1,4949.395771,unknown,2,2022-06-30T09:51:11.456+02:00,2022-06-30T08:20:05.567+02:00,1418,1.388076,0,0,1121.329,0,0,2022-06-30T09:50:28.075+02:00
2022-06-30T09:51:16.912+02:00,4954.842194125,0.0789794921875,0.0521087646484375,-1.000885009765625,4954.832243125,0.5110360298265562,0.0847526459171296,-0.07696971727184289,-0.01532347779721022,0.03074452839791775,0.07066036760807037,-0.003727808594703674,-0.009098976850509644,-0.01876175403594971,XArbitraryZVertical,-0.04789207875611205,0.03124206195700658,0.2507557160329758,0.9663601405726533,0.08440059423446655,0.07689373940229416,-0.9934605360031128,0,0,0,-1,-1,4949.395771,unknown,2,2022-06-30T09:51:11.456+02:00,2022-06-30T08:20:05.567+02:00,1418,1.388076,0,0,1121.329,0,0,2022-06-30T09:50:28.075+02:00
2022-06-30T09:51:16.915+02:00,4954.852146125,0.0776824951171875,0.054840087890625,-0.9960784912109375,4954.842194125,0.5117212986208171,0.08517707691675595,-0.07730781977333616,-0.0363755002617836,0.04105042666196823,0.06206182390451431,-0.005108542740345001,-0.02361148595809937,-0.01082801818847656,XArbitraryZVertical,-0.0481192696049902,0.03138772692838823,0.2510680243408893,0.9662630761384098,0.08482002466917038,0.07723084092140198,-0.9933986663818359,0,0,0,-1,-1,4949.395771,unknown,2,2022-06-30T09:51:11.456+02:00,2022-06-30T08:20:05.567+02:00,1418,1.388076,0,0,1121.329,0,0,2022-06-30T09:50:28.075+02:00
2022-06-30T09:51:16.925+02:00,4954.862097125,0.08050537109375,0.0590667724609375,-0.991851806640625,4954.852146125,0.5123634093216763,0.08558895052192016,-0.07782804642712984,-0.04702601581811905,0.04856427013874054,0.0579078234732151,-0.007421597838401794,-0.02626638859510422,-0.00432664155960083,XArbitraryZVertical,-0.04843220459214023,0.03150503059613736,0.2513550003486387,0.9661690489931882,0.08522572368383408,0.07774949818849564,-0.9933235049247742,0,0,0,-1,-1,4949.395771,unknown,2,2022-06-30T09:51:11.456+02:00,2022-06-30T08:20:05.567+02:00,1418,1.388076,0,0,1121.329,0,0,2022-06-30T09:50:28.075+02:00
2022-06-30T09:51:16.935+02:00,4954.872049125001,0.0830078125,0.065643310546875,-0.99200439453125,4954.862097125,0.5129400047786771,0.08603966866369858,-0.07837313293616602,-0.0353214219212532,0.04919970035552979,0.05025629699230194,-0.006339766085147858,-0.02156078815460205,0.001543402671813965,XArbitraryZVertical,-0.04876106347643695,0.03163932319623517,0.2516085970447755,0.9660820518367293,0.08566977083683014,0.07829292863607407,-0.993242621421814,0,0,0,-1,-1,4949.395771,unknown,2,2022-06-30T09:51:11.456+02:00,2022-06-30T08:20:05.567+02:00,1418,1.388076,0,0,1121.329,0,0,2022-06-30T09:50:28.075+02:00
2022-06-30T09:51:16.945+02:00,4954.882000125001,0.0817718505859375,0.0686798095703125,-0.993133544921875,4954.872049125001,0.5134251204984701,0.08645602552472602,-0.07876385482659139,-0.01639014109969139,0.0500522144138813,0.04388711228966713,-0.003927767276763916,-0.01598411053419113,0.0008209347724914551,XArbitraryZVertical,-0.04900971260512074,0.03177875979021724,0.2518226446494405,0.9660091769859634,0.08608065545558929,0.07868244498968124,-0.9931763410568237,0,0,0,-1,-1,4949.395771,unknown,2,2022-06-30T09:51:11.456+02:00,2022-06-30T08:20:05.567+02:00,1418,1.388076,0,0,1121.329,0,0,2022-06-30T09:50:28.075+02:00
2022-06-30T09:51:16.955+02:00,4954.891952125,0.0796356201171875,0.068511962890625,-0.991363525390625,4954.882000125001,0.513823354477154,0.08690782884072543,-0.07898246972529868,0.002487143967300653,0.04733952134847641,0.03880340233445168,-0.003779888153076172,-0.01069362461566925,0.001542985439300537,XArbitraryZVertical,-0.04917846500312003,0.03195930436357129,0.251998246021239,0.9659487556285211,0.08652787655591965,0.07890037447214127,-0.9931201338768005,0,0,0,-1,-1,4949.395771,unknown,2,2022-06-30T09:51:11.456+02:00,2022-06-30T08:20:05.567+02:00,1418,1.388076,0,0,1121.329,0,0,2022-06-30T09:50:28.075+02:00
2022-06-30T09:51:16.965+02:00,4954.901903125,0.0773773193359375,0.06805419921875,-0.9888763427734375,4954.891952125,0.514163973386436,0.08732339047494861,-0.07901697937823962,0.02059297822415829,0.04246125370264053,0.02820825017988682,-0.005702972412109375,-0.01068224757909775,0.0008938908576965332,XArbitraryZVertical,-0.04925294817901037,0.03214721551051514,0.2521516138266245,0.9658987628327251,0.08694033324718475,0.07893478125333786,-0.9930813908576965,0,0,0,-1,-1,4949.395771,unknown,2,2022-06-30T09:51:11.456+02:00,2022-06-30T08:20:05.567+02:00,1418,1.388076,0,0,1121.329,0,0,2022-06-30T09:50:28.075+02:00
2022-06-30T09:51:16.975+02:00,4954.911855125,0.0781707763671875,0.0665740966796875,-0.9912872314453125,4954.901903125,0.5144055698364992,0.0876892925311689,-0.07875499590650333,0.02340554259717464,0.04059170931577682,0.02476478181779385,-0.008997827768325806,-0.01008538156747818,0.002820432186126709,XArbitraryZVertical,-0.04917658151468475,0.03235145430263816,0.2522661475101138,0.9658658726402639,0.08730550110340118,0.07867360860109329,-0.9930700659751892,0,0,0,-1,-1,4949.395771,unknown,2,2022-06-30T09:51:11.456+02:00,2022-06-30T08:20:05.567+02:00,1418,1.388076,0,0,1121.329,0,0,2022-06-30T09:50:28.075+02:00
2022-06-30T09:51:16.985+02:00,4954.92180575,0.0767974853515625,0.0686492919921875,-0.9866485595703125,4954.911855125,0.5146030366042817,0.08788608423434204,-0.0781524815184076,0.01997059769928455,0.04234951734542847,0.02362814545631409,-0.009166888892650604,-0.01148363202810287,0.00402522087097168,XArbitraryZVertical,-0.04891390190448739,0.03251866355274285,0.252372454483909,0.9658458561923267,0.08750507235527039,0.07807295024394989,-0.9930999279022217,0,0,0,-1,-1,4949.395771,unknown,2,2022-06-30T09:51:11.456+02:00,2022-06-30T08:20:05.567+02:00,1418,1.388076,0,0,1121.329,0,0,2022-06-30T09:50:28.075+02:00
2022-06-30T09:51:16.995+02:00,4954.931757750001,0.075103759765625,0.07147216796875,-0.984893798828125,4954.92180575,0.5147659452301555,0.08803913390599789,-0.07715399583808984,0.01391030848026276,0.04404142498970032,0.01803177781403065,-0.01117200404405594,-0.01047289371490479,0.003539621829986572,XArbitraryZVertical,-0.0484541215614701,0.03271627738084009,0.2524735450753851,0.9658359123848617,0.08766388148069382,0.0770774707198143,-0.9931637048721313,0,0,0,-1,-1,4949.395771,unknown,2,2022-06-30T09:51:11.456+02:00,2022-06-30T08:20:05.567+02:00,1418,1.388076,0,0,1121.329,0,0,2022-06-30T09:50:28.075+02:00
2022-06-30T09:51:17.005+02:00,4954.941708750001,0.0759429931640625,0.075958251953125,-0.984893798828125,4954.931757750001,0.5148907950680227,0.08814465762439629,-0.07615297411324237,0.01795005612075329,0.04187358543276787,0.01548180170357227,-0.01232115179300308,-0.005614332854747772,0.007421433925628662,XArbitraryZVertical,-0.04798651283597723,0.03289224648362833,0.2525574689867482,0.9658313312603023,0.08777543157339096,0.07607939094305038,-0.9932307600975037,0,0,0,-1,-1,4949.395771,unknown,2,2022-06-30T09:51:11.456+02:00,2022-06-30T08:20:05.567+02:00,1418,1.388076,0,0,1121.329,0,0,2022-06-30T09:50:28.075+02:00
2022-06-30T09:51:17.015+02:00,4954.95166075,0.0762939453125,0.0852508544921875,-0.982025146484375,4954.941708750001,0.5149907690842656,0.08829412957197282,-0.07527641151737847,0.03476366028189659,0.03927594050765038,0.01468658167868853,-0.01447435468435287,-0.001520678400993347,0.009442746639251709,XArbitraryZVertical,-0.04758410354124119,0.03307416027336637,0.2526250611478554,0.9658274041498207,0.08792973309755325,0.07520534098148346,-0.9932836890220642,0,0,0,-1,-1,4949.395771,unknown,2,2022-06-30T09:51:11.456+02:00,2022-06-30T08:20:05.567+02:00,1418,1.388076,0,0,1121.329,0,0,2022-06-30T09:50:28.075+02:00
2022-06-30T09:51:17.025+02:00,4954.96161175,0.0766448974609375,0.0822906494140625,-0.9856719970703125,4954.95166075,0.5150915136233404,0.08847768012336868,-0.07448670955869474,0.04483500123023987,0.03320169448852539,0.01426457148045301,-0.01173220574855804,0.007369227707386017,0.009912669658660889,XArbitraryZVertical,-0.04722793573586456,0.03326143569256526,0.2526899712904179,0.9658215098223815,0.08811727166175842,0.0744178518652916,-0.9933264255523682,0,0,0,-1,-1,4949.395771,unknown,2,2022-06-30T09:51:11.456+02:00,2022-06-30T08:20:05.567+02:00,1418,1.388076,0,0,1121.329,0,0,2022-06-30T09:50:28.075+02:00
2022-06-30T09:51:17.035+02:00,4954.97156375,0.0789794921875,0.076568603515625,-0.9836578369140625,4954.96161175,0.5151291307662232,0.0886074458639728,-0.07374584752860548,0.0657554566860199,0.02442178502678871,0.00797817949205637,-0.01272045075893402,0.01062574982643127,0.01010847091674805,XArbitraryZVertical,-0.04688749919566421,0.03341800140553785,0.2527244226409875,0.9658236590483986,0.0882510244846344,0.07367902249097824,-0.9933695793151855,0,0,0,-1,-1,4949.395771,unknown,2,2022-06-30T09:51:11.456+02:00,2022-06-30T08:20:05.567+02:00,1418,1.388076,0,0,1121.329,0,0,2022-06-30T09:50:28.075+02:00
2022-06-30T09:51:17.045+02:00,4954.98151475,0.0734710693359375,0.0637054443359375,-0.9841156005859375,4954.97156375,0.5151325084260301,0.08864064038893887,-0.07292566608576498,0.06446982175111771,0.02720670029520988,0.005346110556274652,-0.009142413735389709,0.005889534950256348,0.009509265422821045,XArbitraryZVertical,-0.04649601114388153,0.03353888486640496,0.252746654358989,0.9658326019595722,0.08828932046890259,0.07286104559898376,-0.993426501750946,0,0,0,-1,-1,4949.395771,unknown,2,2022-06-30T09:51:11.456+02:00,2022-06-30T08:20:05.567+02:00,1418,1.388076,0,0,1121.329,0,0,2022-06-30T09:50:28.075+02:00
2022-06-30T09:51:17.055+02:00,4954.991466750001,0.0726318359375,0.060455322265625,-0.9806671142578125,4954.98151475,0.5150880292374043,0.08859559735362735,-0.07225137867840255,0.04561277851462364,0.02725170738995075,0.001375870313495398,-0.0125809982419014,-0.002577967941761017,0.00887531042098999,XArbitraryZVertical,-0.04616423016994439,0.03360442398275777,0.2527437919684721,0.9658468471522104,0.08824890106916428,0.07218853384256363,-0.9934791922569275,0,0,0,-1,-1,4949.395771,unknown,2,2022-06-30T09:51:11.456+02:00,2022-06-30T08:20:05.567+02:00,1418,1.388076,0,0,1121.329,0,0,2022-06-30T09:50:28.075+02:00
2022-06-30T09:51:17.064+02:00,4955.001417750001,0.075531005859375,0.071075439453125,-0.9756317138671875,4954.991466750001,0.5150214006214168,0.08860723450439324,-0.07180050490156523,0.01580141857266426,0.03411497920751572,-0.00202568550594151,-0.01534201204776764,-0.01197019219398499,0.01043248176574707,XArbitraryZVertical,-0.04594702057194046,0.03366924821860715,0.2527230482292768,0.9658604349054373,0.08826333284378052,0.0717388316988945,-0.9935104846954346,0,0,0,-1,-1,4949.395771,unknown,2,2022-06-30T09:51:11.456+02:00,2022-06-30T08:20:05.567+02:00,1418,1.388076,0,0,1121.329,0,0,2022-06-30T09:50:28.075+02:00
2022-06-30T09:51:17.074+02:00,4955.01136975,0.0754241943359375,0.078765869140625,-0.978851318359375,4955.001417750001,0.5150025969596624,0.08863212738143871,-0.07162050118498804,-0.003889994695782661,0.03484388440847397,0.002648162189871073,-0.01365890353918076,-0.005290411412715912,0.01570743322372437,XArbitraryZVertical,-0.04586299306911289,0.03370472313983147,0.2527180708524511,0.9658644875156799,0.08828920125961304,0.07155928760766983,-0.9935211539268494,0,0,0,-1,-1,4949.395771,unknown,2,2022-06-30T09:51:11.456+02:00,2022-06-30T08:20:05.567+02:00,1418,1.388076,0,0,1121.329,0,0,2022-06-30T09:50:28.075+02:00
2022-06-30T09:51:17.084+02:00,4955.02132075,0.078948974609375,0.0774078369140625,-0.977569580078125,4955.01136975,0.5149800081576562,0.08862004703524991,-0.0716617887871252,-0.00629016850143671,0.03059667348861694,-0.002718706615269184,-0.01341775059700012,0.004495084285736084,0.01561397314071655,XArbitraryZVertical,-0.04588100591400593,0.03369412650524613,0.252706358270521,0.965867108939831,0.0882769376039505,0.07160046696662903,-0.9935193061828613,0,0,0,-1,-1,4949.395771,unknown,2,2022-06-30T09:51:11.456+02:00,2022-06-30T08:20:05.567+02:00,1418,1.388076,0,0,1121.329,0,0,2022-06-30T09:50:28.075+02:00
2022-06-30T09:51:17.094+02:00,4955.03127275,0.0775604248046875,0.0759124755859375,-0.9772796630859375,4955.02132075,0.514876622958466,0.08852207067995181,-0.0717965630919099,-0.002485576784238219,0.03031091764569283,-0.01015664916485548,-0.01135118305683136,0.00767180323600769,0.01475852727890015,XArbitraryZVertical,-0.04593192198950915,0.03363194909378932,0.2526551863429678,0.9658802167990498,0.08817874640226364,0.07173489779233932,-0.9935182929039001,0,0,0,-1,-1,4949.395771,unknown,2,2022-06-30T09:51:11.456+02:00,2022-06-30T08:20:05.567+02:00,1418,1.388076,0,0,1121.329,0,0,2022-06-30T09:50:28.075+02:00
2022-06-30T09:51:17.105+02:00,4955.04122375,0.0754852294921875,0.0764312744140625,-0.9781036376953125,4955.03127275,0.5147377999312537,0.08851181473932791,-0.07214890803173907,-0.00634662713855505,0.03200214728713036,-0.01288505736738443,-0.008500620722770691,0.00387188047170639,0.01618379354476929,XArbitraryZVertical,-0.04609830933836737,0.03358514269724133,0.2525792188094538,0.9658938586178717,0.08816631883382797,0.07208632677793503,-0.9934939742088318,0,0,0,-1,-1,4949.395771,unknown,2,2022-06-30T09:51:11.456+02:00,2022-06-30T08:20:05.567+02:00,1418,1.388076,0,0,1121.329,0,0,2022-06-30T09:50:28.075+02:00
2022-06-30T09:51:17.114+02:00,4955.05117575,0.078857421875,0.076507568359375,-0.978759765625,4955.04122375,0.5145681359899817,0.08850575156062052,-0.07266718474287417,-0.02143609710037708,0.03213610500097275,-0.0205706749111414,-0.01276373863220215,0.003400750458240509,0.0151703953742981,XArbitraryZVertical,-0.04634479228674714,0.03351989301294228,0.2524839689878143,0.9659091674297779,0.08815697580575943,0.0726032480597496,-0.9934571385383606,0,0,0,-1,-1,4949.395771,unknown,2,2022-06-30T09:51:11.456+02:00,2022-06-30T08:20:05.567+02:00,1418,1.388076,0,0,1121.329,0,0,2022-06-30T09:50:28.075+02:00
2022-06-30T09:51:17.124+02:00,4955.06112675,0.0810394287109375,0.08245849609375,-0.9807891845703125,4955.05117575,0.5143734886777798,0.08862267169480929,-0.07310053200416382,-0.02736975438892841,0.03577707707881927,-0.02338623441755772,-0.01101553440093994,0.002815954387187958,0.01601368188858032,XArbitraryZVertical,-0.04656539594711805,0.03352551064627015,0.2523759635691224,0.9659266207328586,0.08827033638954163,0.07303544133901596,-0.9934154152870178,0,0,0,-1,-1,4949.395771,unknown,2,2022-06-30T09:51:11.456+02:00,2022-06-30T08:20:05.567+02:00,1418,1.388076,0,0,1121.329,0,0,2022-06-30T09:50:28.075+02:00
2022-06-30T09:51:17.134+02:00,4955.07107875,0.0800323486328125,0.0882568359375,-0.980987548828125,4955.06112675,0.5141207313281165,0.08866531589191315,-0.07329764966862373,-0.0182590801268816,0.03526148945093155,-0.0281788595020771,-0.008462622761726379,0.004618264734745026,0.0126844048500061,XArbitraryZVertical,-0.04666165729279818,0.033526820486494,0.2522477510498685,0.9659554564703349,0.08831142634153366,0.07323203235864639,-0.9933972954750061,0,0,0,-1,-1,4949.395771,unknown,2,2022-06-30T09:51:11.456+02:00,2022-06-30T08:20:05.567+02:00,1418,1.388076,0,0,1121.329,0,0,2022-06-30T09:50:28.075+02:00
2022-06-30T09:51:17.144+02:00,4955.08102975,0.077850341796875,0.078460693359375,-0.9779815673828125,4955.07107875,0.5137727039024874,0.08864513099259827,-0.07314808966913663,-0.001467982772737741,0.02929211407899857,-0.03821332007646561,-0.008214652538299561,0.01270200312137604,0.01233083009719849,XArbitraryZVertical,-0.04658110726818084,0.03354427654062123,0.2520840422736003,0.9660013951443357,0.08829234540462494,0.07308287918567657,-0.9934099912643433,0,0,0,-1,-1,4949.395771,unknown,2,2022-06-30T09:51:11.456+02:00,2022-06-30T08:20:05.567+02:00,1418,1.388076,0,0,1121.329,0,0,2022-06-30T09:50:28.075+02:00
2022-06-30T09:51:17.154+02:00,4955.090981750001,0.07122802734375,0.0627899169921875,-0.97454833984375,4955.08102975,0.5133024867512,0.08862349571604271,-0.07304280932925897,0.00718036713078618,0.02878158539533615,-0.05348974466323853,-0.008392199873924255,0.01178465783596039,0.01261502504348755,XArbitraryZVertical,-0.04651968322797646,0.03355819922681005,0.2518601610950298,0.9660622885210545,0.08827152848243713,0.07297787815332413,-0.9934195280075073,0,0,0,-1,-1,4949.395771,unknown,2,2022-06-30T09:51:11.456+02:00,2022-06-30T08:20:05.567+02:00,1418,1.388076,0,0,1121.329,0,0,2022-06-30T09:50:28.075+02:00
2022-06-30T09:51:17.164+02:00,4955.100932750001,0.06414794921875,0.05206298828125,-0.9666290283203125,4955.090981750001,0.5126656952690513,0.08866692471936032,-0.07314008001287214,-0.001858868170529604,0.040949746966362,-0.0695975050330162,-0.014675572514534,-0.003189675509929657,0.01574748754501343,XArbitraryZVertical,-0.04656140778076096,0.0335816020063484,0.2515490169484854,0.966140518068468,0.08831404894590378,0.07307488471269608,-0.9934086203575134,0,0,0,-1,-1,4949.395771,unknown,2,2022-06-30T09:51:11.456+02:00,2022-06-30T08:20:05.567+02:00,1418,1.388076,0,0,1121.329,0,0,2022-06-30T09:50:28.075+02:00
2022-06-30T09:51:17.174+02:00,4955.11088475,0.06060791015625,0.0389862060546875,-0.965728759765625,4955.100932750001,0.5118989129766088,0.08886207301361879,-0.0734825016023954,-0.02595541626214981,0.05021036043763161,-0.08687742799520493,-0.01987207680940628,-0.01647062599658966,0.02426540851593018,XArbitraryZVertical,-0.04673832227939663,0.03365018756653675,0.2511650944225152,0.9662295287459501,0.08850567787885666,0.07341638952493668,-0.9933663606643677,0,0,0,-1,-1,4949.395771,unknown,2,2022-06-30T09:51:11.456+02:00,2022-06-30T08:20:05.567+02:00,1418,1.388076,0,0,1121.329,0,0,2022-06-30T09:50:28.075+02:00
2022-06-30T09:51:17.184+02:00,4955.12083575,0.0524444580078125,0.0337371826171875,-0.96923828125,4955.11088475,0.510935953540981,0.08924864748859786,-0.07403403955474379,-0.05760734900832176,0.06782548129558563,-0.112245500087738,-0.02745461463928223,-0.02873942255973816,0.02672362327575684,XArbitraryZVertical,-0.04703683056136319,0.03378946160301127,0.2506763552443728,0.966337065931072,0.08888605982065201,0.07396642863750458,-0.9932916164398193,0,0,0,-1,-1,4949.395771,unknown,2,2022-06-30T09:51:11.456+02:00,2022-06-30T08:20:05.567+02:00,1418,1.388076,0,0,1121.329,0,0,2022-06-30T09:50:28.075+02:00
2022-06-30T09:51:17.194+02:00,4955.13078775,0.0430450439453125,0.0193328857421875,-0.9723358154296875,4955.12083575,0.5096962131641883,0.08974766621202432,-0.07489351267981433,-0.08193532377481461,0.08907909691333771,-0.1501377522945404,-0.03143879771232605,-0.03792780637741089,0.025043785572052,XArbitraryZVertical,-0.04749324046323668,0.03395091332152662,0.2500428930754094,0.9664731987822988,0.08937598764896393,0.0748235210776329,-0.993183434009552,0,0,0,-1,-1,4949.395771,unknown,2,2022-06-30T09:51:11.456+02:00,2022-06-30T08:20:05.567+02:00,1418,1.388076,0,0,1121.329,0,0,2022-06-30T09:50:28.075+02:00
2022-06-30T09:51:17.204+02:00,4955.14073875,0.0343017578125,0.00079345703125,-0.9742431640625,4955.13078775,0.5080117742580442,0.09040258699205034,-0.07601287971189537,-0.1087253242731094,0.09688207507133484,-0.2049881219863892,-0.04393769800662994,-0.04819925874471664,0.02267318964004517,XArbitraryZVertical,-0.04808678774009408,0.03416613109829238,0.2491835094512719,0.9666581846979018,0.09001880884170532,0.07593970000743866,-0.9930406808853149,0,0,0,-1,-1,4949.395771,unknown,2,2022-06-30T09:51:11.456+02:00,2022-06-30T08:20:05.567+02:00,1418,1.388076,0,0,1121.329,0,0,2022-06-30T09:50:28.075+02:00
2022-06-30T09:51:17.214+02:00,4955.150690750001,0.011993408203125,-0.0304718017578125,-0.968963623046875,4955.14073875,0.5057601699574691,0.09122573740758971,-0.07759550145292214,-0.1632210612297058,0.1339751034975052,-0.2750321924686432,-0.04803992062807083,-0.06714171916246414,0.01797652244567871,XArbitraryZVertical,-0.04891483444406421,0.03441924011506737,0.2480327870875033,0.9669035803945502,0.09082514047622681,0.07751765847206116,-0.9928452968597412,0,0,0,-1,-1,4949.395771,unknown,2,2022-06-30T09:51:11.456+02:00,2022-06-30T08:20:05.567+02:00,1418,1.388076,0,0,1121.329,0,0,2022-06-30T09:50:28.075+02:00
2022-06-30T09:51:17.224+02:00,4955.160641750001,-0.004241943359375,-0.0595245361328125,-0.9579010009765625,4955.150690750001,0.5027510499737952,0.09242065246740713,-0.07992734038289884,-0.2269794642925262,0.1815216839313507,-0.3683475255966187,-0.06912201642990112,-0.09357521682977676,0.02200281620025635,XArbitraryZVertical,-0.05013697622368386,0.03477917061721274,0.2464849858673535,0.9672237995705834,0.091994509100914,0.07984226942062378,-0.9925534129142761,0,0,0,-1,-1,4949.395771,unknown,2,2022-06-30T09:51:11.456+02:00,2022-06-30T08:20:05.567+02:00,1418,1.388076,0,0,1121.329,0,0,2022-06-30T09:50:28.075+02:00
2022-06-30T09:51:17.234+02:00,4955.17059375,-0.0237274169921875,-0.080474853515625,-0.9527130126953125,4955.160641750001,0.4988016054770333,0.09414566021692636,-0.08304378654825471,-0.3166196048259735,0.2507662773132324,-0.4762084782123566,-0.08974634855985641,-0.1289689242839813,0.02865493297576904,XArbitraryZVertical,-0.05178547717941868,0.03532599353305133,0.2444445877331997,0.9676348662663495,0.09368268400430679,0.08294837176799774,-0.9921406507492065,0,0,0,-1,-1,4949.395771,unknown,2,2022-06-30T09:51:11.456+02:00,2022-06-30T08:20:05.567+02:00,1418,1.388076,0,0,1121.329,0,0,2022-06-30T09:50:28.075+02:00
2022-06-30T09:51:17.244+02:00,4955.18054475,-0.038055419921875,-0.116180419921875,-0.94482421875,4955.17059375,0.4938858722851893,0.09653882192705714,-0.08719124521687098,-0.4434947371482849,0.333160400390625,-0.5840181708335876,-0.1112972572445869,-0.1574544012546539,0.03726273775100708,XArbitraryZVertical,-0.05399372827142609,0.03610172868801094,0.2418850247181082,0.9681286119914376,0.09602278470993042,0.08708081394433975,-0.9915626645088196,0,0,0,-1,-1,4949.395771,unknown,2,2022-06-30T09:51:11.456+02:00,2022-06-30T08:20:05.567+02:00,1418,1.388076,0,0,1121.329,0,0,2022-06-30T09:50:28.075+02:00
2022-06-30T09:51:17.254+02:00,4955.19049675,-0.0601654052734375,-0.1579132080078125,-0.936431884765625,4955.18054475,0.487860755254082,0.09969691539575888,-0.09301569865052971,-0.6314438581466675,0.4374852180480957,-0.7351440191268921,-0.1286125183105469,-0.1884322166442871,0.04242974519729614,XArbitraryZVertical,-0.05708005761029648,0.03708593026058471,0.2387096928017234,0.9687023448350039,0.09910158067941666,0.09288162738084793,-0.9907330274581909,0,0,0,-1,-1,4949.395771,unknown,2,2022-06-30T09:51:11.456+02:00,2022-06-30T08:20:05.567+02:00,1418,1.388076,0,0,1121.329,0,0,2022-06-30T09:50:28.075+02:00
2022-06-30T09:51:17.264+02:00,4955.20044775,-0.0780181884765625,-0.1860504150390625,-0.9187164306640625,4955.19049675,0.4804986468192479,0.1039433008514204,-0.1013429299283104,-0.8922327160835266,0.5704560875892639,-0.8998352885246277,-0.1513047516345978,-0.2397346496582031,0.04502636194229126,XArbitraryZVertical,-0.06147358103212534,0.03835589287395143,0.234762920256028,0.9693483601734121,0.1032238751649857,0.1011695489287376,-0.9894996285438538,0,0,0,-1,-1,4949.395771,unknown,2,2022-06-30T09:51:11.456+02:00,2022-06-30T08:20:05.567+02:00,1418,1.388076,0,0,1121.329,0,0,2022-06-30T09:50:28.075+02:00
2022-06-30T09:51:17.273+02:00,4955.21039975,-0.0956573486328125,-0.177276611328125,-0.906341552734375,4955.20044775,0.4718237372350624,0.1093567725470947,-0.1130473163770667,-1.26564347743988,0.7140856981277466,-1.069197416305542,-0.1780685782432556,-0.2871994376182556,0.06019133329391479,XArbitraryZVertical,-0.06759988755662213,0.03986804374052405,0.230005745195226,0.9700196856627187,0.1084422990679741,0.1128066852688789,-0.9876815676689148,0,0,0,-1,-1,4949.395771,unknown,2,2022-06-30T09:51:11.456+02:00,2022-06-30T08:20:05.567+02:00,1418,1.388076,0,0,1121.329,0,0,2022-06-30T09:50:28.075+02:00
2022-06-30T09:51:17.283+02:00,4955.22035075,-0.11431884765625,-0.120819091796875,-0.89483642578125,4955.21039975,0.4621104001207965,0.1160673034779067,-0.1290123495826069,-1.698479056358337,0.8811981678009033,-1.209831118583679,-0.2014842927455902,-0.3149188458919525,0.07367062568664551,XArbitraryZVertical,-0.07589766169317702,0.04160516409276906,0.2245043084273499,0.9706217354469387,0.1148444563150406,0.1286547631025314,-0.9850171208381653,0,0,0,-1,-1,4949.395771,unknown,2,2022-06-30T09:51:11.456+02:00,2022-06-30T08:20:05.567+02:00,1418,1.388076,0,0,1121.329,0,0,2022-06-30T09:50:28.075+02:00
2022-06-30T09:51:17.293+02:00,4955.23030275,-0.1199493408203125,-0.0387115478515625,-0.8788299560546875,4955.22035075,0.4517285273292171,0.1243237217884331,-0.1494473652465716,-2.117429494857788,1.077361106872559,-1.331493616104126,-0.2275566160678864,-0.3036616444587708,0.08028131723403931,XArbitraryZVertical,-0.08649077577456672,0.04368863265988126,0.2183726299973035,0.9710427623439951,0.1226214990019798,0.1488916873931885,-0.9812213182449341,0,0,0,-1,-1,4949.395771,unknown,2,2022-06-30T09:51:11.456+02:00,2022-06-30T08:20:05.567+02:00,1418,1.388076,0,0,1121.329,0,0,2022-06-30T09:50:28.075+02:00
2022-06-30T09:51:17.304+02:00,4955.24025375,-0.0951995849609375,0.048370361328125,-0.858062744140625,4955.23030275,0.4408678260667011,0.134183736065085,-0.1738000163958678,-2.441828966140747,1.257542490959167,-1.432326912879944,-0.2521277368068695,-0.2546677589416504,0.09047609567642212,XArbitraryZVertical,-0.09910355371651905,0.04623811151766164,0.2116601150831419,0.9712057621176474,0.1317659765481949,0.1729263514280319,-0.9760810732841492,0,0,0,-1,-1,4949.395771,unknown,2,2022-06-30T09:51:11.456+02:00,2022-06-30T08:20:05.567+02:00,1418,1.388076,0,0,1121.329,0,0,2022-06-30T09:50:28.075+02:00
2022-06-30T09:51:17.313+02:00,4955.250205750001,-0.0650177001953125,0.112152099609375,-0.8444366455078125,4955.24025375,0.4297380299448899,0.1452423702112786,-0.2013085540753674,-2.721399545669556,1.383529424667358,-1.508913516998291,-0.2537178993225098,-0.1924596428871155,0.09940254688262939,XArbitraryZVertical,-0.1133072686211272,0.04916131180831083,0.2044578902901995,0.9710518544922275,0.141809493303299,0.199951633810997,-0.9694892764091492,0,0,0,-1,-1,4949.395771,unknown,2,2022-06-30T09:51:11.456+02:00,2022-06-30T08:20:05.567+02:00,1418,1.388076,0,0,1121.329,0,0,2022-06-30T09:50:28.075+02:00
2022-06-30T09:51:17.323+02:00,4955.260156750001,-0.053924560546875,0.17626953125,-0.8486175537109375,4955.250205750001,0.4185121593700364,0.1570902562348029,-0.2318921548253728,-3.018314123153687,1.493629097938538,-1.590915083885193,-0.2295283675193787,-0.1488563716411591,0.1140357255935669,XArbitraryZVertical,-0.1290041049274088,0.05227969285994448,0.1968220956495496,0.9705080293896798,0.1522574424743652,0.2298194468021393,-0.9612495303153992,0,0,0,-1,-1,4949.395771,unknown,2,2022-06-30T09:51:11.456+02:00,2022-06-30T08:20:05.567+02:00,1418,1.388076,0,0,1121.329,0,0,2022-06-30T09:50:28.075+02:00
2022-06-30T09:51:17.333+02:00,4955.27010875,-0.03118896484375,0.256683349609375,-0.833709716796875,4955.260156750001,0.4073284304959125,0.1699185139068201,-0.2656027978458608,-3.305442094802856,1.648255228996277,-1.65504002571106,-0.2214155942201614,-0.1178072094917297,0.1054568290710449,XArbitraryZVertical,-0.146218997771619,0.0556867061136125,0.1887513250388015,0.9694802305556857,0.1631723791360855,0.26249098777771,-0.9510380029678345,0,0,0,-1,-1,4949.395771,unknown,2,2022-06-30T09:51:11.456+02:00,2022-06-30T08:20:05.567+02:00,1418,1.388076,0,0,1121.329,0,0,2022-06-30T09:50:28.075+02:00
2022-06-30T09:51:17.343+02:00,4955.28005975,0.0136260986328125,0.354217529296875,-0.812591552734375,4955.27010875,0.3965945188098727,0.1840247844392714,-0.3023639503866825,-3.599207401275635,1.792465448379517,-1.67201554775238,-0.2196242213249207,-0.08542126417160034,0.09284371137619019,XArbitraryZVertical,-0.1649251866898928,0.05951047651829789,0.1803624158419457,0.9678468763078939,0.1746866703033447,0.2977777421474457,-0.93851637840271,0,0,0,-1,-1,4949.395771,unknown,2,2022-06-30T09:51:11.456+02:00,2022-06-30T08:20:05.567+02:00,1418,1.388076,0,0,1121.329,0,0,2022-06-30T09:50:28.075+02:00
2022-06-30T09:51:17.353+02:00,4955.29001175,0.055145263671875,0.460601806640625,-0.791229248046875,4955.28005975,0.3870650731872693,0.1995338167671453,-0.3420432862844266,-3.877067565917969,1.93493127822876,-1.622212886810303,-0.1979153156280518,-0.03234270215034485,0.1025941371917725,XArbitraryZVertical,-0.1850579862181746,0.06374694815282085,0.1719438539380521,0.9654663154713888,0.1867302358150482,0.3354127109050751,-0.9233797192573547,0,0,0,-1,-1,4949.395771,unknown,2,2022-06-30T09:51:11.456+02:00,2022-06-30T08:20:05.567+02:00,1418,1.388076,0,0,1121.329,0,0,2022-06-30T09:50:28.075+02:00
2022-06-30T09:51:17.363+02:00,4955.29996275,0.1125946044921875,0.5545654296875,-0.7624359130859375,4955.29001175,0.3793563126974204,0.2167563089327105,-0.3843184770176112,-4.12157154083252,2.101776599884033,-1.542441725730896,-0.1644633114337921,0.03417590260505676,0.1007957458496094,XArbitraryZVertical,-0.2064717743502702,0.06847454232302799,0.1636997367930224,0.9622282404140373,0.1993750333786011,0.3749274015426636,-0.9053612947463989,0,0,0,-1,-1,4949.395771,unknown,2,2022-06-30T09:51:11.456+02:00,2022-06-30T08:20:05.567+02:00,1418,1.388076,0,0,1121.329,0,0,2022-06-30T09:50:28.075+02:00
2022-06-30T09:51:17.373+02:00,4955.309914750001,0.1815185546875,0.6573486328125,-0.697235107421875,4955.29996275,0.3738070909943664,0.235897548034274,-0.428570454814923,-4.305665016174316,2.20250940322876,-1.450560808181763,-0.1314176023006439,0.09056299924850464,0.1082320213317871,XArbitraryZVertical,-0.2288599100655906,0.07374223058650856,0.1557180749885654,0.9580904002834089,0.2125786989927292,0.4155709743499756,-0.8843704462051392,0,0,0,-1,-1,4949.395771,unknown,2,2022-06-30T09:51:11.456+02:00,2022-06-30T08:20:05.567+02:00,1418,1.388076,0,0,1121.329,0,0,2022-06-30T09:50:28.075+02:00
2022-06-30T09:51:17.383+02:00,4955.319865750001,0.2574920654296875,0.7533416748046875,-0.6400604248046875,4955.309914750001,0.3705567429293601,0.2568234760280151,-0.474098660849206,-4.407397270202637,2.28839373588562,-1.341504693031311,-0.07793779671192169,0.1501221358776093,0.1244702339172363,XArbitraryZVertical,-0.2518472227780963,0.07944228442227581,0.1480359704829994,0.9530725278911654,0.2259934097528458,0.4565367102622986,-0.8605238199234009,0,0,0,-1,-1,4949.395771,unknown,2,2022-06-30T09:51:11.456+02:00,2022-06-30T08:20:05.567+02:00,1418,1.388076,0,0,1121.329,0,0,2022-06-30T09:50:28.075+02:00
2022-06-30T09:51:17.395+02:00,4955.32981775,0.331207275390625,0.8229522705078125,-0.6179962158203125,4955.319865750001,0.3698793119243325,0.2795360515293921,-0.5198905680786959,-4.416948795318604,2.344430446624756,-1.206981182098389,-0.02073566615581512,0.2099408209323883,0.1737242341041565,XArbitraryZVertical,-0.2749382529793656,0.0855339885891814,0.1407795992536116,0.9472455058117752,0.2394547611474991,0.4967851638793945,-0.834185779094696,0,0,0,-1,-1,4949.395771,unknown,2,2022-06-30T09:51:11.456+02:00,2022-06-30T08:20:05.567+02:00,1418,1.388076,0,0,1121.329,0,0,2022-06-30T09:50:28.075+02:00
2022-06-30T09:51:17.405+02:00,4955.33976875,0.42987060546875,0.8632354736328125,-0.5946197509765625,4955.32981775,0.3717292059182425,0.3039194190155048,-0.5647133451916023,-4.280670166015625,2.363385200500488,-1.077468872070312,0.04102340340614319,0.2577034831047058,0.1745889186859131,XArbitraryZVertical,-0.2975315485467567,0.09198280113783289,0.1339836343424806,0.9407776609816735,0.2527994513511658,0.5351737141609192,-0.8060283064842224,0,0,0,-1,-1,4949.395771,unknown,2,2022-06-30T09:51:11.456+02:00,2022-06-30T08:20:05.567+02:00,1418,1.388076,0,0,1121.329,0,0,2022-06-30T09:50:28.075+02:00
2022-06-30T09:51:17.413+02:00,4955.34972075,0.514801025390625,0.8831634521484375,-0.635498046875,4955.33976875,0.3758361030430941,0.3295598282493684,-0.6074077820878168,-4.098653793334961,2.332457780838013,-0.9361479878425598,0.1128305792808533,0.274672269821167,0.1775756478309631,XArbitraryZVertical,-0.3190539342030757,0.09866137852532834,0.1276576337388599,0.9339025848806188,0.2657395601272583,0.570740818977356,-0.7769410610198975,0,0,0,-1,-1,4949.395771,unknown,2,2022-06-30T09:51:11.456+02:00,2022-06-30T08:20:05.567+02:00,1418,1.388076,0,0,1121.329,0,0,2022-06-30T09:50:28.075+02:00
2022-06-30T09:51:17.423+02:00,4955.35967175,0.5528411865234375,0.8737640380859375,-0.6628265380859375,4955.34972075,0.38245799445494,0.3564161217220489,-0.6482529812101699,-3.991119384765625,2.294732332229614,-0.8113948106765747,0.2003942131996155,0.2747910618782043,0.1364463567733765,XArbitraryZVertical,-0.3396614125069126,0.1053992373698343,0.1218886180497471,0.9266413863137082,0.2781363129615784,0.6037946939468384,-0.7470422387123108,0,0,0,-1,-1,4949.395771,unknown,2,2022-06-30T09:51:11.456+02:00,2022-06-30T08:20:05.567+02:00,1418,1.388076,0,0,1121.329,0,0,2022-06-30T09:50:28.075+02:00
2022-06-30T09:51:17.433+02:00,4955.36962375,0.57208251953125,0.880279541015625,-0.67022705078125,4955.35967175,0.3915817164558021,0.3849706423422024,-0.6874292042785722,-3.859226942062378,2.32267165184021,-0.6881533265113831,0.2470510303974152,0.2445217370986938,0.0586889386177063,XArbitraryZVertical,-0.3594826274899993,0.1123211133759484,0.1165472215715874,0.9190065692554098,0.2902410924434662,0.6345523595809937,-0.7163124084472656,0,0,0,-1,-1,4949.395771,unknown,2,2022-06-30T09:51:11.456+02:00,2022-06-30T08:20:05.567+02:00,1418,1.388076,0,0,1121.329,0,0,2022-06-30T09:50:28.075+02:00
2022-06-30T09:51:17.443+02:00,4955.37957475,0.5804595947265625,0.911407470703125,-0.6629791259765625,4955.36962375,0.4035082887532914,0.4159817261992261,-0.724437442499576,-3.705150604248047,2.360835552215576,-0.5277559757232666,0.2618423104286194,0.2072655558586121,0.02042710781097412,XArbitraryZVertical,-0.3783743810822899,0.1197018589229422,0.111659894804058,0.9110633438876405,0.3026104271411896,0.6627142429351807,-0.6850085854530334,0,0,0,-1,-1,4949.395771,unknown,2,2022-06-30T09:51:11.456+02:00,2022-06-30T08:20:05.567+02:00,1418,1.388076,0,0,1121.329,0,0,2022-06-30T09:50:28.075+02:00
2022-06-30T09:51:17.453+02:00,4955.38952675,0.5778350830078125,0.9254608154296875,-0.6041259765625,4955.37957475,0.4184519539626185,0.4498997975531229,-0.7590189624992326,-3.504671573638916,2.436476469039917,-0.3673972487449646,0.2619462013244629,0.208289623260498,-0.0165751576423645,XArbitraryZVertical,-0.3962887094006599,0.1276599185008035,0.1072304920945875,0.9028620765410181,0.3155070543289185,0.6882100105285645,-0.6533163785934448,0,0,0,-1,-1,4949.395771,unknown,2,2022-06-30T09:51:11.456+02:00,2022-06-30T08:20:05.567+02:00,1418,1.388076,0,0,1121.329,0,0,2022-06-30T09:50:28.075+02:00
2022-06-30T09:51:17.463+02:00,4955.39947775,0.5994873046875,0.93536376953125,-0.5478668212890625,4955.38952675,0.4357617759496106,0.486623120763262,-0.7896866912724612,-3.094697713851929,2.510625123977661,-0.1888637393712997,0.2498941421508789,0.2068594098091125,-0.01441192626953125,XArbitraryZVertical,-0.4125771802668536,0.1364231921232523,0.1031705655299265,0.8947203914234872,0.3292528688907623,0.7101327180862427,-0.6223375797271729,0,0,0,-1,-1,4949.395771,unknown,2,2022-06-30T09:51:11.456+02:00,2022-06-30T08:20:05.567+02:00,1418,1.388076,0,0,1121.329,0,0,2022-06-30T09:50:28.075+02:00
2022-06-30T09:51:17.473+02:00,4955.409429750001,0.646270751953125,0.8508453369140625,-0.457977294921875,4955.39947775,0.4540137381830177,0.5245322668850408,-0.8152834230932506,-2.635136842727661,2.44900918006897,-0.07115761935710907,0.2399274110794067,0.210846483707428,0.01712536811828613,XArbitraryZVertical,-0.4266360234731824,0.1457443638885475,0.09940553800856292,0.8870506854488204,0.343385249376297,0.7279199361801147,-0.5934805870056152,0,0,0,-1,-1,4949.395771,unknown,2,2022-06-30T09:51:11.456+02:00,2022-06-30T08:20:05.567+02:00,1418,1.388076,0,0,1121.329,0,0,2022-06-30T09:50:28.075+02:00
2022-06-30T09:51:17.482+02:00,4955.419380750001,0.65228271484375,0.7648468017578125,-0.35699462890625,4955.409429750001,0.4717136332724238,0.5610985587646091,-0.8359832855549583,-2.172859668731689,2.288195610046387,-0.0090600261464715,0.268166571855545,0.1616388559341431,0.05753254890441895,XArbitraryZVertical,-0.4383873199190912,0.1548931199588275,0.09592622510053486,0.8801266620869861,0.3567568063735962,0.7419561147689819,-0.5676493644714355,0,0,0,-1,-1,4949.395771,unknown,2,2022-06-30T09:51:11.456+02:00,2022-06-30T08:20:05.567+02:00,1418,1.388076,0,0,1121.329,0,0,2022-06-30T09:50:28.075+02:00
2022-06-30T09:51:17.492+02:00,4955.42933275,0.6649932861328125,0.706146240234375,-0.263458251953125,4955.419380750001,0.4882498721772155,0.5954666926084931,-0.8526704499344638,-1.883366107940674,2.137427568435669,0.03060669265687466,0.2856232225894928,0.04861092567443848,0.1404618620872498,XArbitraryZVertical,-0.4481793946629258,0.1636183214719277,0.0926734920044071,0.8739428317474562,0.3690548241138458,0.7530401945114136,-0.5447285771369934,0,0,0,-1,-1,4949.395771,unknown,2,2022-06-30T09:51:11.456+02:00,2022-06-30T08:20:05.567+02:00,1418,1.388076,0,0,1121.329,0,0,2022-06-30T09:50:28.075+02:00
2022-06-30T09:51:17.503+02:00,4955.43928375,0.7016448974609375,0.598602294921875,-0.1190338134765625,4955.42933275,0.5053759155690835,0.6288157785513743,-0.8678516455250823,-1.917649507522583,1.949140071868896,0.06787044554948807,0.271245002746582,-0.01968622207641602,0.2162493467330933,XArbitraryZVertical,-0.4572793432928453,0.1717224919230736,0.08982538067041777,0.8679507901434984,0.3802439272403717,0.762941837310791,-0.5228139758110046,0,0,0,-1,-1,4949.395771,unknown,2,2022-06-30T09:51:11.456+02:00,2022-06-30T08:20:05.567+02:00,1418,1.388076,0,0,1121.329,0,0,2022-06-30T09:50:28.075+02:00
2022-06-30T09:51:17.513+02:00,4955.44923575,0.700927734375,0.5948486328125,-0.004486083984375,4955.43928375,0.5253571954485361,0.6623396132011188,-0.8835133395708792,-2.171069860458374,1.70671820640564,0.09868534654378891,0.2968085706233978,-0.127647876739502,0.3009954690933228,XArbitraryZVertical,-0.4667548978047346,0.1788700158116959,0.08774319728673935,0.8616534114077211,0.3901570439338684,0.7729726433753967,-0.5002907514572144,0,0,0,-1,-1,4949.395771,unknown,2,2022-06-30T09:51:11.456+02:00,2022-06-30T08:20:05.567+02:00,1418,1.388076,0,0,1121.329,0,0,2022-06-30T09:50:28.075+02:00
2022-06-30T09:51:17.522+02:00,4955.45918675,0.696990966796875,0.6524200439453125,0.1002044677734375,4955.44923575,0.5505063982304226,0.6976976934866199,-0.9013298882258901,-2.621619462966919,1.46642792224884,0.1311303973197937,0.3059941828250885,-0.2012671828269958,0.4235533177852631,XArbitraryZVertical,-0.4775469980796881,0.1848542791321047,0.08663968293521898,0.8545591575418294,0.3986868858337402,0.7841528654098511,-0.4755555093288422,0,0,0,-1,-1,4949.395771,unknown,2,2022-06-30T09:51:11.456+02:00,2022-06-30T08:20:05.567+02:00,1418,1.388076,0,0,1121.329,0,0,2022-06-30T09:50:28.075+02:00
2022-06-30T09:51:17.532+02:00,4955.469138750001,0.68603515625,0.7476806640625,0.18023681640625,4955.45918675,0.5828327490603138,0.7364774336447913,-0.9216808213826448,-3.043375492095947,1.1898193359375,0.1902965158224106,0.2932899594306946,-0.1766083836555481,0.4928067326545715,XArbitraryZVertical,-0.4900310691677511,0.1896246408957319,0.08675477368750135,0.8463957787422901,0.4060200750827789,0.7966187596321106,-0.447824090719223,0,0,0,-1,-1,4949.395771,unknown,2,2022-06-30T09:51:11.456+02:00,2022-06-30T08:20:05.567+02:00,1418,1.388076,0,0,1121.329,0,0,2022-06-30T09:50:28.075+02:00
2022-06-30T09:51:17.542+02:00,4955.479089750001,0.6898345947265625,0.8289794921875,0.215728759765625,4955.469138750001,0.6213601200883253,0.7775573498500631,-0.9430535813732265,-3.212347984313965,0.8312857151031494,0.2109562605619431,0.2789807021617889,-0.1153550744056702,0.5669476985931396,XArbitraryZVertical,-0.5034591779098445,0.1930243250230192,0.08807885532499629,0.8375634595170235,0.4120284616947174,0.8093553185462952,-0.4185409247875214,0,0,0,-1,-1,4949.395771,unknown,2,2022-06-30T09:51:11.456+02:00,2022-06-30T08:20:05.567+02:00,1418,1.388076,0,0,1121.329,0,0,2022-06-30T09:50:28.075+02:00
2022-06-30T09:51:17.552+02:00,4955.48904175,0.686798095703125,0.842926025390625,0.334197998046875,4955.479089750001,0.6626305755315119,0.8172023444958834,-0.963857591299927,-3.105592727661133,0.3617398142814636,0.1535148024559021,0.270645946264267,-0.02357673645019531,0.5894771218299866,XArbitraryZVertical,-0.5167262432450972,0.1945688428492052,0.09036826805702784,0.828836916278706,0.415922999382019,0.8213979005813599,-0.3902738988399506,0,0,0,-1,-1,4949.395771,unknown,2,2022-06-30T09:51:11.456+02:00,2022-06-30T08:20:05.567+02:00,1418,1.388076,0,0,1121.329,0,0,2022-06-30T09:50:28.075+02:00
2022-06-30T09:51:17.563+02:00,4955.49899275,0.678924560546875,0.8473358154296875,0.4373016357421875,4955.48904175,0.7030775379456005,0.8515749108932628,-0.9830182232603755,-2.859584331512451,-0.1745935380458832,0.07251672446727753,0.2722971737384796,0.01174306869506836,0.6283589601516724,XArbitraryZVertical,-0.5289218432981769,0.1938690778663895,0.09345996630751917,0.8209273350539952,0.4171708822250366,0.8321747779846191,-0.365312933921814,0,0,0,-1,-1,4949.395771,unknown,2,2022-06-30T09:51:11.456+02:00,2022-06-30T08:20:05.567+02:00,1418,1.388076,0,0,1121.329,0,0,2022-06-30T09:50:28.075+02:00
2022-06-30T09:51:17.572+02:00,4955.50894475,0.6373291015625,0.90557861328125,0.4955596923828125,4955.49899275,0.7414880215388796,0.8789935147650446,-1.000360035260103,-2.620202302932739,-0.7823708653450012,0.02601553685963154,0.2672379910945892,-0.002309978008270264,0.7420169115066528,XArbitraryZVertical,-0.5397914243364672,0.1907492898511701,0.09751981234200438,0.8140821513870602,0.415851891040802,0.8416654467582703,-0.3444798588752747,0,0,0,-1,-1,4949.395771,unknown,2,2022-06-30T09:51:11.456+02:00,2022-06-30T08:20:05.567+02:00,1418,1.388076,0,0,1121.329,0,0,2022-06-30T09:50:28.075+02:00
2022-06-30T09:51:17.582+02:00,4955.51889575,0.5478057861328125,0.95819091796875,0.533203125,4955.50894475,0.7780477091722715,0.8988415306770121,-1.015977877303267,-2.392013788223267,-1.443617939949036,0.01300569530576468,0.2539452612400055,0.02384424209594727,0.7936331033706665,XArbitraryZVertical,-0.5493533607872285,0.1850495166326263,0.1029508591119556,0.8083122539245421,0.4122683703899384,0.8499960899353027,-0.327935129404068,0,0,0,-1,-1,4949.395771,unknown,2,2022-06-30T09:51:11.456+02:00,2022-06-30T08:20:05.567+02:00,1418,1.388076,0,0,1121.329,0,0,2022-06-30T09:50:28.075+02:00
2022-06-30T09:51:17.592+02:00,4955.528847750001,0.47393798828125,0.972503662109375,0.507171630859375,4955.51889575,0.8115631229373619,0.9097924264027983,-1.029847264803607,-2.071798801422119,-2.101809024810791,-0.03797599673271179,0.18925940990448,0.0792420506477356,0.8371741771697998,XArbitraryZVertical,-0.5574091149170617,0.1767166751308815,0.1098101949383368,0.8037462156097315,0.4064891338348389,0.8572203516960144,-0.3161326050758362,0,0,0,-1,-1,4949.395771,unknown,2,2022-06-30T09:51:11.456+02:00,2022-06-30T08:20:05.567+02:00,1418,1.388076,0,0,1121.329,0,0,2022-06-30T09:50:28.075+02:00
2022-06-30T09:51:17.602+02:00,4955.538798750001,0.44244384765625,0.9245758056640625,0.5501708984375,4955.528847750001,0.8395521292854574,0.9097162856242982,-1.042064841966346,-1.693584561347961,-2.74938440322876,-0.1381893455982208,0.108514666557312,0.1073471307754517,0.8343070149421692,XArbitraryZVertical,-0.563635096939982,0.1657119002934229,0.1178318340587556,0.8006065733351111,0.3981683850288391,0.8634476661682129,-0.3097100853919983,0,0,0,-1,-1,4949.395771,unknown,2,2022-06-30T09:51:11.456+02:00,2022-06-30T08:20:05.567+02:00,1418,1.388076,0,0,1121.329,0,0,2022-06-30T09:50:28.075+02:00
2022-06-30T09:51:17.612+02:00,4955.54875075,0.43994140625,0.84979248046875,0.6454620361328125,4955.538798750001,0.8611741696621774,0.8977661093763677,-1.052947890146426,-1.37260115146637,-3.417102813720703,-0.2306985110044479,0.06616359949111938,0.08635985851287842,0.817816436290741,XArbitraryZVertical,-0.567992628494259,0.1519850309240571,0.126974519447471,0.798850765210223,0.3870678842067719,0.8688862323760986,-0.3085698485374451,0,0,0,-1,-1,4949.395771,unknown,2,2022-06-30T09:51:11.456+02:00,2022-06-30T08:20:05.567+02:00,1418,1.388076,0,0,1121.329,0,0,2022-06-30T09:50:28.075+02:00
2022-06-30T09:51:17.622+02:00,4955.55870175,0.4194793701171875,0.8062896728515625,0.6929168701171875,4955.54875075,0.877472809928739,0.8744963893107084,-1.062994618491041,-1.151094198226929,-4.114040851593018,-0.3143205344676971,0.06745392084121704,0.01194202899932861,0.916186511516571,XArbitraryZVertical,-0.5707214513863357,0.1354186402646618,0.13745581125341,0.7981509280115339,0.3730669915676117,0.8738155364990234,-0.3118776381015778,0,0,0,-1,-1,4949.395771,unknown,2,2022-06-30T09:51:11.456+02:00,2022-06-30T08:20:05.567+02:00,1418,1.388076,0,0,1121.329,0,0,2022-06-30T09:50:28.075+02:00
2022-06-30T09:51:17.632+02:00,4955.568653750001,0.3971405029296875,0.730499267578125,0.978546142578125,4955.55870175,0.8890116394405472,0.8403301497854246,-1.072692816119538,-0.9589681625366211,-4.783320903778076,-0.4230914711952209,0.07711678743362427,-0.052867591381073,0.9868146777153015,XArbitraryZVertical,-0.571991148590514,0.1159362354510147,0.1492938842546734,0.7981831123228732,0.3558662533760071,0.8784902095794678,-0.3187698423862457,0,0,0,-1,-1,4949.395771,unknown,2,2022-06-30T09:51:11.456+02:00,2022-06-30T08:20:05.567+02:00,1418,1.388076,0,0,1121.329,0,0,2022-06-30T09:50:28.075+02:00
2022-06-30T09:51:17.642+02:00,4955.578604750001,0.3682403564453125,-0.741668701171875,1.694595336914062,4955.568653750001,0.8971093186865631,0.7971716745142718,-1.082481730022546,-1.245434284210205,-5.191333293914795,-0.4209291040897369,0.07017859816551208,-0.1006693840026855,1.048535585403442,XArbitraryZVertical,-0.5720975685705394,0.09382593056745937,0.1623681179977838,0.7984595016454168,0.3356132209300995,0.883124828338623,-0.3278021216392517,0,0,0,-1,-1,4949.395771,unknown,2,2022-06-30T09:51:11.456+02:00,2022-06-30T08:20:05.567+02:00,1418,1.388076,0,0,1121.329,0,0,2022-06-30T09:50:28.075+02:00
2022-06-30T09:51:17.652+02:00,4955.58855675,-1.728759765625,1.981979370117188,-6.635635375976562,4955.578604750001,0.895428082639052,0.7401121371797209,-1.090060981097727,2.002991199493408,-5.704349040985107,-1.168669104576111,0.1977014541625977,-0.7626926302909851,3.45708703994751,XArbitraryZVertical,-0.5695929878750658,0.06953990436599475,0.1761002627667789,0.799822966508661,0.3118501603603363,0.8866550922393799,-0.3414560556411743,0,0,0,-1,-1,4949.395771,unknown,2,2022-06-30T09:51:11.456+02:00,2022-06-30T08:20:05.567+02:00,1418,1.388076,0,0,1121.329,0,0,2022-06-30T09:50:28.075+02:00
2022-06-30T09:51:17.662+02:00,4955.59850775,-3.212127685546875,1.4786376953125,-4.216781616210938,4955.58855675,0.8386861932042781,0.6372317664716446,-1.080918777413399,1.169692158699036,-4.784286975860596,-1.671507477760315,-0.8570177555084229,-0.6805014610290527,-4.620923042297363,XArbitraryZVertical,-0.5556622596631624,0.04638005436609708,0.184344468877413,0.8093858074405309,0.2799452543258667,0.8823904991149902,-0.3781766891479492,0,0,0,-1,-1,4949.395771,unknown,2,2022-06-30T09:51:11.456+02:00,2022-06-30T08:20:05.567+02:00,1418,1.388076,0,0,1121.329,0,0,2022-06-30T09:50:28.075+02:00
2022-06-30T09:51:17.672+02:00,4955.60845975,-2.53326416015625,0.95416259765625,-3.379837036132812,4955.59850775,0.8078343426505994,0.5821908300478557,-1.09121124531104,-0.1940153986215591,-0.8735650777816772,-1.843259334564209,-2.932756185531616,1.546224117279053,-4.59346866607666,XArbitraryZVertical,-0.5535231282407966,0.03021696170134891,0.1848771651838678,0.8114921073375195,0.2537092268466949,0.8871864676475525,-0.3853981494903564,0,0,0,-1,-1,4949.395771,unknown,2,2022-06-30T09:51:11.456+02:00,2022-06-30T08:20:05.567+02:00,1418,1.388076,0,0,1121.329,0,0,2022-06-30T09:50:28.075+02:00
2022-06-30T09:51:17.682+02:00,4955.61841075,-1.276046752929688,1.197128295898438,-1.125076293945312,4955.60845975,0.785408712924193,0.5680852647446373,-1.096193640687023,-0.1285658180713654,2.117922782897949,-0.3179820775985718,-3.360262393951416,-0.1261228322982788,-3.732376575469971,XArbitraryZVertical,-0.553644249587111,0.02956607680027129,0.178636691901225,0.8128301985626494,0.2458667606115341,0.8894743323326111,-0.3852077722549438,0,0,0,-1,-1,4949.395771,unknown,2,2022-06-30T09:51:11.456+02:00,2022-06-30T08:20:05.567+02:00,1418,1.388076,0,0,1121.329,0,0,2022-06-30T09:50:28.075+02:00
2022-06-30T09:51:17.691+02:00,4955.628362750001,-0.3249969482421875,0.6056365966796875,0.04571533203125,4955.61841075,0.8052666378612852,0.6188400379893884,-1.104777719376957,-2.273953914642334,4.379478931427002,0.6047036051750183,-2.131916046142578,0.3985669016838074,-1.831077337265015,XArbitraryZVertical,-0.5614078660881751,0.04264490294516468,0.1707203235682719,0.8086144613376899,0.2606540322303772,0.8933643102645874,-0.3660052418708801,0,0,0,-1,-1,4949.395771,unknown,2,2022-06-30T09:51:11.456+02:00,2022-06-30T08:20:05.567+02:00,1418,1.388076,0,0,1121.329,0,0,2022-06-30T09:50:28.075+02:00
2022-06-30T09:51:17.702+02:00,4955.638313750001,0.8229522705078125,0.4272308349609375,-0.0204925537109375,4955.628362750001,0.8549987470481583,0.7116158826733898,-1.125946651930555,-3.636975765228271,5.10892391204834,0.1060151606798172,-1.08672046661377,-0.032939612865448,-0.01293531060218811,XArbitraryZVertical,-0.5773878428900743,0.06066446526337307,0.1594691530753717,0.7984438856698282,0.2810254395008087,0.9026753902435303,-0.3258861899375916,0,0,0,-1,-1,4949.395771,unknown,2,2022-06-30T09:51:11.456+02:00,2022-06-30T08:20:05.567+02:00,1418,1.388076,0,0,1121.329,0,0,2022-06-30T09:50:28.075+02:00
2022-06-30T09:51:17.711+02:00,4955.64826575,2.009078979492188,0.4518890380859375,-0.1616668701171875,4955.638313750001,0.9152980692695892,0.812499453707051,-1.156328648451005,-4.120533466339111,3.845845699310303,-0.6296644806861877,-0.09188055992126465,-0.4385242462158203,0.3618021011352539,XArbitraryZVertical,-0.5965711582464455,0.07507607962269315,0.1461790910966307,0.7855558475866493,0.2923653721809387,0.9153308272361755,-0.2769328653812408,0,0,0,-1,-1,4949.395771,unknown,2,2022-06-30T09:51:11.456+02:00,2022-06-30T08:20:05.567+02:00,1418,1.388076,0,0,1121.329,0,0,2022-06-30T09:50:28.075+02:00
2022-06-30T09:51:17.721+02:00,4955.65821675,1.690704345703125,0.79962158203125,-0.18994140625,4955.64826575,0.9783550049866246,0.8952372033893861,-1.187419477268675,-3.619319438934326,1.08038604259491,-0.7987658381462097,1.193653345108032,-0.5221637487411499,0.1023016571998596,XArbitraryZVertical,-0.6137541757547147,0.07969558068534285,0.1373756388859569,0.7733578854886006,0.2918961644172668,0.9274067878723145,-0.2339088469743729,0,0,0,-1,-1,4949.395771,unknown,2,2022-06-30T09:51:11.456+02:00,2022-06-30T08:20:05.567+02:00,1418,1.388076,0,0,1121.329,0,0,2022-06-30T09:50:28.075+02:00
2022-06-30T09:51:17.731+02:00,4955.66816875,0.518463134765625,0.8626556396484375,-0.3134307861328125,4955.65821675,1.035140825944058,0.9505382639019356,-1.213806344808524,-2.822002410888672,-0.3138599395751953,-0.9650728106498718,1.803513050079346,-0.3269979953765869,0.05138581991195679,XArbitraryZVertical,-0.6266623203288881,0.07572731128268324,0.1345823298827633,0.7638372525985281,0.2843620479106903,0.9369529485702515,-0.2031194269657135,0,0,0,-1,-1,4949.395771,unknown,2,2022-06-30T09:51:11.456+02:00,2022-06-30T08:20:05.567+02:00,1418,1.388076,0,0,1121.329,0,0,2022-06-30T09:50:28.075+02:00
2022-06-30T09:51:17.741+02:00,4955.67811975,-0.014862060546875,0.7491607666015625,-0.268585205078125,4955.66816875,1.069817507217444,0.980786787722267,-1.235735620170127,-1.569509744644165,-0.07825713604688644,-1.298709392547607,0.7899678945541382,-0.05510807037353516,-0.08101306855678558,XArbitraryZVertical,-0.6353405827651523,0.0697703901378184,0.1318227303135108,0.757692033367012,0.2732335925102234,0.9443903565406799,-0.1829488724470139,0,0,0,-1,-1,4949.395771,unknown,2,2022-06-30T09:51:11.456+02:00,2022-06-30T08:20:05.567+02:00,1418,1.388076,0,0,1121.329,0,0,2022-06-30T09:50:28.075+02:00
2022-06-30T09:51:17.751+02:00,4955.688071750001,-0.1378631591796875,0.706817626953125,-0.16522216796875,4955.67811975,1.068838087337537,0.9809499355328658,-1.252292373841419,-0.2653914391994476,0.2470833957195282,-1.463919878005981,-0.09179139137268066,-0.1535469889640808,-0.1439634561538696,XArbitraryZVertical,-0.6392669659062046,0.0651652997942371,0.126505464823763,0.7557034436499112,0.2602328062057495,0.9497049450874329,-0.1741824597120285,0,0,0,-1,-1,4949.395771,unknown,2,2022-06-30T09:51:11.456+02:00,2022-06-30T08:20:05.567+02:00,1418,1.388076,0,0,1121.329,0,0,2022-06-30T09:50:28.075+02:00
2022-06-30T09:51:17.761+02:00,4955.698022750001,-0.1103515625,0.698394775390625,-0.0979461669921875,4955.688071750001,1.035499591498346,0.9516174168033594,-1.263349954717979,0.6555389165878296,0.1817640960216522,-1.522813439369202,-0.3519751131534576,-0.2298427820205688,-0.03460180759429932,XArbitraryZVertical,-0.6390691556239663,0.06142981246396437,0.1200268433157751,0.7572388016505088,0.2464449852705002,0.9531094431877136,-0.1756339818239212,0,0,0,-1,-1,4949.395771,unknown,2,2022-06-30T09:51:11.456+02:00,2022-06-30T08:20:05.567+02:00,1418,1.388076,0,0,1121.329,0,0,2022-06-30T09:50:28.075+02:00
2022-06-30T09:51:17.771+02:00,4955.70797475,-0.0027923583984375,0.770050048828125,-0.083160400390625,4955.698022750001,0.9772625356198149,0.8964326330129833,-1.270156087884404,1.293545484542847,-0.1073010042309761,-1.687297821044922,-0.3674034476280212,-0.2588884830474854,0.05718864500522614,XArbitraryZVertical,-0.6358385447848574,0.0570693585455235,0.1135648149090959,0.7612854238117632,0.2313099205493927,0.9551470875740051,-0.1849048733711243,0,0,0,-1,-1,4949.395771,unknown,2,2022-06-30T09:51:11.456+02:00,2022-06-30T08:20:05.567+02:00,1418,1.388076,0,0,1121.329,0,0,2022-06-30T09:50:28.075+02:00
2022-06-30T09:51:17.781+02:00,4955.71792575,0.170318603515625,0.9056854248046875,-0.1034088134765625,4955.70797475,0.8985438389021241,0.8189627898548015,-1.274153054361345,1.663455009460449,-0.3237265348434448,-1.953019618988037,-0.2794951796531677,-0.2356503009796143,0.1164672076702118,XArbitraryZVertical,-0.630514225486962,0.05128601605102381,0.1069257724962016,0.7670649135074117,0.2135158479213715,0.9563230872154236,-0.1996431052684784,0,0,0,-1,-1,4949.395771,unknown,2,2022-06-30T09:51:11.456+02:00,2022-06-30T08:20:05.567+02:00,1418,1.388076,0,0,1121.329,0,0,2022-06-30T09:50:28.075+02:00
2022-06-30T09:51:17.791+02:00,4955.727877750001,0.3519287109375,0.9295806884765625,-0.148345947265625,4955.71792575,0.8077309842430033,0.7286020088284425,-1.276335175500991,1.70251739025116,-0.3581071197986603,-2.122368812561035,-0.1149162948131561,-0.1165960431098938,0.1273503303527832,XArbitraryZVertical,-0.6243066754374043,0.04440846295030963,0.09974131009986163,0.7735119795648802,0.1932392865419388,0.9569586515426636,-0.21653813123703,0,0,0,-1,-1,4949.395771,unknown,2,2022-06-30T09:51:11.456+02:00,2022-06-30T08:20:05.567+02:00,1418,1.388076,0,0,1121.329,0,0,2022-06-30T09:50:28.075+02:00
2022-06-30T09:51:17.801+02:00,4955.737828750001,0.47222900390625,0.8212127685546875,-0.1994781494140625,4955.727877750001,0.7140621461320795,0.6354547645786041,-1.276698654846899,1.708938598632812,-0.361411988735199,-2.131623029708862,0.09308192133903503,-0.01640546321868896,0.1069045066833496,XArbitraryZVertical,-0.6180345434220025,0.03723805832518229,0.09220783015455168,0.7798361652030886,0.1720544248819351,0.9570640921592712,-0.2332932651042938,0,0,0,-1,-1,4949.395771,unknown,2,2022-06-30T09:51:11.456+02:00,2022-06-30T08:20:05.567+02:00,1418,1.388076,0,0,1121.329,0,0,2022-06-30T09:50:28.075+02:00
2022-06-30T09:51:17.811+02:00,4955.74778075,0.4635009765625,0.7257537841796875,-0.22894287109375,4955.737828750001,0.6199932814242607,0.5411817907708719,-1.273617683065946,1.862061500549316,-0.5261785387992859,-2.099924564361572,0.2749176919460297,-0.07378119230270386,0.07716628909111023,XArbitraryZVertical,-0.6112430960837097,0.02986994855659863,0.08496975159747187,0.7863013455068234,0.1508479118347168,0.9561664462089539,-0.2509793341159821,0,0,0,-1,-1,4949.395771,unknown,2,2022-06-30T09:51:11.456+02:00,2022-06-30T08:20:05.567+02:00,1418,1.388076,0,0,1121.329,0,0,2022-06-30T09:50:28.075+02:00
2022-06-30T09:51:17.821+02:00,4955.75773275,0.3335723876953125,0.6813812255859375,-0.3010711669921875,4955.74778075,0.5271640834396247,0.4458891553005024,-1.267404147409482,1.813775777816772,-0.7988302111625671,-2.168613195419312,0.357332170009613,-0.1858348846435547,0.05380460619926453,XArbitraryZVertical,-0.6039541638442002,0.02156345680540343,0.07835789933985736,0.7928646979502929,0.1288429647684097,0.9543285369873047,-0.269548773765564,0,0,0,-1,-1,4949.395771,unknown,2,2022-06-30T09:51:11.456+02:00,2022-06-30T08:20:05.567+02:00,1418,1.388076,0,0,1121.329,0,0,2022-06-30T09:50:28.075+02:00
2022-06-30T09:51:17.831+02:00,4955.76768375,0.18487548828125,0.704010009765625,-0.3607635498046875,4955.75773275,0.4377378443315342,0.3517501767438773,-1.260714492674839,1.509392976760864,-0.9588336944580078,-2.299829006195068,0.3031315505504608,-0.2569045424461365,0.02490255236625671,XArbitraryZVertical,-0.5971851145056409,0.01196480463275205,0.07201943730393318,0.7987740955966596,0.1051322221755981,0.9523085951805115,-0.2864535748958588,0,0,0,-1,-1,4949.395771,unknown,2,2022-06-30T09:51:11.456+02:00,2022-06-30T08:20:05.567+02:00,1418,1.388076,0,0,1121.329,0,0,2022-06-30T09:50:28.075+02:00
2022-06-30T09:51:17.841+02:00,4955.77763475,0.088165283203125,0.7222442626953125,-0.5315093994140625,4955.76768375,0.3530224182595569,0.2618689677524786,-1.255719422258337,1.015896439552307,-0.8740959167480469,-2.364957809448242,0.1761974096298218,-0.2625096440315247,-0.02579429745674133,XArbitraryZVertical,-0.5918906266750767,0.001754611827901512,0.06538961184849935,0.8033595851358956,0.08022616803646088,0.9507725238800049,-0.2993248105049133,0,0,0,-1,-1,4949.395771,unknown,2,2022-06-30T09:51:11.456+02:00,2022-06-30T08:20:05.567+02:00,1418,1.388076,0,0,1121.329,0,0,2022-06-30T09:50:28.075+02:00
2022-06-30T09:51:17.851+02:00,4955.787586750001,0.0682220458984375,0.71820068359375,-0.6508026123046875,4955.77763475,0.2728460812200089,0.1780327599266812,-1.253425540147103,0.5515281558036804,-0.6489048600196838,-2.414688110351562,0.07257206737995148,-0.2327892780303955,-0.1315375566482544,XArbitraryZVertical,-0.5885281887912788,-0.00811081581043264,0.05806515803401804,0.8063481964719285,0.05526567995548248,0.950059175491333,-0.3071375787258148,0,0,0,-1,-1,4949.395771,unknown,2,2022-06-30T09:51:11.456+02:00,2022-06-30T08:20:05.567+02:00,1418,1.388076,0,0,1121.329,0,0,2022-06-30T09:50:28.075+02:00
2022-06-30T09:51:17.861+02:00,4955.797537750001,0.1029052734375,0.7459869384765625,-0.6312408447265625,4955.787586750001,0.1937532925159941,0.09771811704163456,-1.252580268045907,0.3337154686450958,-0.3965854942798615,-2.467049121856689,0.0389634445309639,-0.2302973866462708,-0.2919983267784119,XArbitraryZVertical,-0.5865259145506311,-0.01724244231883695,0.04978118230309128,0.8082152499612709,0.03052469715476036,0.9497950673103333,-0.3113800883293152,0,0,0,-1,-1,4949.395771,unknown,2,2022-06-30T09:51:11.456+02:00,2022-06-30T08:20:05.567+02:00,1418,1.388076,0,0,1121.329,0,0,2022-06-30T09:50:28.075+02:00
2022-06-30T09:51:17.871+02:00,4955.80748975,0.164337158203125,0.752777099609375,-0.536895751953125,4955.797537750001,0.114599129615537,0.01957665164722565,-1.251102885657066,0.2555399835109711,-0.2138287276029587,-2.480188608169556,0.0736967921257019,-0.2218691110610962,-0.3469788134098053,XArbitraryZVertical,-0.5850098775027563,-0.02560982379412342,0.0406997041125575,0.8095993064134145,0.006152066867798567,0.9493318200111389,-0.3142151534557343,0,0,0,-1,-1,4949.395771,unknown,2,2022-06-30T09:51:11.456+02:00,2022-06-30T08:20:05.567+02:00,1418,1.388076,0,0,1121.329,0,0,2022-06-30T09:50:28.075+02:00
2022-06-30T09:51:17.881+02:00,4955.81744075,0.213775634765625,0.6448822021484375,-0.4757537841796875,4955.80748975,0.03628461510097949,-0.05641842012116038,-1.24856613098423,0.187259778380394,-0.1390385925769806,-2.48996901512146,0.1497691124677658,-0.187224805355072,-0.2657151520252228,XArbitraryZVertical,-0.5837718461148805,-0.03348131862192302,0.03119751265238776,0.8106270040037992,-0.0178572628647089,0.9485315084457397,-0.3161788582801819,0,0,0,-1,-1,4949.395771,unknown,2,2022-06-30T09:51:11.456+02:00,2022-06-30T08:20:05.567+02:00,1418,1.388076,0,0,1121.329,0,0,2022-06-30T09:50:28.075+02:00
2022-06-30T09:51:17.894+02:00,4955.82739275,0.215545654296875,0.5098419189453125,-0.48040771484375,4955.81744075,-0.04203037510528688,-0.1323441393518947,-1.243624270900596,0.3691710233688354,-0.2180926650762558,-2.613442659378052,0.2348656356334686,-0.2376654744148254,-0.1828325688838959,XArbitraryZVertical,-0.5822352719904418,-0.04152130115110092,0.02146618581809412,0.8116755996605928,-0.04240691289305687,0.9469549059867859,-0.3185561299324036,0,0,0,-1,-1,4949.395771,unknown,2,2022-06-30T09:51:11.456+02:00,2022-06-30T08:20:05.567+02:00,1418,1.388076,0,0,1121.329,0,0,2022-06-30T09:50:28.075+02:00
2022-06-30T09:51:17.904+02:00,4955.83734375,0.1442718505859375,0.4974517822265625,-0.5255279541015625,4955.82739275,-0.1213580982708316,-0.2105825787005075,-1.232841420386502,0.9304156899452209,-0.4368042349815369,-2.888861179351807,0.2938688397407532,-0.3710011839866638,-0.145095556974411,XArbitraryZVertical,-0.5790587342738368,-0.05073227064330989,0.0114397085122855,0.8136255662229243,-0.06930562108755112,0.9434347152709961,-0.3242344260215759,0,0,0,-1,-1,4949.395771,unknown,2,2022-06-30T09:51:11.456+02:00,2022-06-30T08:20:05.567+02:00,1418,1.388076,0,0,1121.329,0,0,2022-06-30T09:50:28.075+02:00
2022-06-30T09:51:17.910+02:00,4955.847295750001,0.03009033203125,0.6569671630859375,-0.547027587890625,4955.83734375,-0.197977721175842,-0.2880710348164014,-1.212397804486799,1.767689824104309,-0.6490232944488525,-3.197638511657715,0.2873085141181946,-0.4574711918830872,-0.169508159160614,XArbitraryZVertical,-0.5727455556885317,-0.06166131780839454,0.001002942445523421,0.8174101813587863,-0.09965631365776062,0.9364597797393799,-0.3363208174705505,0,0,0,-1,-1,4949.395771,unknown,2,2022-06-30T09:51:11.456+02:00,2022-06-30T08:20:05.567+02:00,1418,1.388076,0,0,1121.329,0,0,2022-06-30T09:50:28.075+02:00
2022-06-30T09:51:17.920+02:00,4955.857246750001,-0.0729522705078125,0.8598480224609375,-0.646514892578125,4955.847295750001,-0.2647476371964752,-0.3574164117661127,-1.181567933479631,2.519401788711548,-0.7816118001937866,-3.389935493469238,0.223779484629631,-0.3636634349822998,-0.1774809658527374,XArbitraryZVertical,-0.5628310262906273,-0.07398980583972736,-0.00972309626482212,0.8231964098823109,-0.1327612102031708,0.9252021312713623,-0.3554934859275818,0,0,0,-1,-1,4949.395771,unknown,2,2022-06-30T09:51:11.456+02:00,2022-06-30T08:20:05.567+02:00,1418,1.388076,0,0,1121.329,0,0,2022-06-30T09:50:28.075+02:00
2022-06-30T09:51:17.930+02:00,4955.86719875,-0.155548095703125,0.9704437255859375,-0.8179931640625,4955.857246750001,-0.3185255925021951,-0.4150510974739959,-1.143375660545752,2.923672914505005,-0.873344361782074,-3.45741868019104,0.1426913887262344,-0.1466104388237,-0.2010535597801208,XArbitraryZVertical,-0.5502229838723003,-0.08711914168868413,-0.02044390868002155,0.830208944455096,-0.1671516001224518,0.9100379943847656,-0.3793298602104187,0,0,0,-1,-1,4949.395771,unknown,2,2022-06-30T09:51:11.456+02:00,2022-06-30T08:20:05.567+02:00,1418,1.388076,0,0,1121.329,0,0,2022-06-30T09:50:28.075+02:00
2022-06-30T09:51:17.940+02:00,4955.877150750001,-0.220703125,0.90850830078125,-0.8921356201171875,4955.86719875,-0.3619988301015054,-0.4633895355503644,-1.102292435647243,2.884019136428833,-0.9576243162155151,-3.468332529067993,0.08611288666725159,0.04153186082839966,-0.3337996602058411,XArbitraryZVertical,-0.5365602213792646,-0.1006822672942501,-0.03097617127272974,0.8372614329368514,-0.2018359154462814,0.8922448754310608,-0.4039324223995209,0,0,0,-1,-1,4949.395771,unknown,2,2022-06-30T09:51:11.456+02:00,2022-06-30T08:20:05.567+02:00,1418,1.388076,0,0,1121.329,0,0,2022-06-30T09:50:28.075+02:00
2022-06-30T09:51:17.950+02:00,4955.887101750001,-0.2837371826171875,0.7909393310546875,-1.022598266601562,4955.877150750001,-0.4006638460900233,-0.5074905178012407,-1.062308056020925,2.502869844436646,-1.043289184570312,-3.506221771240234,0.04544313251972198,0.08860021829605103,-0.4353276193141937,XArbitraryZVertical,-0.5235746578324185,-0.1145470953211297,-0.04147224483191438,0.8432250674080715,-0.2366055995225906,0.8734815120697021,-0.4254970848560333,0,0,0,-1,-1,4949.395771,unknown,2,2022-06-30T09:51:11.456+02:00,2022-06-30T08:20:05.567+02:00,1418,1.388076,0,0,1121.329,0,0,2022-06-30T09:50:28.075+02:00
2022-06-30T09:51:17.960+02:00,4955.89705375,-0.37640380859375,0.79144287109375,-1.190109252929688,4955.887101750001,-0.4387976697379545,-0.5512944139820348,-1.025019814220177,1.995363712310791,-1.132450222969055,-3.602401256561279,0.02025702595710754,-0.0131414532661438,-0.5031493902206421,XArbitraryZVertical,-0.5121684797537919,-0.128818580430163,-0.05225527389834199,0.8475603337308539,-0.2718900442123413,0.8547244668006897,-0.4421784579753876,0,0,0,-1,-1,4949.395771,unknown,2,2022-06-30T09:51:11.456+02:00,2022-06-30T08:20:05.567+02:00,1418,1.388076,0,0,1121.329,0,0,2022-06-30T09:50:28.075+02:00
2022-06-30T09:51:17.970+02:00,4955.90700475,-0.48736572265625,0.842193603515625,-1.336334228515625,4955.89705375,-0.4794318233170413,-0.5969698315149032,-0.9917029902836373,1.22952127456665,-1.113222241401672,-3.671323776245117,-0.01828882098197937,-0.05903571844100952,-0.6548405289649963,XArbitraryZVertical,-0.5031516935659776,-0.1432912283387004,-0.06368483404333473,0.84985318192151,-0.3076392710208893,0.836959183216095,-0.4526119828224182,0,0,0,-1,-1,4949.395771,unknown,2,2022-06-30T09:51:11.456+02:00,2022-06-30T08:20:05.567+02:00,1418,1.388076,0,0,1121.329,0,0,2022-06-30T09:50:28.075+02:00
2022-06-30T09:51:17.980+02:00,4955.91695675,-0.615081787109375,0.9042510986328125,-1.477096557617188,4955.90700475,-0.5241281397763163,-0.6442498301696513,-0.9641392198389174,0.3629424571990967,-0.9107031226158142,-3.608044624328613,-0.08644795417785645,-0.005198240280151367,-0.8152751922607422,XArbitraryZVertical,-0.4974245892164876,-0.1569943461450071,-0.07598187078237956,0.8497930497873801,-0.3424158990383148,0.8215584754943848,-0.4558431208133698,0,0,0,-1,-1,4949.395771,unknown,2,2022-06-30T09:51:11.456+02:00,2022-06-30T08:20:05.567+02:00,1418,1.388076,0,0,1121.329,0,0,2022-06-30T09:50:28.075+02:00
2022-06-30T09:51:17.990+02:00,4955.926908375,-0.7462615966796875,1.055526733398438,-1.576690673828125,4955.91695675,-0.5711783231037659,-0.6898231790870459,-0.9417196557511123,-0.1284206062555313,-0.5240054726600647,-3.465261459350586,-0.1736083030700684,0.06032514572143555,-0.9465550780296326,XArbitraryZVertical,-0.4945309023627649,-0.1688374682294865,-0.08910559946202562,0.8479347416333494,-0.3744572699069977,0.8085711598396301,-0.453866183757782,0,0,0,-1,-1,4949.395771,unknown,2,2022-06-30T09:51:11.456+02:00,2022-06-30T08:20:05.567+02:00,1418,1.388076,0,0,1121.329,0,0,2022-06-30T09:50:28.075+02:00
2022-06-30T09:51:18.000+02:00,4955.936860375,-0.8614044189453125,1.337112426757812,-1.5809326171875,4955.926908375,-0.614683298300038,-0.7275870825595435,-0.9201672023275922,0.1003691628575325,-0.04705914109945297,-3.310582160949707,-0.2804343104362488,0.1660735607147217,-1.092194199562073,XArbitraryZVertical,-0.4919706170396451,-0.1783452167534186,-0.1027376814952917,0.8459330931322575,-0.4028240740299225,0.7957028746604919,-0.4523157775402069,0,0,0,-1,-1,4949.395771,unknown,2,2022-06-30T09:51:11.456+02:00,2022-06-30T08:20:05.567+02:00,1418,1.388076,0,0,1121.329,0,0,2022-06-30T09:50:28.075+02:00
2022-06-30T09:51:18.010+02:00,4955.946811375,-0.96270751953125,1.711837768554688,-1.6126708984375,4955.936860375,-0.6484556184044039,-0.7523522097551092,-0.8945920612731828,0.9466271996498108,0.4030912518501282,-3.244319200515747,-0.3783903419971466,0.4007253646850586,-1.113658666610718,XArbitraryZVertical,-0.4868454268700043,-0.1858085611818581,-0.1165329698304001,0.8455039776287204,-0.4276708364486694,0.7799538373947144,-0.4569134116172791,0,0,0,-1,-1,4949.395771,unknown,2,2022-06-30T09:51:11.456+02:00,2022-06-30T08:20:05.567+02:00,1418,1.388076,0,0,1121.329,0,0,2022-06-30T09:50:28.075+02:00
2022-06-30T09:51:18.020+02:00,4955.956763375,-1.066024780273438,2.000900268554688,-1.6300048828125,4955.946811375,-0.6687841868426683,-0.7627921848746951,-0.8612611900977487,2.141756534576416,0.629443347454071,-3.245567083358765,-0.4640944600105286,0.7631703019142151,-1.134232044219971,XArbitraryZVertical,-0.4769947755704092,-0.1923406873126792,-0.1300294541974316,0.8476871846809002,-0.4501362144947052,0.7586647868156433,-0.4709620773792267,0,0,0,-1,-1,4949.395771,unknown,2,2022-06-30T09:51:11.456+02:00,2022-06-30T08:20:05.567+02:00,1418,1.388076,0,0,1121.329,0,0,2022-06-30T09:50:28.075+02:00
2022-06-30T09:51:18.030+02:00,4955.966714375,-1.21038818359375,2.065383911132812,-1.64642333984375,4955.956763375,-0.6756870154072637,-0.7617733580019984,-0.8191986700017818,3.30328369140625,0.5942965149879456,-3.245063304901123,-0.5397093296051025,1.148368120193481,-1.129660725593567,XArbitraryZVertical,-0.4618266157815299,-0.1991785705354425,-0.1425718108074292,0.85247729641937,-0.4712773263454437,0.7305989265441895,-0.4940881431102753,0,0,0,-1,-1,4949.395771,unknown,2,2022-06-30T09:51:11.456+02:00,2022-06-30T08:20:05.567+02:00,1418,1.388076,0,0,1121.329,0,0,2022-06-30T09:50:28.075+02:00
2022-06-30T09:51:18.040+02:00,4955.976666375001,-1.418685913085938,1.920257568359375,-1.690383911132812,4955.966714375,-0.6727905009950077,-0.7546726029345197,-0.7699832087137506,4.096621513366699,0.4257200360298157,-3.239970207214355,-0.6391231417655945,1.366132378578186,-1.109488725662231,XArbitraryZVertical,-0.4422790832982709,-0.2070928936606921,-0.1537880915465065,0.8589825455877251,-0.4918128848075867,0.6961231827735901,-0.5230035185813904,0,0,0,-1,-1,4949.395771,unknown,2,2022-06-30T09:51:11.456+02:00,2022-06-30T08:20:05.567+02:00,1418,1.388076,0,0,1121.329,0,0,2022-06-30T09:50:28.075+02:00
2022-06-30T09:51:18.050+02:00,4955.986617375001,-1.695419311523438,1.66778564453125,-1.716629028320312,4955.976666375001,-0.6658205360855221,-0.7465802695919185,-0.716698645720324,4.368252277374268,0.3062061369419098,-3.270167350769043,-0.7930941581726074,1.358420491218567,-1.117695331573486,XArbitraryZVertical,-0.4202500157141161,-0.216041473627568,-0.1640783963932793,0.8659066698458188,-0.5120514035224915,0.656899094581604,-0.5534319877624512,0,0,0,-1,-1,4949.395771,unknown,2,2022-06-30T09:51:11.456+02:00,2022-06-30T08:20:05.567+02:00,1418,1.388076,0,0,1121.329,0,0,2022-06-30T09:50:28.075+02:00
2022-06-30T09:51:18.061+02:00,4955.996569375,-2.004364013671875,1.465011596679688,-1.730392456054688,4955.986617375001,-0.659914833020757,-0.7396542090285093,-0.6625604598569182,4.18421459197998,0.4753589034080505,-3.267382383346558,-1.018598079681396,1.182530641555786,-1.124670028686523,XArbitraryZVertical,-0.3976486359125833,-0.2251045371836467,-0.1744483461023038,0.8722220437257574,-0.5314205884933472,0.6151375770568848,-0.5824069976806641,0,0,0,-1,-1,4949.395771,unknown,2,2022-06-30T09:51:11.456+02:00,2022-06-30T08:20:05.567+02:00,1418,1.388076,0,0,1121.329,0,0,2022-06-30T09:50:28.075+02:00
2022-06-30T09:51:18.075+02:00,4956.006520375,-2.276473999023438,1.382492065429688,-1.701431274414062,4955.996569375,-0.6565078244119723,-0.7303381101326987,-0.6120185583659847,3.684163570404053,1.064428567886353,-3.089427471160889,-1.302249908447266,0.9790525436401367,-1.111046314239502,XArbitraryZVertical,-0.376147032649131,-0.231617751908072,-0.1853071878056191,0.8777972580262591,-0.5460323691368103,0.5745208263397217,-0.6097332239151001,0,0,0,-1,-1,4949.395771,unknown,2,2022-06-30T09:51:11.456+02:00,2022-06-30T08:20:05.567+02:00,1418,1.388076,0,0,1121.329,0,0,2022-06-30T09:50:28.075+02:00
2022-06-30T09:51:18.080+02:00,4956.016472375,-2.400253295898438,1.446502685546875,-1.6055908203125,4956.006520375,-0.6557356519934106,-0.7148219172832512,-0.5675136155410572,3.110934019088745,2.012112855911255,-2.695423603057861,-1.59943151473999,0.8696433305740356,-1.097109198570251,XArbitraryZVertical,-0.3564563785869573,-0.2335105595326971,-0.1968831525256673,0.8829771626928827,-0.5527294874191284,0.5375370979309082,-0.6368233561515808,0,0,0,-1,-1,4949.395771,unknown,2,2022-06-30T09:51:11.456+02:00,2022-06-30T08:20:05.567+02:00,1418,1.388076,0,0,1121.329,0,0,2022-06-30T09:50:28.075+02:00
2022-06-30T09:51:18.090+02:00,4956.026423375,-2.365921020507812,1.580429077148438,-1.523651123046875,4956.016472375,-0.6557725133129423,-0.6898535469426076,-0.5303785676945859,2.575649499893188,3.001776456832886,-2.109539747238159,-1.811850547790527,0.8897238373756409,-0.9830529689788818,XArbitraryZVertical,-0.3385992826490931,-0.2294904609972338,-0.2085804622991617,0.8883574472532032,-0.5489895343780518,0.505859911441803,-0.6653693318367004,0,0,0,-1,-1,4949.395771,unknown,2,2022-06-30T09:51:11.456+02:00,2022-06-30T08:20:05.567+02:00,1418,1.388076,0,0,1121.329,0,0,2022-06-30T09:50:28.075+02:00
2022-06-30T09:51:18.100+02:00,4956.036375375001,-2.23394775390625,1.629470825195312,-1.4420166015625,4956.026423375,-0.6551579105328464,-0.6556347566004755,-0.5012205736546429,2.085862636566162,3.784359693527222,-1.45758068561554,-1.865413665771484,1.036288022994995,-0.8741137385368347,XArbitraryZVertical,-0.3226642216105056,-0.2197889519715945,-0.2194988492246241,0.8940922804350966,-0.5346720814704895,0.480496346950531,-0.6951612234115601,0,0,0,-1,-1,4949.395771,unknown,2,2022-06-30T09:51:11.456+02:00,2022-06-30T08:20:05.567+02:00,1418,1.388076,0,0,1121.329,0,0,2022-06-30T09:50:28.075+02:00
2022-06-30T09:51:18.109+02:00,4956.046326375001,-2.071121215820312,1.642807006835938,-1.363372802734375,4956.036375375001,-0.6526232199829217,-0.6140828406415307,-0.4787004393071947,1.869354724884033,4.302570343017578,-0.8704463839530945,-1.796696186065674,1.156240701675415,-0.7536169290542603,XArbitraryZVertical,-0.3081805675032349,-0.2056898597573114,-0.2289776680599268,0.9001587211459883,-0.5114399790763855,0.460626095533371,-0.725432813167572,0,0,0,-1,-1,4949.395771,unknown,2,2022-06-30T09:51:11.456+02:00,2022-06-30T08:20:05.567+02:00,1418,1.388076,0,0,1121.329,0,0,2022-06-30T09:50:28.075+02:00
2022-06-30T09:51:18.119+02:00,4956.056278375,-1.92938232421875,1.654220581054688,-1.277618408203125,4956.046326375001,-0.6464344843485259,-0.5666606143005798,-0.4595807698812683,1.954570651054382,4.65574312210083,-0.3469919264316559,-1.671639323234558,1.190872430801392,-0.6502934694290161,XArbitraryZVertical,-0.2938256911555809,-0.1886504129551007,-0.2365613606025607,0.9067063033307856,-0.4811166524887085,0.4435724020004272,-0.7561549544334412,0,0,0,-1,-1,4949.395771,unknown,2,2022-06-30T09:51:11.456+02:00,2022-06-30T08:20:05.567+02:00,1418,1.388076,0,0,1121.329,0,0,2022-06-30T09:50:28.075+02:00
2022-06-30T09:51:18.129+02:00,4956.066229375,-1.843765258789062,1.61663818359375,-1.192947387695312,4956.056278375,-0.6358312804275706,-0.5146245023389218,-0.4415735179149294,2.140005588531494,4.853565692901611,0.1198650002479553,-1.549755573272705,1.224538326263428,-0.5324916243553162,XArbitraryZVertical,-0.2787914235182342,-0.1696599215783277,-0.2420198532069721,0.9137381493421087,-0.4449956119060516,0.4273625910282135,-0.7869817018508911,0,0,0,-1,-1,4949.395771,unknown,2,2022-06-30T09:51:11.456+02:00,2022-06-30T08:20:05.567+02:00,1418,1.388076,0,0,1121.329,0,0,2022-06-30T09:50:28.075+02:00
2022-06-30T09:51:18.139+02:00,4956.076181375,-1.807449340820312,1.5567626953125,-1.1214599609375,4956.066229375,-0.6214111695857538,-0.460168313345656,-0.4231365124595146,2.375272035598755,4.864475250244141,0.4526948630809784,-1.473684668540955,1.233908534049988,-0.420347273349762,XArbitraryZVertical,-0.2628396922979458,-0.1497884172859696,-0.2454384889607933,0.9209987252324433,-0.4049318432807922,0.4106223583221436,-0.8169574737548828,0,0,0,-1,-1,4949.395771,unknown,2,2022-06-30T09:51:11.456+02:00,2022-06-30T08:20:05.567+02:00,1418,1.388076,0,0,1121.329,0,0,2022-06-30T09:50:28.075+02:00
2022-06-30T09:51:18.149+02:00,4956.086132375,-1.79693603515625,1.557327270507812,-1.031036376953125,4956.076181375,-0.6041117178337181,-0.4050541906000097,-0.4025701513849557,2.725827932357788,4.82418155670166,0.7063830494880676,-1.45907461643219,1.189895629882812,-0.3113449215888977,XArbitraryZVertical,-0.2456053274769431,-0.1299018731225211,-0.2471260750663669,0.9282954170573895,-0.3625655770301819,0.3917843103408813,-0.8456070423126221,0,0,0,-1,-1,4949.395771,unknown,2,2022-06-30T09:51:11.456+02:00,2022-06-30T08:20:05.567+02:00,1418,1.388076,0,0,1121.329,0,0,2022-06-30T09:50:28.075+02:00
2022-06-30T09:51:18.159+02:00,4956.096084375,-1.795364379882812,1.5596923828125,-0.95562744140625,4956.086132375,-0.584303009521759,-0.349451133031443,-0.378508973328386,3.114558458328247,4.852211952209473,0.9310870170593262,-1.481840848922729,1.180085897445679,-0.2001104354858398,XArbitraryZVertical,-0.226585771763859,-0.1101413494182727,-0.2472459727338289,0.9356267181457545,-0.318147212266922,0.3695353865623474,-0.8730555176734924,0,0,0,-1,-1,4949.395771,unknown,2,2022-06-30T09:51:11.456+02:00,2022-06-30T08:20:05.567+02:00,1418,1.388076,0,0,1121.329,0,0,2022-06-30T09:50:28.075+02:00
2022-06-30T09:51:18.170+02:00,4956.106035375,-1.779953002929688,1.476348876953125,-0.9062957763671875,4956.096084375,-0.5631378581788566,-0.2931186347008623,-0.3509751868708242,3.375783681869507,4.962753772735596,1.085356950759888,-1.524894237518311,1.223538160324097,-0.09703201055526733,XArbitraryZVertical,-0.2058696945815272,-0.0901383165259475,-0.2461704542647996,0.9428111545056411,-0.2713249027729034,0.3438137173652649,-0.8989855051040649,0,0,0,-1,-1,4949.395771,unknown,2,2022-06-30T09:51:11.456+02:00,2022-06-30T08:20:05.567+02:00,1418,1.388076,0,0,1121.329,0,0,2022-06-30T09:50:28.075+02:00
2022-06-30T09:51:18.179+02:00,4956.115987375,-1.739120483398438,1.37841796875,-0.7652587890625,4956.106035375,-0.5420134732985666,-0.2360780536957542,-0.3203682625768844,3.607006549835205,5.110339164733887,1.177073001861572,-1.568445205688477,1.210977673530579,-0.00166022777557373,XArbitraryZVertical,-0.1837314576760798,-0.06961301462788162,-0.2443374970077762,0.9495767656752352,-0.2219907641410828,0.3149161040782928,-0.9227935671806335,0,0,0,-1,-1,4949.395771,unknown,2,2022-06-30T09:51:11.456+02:00,2022-06-30T08:20:05.567+02:00,1418,1.388076,0,0,1121.329,0,0,2022-06-30T09:50:28.075+02:00
2022-06-30T09:51:18.189+02:00,4956.125938375,-1.668777465820312,1.318283081054688,-0.6105194091796875,4956.115987375,-0.5216784511879738,-0.1782154904601296,-0.2870372241054578,3.727623224258423,5.294399738311768,1.26784873008728,-1.592033863067627,1.14176869392395,0.09039604663848877,XArbitraryZVertical,-0.1603539219612087,-0.04835676426627755,-0.2419300378329589,0.9557291029173172,-0.1700207889080048,0.2831119000911713,-0.943896472454071,0,0,0,-1,-1,4949.395771,unknown,2,2022-06-30T09:51:11.456+02:00,2022-06-30T08:20:05.567+02:00,1418,1.388076,0,0,1121.329,0,0,2022-06-30T09:50:28.075+02:00
2022-06-30T09:51:18.199+02:00,4956.135890375001,-1.592315673828125,1.280426025390625,-0.4898834228515625,4956.125938375,-0.5023854189095205,-0.1198288032792435,-0.2523496470745899,3.701146125793457,5.402666091918945,1.399356484413147,-1.592389225959778,1.092604875564575,0.2833297848701477,XArbitraryZVertical,-0.1364373621399231,-0.02631564016880726,-0.2388423773834508,0.9610654019749503,-0.1157561540603638,0.2496798783540726,-0.961384654045105,0,0,0,-1,-1,4949.395771,unknown,2,2022-06-30T09:51:11.456+02:00,2022-06-30T08:20:05.567+02:00,1418,1.388076,0,0,1121.329,0,0,2022-06-30T09:50:28.075+02:00
2022-06-30T09:51:18.209+02:00,4956.145841375001,-1.52252197265625,1.1536865234375,-0.42431640625,4956.135890375001,-0.4841425191637516,-0.0614218987812581,-0.2180571421493766,3.448059320449829,5.494757652282715,1.516555547714233,-1.568671584129333,1.087590932846069,0.4221103191375732,XArbitraryZVertical,-0.1129072669230542,-0.003562205236338309,-0.2349344883065395,0.9654248041232365,-0.05992970615625381,0.2163331806659698,-0.974478542804718,0,0,0,-1,-1,4949.395771,unknown,2,2022-06-30T09:51:11.456+02:00,2022-06-30T08:20:05.567+02:00,1418,1.388076,0,0,1121.329,0,0,2022-06-30T09:50:28.075+02:00
2022-06-30T09:51:18.219+02:00,4956.155793375,-1.417190551757812,1.05157470703125,-0.34857177734375,4956.145841375001,-0.4673084179143421,-0.002656456213724958,-0.1860826191963725,3.098166227340698,5.64754056930542,1.588379740715027,-1.555128931999207,1.04454231262207,0.5321104526519775,XArbitraryZVertical,-0.09068866804973599,0.02022459181359417,-0.230412288609034,0.9686468330700063,-0.002610593568533659,0.1850105673074722,-0.9827330708503723,0,0,0,-1,-1,4949.395771,unknown,2,2022-06-30T09:51:11.456+02:00,2022-06-30T08:20:05.567+02:00,1418,1.388076,0,0,1121.329,0,0,2022-06-30T09:50:28.075+02:00
2022-06-30T09:51:18.229+02:00,4956.165744375,-1.293411254882812,1.114227294921875,-0.2248382568359375,4956.155793375,-0.4512505706390571,0.05715142786746455,-0.1555456813131265,2.961935043334961,5.827155590057373,1.782433867454529,-1.533802151679993,0.9264860153198242,0.5977795720100403,XArbitraryZVertical,-0.06932168395193326,0.04513786106445727,-0.2251121420510226,0.9708149517749417,0.05643071606755257,0.154919221997261,-0.9863141775131226,0,0,0,-1,-1,4949.395771,unknown,2,2022-06-30T09:51:11.456+02:00,2022-06-30T08:20:05.567+02:00,1418,1.388076,0,0,1121.329,0,0,2022-06-30T09:50:28.075+02:00
2022-06-30T09:51:18.239+02:00,4956.175696375,-1.1951904296875,1.123153686523438,-0.208160400390625,4956.165744375,-0.4343104676732488,0.1181590264039714,-0.1257451040012631,2.676562547683716,5.954394817352295,2.094152927398682,-1.468867182731628,0.9481024742126465,0.6931793689727783,XArbitraryZVertical,-0.04855216513817918,0.07105801357879901,-0.2182744180218311,0.9720853413253386,0.1169535145163536,0.1254139840602875,-0.9851868748664856,0,0,0,-1,-1,4949.395771,unknown,2,2022-06-30T09:51:11.456+02:00,2022-06-30T08:20:05.567+02:00,1418,1.388076,0,0,1121.329,0,0,2022-06-30T09:50:28.075+02:00
2022-06-30T09:51:18.249+02:00,4956.185647375,-1.091537475585938,1.064529418945312,-0.1839447021484375,4956.175696375,-0.416184452909888,0.1797683122182265,-0.09797923457057013,2.327332258224487,6.026659965515137,2.296542167663574,-1.420482754707336,1.037247896194458,0.7868902683258057,XArbitraryZVertical,-0.02919791189112038,0.0977973734279734,-0.2098136675751544,0.9723998958715732,0.1779440641403198,0.09782254695892334,-0.9791663289070129,0,0,0,-1,-1,4949.395771,unknown,2,2022-06-30T09:51:11.456+02:00,2022-06-30T08:20:05.567+02:00,1418,1.388076,0,0,1121.329,0,0,2022-06-30T09:50:28.075+02:00
2022-06-30T09:51:18.259+02:00,4956.195599375001,-0.9792327880859375,1.037567138671875,-0.1106109619140625,4956.185647375,-0.397576560456628,0.2418846164076265,-0.07106581737485164,2.21106219291687,6.156715393066406,2.49056339263916,-1.385626435279846,1.024162650108337,0.7593464255332947,XArbitraryZVertical,-0.01076076532343822,0.1251614377495488,-0.2001170005186078,0.9716851433707555,0.2389281988143921,0.07100601494312286,-0.9684376120567322,0,0,0,-1,-1,4949.395771,unknown,2,2022-06-30T09:51:11.456+02:00,2022-06-30T08:20:05.567+02:00,1418,1.388076,0,0,1121.329,0,0,2022-06-30T09:50:28.075+02:00
2022-06-30T09:51:18.269+02:00,4956.205550375001,-0.8702850341796875,1.016510009765625,-0.0484619140625,4956.195599375001,-0.3785095096055479,0.3048440783805658,-0.04263449352599869,2.265512228012085,6.280147552490234,2.736895084381104,-1.336676120758057,1.003169655799866,0.8053370714187622,XArbitraryZVertical,0.007864992230118707,0.1530511960666412,-0.1890822828346257,0.9699285173817846,0.2998717129230499,0.04262157902121544,-0.9530269503593445,0,0,0,-1,-1,4949.395771,unknown,2,2022-06-30T09:51:11.456+02:00,2022-06-30T08:20:05.567+02:00,1418,1.388076,0,0,1121.329,0,0,2022-06-30T09:50:28.075+02:00
2022-06-30T09:51:18.279+02:00,4956.215502375,-0.7562255859375,0.9485015869140625,0.0025787353515625,4956.205550375001,-0.3594670101437251,0.3680578095769431,-0.0116430722202775,2.353526830673218,6.311569690704346,2.917348384857178,-1.284325122833252,1.019927263259888,0.8559534549713135,XArbitraryZVertical,0.0270814224760902,0.181064246704431,-0.1767939385275516,0.9670709410665476,0.3597795963287354,0.01164280902594328,-0.9329646825790405,0,0,0,-1,-1,4949.395771,unknown,2,2022-06-30T09:51:11.456+02:00,2022-06-30T08:20:05.567+02:00,1418,1.388076,0,0,1121.329,0,0,2022-06-30T09:50:28.075+02:00
2022-06-30T09:51:18.289+02:00,4956.225453375,-0.6393280029296875,0.8587799072265625,0.0953216552734375,4956.215502375,-0.3418466948308829,0.4303920156120604,0.02217864025775057,2.545523881912231,6.229111671447754,2.978225708007812,-1.230982780456543,1.008916616439819,0.8821657299995422,XArbitraryZVertical,0.04699454534526485,0.2085716457282833,-0.1638253871077139,0.9630424402462324,0.417124480009079,-0.02217682264745235,-0.9085787534713745,0,0,0,-1,-1,4949.395771,unknown,2,2022-06-30T09:51:11.456+02:00,2022-06-30T08:20:05.567+02:00,1418,1.388076,0,0,1121.329,0,0,2022-06-30T09:50:28.075+02:00
2022-06-30T09:51:18.299+02:00,4956.235405375,-0.541229248046875,0.75433349609375,0.1546478271484375,4956.225453375,-0.3269674215483858,0.490937359293424,0.05904512642055723,2.764395952224731,6.050806522369385,2.989811420440674,-1.168537855148315,0.9651079177856445,0.9278855323791504,XArbitraryZVertical,0.06778598894970049,0.2350059684644109,-0.1507311601443458,0.9578400382707036,0.4706311821937561,-0.0590108223259449,-0.8803545236587524,0,0,0,-1,-1,4949.395771,unknown,2,2022-06-30T09:51:11.456+02:00,2022-06-30T08:20:05.567+02:00,1418,1.388076,0,0,1121.329,0,0,2022-06-30T09:50:28.075+02:00
2022-06-30T09:51:18.308+02:00,4956.245356375,-0.4434051513671875,0.645904541015625,0.179351806640625,4956.235405375,-0.3153989379174238,0.5489195613606871,0.09843197510548848,2.951008081436157,5.789857864379883,2.952669858932495,-1.106062889099121,0.9053863883018494,0.9796202778816223,XArbitraryZVertical,0.08927951707585474,0.259902837991748,-0.1378175916478701,0.9515702773076032,0.5192402005195618,-0.09827310591936111,-0.8489593863487244,0,0,0,-1,-1,4949.395771,unknown,2,2022-06-30T09:51:11.456+02:00,2022-06-30T08:20:05.567+02:00,1418,1.388076,0,0,1121.329,0,0,2022-06-30T09:50:28.075+02:00
2022-06-30T09:51:18.318+02:00,4956.255308375,-0.3509368896484375,0.5426177978515625,0.176055908203125,4956.245356375,-0.3073586607067137,0.6040526352274592,0.1395536767003259,3.104728221893311,5.486470222473145,2.902531862258911,-1.057044148445129,0.8404099941253662,0.9858153462409973,XArbitraryZVertical,0.1112021260585961,0.2830451123012721,-0.1252964104299139,0.9443624184881753,0.5624607801437378,-0.1391011476516724,-0.8150390982627869,0,0,0,-1,-1,4949.395771,unknown,2,2022-06-30T09:51:11.456+02:00,2022-06-30T08:20:05.567+02:00,1418,1.388076,0,0,1121.329,0,0,2022-06-30T09:50:28.075+02:00
2022-06-30T09:51:18.329+02:00,4956.265259375,-0.2996673583984375,0.4747314453125,0.19439697265625,4956.255308375,-0.3027349215158747,0.6561983708585447,0.1819342505289711,3.231219291687012,5.147815704345703,2.860338926315308,-0.9934267401695251,0.7726219296455383,0.95720374584198,XArbitraryZVertical,0.1334029406729526,0.3042751224851122,-0.113217730434606,0.9363770912742398,0.6000396609306335,-0.1809322386980057,-0.779240608215332,0,0,0,-1,-1,4949.395771,unknown,2,2022-06-30T09:51:11.456+02:00,2022-06-30T08:20:05.567+02:00,1418,1.388076,0,0,1121.329,0,0,2022-06-30T09:50:28.075+02:00
2022-06-30T09:51:18.338+02:00,4956.275211375,-0.281402587890625,0.4159088134765625,0.2288818359375,4956.265259375,-0.3010865899093293,0.7053811981518762,0.2247324025417838,3.23800802230835,4.817986965179443,2.805118560791016,-0.951570987701416,0.7280483841896057,0.9227151870727539,XArbitraryZVertical,0.1555161363066873,0.3235818487219578,-0.1015619520866423,0.9277902506023823,0.6320211887359619,-0.2228454947471619,-0.7422190308570862,0,0,0,-1,-1,4949.395771,unknown,2,2022-06-30T09:51:11.456+02:00,2022-06-30T08:20:05.567+02:00,1418,1.388076,0,0,1121.329,0,0,2022-06-30T09:50:28.075+02:00
2022-06-30T09:51:18.348+02:00,4956.285162375,-0.2848358154296875,0.37579345703125,0.2860107421875,4956.275211375,-0.3016958867343355,0.7518333796302111,0.2667316445532895,3.13460373878479,4.506063461303711,2.726083993911743,-0.9469591975212097,0.7082208395004272,0.9141414165496826,XArbitraryZVertical,0.1769614799675897,0.3411461601570331,-0.09027904025738226,0.9187783909804811,0.6588272452354431,-0.2635800838470459,-0.7046078443527222,0,0,0,-1,-1,4949.395771,unknown,2,2022-06-30T09:51:11.456+02:00,2022-06-30T08:20:05.567+02:00,1418,1.388076,0,0,1121.329,0,0,2022-06-30T09:50:28.075+02:00
2022-06-30T09:51:18.358+02:00,4956.295114375001,-0.291290283203125,0.3668212890625,0.362274169921875,4956.285162375,-0.303767032345262,0.7959452212635634,0.3072337933188984,2.965579032897949,4.263888835906982,2.688132047653198,-0.9639953970909119,0.6925594806671143,0.923944890499115,XArbitraryZVertical,0.1973772878288579,0.357235747870683,-0.0792157502672631,0.9094777841718806,0.6810667514801025,-0.3024231195449829,-0.666849672794342,0,0,0,-1,-1,4949.395771,unknown,2,2022-06-30T09:51:11.456+02:00,2022-06-30T08:20:05.567+02:00,1418,1.388076,0,0,1121.329,0,0,2022-06-30T09:50:28.075+02:00
2022-06-30T09:51:18.369+02:00,4956.305065375001,-0.2970428466796875,0.338134765625,0.405731201171875,4956.295114375001,-0.3061269587263884,0.8380162606822745,0.346227590577982,2.733853340148926,4.068892478942871,2.722085952758789,-0.9879206418991089,0.710307776927948,0.9517379999160767,XArbitraryZVertical,0.2166144240597993,0.3720972708487153,-0.06793379842914155,0.9000038690151466,0.6992088556289673,-0.3393516838550568,-0.6292436122894287,0,0,0,-1,-1,4949.395771,unknown,2,2022-06-30T09:51:11.456+02:00,2022-06-30T08:20:05.567+02:00,1418,1.388076,0,0,1121.329,0,0,2022-06-30T09:50:28.075+02:00
2022-06-30T09:51:18.378+02:00,4956.315017375,-0.28900146484375,0.297882080078125,0.4078216552734375,4956.305065375001,-0.308331579193884,0.878197262656934,0.3839843395224092,2.577672004699707,3.879774332046509,2.743196487426758,-1.008881211280823,0.729292631149292,0.9834591150283813,XArbitraryZVertical,0.2347456026337788,0.3858420930126145,-0.05627719488603396,0.8904231800310558,0.7135471105575562,-0.3746176362037659,-0.5920407772064209,0,0,0,-1,-1,4949.395771,unknown,2,2022-06-30T09:51:11.456+02:00,2022-06-30T08:20:05.567+02:00,1418,1.388076,0,0,1121.329,0,0,2022-06-30T09:50:28.075+02:00
2022-06-30T09:51:18.388+02:00,4956.324968375,-0.24957275390625,0.2589569091796875,0.411041259765625,4956.315017375,-0.3115580545942269,0.9169572960384623,0.4211315856434396,2.588042497634888,3.698562383651733,2.714188098907471,-1.020743012428284,0.7267404794692993,0.9638010859489441,XArbitraryZVertical,0.2523083997870255,0.3984886674849735,-0.04466818555172505,0.8806543142507586,0.7244018316268921,-0.4087934195995331,-0.5550944805145264,0,0,0,-1,-1,4949.395771,unknown,2,2022-06-30T09:51:11.456+02:00,2022-06-30T08:20:05.567+02:00,1418,1.388076,0,0,1121.329,0,0,2022-06-30T09:50:28.075+02:00
2022-06-30T09:51:18.403+02:00,4956.334920375,-0.18035888671875,0.248016357421875,0.401397705078125,4956.324968375,-0.3174521390019879,0.9548818659206877,0.458089210938666,2.748815298080444,3.508224010467529,2.630520820617676,-1.006214380264282,0.7187545895576477,0.9305577278137207,XArbitraryZVertical,0.2698555563542623,0.41000770256279,-0.03370032919343616,0.8705952282187267,0.7320899367332458,-0.442235141992569,-0.5181432962417603,0,0,0,-1,-1,4949.395771,unknown,2,2022-06-30T09:51:11.456+02:00,2022-06-30T08:20:05.567+02:00,1418,1.388076,0,0,1121.329,0,0,2022-06-30T09:50:28.075+02:00
2022-06-30T09:51:18.409+02:00,4956.344871375,-0.10443115234375,0.2347412109375,0.394775390625,4956.334920375,-0.3251775231417278,0.9885250089082526,0.4939813847073514,2.899437665939331,3.267634153366089,2.540152549743652,-0.9517374038696289,0.7247145771980286,0.8900182247161865,XArbitraryZVertical,0.2868476069157827,0.4190802910821714,-0.02372483767903392,0.8611197500872946,0.735367476940155,-0.4741350412368774,-0.4841803312301636,0,0,0,-1,-1,4949.395771,unknown,2,2022-06-30T09:51:11.456+02:00,2022-06-30T08:20:05.567+02:00,1418,1.388076,0,0,1121.329,0,0,2022-06-30T09:50:28.075+02:00
2022-06-30T09:51:18.418+02:00,4956.354823375001,-0.033843994140625,0.180023193359375,0.4496307373046875,4956.344871375,-0.3380265585488783,1.025617086944531,0.5304329115796459,2.943358182907104,2.978559970855713,2.450105428695679,-0.8800140619277954,0.7512525916099548,0.8427144289016724,XArbitraryZVertical,0.3047900988672831,0.4283062660766123,-0.01467844638713613,0.850553472780156,0.737542450428009,-0.5059068202972412,-0.4473134875297546,0,0,0,-1,-1,4949.395771,unknown,2,2022-06-30T09:51:11.456+02:00,2022-06-30T08:20:05.567+02:00,1418,1.388076,0,0,1121.329,0,0,2022-06-30T09:50:28.075+02:00
2022-06-30T09:51:18.428+02:00,4956.364774375001,0.0291900634765625,0.120330810546875,0.4825592041015625,4956.354823375001,-0.3532136373246647,1.061517263678967,0.5656456245115015,2.88843035697937,2.68267822265625,2.357970476150513,-0.8060446977615356,0.7480425238609314,0.8259764313697815,XArbitraryZVertical,0.3223297412060404,0.4362328706557,-0.006436425062222049,0.8400970847800768,0.7371052503585815,-0.5359609723091125,-0.4116088449954987,0,0,0,-1,-1,4949.395771,unknown,2,2022-06-30T09:51:11.456+02:00,2022-06-30T08:20:05.567+02:00,1418,1.388076,0,0,1121.329,0,0,2022-06-30T09:50:28.075+02:00
2022-06-30T09:51:18.438+02:00,4956.374726375,0.07275390625,0.089874267578125,0.496368408203125,4956.364774375001,-0.3699888016733381,1.096040277531698,0.599405491116462,2.807374954223633,2.429442882537842,2.296494245529175,-0.735194981098175,0.7095370888710022,0.8492337465286255,XArbitraryZVertical,0.3392624544200304,0.4429277170119009,0.001187311591859728,0.8298883512209186,0.7343555092811584,-0.5641517043113708,-0.3774320483207703,0,0,0,-1,-1,4949.395771,unknown,2,2022-06-30T09:51:11.456+02:00,2022-06-30T08:20:05.567+02:00,1418,1.388076,0,0,1121.329,0,0,2022-06-30T09:50:28.075+02:00
2022-06-30T09:51:18.448+02:00,4956.384677375,0.1055145263671875,0.1034393310546875,0.511749267578125,4956.374726375,-0.3881734351908817,1.129681939900804,0.631981643062542,2.806266069412231,2.24753999710083,2.258044719696045,-0.6749969720840454,0.6927495002746582,0.8423804044723511,XArbitraryZVertical,0.3556894682400931,0.4485999476363645,0.008373323424086237,0.8198616060076994,0.7296231389045715,-0.5907447934150696,-0.3444861769676208,0,0,0,-1,-1,4949.395771,unknown,2,2022-06-30T09:51:11.456+02:00,2022-06-30T08:20:05.567+02:00,1418,1.388076,0,0,1121.329,0,0,2022-06-30T09:50:28.075+02:00
2022-06-30T09:51:18.458+02:00,4956.394629375,0.155426025390625,0.1337127685546875,0.537689208984375,4956.384677375,-0.409154823723382,1.164029499947086,0.664126828681492,2.926523447036743,2.124972820281982,2.244240522384644,-0.6366246938705444,0.7068255543708801,0.804058313369751,XArbitraryZVertical,0.3722173466329589,0.453518497234799,0.01502998903254074,0.8096600464624913,0.7232027649879456,-0.6163718104362488,-0.3115504384040833,0,0,0,-1,-1,4949.395771,unknown,2,2022-06-30T09:51:11.456+02:00,2022-06-30T08:20:05.567+02:00,1418,1.388076,0,0,1121.329,0,0,2022-06-30T09:50:28.075+02:00
2022-06-30T09:51:18.468+02:00,4956.404580375,0.2245025634765625,0.1331634521484375,0.5240936279296875,4956.394629375,-0.4337126333106608,1.199800085092738,0.6958569615925733,3.059181928634644,1.954024076461792,2.194401025772095,-0.5871914625167847,0.7614654898643494,0.8136698007583618,XArbitraryZVertical,0.3890198440228539,0.4577515062417394,0.0210283179275725,0.7991776229071279,0.7152886390686035,-0.6410434246063232,-0.2782542407512665,0,0,0,-1,-1,4949.395771,unknown,2,2022-06-30T09:51:11.456+02:00,2022-06-30T08:20:05.567+02:00,1418,1.388076,0,0,1121.329,0,0,2022-06-30T09:50:28.075+02:00
2022-06-30T09:51:18.478+02:00,4956.414532375,0.277191162109375,0.09283447265625,0.520355224609375,4956.404580375,-0.4626302936193741,1.236664212283407,0.7267487565417486,3.229607820510864,1.661182403564453,2.111018419265747,-0.5175614953041077,0.8029623627662659,0.7759271860122681,XArbitraryZVertical,0.4061250336185172,0.4609965676740885,0.02593538582607337,0.7885885756317192,0.7060072422027588,-0.6644433736801147,-0.2450892478227615,0,0,0,-1,-1,4949.395771,unknown,2,2022-06-30T09:51:11.456+02:00,2022-06-30T08:20:05.567+02:00,1418,1.388076,0,0,1121.329,0,0,2022-06-30T09:50:28.075+02:00
2022-06-30T09:51:18.488+02:00,4956.424483375,0.308013916015625,0.0277252197265625,0.6018829345703125,4956.414532375,-0.4966511829550007,1.274555985484366,0.7565456628647522,3.419490098953247,1.34353494644165,2.018942356109619,-0.441003143787384,0.8028225898742676,0.7285427451133728,XArbitraryZVertical,0.4236245052204604,0.4630293502320854,0.02943233458619051,0.7779972997844425,0.6955346465110779,-0.6864135265350342,-0.2122921943664551,0,0,0,-1,-1,4949.395771,unknown,2,2022-06-30T09:51:11.456+02:00,2022-06-30T08:20:05.567+02:00,1418,1.388076,0,0,1121.329,0,0,2022-06-30T09:50:28.075+02:00
