loggingTime(txt),accelerometerTimestamp_sinceReboot(s),accelerometerAccelerationX(G),accelerometerAccelerationY(G),accelerometerAccelerationZ(G),motionTimestamp_sinceReboot(s),motionYaw(rad),motionRoll(rad),motionPitch(rad),motionRotationRateX(rad/s),motionRotationRateY(rad/s),motionRotationRateZ(rad/s),motionUserAccelerationX(G),motionUserAccelerationY(G),motionUserAccelerationZ(G),motionAttitudeReferenceFrame(txt),motionQuaternionX(R),motionQuaternionY(R),motionQuaternionZ(R),motionQuaternionW(R),motionGravityX(G),motionGravityY(G),motionGravityZ(G),motionMagneticFieldX(µT),motionMagneticFieldY(µT),motionMagneticFieldZ(µT),motionHeading(°),motionMagneticFieldCalibrationAccuracy(Z),activityTimestamp_sinceReboot(s),activity(txt),activityActivityConfidence(Z),activityActivityStartDate(txt),pedometerStartDate(txt),pedometerNumberofSteps(N),pedometerAverageActivePace(s/m),pedometerCurrentPace(s/m),pedometerCurrentCadence(steps/s),pedometerDistance(m),pedometerFloorAscended(N),pedometerFloorDescended(N),pedometerEndDate(txt)
2022-06-30T09:51:33.781+02:00,4971.700039875001,0.1522216796875,0.103607177734375,-0.9385223388671875,4971.690087875,0.5859008157387221,0.1553417009539796,-0.009656377609360818,-0.4755877554416656,0.2293592989444733,0.09533655643463135,0.1914805024862289,-0.08073167502880096,0.03233093023300171,XArbitraryZVertical,-0.02701537277588948,0.07289608376145668,0.28754552361833,0.9546067181562902,0.1547104865312576,0.009656227193772793,-0.987912654876709,0,0,0,-1,-1,4964.680790625001,unknown,2,2022-06-30T09:51:26.741+02:00,2022-06-30T08:20:05.567+02:00,1418,1.388076,0,0,1121.329,0,0,2022-06-30T09:50:28.075+02:00
2022-06-30T09:51:33.784+02:00,4971.709990875001,0.1372833251953125,0.1031951904296875,-0.9436187744140625,4971.700039875001,0.5859533365232978,0.1571805008190804,-0.01176598917891289,0.05106513202190399,0.1046429425477982,-0.1410493552684784,0.05633643269538879,0.05676149949431419,0.05089759826660156,XArbitraryZVertical,-0.02828827098191072,0.07346889353634509,0.2874647350561761,0.9545502050702656,0.1565232574939728,0.01176571752876043,-0.9876042008399963,0,0,0,-1,-1,4964.680790625001,unknown,2,2022-06-30T09:51:26.741+02:00,2022-06-30T08:20:05.567+02:00,1418,1.388076,0,0,1121.329,0,0,2022-06-30T09:50:28.075+02:00
2022-06-30T09:51:33.785+02:00,4971.719942875,0.1083831787109375,0.0332183837890625,-0.9386444091796875,4971.709990875001,0.583896372431749,0.1571889830995211,-0.009697887335557353,0.3904593288898468,-0.09294939786195755,-0.1494824439287186,-0.0115160197019577,0.1077338978648186,0.04405176639556885,XArbitraryZVertical,-0.02722680726066092,0.07379910810509913,0.2865620546142213,0.9548270371970252,0.1565351039171219,0.00969773530960083,-0.9876247644424438,0,0,0,-1,-1,4964.680790625001,unknown,2,2022-06-30T09:51:26.741+02:00,2022-06-30T08:20:05.567+02:00,1418,1.388076,0,0,1121.329,0,0,2022-06-30T09:50:28.075+02:00
2022-06-30T09:51:33.793+02:00,4971.729893875,0.0924835205078125,-0.010986328125,-0.9399871826171875,4971.719942875,0.5825232934481304,0.1558548770296865,-0.00581512459177635,0.3801374435424805,-0.1568676680326462,0.001695083454251289,-0.02852874994277954,0.06696932017803192,0.04561692476272583,XArbitraryZVertical,-0.02513162810692526,0.07373707201444307,0.2860714578460055,0.9550363189922624,0.1552220433950424,0.005815092008560896,-0.9878624677658081,0,0,0,-1,-1,4964.680790625001,unknown,2,2022-06-30T09:51:26.741+02:00,2022-06-30T08:20:05.567+02:00,1418,1.388076,0,0,1121.329,0,0,2022-06-30T09:50:28.075+02:00
2022-06-30T09:51:33.803+02:00,4971.739845875,0.091156005859375,-0.0131378173828125,-0.9575653076171875,4971.729893875,0.5824160050576829,0.1544231021531337,-0.003224424082405943,0.124908521771431,-0.1245032474398613,0.04770961403846741,-0.05320852994918823,0.001444760710000992,0.04937452077865601,XArbitraryZVertical,-0.02368586124593827,0.07342570805305457,0.2861346943698111,0.9550782868011894,0.1538092941045761,0.003224418498575687,-0.9880952835083008,0,0,0,-1,-1,4964.680790625001,unknown,2,2022-06-30T09:51:26.741+02:00,2022-06-30T08:20:05.567+02:00,1418,1.388076,0,0,1121.329,0,0,2022-06-30T09:50:28.075+02:00
2022-06-30T09:51:33.814+02:00,4971.749796875,0.11407470703125,-0.0245361328125,-0.98052978515625,4971.739845875,0.5827821408518382,0.1534674433395292,-0.003182200802199879,-0.1184577867388725,-0.06882880628108978,0.02419736422598362,-0.06138893961906433,-0.01851728558540344,0.04134249687194824,XArbitraryZVertical,-0.02354232510382899,0.07297106657151051,0.2863223613582684,0.9550605434327712,0.1528649628162384,0.003182195359840989,-0.988241970539093,0,0,0,-1,-1,4964.680790625001,unknown,2,2022-06-30T09:51:26.741+02:00,2022-06-30T08:20:05.567+02:00,1418,1.388076,0,0,1121.329,0,0,2022-06-30T09:50:28.075+02:00
2022-06-30T09:51:33.823+02:00,4971.759748875001,0.147369384765625,0.0119171142578125,-0.9778900146484375,4971.749796875,0.5831596203265914,0.1529419867929974,-0.005198351216746125,-0.2850435078144073,-0.0337144061923027,-0.005434331949800253,-0.05307111144065857,-0.02021298557519913,0.01577955484390259,XArbitraryZVertical,-0.02444347746904801,0.07242661679362396,0.2864344193516045,0.9550457727891293,0.1523443758487701,0.005198327824473381,-0.9883137941360474,0,0,0,-1,-1,4964.680790625001,unknown,2,2022-06-30T09:51:26.741+02:00,2022-06-30T08:20:05.567+02:00,1418,1.388076,0,0,1121.329,0,0,2022-06-30T09:50:28.075+02:00
2022-06-30T09:51:33.833+02:00,4971.769699875001,0.1573944091796875,0.063934326171875,-0.9662017822265625,4971.759748875001,0.5837756098285531,0.1527212782513731,-0.008607148694704117,-0.3998236060142517,-0.0136975534260273,0.02828421629965305,-0.01641140878200531,-0.02766527608036995,0.006359994411468506,XArbitraryZVertical,-0.02606156037884782,0.07182425141034721,0.2866050719873057,0.954997152691215,0.1521226614713669,0.008607042022049427,-0.9883241653442383,0,0,0,-1,-1,4964.680790625001,unknown,2,2022-06-30T09:51:26.741+02:00,2022-06-30T08:20:05.567+02:00,1418,1.388076,0,0,1121.329,0,0,2022-06-30T09:50:28.075+02:00
2022-06-30T09:51:33.843+02:00,4971.779651875,0.16619873046875,0.0698394775390625,-0.9683990478515625,4971.769699875001,0.5849623739906459,0.1525191055782501,-0.01252811268212882,-0.3978470265865326,-0.03215766698122025,0.0801205188035965,0.0009455680847167969,0.03303495422005653,0.02034205198287964,XArbitraryZVertical,-0.02794665727002083,0.07114788395399206,0.287028337238978,0.954867376547486,0.1519165486097336,0.01252778526395559,-0.9883139133453369,0,0,0,-1,-1,4964.680790625001,unknown,2,2022-06-30T09:51:26.741+02:00,2022-06-30T08:20:05.567+02:00,1418,1.388076,0,0,1121.329,0,0,2022-06-30T09:50:28.075+02:00
2022-06-30T09:51:33.853+02:00,4971.789602875,0.1809234619140625,0.0674591064453125,-0.9718780517578125,4971.779651875,0.5863798038829788,0.1520536128842071,-0.01594074560130675,-0.316676527261734,-0.0622713603079319,0.09280781447887421,0.00895082950592041,0.05252610892057419,0.02167695760726929,XArbitraryZVertical,-0.02955858451272122,0.07041327756320637,0.2875839280199045,0.9547061424440323,0.151449128985405,0.01594007015228271,-0.9883365035057068,0,0,0,-1,-1,4964.680790625001,unknown,2,2022-06-30T09:51:26.741+02:00,2022-06-30T08:20:05.567+02:00,1418,1.388076,0,0,1121.329,0,0,2022-06-30T09:50:28.075+02:00
2022-06-30T09:51:33.863+02:00,4971.799554875,0.1830596923828125,0.0567779541015625,-0.9761505126953125,4971.789602875,0.587746860253632,0.1512927125946682,-0.01842605176477773,-0.2142532169818878,-0.0954100713133812,0.1052744761109352,0.02148911356925964,0.05123135447502136,0.01701945066452026,XArbitraryZVertical,-0.03068274915647641,0.06967023264859688,0.2881547172560806,0.9545530160422562,0.1506906151771545,0.01842500828206539,-0.9884092807769775,0,0,0,-1,-1,4964.680790625001,unknown,2,2022-06-30T09:51:26.741+02:00,2022-06-30T08:20:05.567+02:00,1418,1.388076,0,0,1121.329,0,0,2022-06-30T09:50:28.075+02:00
2022-06-30T09:51:33.873+02:00,4971.809505875,0.182373046875,0.040191650390625,-0.97625732421875,4971.799554875,0.5890912327997365,0.150209163546596,-0.01981556043536164,-0.1053674817085266,-0.1252824813127518,0.1184885427355766,0.03271126747131348,0.04312823712825775,0.01607251167297363,XArbitraryZVertical,-0.03123589159761313,0.06893094486695382,0.2887610900054973,0.9544054959936481,0.1496155709028244,0.01981426402926445,-0.9885457158088684,0,0,0,-1,-1,4964.680790625001,unknown,2,2022-06-30T09:51:26.741+02:00,2022-06-30T08:20:05.567+02:00,1418,1.388076,0,0,1121.329,0,0,2022-06-30T09:50:28.075+02:00
2022-06-30T09:51:33.883+02:00,4971.819457875,0.172088623046875,0.0218505859375,-0.97784423828125,4971.809505875,0.5904102395186882,0.1488279894228735,-0.02029711023485349,-0.03086794912815094,-0.1531739979982376,0.1286892592906952,0.0358787328004837,0.02889861352741718,0.01143163442611694,XArbitraryZVertical,-0.03131114551569585,0.06818131965741581,0.2893941650009808,0.9542651311328344,0.1482486426830292,0.02029571682214737,-0.9887418150901794,0,0,0,-1,-1,4964.680790625001,unknown,2,2022-06-30T09:51:26.741+02:00,2022-06-30T08:20:05.567+02:00,1418,1.388076,0,0,1121.329,0,0,2022-06-30T09:50:28.075+02:00
2022-06-30T09:51:33.896+02:00,4971.829408875,0.1627655029296875,0.007415771484375,-0.9739227294921875,4971.819457875,0.5917397814765444,0.1472421475360532,-0.02026047999259332,-0.005791891366243362,-0.167337492108345,0.1360374540090561,0.03035147488117218,0.01004486158490181,0.01142203807830811,XArbitraryZVertical,-0.03110901284556405,0.06740929983996945,0.2900545686361734,0.9541261398949999,0.1466805785894394,0.02025909349322319,-0.9889764189720154,0,0,0,-1,-1,4964.680790625001,unknown,2,2022-06-30T09:51:26.741+02:00,2022-06-30T08:20:05.567+02:00,1418,1.388076,0,0,1121.329,0,0,2022-06-30T09:50:28.075+02:00
2022-06-30T09:51:33.914+02:00,4971.839360875,0.1572418212890625,-0.0032196044921875,-0.9645538330078125,4971.829408875,0.5931389143615894,0.1456354091893624,-0.02017099947504968,-0.01613773964345455,-0.1585645824670792,0.1452039182186127,0.02209851145744324,-0.004758257418870926,0.01355034112930298,XArbitraryZVertical,-0.03087992987852334,0.0666342151147849,0.2907501401046154,0.9539763637570929,0.1450916230678558,0.02016963250935078,-0.9892126321792603,0,0,0,-1,-1,4964.680790625001,unknown,2,2022-06-30T09:51:26.741+02:00,2022-06-30T08:20:05.567+02:00,1418,1.388076,0,0,1121.329,0,0,2022-06-30T09:50:28.075+02:00
2022-06-30T09:51:33.916+02:00,4971.849311875,0.1530303955078125,-0.0097808837890625,-0.9596710205078125,4971.839360875,0.5946599645313481,0.144141502071201,-0.02025645693495101,-0.04359226673841476,-0.1471992880105972,0.1535279005765915,0.01539799571037292,-0.01927851140499115,0.02099692821502686,XArbitraryZVertical,-0.03075361009973828,0.0658857691218151,0.291495543228894,0.9538048965684133,0.143613412976265,0.020255072042346,-0.9894265532493591,0,0,0,-1,-1,4964.680790625001,unknown,2,2022-06-30T09:51:26.741+02:00,2022-06-30T08:20:05.567+02:00,1418,1.388076,0,0,1121.329,0,0,2022-06-30T09:50:28.075+02:00
2022-06-30T09:51:33.923+02:00,4971.859263875001,0.1498260498046875,-0.0108642578125,-0.9652862548828125,4971.849311875,0.5962488781108355,0.1427766637335861,-0.02066941884381311,-0.07875631004571915,-0.1307432502508163,0.1506931781768799,0.01256883144378662,-0.02695456892251968,0.02905720472335815,XArbitraryZVertical,-0.03080331834082757,0.06514993235422778,0.2922594847255686,0.9536199606224385,0.1422616690397263,0.02066794782876968,-0.9896132946014404,0,0,0,-1,-1,4964.680790625001,unknown,2,2022-06-30T09:51:26.741+02:00,2022-06-30T08:20:05.567+02:00,1418,1.388076,0,0,1121.329,0,0,2022-06-30T09:50:28.075+02:00
2022-06-30T09:51:33.933+02:00,4971.869214875001,0.1549224853515625,-0.00238037109375,-0.967864990234375,4971.859263875001,0.597851654405158,0.1415353193649824,-0.02140657005329092,-0.1089504361152649,-0.1223066225647926,0.1498265862464905,0.009664446115493774,-0.0325743705034256,0.02830213308334351,XArbitraryZVertical,-0.03102488989877107,0.06442494605681996,0.2930166616057558,0.9534296595997577,0.1410309225320816,0.02140493504703045,-0.9897737503051758,0,0,0,-1,-1,4964.680790625001,unknown,2,2022-06-30T09:51:26.741+02:00,2022-06-30T08:20:05.567+02:00,1418,1.388076,0,0,1121.329,0,0,2022-06-30T09:50:28.075+02:00
2022-06-30T09:51:33.943+02:00,4971.879166875,0.162353515625,0.0074615478515625,-0.9716949462890625,4971.869214875001,0.5994974171704262,0.1404015702017977,-0.02241324423191397,-0.1340887546539307,-0.1107872277498245,0.1527625620365143,0.01106444001197815,-0.03034593909978867,0.02085596323013306,XArbitraryZVertical,-0.0313909085407528,0.06371042748516728,0.2937833463753895,0.9532297036025826,0.1399056017398834,0.02241136692464352,-0.9899111986160278,0,0,0,-1,-1,4964.680790625001,unknown,2,2022-06-30T09:51:26.741+02:00,2022-06-30T08:20:05.567+02:00,1418,1.388076,0,0,1121.329,0,0,2022-06-30T09:50:28.075+02:00
2022-06-30T09:51:33.953+02:00,4971.889117875,0.1629486083984375,0.0069732666015625,-0.9762725830078125,4971.879166875,0.6012514240985247,0.1400636802377193,-0.0241786879149896,-0.1369343400001526,-0.1111917644739151,0.1588468104600906,0.02034631371498108,-0.02107879519462585,0.02074038982391357,XArbitraryZVertical,-0.03223779081427817,0.06326045301023552,0.2945624923729562,0.9529909463443874,0.1395653635263443,0.0241763312369585,-0.9899176955223083,0,0,0,-1,-1,4964.680790625001,unknown,2,2022-06-30T09:51:26.741+02:00,2022-06-30T08:20:05.567+02:00,1418,1.388076,0,0,1121.329,0,0,2022-06-30T09:50:28.075+02:00
2022-06-30T09:51:33.963+02:00,4971.899069875,0.1607666015625,0.0042572021484375,-0.9766998291015625,4971.889117875,0.6029825935516498,0.1397447012408081,-0.02568070280129298,-0.1275294423103333,-0.1116911172866821,0.1488889008760452,0.02422259747982025,-0.0182926207780838,0.01588022708892822,XArbitraryZVertical,-0.03296055657167331,0.0628575015415096,0.2953395820206128,0.9527523676859357,0.1392443776130676,0.02567788027226925,-0.9899250864982605,0,0,0,-1,-1,4964.680790625001,unknown,2,2022-06-30T09:51:26.741+02:00,2022-06-30T08:20:05.567+02:00,1418,1.388076,0,0,1121.329,0,0,2022-06-30T09:50:28.075+02:00
2022-06-30T09:51:33.972+02:00,4971.909020875,0.15472412109375,0.0105133056640625,-0.9713592529296875,4971.899069875,0.604568682903996,0.1393421026506949,-0.02672110777420805,-0.1046526283025742,-0.1138650551438332,0.1377446353435516,0.02346527576446533,-0.02186562865972519,0.01175880432128906,XArbitraryZVertical,-0.03344601828076826,0.0624846712052962,0.2960651115813059,0.9525347646418226,0.1388420462608337,0.02671792730689049,-0.9899540543556213,0,0,0,-1,-1,4964.680790625001,unknown,2,2022-06-30T09:51:26.741+02:00,2022-06-30T08:20:05.567+02:00,1418,1.388076,0,0,1121.329,0,0,2022-06-30T09:50:28.075+02:00
2022-06-30T09:51:33.983+02:00,4971.918972875001,0.149810791015625,0.014923095703125,-0.968658447265625,4971.909020875,0.6060501915998653,0.1388418793421835,-0.02724679550312218,-0.083697609603405,-0.1080681905150414,0.1339274346828461,0.01970525085926056,-0.02097205445170403,0.01636123657226562,XArbitraryZVertical,-0.03366823662223028,0.06214321853336896,0.2967605392672633,0.9523328345584648,0.138344869017601,0.02724342420697212,-0.9900093674659729,0,0,0,-1,-1,4964.680790625001,unknown,2,2022-06-30T09:51:26.741+02:00,2022-06-30T08:20:05.567+02:00,1418,1.388076,0,0,1121.329,0,0,2022-06-30T09:50:28.075+02:00
2022-06-30T09:51:33.993+02:00,4971.928923875001,0.148681640625,0.00860595703125,-0.9747314453125,4971.918972875001,0.6074818542992708,0.1383269140086482,-0.02722754098751984,-0.06154197454452515,-0.1078250482678413,0.1349154561758041,0.01424881815910339,-0.01321660354733467,0.02061372995376587,XArbitraryZVertical,-0.03362695760471769,0.06187682252906804,0.297451496133264,0.9521361492141823,0.1378351002931595,0.02722417749464512,-0.9900809526443481,0,0,0,-1,-1,4964.680790625001,unknown,2,2022-06-30T09:51:26.741+02:00,2022-06-30T08:20:05.567+02:00,1418,1.388076,0,0,1121.329,0,0,2022-06-30T09:50:28.075+02:00
2022-06-30T09:51:34.002+02:00,4971.938875875,0.149078369140625,0.001434326171875,-0.97589111328125,4971.928923875001,0.608871396985798,0.1378068310155147,-0.02683762993879612,-0.04336869716644287,-0.09983786195516586,0.1298027783632278,0.01227514445781708,-0.0141085721552372,0.01935297250747681,XArbitraryZVertical,-0.03340694488882234,0.06166437306565693,0.2981353000543366,0.9519436950663446,0.1373216062784195,0.02683440782129765,-0.9901629686355591,0,0,0,-1,-1,4964.680790625001,unknown,2,2022-06-30T09:51:26.741+02:00,2022-06-30T08:20:05.567+02:00,1418,1.388076,0,0,1121.329,0,0,2022-06-30T09:50:28.075+02:00
2022-06-30T09:51:34.012+02:00,4971.948826625,0.1485595703125,-0.00933837890625,-0.976226806640625,4971.938875875,0.6101284708984659,0.1373472196923088,-0.02614041166692076,-0.03870443254709244,-0.08778652548789978,0.1139093041419983,0.01094242930412292,-0.02317722141742706,0.01416999101638794,XArbitraryZVertical,-0.0330454340967134,0.06152939165853701,0.2987654283806297,0.9517675671776876,0.13686902821064,0.02613743394613266,-0.9902442693710327,0,0,0,-1,-1,4964.680790625001,unknown,2,2022-06-30T09:51:26.741+02:00,2022-06-30T08:20:05.567+02:00,1418,1.388076,0,0,1121.329,0,0,2022-06-30T09:50:28.075+02:00
2022-06-30T09:51:34.022+02:00,4971.958778625,0.1479644775390625,-0.0086212158203125,-0.972930908203125,4971.948826625,0.6112607233586901,0.1369782550291346,-0.02562873524366235,-0.05015436187386513,-0.07468400150537491,0.1029022932052612,0.01299972832202911,-0.02960846945643425,0.01685804128646851,XArbitraryZVertical,-0.03278172527900367,0.0614121301460335,0.2993279932086962,0.9516074661440312,0.1365054547786713,0.02562592923641205,-0.9903078079223633,0,0,0,-1,-1,4964.680790625001,unknown,2,2022-06-30T09:51:26.741+02:00,2022-06-30T08:20:05.567+02:00,1418,1.388076,0,0,1121.329,0,0,2022-06-30T09:50:28.075+02:00
2022-06-30T09:51:34.032+02:00,4971.968729625,0.1464080810546875,-0.0057220458984375,-0.9749298095703125,4971.958778625,0.6123331024491097,0.1369018977742943,-0.02554831840193268,-0.0705973207950592,-0.07130604982376099,0.09890462458133698,0.01212902367115021,-0.03543322905898094,0.01424598693847656,XArbitraryZVertical,-0.0327649657975309,0.06137034183873912,0.2998422184830168,0.9514488503983968,0.1364301294088364,0.02554553933441639,-0.9903202652931213,0,0,0,-1,-1,4964.680790625001,unknown,2,2022-06-30T09:51:26.741+02:00,2022-06-30T08:20:05.567+02:00,1418,1.388076,0,0,1121.329,0,0,2022-06-30T09:50:28.075+02:00
2022-06-30T09:51:34.042+02:00,4971.978681625001,0.144012451171875,0.0048065185546875,-0.9792633056640625,4971.968729625,0.6134402801093117,0.1369086927946534,-0.02579918817535084,-0.08574084937572479,-0.06238639354705811,0.09826746582984924,0.01117712259292603,-0.0324796736240387,0.01886212825775146,XArbitraryZVertical,-0.03291921315939807,0.06131754018472253,0.3003601100835476,0.9512835593211854,0.1364359706640244,0.02579632587730885,-0.9903129935264587,0,0,0,-1,-1,4964.680790625001,unknown,2,2022-06-30T09:51:26.741+02:00,2022-06-30T08:20:05.567+02:00,1418,1.388076,0,0,1121.329,0,0,2022-06-30T09:50:28.075+02:00
2022-06-30T09:51:34.052+02:00,4971.988632625001,0.142059326171875,0.0144195556640625,-0.986572265625,4971.978681625001,0.6145261799039551,0.1369164831048056,-0.02610321625280193,-0.08856246620416641,-0.06051152944564819,0.09439203143119812,0.008744344115257263,-0.02639016136527061,0.01307016611099243,XArbitraryZVertical,-0.03309817483825081,0.06125736867309479,0.3008659314253901,0.9511213664706667,0.1364426165819168,0.02610025182366371,-0.9903041124343872,0,0,0,-1,-1,4964.680790625001,unknown,2,2022-06-30T09:51:26.741+02:00,2022-06-30T08:20:05.567+02:00,1418,1.388076,0,0,1121.329,0,0,2022-06-30T09:50:28.075+02:00
2022-06-30T09:51:34.062+02:00,4971.998584625,0.137603759765625,0.0226898193359375,-0.9879302978515625,4971.988632625001,0.6155459412252966,0.1368923221284741,-0.02637244260467628,-0.07658916711807251,-0.05326901376247406,0.08839152753353119,0.007380679249763489,-0.0171378068625927,0.007054507732391357,XArbitraryZVertical,-0.03325370534032146,0.06118820195032647,0.3013419493898345,0.9509696610292564,0.1364177167415619,0.02636938542127609,-0.9903004169464111,0,0,0,-1,-1,4964.680790625001,unknown,2,2022-06-30T09:51:26.741+02:00,2022-06-30T08:20:05.567+02:00,1418,1.388076,0,0,1121.329,0,0,2022-06-30T09:50:28.075+02:00
2022-06-30T09:51:34.072+02:00,4972.008535625,0.1385650634765625,0.0372772216796875,-0.98846435546875,4971.998584625,0.6164951739673969,0.1368439356978182,-0.0266068676378141,-0.05325881019234657,-0.04968732967972755,0.08434538543224335,0.003080695867538452,-0.009284995496273041,0.003041863441467285,XArbitraryZVertical,-0.03338682501244072,0.06111383246509897,0.3017859585511848,0.950828979217285,0.1363689601421356,0.02660372853279114,-0.9903008341789246,0,0,0,-1,-1,4964.680790625001,unknown,2,2022-06-30T09:51:26.741+02:00,2022-06-30T08:20:05.567+02:00,1418,1.388076,0,0,1121.329,0,0,2022-06-30T09:50:28.075+02:00
2022-06-30T09:51:34.082+02:00,4972.018487625,0.1344146728515625,0.035247802734375,-0.99139404296875,4972.008535625,0.6174345946095094,0.1367947092263584,-0.02655136021385712,-0.03209906071424484,-0.05042778700590134,0.09345892816781998,0.001664400100708008,0.003938827663660049,0.003385722637176514,XArbitraryZVertical,-0.03338172455308759,0.06108318395622894,0.3022353023589301,0.9506882979337716,0.1363204121589661,0.02654824033379555,-0.9903090000152588,0,0,0,-1,-1,4964.680790625001,unknown,2,2022-06-30T09:51:26.741+02:00,2022-06-30T08:20:05.567+02:00,1418,1.388076,0,0,1121.329,0,0,2022-06-30T09:50:28.075+02:00
2022-06-30T09:51:34.092+02:00,4972.028438625,0.1303863525390625,0.0257568359375,-0.99615478515625,4972.018487625,0.6184184773473358,0.1367517917718622,-0.02597393289811585,-0.01272989250719547,-0.04107529670000076,0.09582621604204178,0.0001636743545532227,0.01191657222807407,0.002231717109680176,XArbitraryZVertical,-0.0331309962917771,0.06113424728214575,0.3027235987830312,0.9505384414453183,0.136279970407486,0.02597101218998432,-0.9903298616409302,0,0,0,-1,-1,4964.680790625001,unknown,2,2022-06-30T09:51:26.741+02:00,2022-06-30T08:20:05.567+02:00,1418,1.388076,0,0,1121.329,0,0,2022-06-30T09:50:28.075+02:00
2022-06-30T09:51:34.102+02:00,4972.038390625,0.1247406005859375,0.016326904296875,-0.9947967529296875,4972.028438625,0.6193239957118096,0.1368981591752873,-0.02498984433252113,-0.008346861228346825,-0.03601495176553726,0.08300828188657761,-0.004180863499641418,0.005133612081408501,-0.002722501754760742,XArbitraryZVertical,-0.03271348247866716,0.06133878321479177,0.3031854601994224,0.9503925162060167,0.1364283412694931,0.02498724311590195,-0.9903347492218018,0,0,0,-1,-1,4964.680790625001,unknown,2,2022-06-30T09:51:26.741+02:00,2022-06-30T08:20:05.567+02:00,1418,1.388076,0,0,1121.329,0,0,2022-06-30T09:50:28.075+02:00
2022-06-30T09:51:34.112+02:00,4972.048341625,0.1173858642578125,0.00616455078125,-0.9941558837890625,4972.038390625,0.6201890859839319,0.1370832316626283,-0.02390578149230298,-0.03474091738462448,-0.02561557479202747,0.0835568979382515,-0.008930131793022156,-0.001976616680622101,-0.005376577377319336,XArbitraryZVertical,-0.0322533105918813,0.06157798985210704,0.3036308405346534,0.9502506424223927,0.1366152465343475,0.0239035040140152,-0.9903357625007629,0,0,0,-1,-1,4964.680790625001,unknown,2,2022-06-30T09:51:26.741+02:00,2022-06-30T08:20:05.567+02:00,1418,1.388076,0,0,1121.329,0,0,2022-06-30T09:50:28.075+02:00
2022-06-30T09:51:34.122+02:00,4972.058293625,0.112396240234375,0.007568359375,-0.98992919921875,4972.048341625,0.6211213861318656,0.1373682300675365,-0.02334916922647079,-0.08228187263011932,-0.01101415231823921,0.08984771370887756,-0.01620270311832428,-0.0123759713023901,-0.003846108913421631,XArbitraryZVertical,-0.03206106127809722,0.06178339413417001,0.3040883514980347,0.9500975046105197,0.1368992924690247,0.0233470480889082,-0.9903097748756409,0,0,0,-1,-1,4964.680790625001,unknown,2,2022-06-30T09:51:26.741+02:00,2022-06-30T08:20:05.567+02:00,1418,1.388076,0,0,1121.329,0,0,2022-06-30T09:50:28.075+02:00
2022-06-30T09:51:34.132+02:00,4972.068244625,0.111053466796875,0.013153076171875,-0.986236572265625,4972.058293625,0.6221358933295927,0.1376958542274271,-0.023434625520339,-0.1156038790941238,0.006352588068693876,0.08615710586309433,-0.02223365008831024,-0.01961777359247208,-0.0005208253860473633,XArbitraryZVertical,-0.03218285820370901,0.06190965647462159,0.3045620461614401,0.9499334011996891,0.1372234523296356,0.02343248017132282,-0.9902629256248474,0,0,0,-1,-1,4964.680790625001,unknown,2,2022-06-30T09:51:26.741+02:00,2022-06-30T08:20:05.567+02:00,1418,1.388076,0,0,1121.329,0,0,2022-06-30T09:50:28.075+02:00
2022-06-30T09:51:34.142+02:00,4972.078196625001,0.1077423095703125,0.016845703125,-0.98162841796875,4972.068244625,0.6231522871677366,0.1380419127773888,-0.02413020040676557,-0.1382840871810913,0.01008056476712227,0.08202411234378815,-0.02677021920681,-0.01428592577576637,0.0007885098457336426,XArbitraryZVertical,-0.03259724054415967,0.06195100423759371,0.3050150875589368,0.9497712030767274,0.1375638544559479,0.02412785962224007,-0.9901989698410034,0,0,0,-1,-1,4964.680790625001,unknown,2,2022-06-30T09:51:26.741+02:00,2022-06-30T08:20:05.567+02:00,1418,1.388076,0,0,1121.329,0,0,2022-06-30T09:50:28.075+02:00
2022-06-30T09:51:34.152+02:00,4972.088147625001,0.1014862060546875,0.014739990234375,-0.9772491455078125,4972.078196625001,0.6240740807778102,0.1382175675259664,-0.02519145166565858,-0.1457302868366241,0.01063237152993679,0.06376894563436508,-0.02791710197925568,-0.00967058539390564,0.008154213428497314,XArbitraryZVertical,-0.03315623371918694,0.06185644563387058,0.3054130520872479,0.9496301590449617,0.1377341896295547,0.02518878690898418,-0.9901489019393921,0,0,0,-1,-1,4964.680790625001,unknown,2,2022-06-30T09:51:26.741+02:00,2022-06-30T08:20:05.567+02:00,1418,1.388076,0,0,1121.329,0,0,2022-06-30T09:50:28.075+02:00
2022-06-30T09:51:34.162+02:00,4972.098099625,0.1011505126953125,0.0067291259765625,-0.969451904296875,4972.088147625001,0.6248085145278275,0.138415674278356,-0.02668124367532849,-0.1436582803726196,0.01909976080060005,0.04398335143923759,-0.03260926902294159,-0.01000021025538445,0.01098781824111938,XArbitraryZVertical,-0.03391611473225247,0.06170930991179443,0.3057064968693842,0.9495184299793181,0.1379250138998032,0.02667807787656784,-0.9900833368301392,0,0,0,-1,-1,4964.680790625001,unknown,2,2022-06-30T09:51:26.741+02:00,2022-06-30T08:20:05.567+02:00,1418,1.388076,0,0,1121.329,0,0,2022-06-30T09:50:28.075+02:00
2022-06-30T09:51:34.171+02:00,4972.108050625,0.103912353515625,-0.006195068359375,-0.9582061767578125,4972.098099625,0.6253626074731516,0.1385500240407104,-0.02842914447797348,-0.1601706743240356,0.004966097883880138,0.0246682446449995,-0.03665716946125031,-0.0155011061578989,0.01745235919952393,XArbitraryZVertical,-0.0347830040400245,0.06149472742335044,0.305906001667147,0.9494367917922485,0.138051375746727,0.0284253153949976,-0.9900170564651489,0,0,0,-1,-1,4964.680790625001,unknown,2,2022-06-30T09:51:26.741+02:00,2022-06-30T08:20:05.567+02:00,1418,1.388076,0,0,1121.329,0,0,2022-06-30T09:50:28.075+02:00
2022-06-30T09:51:34.181+02:00,4972.118002625,0.08319091796875,-0.0146484375,-0.93017578125,4972.108050625,0.6256843445293118,0.1383141551531832,-0.03016036449408243,-0.1928134560585022,-0.0116305286064744,-0.006617840379476547,-0.03394471108913422,-0.03094923496246338,0.02311092615127563,XArbitraryZVertical,-0.03557806818828949,0.06111059228160722,0.3060020281467384,0.9494012175268068,0.1378108561038971,0.03015579283237457,-0.9899994134902954,0,0,0,-1,-1,4964.680790625001,unknown,2,2022-06-30T09:51:26.741+02:00,2022-06-30T08:20:05.567+02:00,1418,1.388076,0,0,1121.329,0,0,2022-06-30T09:50:28.075+02:00
2022-06-30T09:51:34.191+02:00,4972.127953625,0.07598876953125,-0.0255126953125,-0.9062042236328125,4972.118002625,0.6257399778239888,0.1379609939493194,-0.03197065131798971,-0.2143962383270264,-0.008710372261703014,-0.03791238367557526,-0.04226958751678467,-0.04249375313520432,0.04713642597198486,XArbitraryZVertical,-0.03638448592509337,0.06066313953083411,0.3059710625196822,0.9494092610519497,0.1374534964561462,0.03196520358324051,-0.9899923205375671,0,0,0,-1,-1,4964.680790625001,unknown,2,2022-06-30T09:51:26.741+02:00,2022-06-30T08:20:05.567+02:00,1418,1.388076,0,0,1121.329,0,0,2022-06-30T09:50:28.075+02:00
2022-06-30T09:51:34.201+02:00,4972.137905625001,0.0673370361328125,-0.0422210693359375,-0.8891754150390625,4972.127953625,0.62551006101412,0.1376097972926117,-0.03381468252880022,-0.2340462952852249,0.0052024289034307,-0.07133029401302338,-0.05834729969501495,-0.05393456667661667,0.07135552167892456,XArbitraryZVertical,-0.0371985813598338,0.06021663378699998,0.3058033595191099,0.9494600869315175,0.1370974779129028,0.03380823880434036,-0.9899804592132568,0,0,0,-1,-1,4964.680790625001,unknown,2,2022-06-30T09:51:26.741+02:00,2022-06-30T08:20:05.567+02:00,1418,1.388076,0,0,1121.329,0,0,2022-06-30T09:50:28.075+02:00
2022-06-30T09:51:34.211+02:00,4972.147856625001,0.0681610107421875,-0.0560302734375,-0.872528076171875,4972.137905625001,0.6249450223688267,0.1374464481568565,-0.03594631338719635,-0.2580246031284332,0.01914807222783566,-0.1073838993906975,-0.06630833446979523,-0.0683634877204895,0.09394830465316772,XArbitraryZVertical,-0.03816787462400753,0.05982154898296817,0.3054627984505537,0.9495562545519073,0.1369255781173706,0.0359385721385479,-0.98992919921875,0,0,0,-1,-1,4964.680790625001,unknown,2,2022-06-30T09:51:26.741+02:00,2022-06-30T08:20:05.567+02:00,1418,1.388076,0,0,1121.329,0,0,2022-06-30T09:50:28.075+02:00
2022-06-30T09:51:34.221+02:00,4972.157808625,0.0638427734375,-0.0559234619140625,-0.8610076904296875,4972.147856625001,0.6240997488612322,0.1374849219631235,-0.03873645886222508,-0.3253961801528931,0.04372701421380043,-0.1407140344381332,-0.06839209794998169,-0.08882136642932892,0.1078932285308838,XArbitraryZVertical,-0.03947224277035856,0.05942702695910055,0.304961569332374,0.9496887648533693,0.1369493901729584,0.03872677311301231,-0.9898207187652588,0,0,0,-1,-1,4964.680790625001,unknown,2,2022-06-30T09:51:26.741+02:00,2022-06-30T08:20:05.567+02:00,1418,1.388076,0,0,1121.329,0,0,2022-06-30T09:50:28.075+02:00
2022-06-30T09:51:34.231+02:00,4972.167759625,0.0678558349609375,-0.0579986572265625,-0.8498382568359375,4972.157808625,0.6230420567923949,0.1378601897256967,-0.04252776189942732,-0.434824138879776,0.06805232912302017,-0.1798417270183563,-0.07202300429344177,-0.09988798201084137,0.1257708668708801,XArbitraryZVertical,-0.04129686888303256,0.05904405736290671,0.3043158265355062,0.9498423010950964,0.1372996717691422,0.04251494258642197,-0.9896167516708374,0,0,0,-1,-1,4964.680790625001,unknown,2,2022-06-30T09:51:26.741+02:00,2022-06-30T08:20:05.567+02:00,1418,1.388076,0,0,1121.329,0,0,2022-06-30T09:50:28.075+02:00
2022-06-30T09:51:34.241+02:00,4972.177711625,0.0689239501953125,-0.063018798828125,-0.8112335205078125,4972.167759625,0.6216643094967852,0.1384738434996751,-0.04756035545435226,-0.5525978207588196,0.09533539414405823,-0.2362621873617172,-0.07259897887706757,-0.1026724204421043,0.1316875815391541,XArbitraryZVertical,-0.04373752704946722,0.05859268649395363,0.3034657849562567,0.9500328908981518,0.1378756463527679,0.04754242673516273,-0.9893078804016113,0,0,0,-1,-1,4964.680790625001,unknown,2,2022-06-30T09:51:26.741+02:00,2022-06-30T08:20:05.567+02:00,1418,1.388076,0,0,1121.329,0,0,2022-06-30T09:50:28.075+02:00
2022-06-30T09:51:34.251+02:00,4972.187662625,0.08837890625,-0.0616455078125,-0.7703399658203125,4972.177711625,0.6197516400185501,0.139346018988719,-0.05376720627056102,-0.6507571339607239,0.1190865263342857,-0.3179376125335693,-0.07056473195552826,-0.1144254952669144,0.1558223366737366,XArbitraryZVertical,-0.04675923777210671,0.05809993409087008,0.3023084151856044,0.9502881804338537,0.1386947780847549,0.05374130234122276,-0.9888759255409241,0,0,0,-1,-1,4964.680790625001,unknown,2,2022-06-30T09:51:26.741+02:00,2022-06-30T08:20:05.567+02:00,1418,1.388076,0,0,1121.329,0,0,2022-06-30T09:50:28.075+02:00
2022-06-30T09:51:34.261+02:00,4972.197614625,0.10845947265625,-0.085906982421875,-0.7403717041015625,4972.187662625,0.6172716756710305,0.1403998386238172,-0.06128482995332797,-0.7771419286727905,0.1202900782227516,-0.3831198215484619,-0.06286400556564331,-0.1238532736897469,0.1993760466575623,XArbitraryZVertical,-0.05041441374879364,0.05751305905236161,0.3008213355847015,0.95060894230349,0.1396763175725937,0.06124647334218025,-0.9883012771606445,0,0,0,-1,-1,4964.680790625001,unknown,2,2022-06-30T09:51:26.741+02:00,2022-06-30T08:20:05.567+02:00,1418,1.388076,0,0,1121.329,0,0,2022-06-30T09:50:28.075+02:00
2022-06-30T09:51:34.271+02:00,4972.207565625,0.12664794921875,-0.119354248046875,-0.71112060546875,4972.197614625,0.6142618528141098,0.1413963923274796,-0.07022544984548743,-0.9209310412406921,0.1216647997498512,-0.4715149402618408,-0.04115250706672668,-0.1405412703752518,0.2327429056167603,XArbitraryZVertical,-0.05472202202099823,0.0567054741958237,0.2990201633387079,0.950987369851903,0.1405783593654633,0.07016774266958237,-0.9875800013542175,0,0,0,-1,-1,4964.680790625001,unknown,2,2022-06-30T09:51:26.741+02:00,2022-06-30T08:20:05.567+02:00,1418,1.388076,0,0,1121.329,0,0,2022-06-30T09:50:28.075+02:00
2022-06-30T09:51:34.281+02:00,4972.217517625,0.137451171875,-0.143218994140625,-0.681304931640625,4972.207565625,0.6104630538652285,0.1423903266242373,-0.08101358522713661,-1.11119544506073,0.1381096690893173,-0.5847816467285156,-0.02355524897575378,-0.1815261840820312,0.2624965906143188,XArbitraryZVertical,-0.05988558882563302,0.05565263176026947,0.2967593117340805,0.9514465154231747,0.1414442211389542,0.08092499524354935,-0.9866330027580261,0,0,0,-1,-1,4964.680790625001,unknown,2,2022-06-30T09:51:26.741+02:00,2022-06-30T08:20:05.567+02:00,1418,1.388076,0,0,1121.329,0,0,2022-06-30T09:50:28.075+02:00
2022-06-30T09:51:34.291+02:00,4972.227468625,0.169921875,-0.1193389892578125,-0.637969970703125,4972.217517625,0.6059779925644311,0.1434783038266383,-0.09384075345950091,-1.313830852508545,0.1547576189041138,-0.6621451377868652,-0.01065924763679504,-0.2329242676496506,0.2843201756477356,XArbitraryZVertical,-0.06601475821591556,0.05437864170434146,0.2940706133720375,0.9519493081537505,0.1423574239015579,0.09370308369398117,-0.9853700399398804,0,0,0,-1,-1,4964.680790625001,unknown,2,2022-06-30T09:51:26.741+02:00,2022-06-30T08:20:05.567+02:00,1418,1.388076,0,0,1121.329,0,0,2022-06-30T09:50:28.075+02:00
2022-06-30T09:51:34.301+02:00,4972.237420625001,0.1952362060546875,-0.122711181640625,-0.6187896728515625,4972.227468625,0.6012975790321281,0.1443987384932646,-0.1089662661463067,-1.560690522193909,0.1252922713756561,-0.6990848183631897,0.009375616908073425,-0.2412275522947311,0.3257796168327332,XArbitraryZVertical,-0.07320886356624208,0.05271406174365559,0.2911780715281332,0.9524059464019823,0.1430440098047256,0.1087507531046867,-0.9837234020233154,0,0,0,-1,-1,4964.680790625001,unknown,2,2022-06-30T09:51:26.741+02:00,2022-06-30T08:20:05.567+02:00,1418,1.388076,0,0,1121.329,0,0,2022-06-30T09:50:28.075+02:00
2022-06-30T09:51:34.311+02:00,4972.247371625001,0.2227325439453125,-0.1511077880859375,-0.5822601318359375,4972.237420625001,0.5964278707852276,0.144885271333173,-0.1266164981860245,-1.814501285552979,0.08958514779806137,-0.7840008139610291,0.04117891192436218,-0.2427182793617249,0.3556092977523804,XArbitraryZVertical,-0.08153838039005618,0.05050643402582379,0.2880787382760229,0.9527912766908451,0.1432231217622757,0.1262784600257874,-0.9816011786460876,0,0,0,-1,-1,4964.680790625001,unknown,2,2022-06-30T09:51:26.741+02:00,2022-06-30T08:20:05.567+02:00,1418,1.388076,0,0,1121.329,0,0,2022-06-30T09:50:28.075+02:00
2022-06-30T09:51:34.321+02:00,4972.257323625,0.2454833984375,-0.1714324951171875,-0.5506134033203125,4972.247371625001,0.5907501965232628,0.1447788749512705,-0.1471643274767338,-2.113157510757446,0.0425332747399807,-0.9354518055915833,0.06526271998882294,-0.2803922295570374,0.3762263655662537,XArbitraryZVertical,-0.09114493867040585,0.04766246178228985,0.2844638566684514,0.9531533092436909,0.1427141427993774,0.1466336995363235,-0.9788417816162109,0,0,0,-1,-1,4964.680790625001,unknown,2,2022-06-30T09:51:26.741+02:00,2022-06-30T08:20:05.567+02:00,1418,1.388076,0,0,1121.329,0,0,2022-06-30T09:50:28.075+02:00
2022-06-30T09:51:34.331+02:00,4972.267274625,0.25201416015625,-0.16741943359375,-0.538177490234375,4972.257323625,0.5840160592309168,0.1438391837426539,-0.1711869169299919,-2.475739240646362,-0.0142477136105299,-1.071510076522827,0.0950791984796524,-0.3357725739479065,0.4088008999824524,XArbitraryZVertical,-0.1022687393880014,0.04401719476087734,0.2801975011054368,0.9534636585473037,0.1412484794855118,0.170352041721344,-0.9752072095870972,0,0,0,-1,-1,4964.680790625001,unknown,2,2022-06-30T09:51:26.741+02:00,2022-06-30T08:20:05.567+02:00,1418,1.388076,0,0,1121.329,0,0,2022-06-30T09:50:28.075+02:00
2022-06-30T09:51:34.341+02:00,4972.277226625,0.2476348876953125,-0.13348388671875,-0.5261688232421875,4972.267274625,0.5766371566530896,0.1420635982805547,-0.1990630907691431,-2.86083459854126,-0.0639745220541954,-1.167711734771729,0.1116213500499725,-0.3702363669872284,0.4294530153274536,XArbitraryZVertical,-0.1151058792394144,0.03952292803638659,0.2754586788436711,0.9535780398114282,0.1387902200222015,0.1977510154247284,-0.9703771471977234,0,0,0,-1,-1,4964.680790625001,unknown,2,2022-06-30T09:51:26.741+02:00,2022-06-30T08:20:05.567+02:00,1418,1.388076,0,0,1121.329,0,0,2022-06-30T09:50:28.075+02:00
2022-06-30T09:51:34.351+02:00,4972.287177625,0.2501373291015625,-0.079071044921875,-0.5176239013671875,4972.277226625,0.5688115155086879,0.1394818926374709,-0.2308117287753533,-3.22317361831665,-0.1141740456223488,-1.248131155967712,0.1142597198486328,-0.3823322653770447,0.4292824268341064,XArbitraryZVertical,-0.1296779396153613,0.03420916436897851,0.270341338779553,0.9533776704530593,0.1353431195020676,0.2287677973508835,-0.9640267491340637,0,0,0,-1,-1,4964.680790625001,unknown,2,2022-06-30T09:51:26.741+02:00,2022-06-30T08:20:05.567+02:00,1418,1.388076,0,0,1121.329,0,0,2022-06-30T09:50:28.075+02:00
2022-06-30T09:51:34.361+02:00,4972.297129625001,0.252777099609375,-0.02392578125,-0.52825927734375,4972.287177625,0.5605520967238145,0.1359264964914144,-0.2655887252954424,-3.459989309310913,-0.1972082108259201,-1.306392550468445,0.1167705059051514,-0.3704333305358887,0.4354535937309265,XArbitraryZVertical,-0.1455643357170991,0.02814514245434008,0.2649116775873647,0.9528067075509438,0.1307571530342102,0.2624773979187012,-0.9560377597808838,0,0,0,-1,-1,4964.680790625001,unknown,2,2022-06-30T09:51:26.741+02:00,2022-06-30T08:20:05.567+02:00,1418,1.388076,0,0,1121.329,0,0,2022-06-30T09:50:28.075+02:00
2022-06-30T09:51:34.371+02:00,4972.307080625001,0.2480316162109375,0.0189361572265625,-0.57293701171875,4972.297129625001,0.5515764328650729,0.1308232666945804,-0.3020440712499952,-3.554185152053833,-0.3284983336925507,-1.388310313224792,0.1289335936307907,-0.3468955755233765,0.4266440868377686,XArbitraryZVertical,-0.1620503440142588,0.02129866892518144,0.2591678438938401,0.951902403727841,0.1245449855923653,0.297472357749939,-0.9465721249580383,0,0,0,-1,-1,4964.680790625001,unknown,2,2022-06-30T09:51:26.741+02:00,2022-06-30T08:20:05.567+02:00,1418,1.388076,0,0,1121.329,0,0,2022-06-30T09:50:28.075+02:00
2022-06-30T09:51:34.380+02:00,4972.317032625,0.2362213134765625,0.0228729248046875,-0.662109375,4972.307080625001,0.5413903413150968,0.1236097384753149,-0.339106497400821,-3.585002660751343,-0.4733769595623016,-1.484896302223206,0.132123589515686,-0.3321258127689362,0.3918198943138123,XArbitraryZVertical,-0.1785662228510573,0.01362720779340705,0.2530207509450036,0.9507412226869747,0.1162738129496574,0.3326446115970612,-0.935856819152832,0,0,0,-1,-1,4964.680790625001,unknown,2,2022-06-30T09:51:26.741+02:00,2022-06-30T08:20:05.567+02:00,1418,1.388076,0,0,1121.329,0,0,2022-06-30T09:50:28.075+02:00
2022-06-30T09:51:34.395+02:00,4972.326983625,0.1667327880859375,0.0201263427734375,-0.7187347412109375,4972.317032625,0.5296322078424398,0.1142822999811009,-0.3762368317513969,-3.543477296829224,-0.5604699850082397,-1.608471274375916,0.1407072097063065,-0.3395453691482544,0.3082185983657837,XArbitraryZVertical,-0.1948809891552029,0.005280024464917979,0.24638673982324,0.9493614221771342,0.1060574874281883,0.3674231171607971,-0.9239870309829712,0,0,0,-1,-1,4964.680790625001,unknown,2,2022-06-30T09:51:26.741+02:00,2022-06-30T08:20:05.567+02:00,1418,1.388076,0,0,1121.329,0,0,2022-06-30T09:50:28.075+02:00
2022-06-30T09:51:34.406+02:00,4972.336935625,0.1206817626953125,0.031982421875,-0.730865478515625,4972.326983625,0.5153268626739183,0.1030205694341697,-0.4122303121011548,-3.32817554473877,-0.5950519442558289,-1.825105786323547,0.1122121140360832,-0.3826942145824432,0.2125649452209473,XArbitraryZVertical,-0.2104825842573536,-0.003348399030483051,0.2389077467194373,0.9479498862858082,0.09422361105680466,0.4006538093090057,-0.9113717675209045,0,0,0,-1,-1,4964.680790625001,unknown,2,2022-06-30T09:51:26.741+02:00,2022-06-30T08:20:05.567+02:00,1418,1.388076,0,0,1121.329,0,0,2022-06-30T09:50:28.075+02:00
2022-06-30T09:51:34.410+02:00,4972.346886625,0.098480224609375,0.0507965087890625,-0.7852630615234375,4972.336935625,0.4973167825408863,0.08913002395571173,-0.4451156966411657,-2.913985729217529,-0.7031725645065308,-2.087981939315796,0.05595226585865021,-0.4045918583869934,0.1777562499046326,XArbitraryZVertical,-0.2244175167650487,-0.01215229235428366,0.2302646914952838,0.9468196263552447,0.08033880591392517,0.4305623173713684,-0.8989781737327576,0,0,0,-1,-1,4964.680790625001,unknown,2,2022-06-30T09:51:26.741+02:00,2022-06-30T08:20:05.567+02:00,1418,1.388076,0,0,1121.329,0,0,2022-06-30T09:50:28.075+02:00
2022-06-30T09:51:34.421+02:00,4972.356838625,0.0615692138671875,0.10498046875,-0.8345184326171875,4972.346886625,0.4752948216522803,0.07145927083324546,-0.4732259849529425,-2.392327308654785,-0.8834871053695679,-2.31488823890686,0.04779098927974701,-0.4162398874759674,0.1331007480621338,XArbitraryZVertical,-0.2358529429328246,-0.02139843235317281,0.2205731411359727,0.9461833828668357,0.06355196982622147,0.45576012134552,-0.8878309726715088,0,0,0,-1,-1,4964.680790625001,unknown,2,2022-06-30T09:51:26.741+02:00,2022-06-30T08:20:05.567+02:00,1418,1.388076,0,0,1121.329,0,0,2022-06-30T09:50:28.075+02:00
2022-06-30T09:51:34.430+02:00,4972.366789625,0.020904541015625,0.1275177001953125,-0.8919219970703125,4972.356838625,0.4498331491849172,0.049920471235789,-0.4959078848652273,-1.881881713867188,-1.051998615264893,-2.477267026901245,0.03603643178939819,-0.3985293507575989,0.06632280349731445,XArbitraryZVertical,-0.2445609244028144,-0.0311330093416775,0.2101659696849377,0.9460713492887508,0.04388867318630219,0.4758303761482239,-0.8784413933753967,0,0,0,-1,-1,4964.680790625001,unknown,2,2022-06-30T09:51:26.741+02:00,2022-06-30T08:20:05.567+02:00,1418,1.388076,0,0,1121.329,0,0,2022-06-30T09:50:28.075+02:00
2022-06-30T09:51:34.440+02:00,4972.376741625,-0.021087646484375,0.1295623779296875,-0.985626220703125,4972.366789625,0.4214914495982731,0.02491042284503883,-0.51280263217693,-1.302747130393982,-1.217113852500916,-2.638968467712402,0.01992151886224747,-0.3689172565937042,0.01145285367965698,XArbitraryZVertical,-0.2504912947582058,-0.04126532875789861,0.1992461596557082,0.9464947517654354,0.02170402370393276,0.4906212985515594,-0.8711025714874268,0,0,0,-1,-1,4964.680790625001,unknown,2,2022-06-30T09:51:26.741+02:00,2022-06-30T08:20:05.567+02:00,1418,1.388076,0,0,1121.329,0,0,2022-06-30T09:50:28.075+02:00
2022-06-30T09:51:34.450+02:00,4972.386692625,-0.0440826416015625,0.1484375,-1.088912963867188,4972.376741625,0.3902552725985711,-0.003552455661812994,-0.5226234111081463,-0.6080767512321472,-1.39832067489624,-2.836553335189819,0.001048393547534943,-0.3719273209571838,-0.06591165065765381,XArbitraryZVertical,-0.2531121549267523,-0.05177481917180243,0.1877593787677244,0.9476286436053641,-0.003078241366893053,0.4991550743579865,-0.8665072321891785,0,0,0,-1,-1,4964.680790625001,unknown,2,2022-06-30T09:51:26.741+02:00,2022-06-30T08:20:05.567+02:00,1418,1.388076,0,0,1121.329,0,0,2022-06-30T09:50:28.075+02:00
2022-06-30T09:51:34.460+02:00,4972.396644625001,-0.0768280029296875,0.10986328125,-1.170257568359375,4972.386692625,0.3567142079022815,-0.03544784897058964,-0.5250831681657663,-0.01286577992141247,-1.645939946174622,-2.982992649078369,-0.00482640415430069,-0.3599733710289001,-0.1755445003509521,XArbitraryZVertical,-0.2523420476073382,-0.06288196453161969,0.1758335112701373,0.9494483017206242,-0.03066597320139408,0.5012849569320679,-0.8647387027740479,0,0,0,-1,-1,4964.680790625001,unknown,2,2022-06-30T09:51:26.741+02:00,2022-06-30T08:20:05.567+02:00,1418,1.388076,0,0,1121.329,0,0,2022-06-30T09:50:28.075+02:00
2022-06-30T09:51:34.471+02:00,4972.406595625001,-0.1681976318359375,0.0544281005859375,-1.197662353515625,4972.396644625001,0.3218754262838617,-0.07060699197825926,-0.5207834830643603,0.5624475479125977,-1.920154213905334,-3.13112211227417,0.006660379469394684,-0.3623366057872772,-0.2621425986289978,XArbitraryZVertical,-0.2485083825718496,-0.07489608367077666,0.1637153108474729,0.9517518700298001,-0.06119571998715401,0.4975599050521851,-0.865268349647522,0,0,0,-1,-1,4964.680790625001,unknown,2,2022-06-30T09:51:26.741+02:00,2022-06-30T08:20:05.567+02:00,1418,1.388076,0,0,1121.329,0,0,2022-06-30T09:50:28.075+02:00
2022-06-30T09:51:34.480+02:00,4972.416547625,-0.2783050537109375,-0.0115509033203125,-1.192001342773438,4972.406595625001,0.2856781623065947,-0.1090404281496955,-0.5096893797549755,1.072505116462708,-2.211312532424927,-3.389575004577637,-0.02225649356842041,-0.4055240154266357,-0.3286076188087463,XArbitraryZVertical,-0.2416501775290552,-0.08802954024285985,0.1511490359681636,0.9544685124000388,-0.09499246627092361,0.4879061281681061,-0.8677119612693787,0,0,0,-1,-1,4964.680790625001,unknown,2,2022-06-30T09:51:26.741+02:00,2022-06-30T08:20:05.567+02:00,1418,1.388076,0,0,1121.329,0,0,2022-06-30T09:50:28.075+02:00
2022-06-30T09:51:34.490+02:00,4972.426498625,-0.39044189453125,-0.0499114990234375,-1.19122314453125,4972.416547625,0.247534539102491,-0.1510803568414237,-0.4932459941068413,1.280789017677307,-2.552193164825439,-3.697355508804321,-0.09230318665504456,-0.4517895579338074,-0.3243924975395203,XArbitraryZVertical,-0.2325374152748551,-0.1026773831754164,0.137657968174406,0.9573055815911167,-0.1325660049915314,0.4734874367713928,-0.8707674145698547,0,0,0,-1,-1,4964.680790625001,unknown,2,2022-06-30T09:51:26.741+02:00,2022-06-30T08:20:05.567+02:00,1418,1.388076,0,0,1121.329,0,0,2022-06-30T09:50:28.075+02:00
2022-06-30T09:51:34.500+02:00,4972.436450625,-0.5747833251953125,0.0426025390625,-1.206802368164062,4972.426498625,0.2075980296052284,-0.1965386893332886,-0.4752480811234424,0.9944111108779907,-2.83147931098938,-3.905063152313232,-0.1571299880743027,-0.4982543587684631,-0.3143250346183777,XArbitraryZVertical,-0.2231176605949867,-0.1191132621280671,0.1231858760868034,0.9596123085939238,-0.1736352145671844,0.4575590491294861,-0.8720610737800598,0,0,0,-1,-1,4964.680790625001,unknown,2,2022-06-30T09:51:26.741+02:00,2022-06-30T08:20:05.567+02:00,1418,1.388076,0,0,1121.329,0,0,2022-06-30T09:50:28.075+02:00
2022-06-30T09:51:34.510+02:00,4972.446401625,-0.8353118896484375,0.308502197265625,-1.257705688476562,4972.436450625,0.1662022761060085,-0.2440355334499362,-0.4600204224532465,0.3354617059230804,-2.939119338989258,-4.000797748565674,-0.2542620897293091,-0.4699064791202545,-0.3314180374145508,XArbitraryZVertical,-0.2156745156729279,-0.1368842867823194,0.1078723917767622,0.960786522103377,-0.2165025025606155,0.443966418504715,-0.8694943785667419,0,0,0,-1,-1,4964.680790625001,unknown,2,2022-06-30T09:51:26.741+02:00,2022-06-30T08:20:05.567+02:00,1418,1.388076,0,0,1121.329,0,0,2022-06-30T09:50:28.075+02:00
2022-06-30T09:51:34.520+02:00,4972.456353625001,-1.153823852539062,0.7545013427734375,-1.473388671875,4972.446401625,0.1231057301775608,-0.291874560418075,-0.4502555803658195,-0.5002704858779907,-2.833273410797119,-3.997348308563232,-0.4408512115478516,-0.2781370878219604,-0.3529984354972839,XArbitraryZVertical,-0.2117201021132816,-0.1550676321903999,0.09172505767228344,0.9605806851375717,-0.2590698599815369,0.435195654630661,-0.8622572422027588,0,0,0,-1,-1,4964.680790625001,unknown,2,2022-06-30T09:51:26.741+02:00,2022-06-30T08:20:05.567+02:00,1418,1.388076,0,0,1121.329,0,0,2022-06-30T09:50:28.075+02:00
2022-06-30T09:51:34.530+02:00,4972.466304625001,-1.421478271484375,1.294677734375,-1.545333862304688,4972.456353625001,0.07942588074557089,-0.3375570835308128,-0.4462975244444636,-1.165097713470459,-2.528103351593018,-3.720426559448242,-0.6911702156066895,0.07261309027671814,-0.5078479647636414,XArbitraryZVertical,-0.2114810381607619,-0.1723456254771106,0.07531246779298482,0.9591146606184453,-0.2987441122531891,0.4316286742687225,-0.8511455059051514,0,0,0,-1,-1,4964.680790625001,unknown,2,2022-06-30T09:51:26.741+02:00,2022-06-30T08:20:05.567+02:00,1418,1.388076,0,0,1121.329,0,0,2022-06-30T09:50:28.075+02:00
2022-06-30T09:51:34.540+02:00,4972.476256625,-1.58526611328125,1.663497924804688,-1.478347778320312,4972.466304625001,0.0383943349928479,-0.3785449817813119,-0.4473295263242008,-1.570476293563843,-2.146797180175781,-3.151272058486938,-0.9675916433334351,0.6011928915977478,-0.6932462453842163,XArbitraryZVertical,-0.2142816528480979,-0.1876058738619562,0.0601071647883367,0.956699852561727,-0.3332053124904633,0.4325593709945679,-0.8377748131752014,0,0,0,-1,-1,4964.680790625001,unknown,2,2022-06-30T09:51:26.741+02:00,2022-06-30T08:20:05.567+02:00,1418,1.388076,0,0,1121.329,0,0,2022-06-30T09:50:28.075+02:00
2022-06-30T09:51:34.549+02:00,4972.486207625,-1.615142822265625,1.895416259765625,-1.227645874023438,4972.476256625,0.003268031791748836,-0.4130808243910184,-0.4500672480636245,-1.284873843193054,-1.707475662231445,-2.492050647735596,-1.157708048820496,1.074510455131531,-0.7155855894088745,XArbitraryZVertical,-0.2180696544158295,-0.2002610316797924,0.04731917647597968,0.9539926895551891,-0.3614573776721954,0.435026079416275,-0.8246822953224182,0,0,0,-1,-1,4964.680790625001,unknown,2,2022-06-30T09:51:26.741+02:00,2022-06-30T08:20:05.567+02:00,1418,1.388076,0,0,1121.329,0,0,2022-06-30T09:50:28.075+02:00
2022-06-30T09:51:34.560+02:00,4972.496159625,-1.531295776367188,2.150390625,-0.933258056640625,4972.486207625,-0.02192508473332301,-0.4378981205443979,-0.4495880632153854,-0.5084625482559204,-1.032829403877258,-1.667768239974976,-1.234190464019775,1.341299295425415,-0.5474657416343689,XArbitraryZVertical,-0.2198920564359062,-0.2093410928649175,0.0379816593873292,0.9520405887984001,-0.3818987011909485,0.4345945715904236,-0.8156476020812988,0,0,0,-1,-1,4964.680790625001,unknown,2,2022-06-30T09:51:26.741+02:00,2022-06-30T08:20:05.567+02:00,1418,1.388076,0,0,1121.329,0,0,2022-06-30T09:50:28.075+02:00
2022-06-30T09:51:34.570+02:00,4972.506110625,-1.3187255859375,2.055572509765625,-0.760711669921875,4972.496159625,-0.03540808351960453,-0.4500094566253188,-0.4476923367138142,-0.3156166672706604,-0.2163482010364532,-0.7082316279411316,-1.195494413375854,1.604665279388428,-0.2738224864006042,XArbitraryZVertical,-0.2202032864446036,-0.2136797425274655,0.03269240101585691,0.9512007022558251,-0.392106682062149,0.4328864514827728,-0.8117029666900635,0,0,0,-1,-1,4964.680790625001,unknown,2,2022-06-30T09:51:26.741+02:00,2022-06-30T08:20:05.567+02:00,1418,1.388076,0,0,1121.329,0,0,2022-06-30T09:50:28.075+02:00
2022-06-30T09:51:34.580+02:00,4972.516062625,-1.0238037109375,1.7904052734375,-0.78533935546875,4972.506110625,-0.04115839582126079,-0.4511415664771132,-0.4508832083220007,-0.7408507466316223,0.4712783396244049,0.01941312663257122,-1.049626350402832,1.722930550575256,0.001905918121337891,XArbitraryZVertical,-0.2223137317269273,-0.2134735208861683,0.03043733524096883,0.9508308668309163,-0.392421156167984,0.4357606470584869,-0.8100113272666931,0,0,0,-1,-1,4964.680790625001,unknown,2,2022-06-30T09:51:26.741+02:00,2022-06-30T08:20:05.567+02:00,1418,1.388076,0,0,1121.329,0,0,2022-06-30T09:50:28.075+02:00
2022-06-30T09:51:34.590+02:00,4972.526013625,-0.766204833984375,1.627273559570312,-0.77923583984375,4972.516062625,-0.04339449711863453,-0.4451314235762565,-0.4615580544003036,-1.406274795532227,0.9029356837272644,0.534898042678833,-0.788444995880127,1.466384053230286,0.03999847173690796,XArbitraryZVertical,-0.2277034585671951,-0.2099900693156551,0.029878207882928,0.9503487889964495,-0.385520875453949,0.4453436732292175,-0.8081105947494507,0,0,0,-1,-1,4964.680790625001,unknown,2,2022-06-30T09:51:26.741+02:00,2022-06-30T08:20:05.567+02:00,1418,1.388076,0,0,1121.329,0,0,2022-06-30T09:50:28.075+02:00
2022-06-30T09:51:34.599+02:00,4972.535965625,-0.6170806884765625,1.421905517578125,-0.789276123046875,4972.526013625,-0.0447013007908763,-0.4358317446160908,-0.4817228343066799,-2.381268978118896,1.063459873199463,0.9757866263389587,-0.5100800395011902,1.241771221160889,0.01800096035003662,XArbitraryZVertical,-0.2375318954334642,-0.2046968861588448,0.03036781717534387,0.9490814669298685,-0.3741213977336884,0.4633066356182098,-0.8033555746078491,0,0,0,-1,-1,4964.680790625001,unknown,2,2022-06-30T09:51:26.741+02:00,2022-06-30T08:20:05.567+02:00,1418,1.388076,0,0,1121.329,0,0,2022-06-30T09:50:28.075+02:00
2022-06-30T09:51:34.610+02:00,4972.545917625001,-0.5397491455078125,1.220962524414062,-0.8006439208984375,4972.535965625,-0.04622618449471139,-0.4257546890936174,-0.5123210073199137,-3.27462100982666,1.117891430854797,1.338111281394958,-0.3193704783916473,1.044191479682922,0.01186162233352661,XArbitraryZVertical,-0.2523062304164336,-0.1986012983039105,0.03166335525941981,0.9465180642131646,-0.3599817156791687,0.4902015626430511,-0.7937982082366943,0,0,0,-1,-1,4964.680790625001,unknown,2,2022-06-30T09:51:26.741+02:00,2022-06-30T08:20:05.567+02:00,1418,1.388076,0,0,1121.329,0,0,2022-06-30T09:50:28.075+02:00
2022-06-30T09:51:34.619+02:00,4972.555868625001,-0.481964111328125,1.162139892578125,-0.813934326171875,4972.545917625001,-0.04743799834030766,-0.4146773559873616,-0.550754486053553,-3.814607381820679,1.255424857139587,1.613320708274841,-0.2302139103412628,0.7850648760795593,-0.01452475786209106,XArbitraryZVertical,-0.2707097253922988,-0.1917337623455454,0.03362426851095311,0.9427745571516867,-0.3433185815811157,0.5233302712440491,-0.7799088358879089,0,0,0,-1,-1,4964.680790625001,unknown,2,2022-06-30T09:51:26.741+02:00,2022-06-30T08:20:05.567+02:00,1418,1.388076,0,0,1121.329,0,0,2022-06-30T09:50:28.075+02:00
2022-06-30T09:51:34.629+02:00,4972.565819625001,-0.4195709228515625,1.21160888671875,-0.8022308349609375,4972.555868625001,-0.04735661606265734,-0.4010408337805096,-0.5935019037744617,-4.027047157287598,1.492437720298767,1.805604100227356,-0.1874456107616425,0.6133397221565247,-0.04757952690124512,XArbitraryZVertical,-0.290984950633962,-0.1836356189069059,0.03603904943481178,0.9382467587493853,-0.3236173987388611,0.5592674612998962,-0.7632114291191101,0,0,0,-1,-1,4964.680790625001,unknown,2,2022-06-30T09:51:26.741+02:00,2022-06-30T08:20:05.567+02:00,1418,1.388076,0,0,1121.329,0,0,2022-06-30T09:50:28.075+02:00
2022-06-30T09:51:34.639+02:00,4972.575771625,-0.3544769287109375,1.245574951171875,-0.7751617431640625,4972.565819625001,-0.04487571279027103,-0.383506748991698,-0.6376320964050912,-3.983406066894531,1.742041826248169,1.965484499931335,-0.1513744592666626,0.5844690799713135,-0.06612467765808105,XArbitraryZVertical,-0.3116805047646986,-0.1740274834518979,0.03880609065208501,0.9333080221418321,-0.3006522953510284,0.5952944755554199,-0.7451394200325012,0,0,0,-1,-1,4964.680790625001,unknown,2,2022-06-30T09:51:26.741+02:00,2022-06-30T08:20:05.567+02:00,1418,1.388076,0,0,1121.329,0,0,2022-06-30T09:50:28.075+02:00
2022-06-30T09:51:34.649+02:00,4972.585723625,-0.31744384765625,1.21356201171875,-0.7760772705078125,4972.575771625,-0.03859330325354223,-0.3613971581301772,-0.680875338416131,-3.711548566818237,1.92121958732605,2.133130550384521,-0.1115970611572266,0.6070529222488403,-0.05884575843811035,XArbitraryZVertical,-0.3316707963157624,-0.1630332385637937,0.04210428526251338,0.9282466728753364,-0.274740606546402,0.6294734477996826,-0.7268292903900146,0,0,0,-1,-1,4964.680790625001,unknown,2,2022-06-30T09:51:26.741+02:00,2022-06-30T08:20:05.567+02:00,1418,1.388076,0,0,1121.329,0,0,2022-06-30T09:50:28.075+02:00
2022-06-30T09:51:34.659+02:00,4972.595674625,-0.31787109375,1.096664428710938,-0.7234649658203125,4972.585723625,-0.02691283835795589,-0.334395297650826,-0.7208989559814153,-3.214197874069214,1.98735785484314,2.296911954879761,-0.08533254265785217,0.5780835151672363,-0.0701676607131958,XArbitraryZVertical,-0.34984048172086,-0.15103154588396,0.04627434470928357,0.9233958158522202,-0.2465465217828751,0.6600602269172668,-0.7096022367477417,0,0,0,-1,-1,4964.680790625001,unknown,2,2022-06-30T09:51:26.741+02:00,2022-06-30T08:20:05.567+02:00,1418,1.388076,0,0,1121.329,0,0,2022-06-30T09:50:28.075+02:00
2022-06-30T09:51:34.669+02:00,4972.605625625,-0.3404693603515625,0.9322052001953125,-0.6337127685546875,4972.595674625,-0.009168590539152172,-0.3024814187733694,-0.7557694084339323,-2.607515096664429,2.029596328735352,2.404959201812744,-0.09658254683017731,0.4784424304962158,-0.06020867824554443,XArbitraryZVertical,-0.365381683935363,-0.1383613989349457,0.05137576252737146,0.9190826864181899,-0.2167876064777374,0.6858488321304321,-0.6947047114372253,0,0,0,-1,-1,4964.680790625001,unknown,2,2022-06-30T09:51:26.741+02:00,2022-06-30T08:20:05.567+02:00,1418,1.388076,0,0,1121.329,0,0,2022-06-30T09:50:28.075+02:00
2022-06-30T09:51:34.679+02:00,4972.615577625001,-0.3555908203125,0.8030242919921875,-0.472686767578125,4972.605625625,0.01425493759280448,-0.2656711764614407,-0.7846015421439505,-2.019301414489746,2.096982002258301,2.466234922409058,-0.141772449016571,0.3086085915565491,-0.00282663106918335,XArbitraryZVertical,-0.3780654077494425,-0.1250814568764461,0.05716250785511821,0.9155073525335189,-0.1858036518096924,0.7065432667732239,-0.6828423738479614,0,0,0,-1,-1,4964.680790625001,unknown,2,2022-06-30T09:51:26.741+02:00,2022-06-30T08:20:05.567+02:00,1418,1.388076,0,0,1121.329,0,0,2022-06-30T09:50:28.075+02:00
2022-06-30T09:51:34.689+02:00,4972.625529625,-0.341461181640625,0.7303009033203125,-0.3121795654296875,4972.615577625001,0.04228667764498373,-0.2243671503693105,-0.8083227621806509,-1.687620639801025,2.182137966156006,2.517253398895264,-0.1967880874872208,0.135039746761322,0.1123340129852295,XArbitraryZVertical,-0.3885124032977393,-0.1111676811022188,0.06332984848726961,0.9125181493414395,-0.1536761969327927,0.7231296896934509,-0.6733997464179993,0,0,0,-1,-1,4964.680790625001,unknown,2,2022-06-30T09:51:26.741+02:00,2022-06-30T08:20:05.567+02:00,1418,1.388076,0,0,1121.329,0,0,2022-06-30T09:50:28.075+02:00
2022-06-30T09:51:34.699+02:00,4972.635480625,-0.3012847900390625,0.6507110595703125,-0.194366455078125,4972.625529625,0.07366652838024658,-0.1792834126707012,-0.8301264995844656,-1.793071508407593,2.274503707885742,2.588902711868286,-0.2326059341430664,0.02614331245422363,0.2775684595108032,XArbitraryZVertical,-0.3983395693784634,-0.09665486660713193,0.06963779524864164,0.909469117288674,-0.1203302517533302,0.7380167245864868,-0.6639668345451355,0,0,0,-1,-1,4964.680790625001,unknown,2,2022-06-30T09:51:26.741+02:00,2022-06-30T08:20:05.567+02:00,1418,1.388076,0,0,1121.329,0,0,2022-06-30T09:50:28.075+02:00
2022-06-30T09:51:34.709+02:00,4972.645432625,-0.2552337646484375,0.556640625,-0.1256561279296875,4972.635480625,0.1077235234615062,-0.1308220408370332,-0.8541024736749209,-2.291577816009521,2.367246150970459,2.66321873664856,-0.2380393743515015,-0.06010359525680542,0.4043034911155701,XArbitraryZVertical,-0.4095006388043909,-0.08165826302416745,0.07592993061373696,0.9054699262213772,-0.08569148927927017,0.7539816498756409,-0.6512823104858398,0,0,0,-1,-1,4964.680790625001,unknown,2,2022-06-30T09:51:26.741+02:00,2022-06-30T08:20:05.567+02:00,1418,1.388076,0,0,1121.329,0,0,2022-06-30T09:50:28.075+02:00
2022-06-30T09:51:34.719+02:00,4972.655383625,-0.203643798828125,0.5230712890625,-0.017730712890625,4972.645432625,0.1447258827371257,-0.07834175973729621,-0.8825043417895481,-2.870200157165527,2.51700758934021,2.709652423858643,-0.2283327877521515,-0.1697168946266174,0.4735720753669739,XArbitraryZVertical,-0.4230675110651265,-0.06617081823596077,0.08200535481590469,0.8999501991583506,-0.04971328005194664,0.7723321318626404,-0.6332706212997437,0,0,0,-1,-1,4964.680790625001,unknown,2,2022-06-30T09:51:26.741+02:00,2022-06-30T08:20:05.567+02:00,1418,1.388076,0,0,1121.329,0,0,2022-06-30T09:50:28.075+02:00
2022-06-30T09:51:34.729+02:00,4972.665335625,-0.1186676025390625,0.5329132080078125,0.171600341796875,4972.655383625,0.185482258389711,-0.02050639089624653,-0.9150664674803721,-3.409834384918213,2.703686475753784,2.704519271850586,-0.2189735770225525,-0.2637029886245728,0.5262662172317505,XArbitraryZVertical,-0.4389630448701393,-0.05006516856331134,0.08758829336744726,0.8928233027632706,-0.01250265073031187,0.7926031351089478,-0.609609842300415,0,0,0,-1,-1,4964.680790625001,unknown,2,2022-06-30T09:51:26.741+02:00,2022-06-30T08:20:05.567+02:00,1418,1.388076,0,0,1121.329,0,0,2022-06-30T09:50:28.075+02:00
2022-06-30T09:51:34.739+02:00,4972.675286625,-0.0102081298828125,0.53192138671875,0.3097076416015625,4972.665335625,0.2311138227141644,0.04387523450175733,-0.9512268831534357,-3.887741088867188,2.857337951660156,2.671755790710449,-0.1916991621255875,-0.2835500240325928,0.6563892364501953,XArbitraryZVertical,-0.4569691239196985,-0.03341006384226426,0.0925012348661476,0.8840286607821868,0.02546950802206993,0.814128577709198,-0.5801259875297546,0,0,0,-1,-1,4964.680790625001,unknown,2,2022-06-30T09:51:26.741+02:00,2022-06-30T08:20:05.567+02:00,1418,1.388076,0,0,1121.329,0,0,2022-06-30T09:50:28.075+02:00
2022-06-30T09:51:34.749+02:00,4972.685238625,0.1172943115234375,0.55743408203125,0.452178955078125,4972.675286625,0.283167203075143,0.1155872019222043,-0.9887802203284054,-4.051995277404785,2.913461446762085,2.632282972335815,-0.1289959102869034,-0.3038772344589233,0.7933708429336548,XArbitraryZVertical,-0.4761374092012229,-0.01650844349515373,0.09687351398407842,0.8738628788013781,0.06339797377586365,0.8353560566902161,-0.5460412502288818,0,0,0,-1,-1,4964.680790625001,unknown,2,2022-06-30T09:51:26.741+02:00,2022-06-30T08:20:05.567+02:00,1418,1.388076,0,0,1121.329,0,0,2022-06-30T09:50:28.075+02:00
2022-06-30T09:51:34.759+02:00,4972.695189625,0.2841796875,0.57904052734375,0.58355712890625,4972.685238625,0.3426719931950823,0.1944493685499198,-1.024244565797955,-3.950692892074585,2.804797649383545,2.588908195495605,-0.05100548267364502,-0.3118566274642944,0.8854376077651978,XArbitraryZVertical,-0.4950002079493245,0.0002242103431540118,0.1010517984546805,0.8629967225971591,0.1004283055663109,0.8543217778205872,-0.5099495053291321,0,0,0,-1,-1,4964.680790625001,unknown,2,2022-06-30T09:51:26.741+02:00,2022-06-30T08:20:05.567+02:00,1418,1.388076,0,0,1121.329,0,0,2022-06-30T09:50:28.075+02:00
2022-06-30T09:51:34.768+02:00,4972.705141625001,0.480133056640625,0.5433197021484375,0.61444091796875,4972.695189625,0.4089756613510069,0.2778080884225018,-1.055741137967818,-3.772651433944702,2.415237426757812,2.491873025894165,0.06067976355552673,-0.2973743081092834,0.9982327818870544,XArbitraryZVertical,-0.5127390074158082,0.01582108586690026,0.1054476336422214,0.8518974742019892,0.1350901126861572,0.8702655434608459,-0.4736967980861664,0,0,0,-1,-1,4964.680790625001,unknown,2,2022-06-30T09:51:26.741+02:00,2022-06-30T08:20:05.567+02:00,1418,1.388076,0,0,1121.329,0,0,2022-06-30T09:50:28.075+02:00
2022-06-30T09:51:34.779+02:00,4972.715092625001,0.6437530517578125,0.4617767333984375,0.6356964111328125,4972.705141625001,0.4803125235715459,0.361203313564294,-1.082927040431208,-3.581046581268311,1.745460271835327,2.32312798500061,0.2160589694976807,-0.3150200247764587,1.051260113716125,XArbitraryZVertical,-0.5290698994464539,0.02891583841904062,0.1105970532423592,0.8408431834371207,0.1656545102596283,0.8833336234092712,-0.4384978413581848,0,0,0,-1,-1,4964.680790625001,unknown,2,2022-06-30T09:51:26.741+02:00,2022-06-30T08:20:05.567+02:00,1418,1.388076,0,0,1121.329,0,0,2022-06-30T09:50:28.075+02:00
2022-06-30T09:51:34.788+02:00,4972.725044625,0.7195587158203125,0.346649169921875,0.67523193359375,4972.715092625001,0.5542027274215977,0.4401057901292603,-1.106930077683079,-3.525473594665527,0.9093196392059326,2.061911821365356,0.3795017004013062,-0.386593222618103,1.017231106758118,XArbitraryZVertical,-0.5441945312876821,0.03827930961142473,0.1167551793480846,0.8299127923730073,0.1906120330095291,0.8943293690681458,-0.404774010181427,0,0,0,-1,-1,4964.680790625001,unknown,2,2022-06-30T09:51:26.741+02:00,2022-06-30T08:20:05.567+02:00,1418,1.388076,0,0,1121.329,0,0,2022-06-30T09:50:28.075+02:00
2022-06-30T09:51:34.798+02:00,4972.734995625,0.681793212890625,0.3112640380859375,0.651336669921875,4972.725044625,0.6300480946570758,0.5131400420670822,-1.129357257824386,-3.535494327545166,0.05825177207589149,1.795000553131104,0.4853439927101135,-0.5014888048171997,1.040947198867798,XArbitraryZVertical,-0.5585742309104553,0.04343958704671287,0.1240546454926802,0.8189739920349022,0.2097392380237579,0.9041377902030945,-0.3722156584262848,0,0,0,-1,-1,4964.680790625001,unknown,2,2022-06-30T09:51:26.741+02:00,2022-06-30T08:20:05.567+02:00,1418,1.388076,0,0,1121.329,0,0,2022-06-30T09:50:28.075+02:00
2022-06-30T09:51:34.808+02:00,4972.744947625,0.5102691650390625,0.348297119140625,0.668548583984375,4972.734995625,0.7077472819882553,0.5803207973831286,-1.151088536278449,-3.582749605178833,-0.7360400557518005,1.512393116950989,0.4913872480392456,-0.600128173828125,0.9946968555450439,XArbitraryZVertical,-0.5723957979028693,0.04441033157751222,0.1324780885157771,0.8079853554688181,0.2234255969524384,0.9132080674171448,-0.3407815396785736,0,0,0,-1,-1,4964.680790625001,unknown,2,2022-06-30T09:51:26.741+02:00,2022-06-30T08:20:05.567+02:00,1418,1.388076,0,0,1121.329,0,0,2022-06-30T09:50:28.075+02:00
2022-06-30T09:51:34.819+02:00,4972.754898625,0.2597808837890625,0.41131591796875,0.555938720703125,4972.744947625,0.7863368108192258,0.6415293929824079,-1.172306098550634,-3.449197053909302,-1.435703158378601,1.174723863601685,0.3823282122612,-0.5938891172409058,0.9850896596908569,XArbitraryZVertical,-0.5855230039752677,0.04150515050269533,0.1417860482760078,0.7970801941721212,0.2322038561105728,0.9216479063034058,-0.3108802735805511,0,0,0,-1,-1,4964.680790625001,unknown,2,2022-06-30T09:51:26.741+02:00,2022-06-30T08:20:05.567+02:00,1418,1.388076,0,0,1121.329,0,0,2022-06-30T09:50:28.075+02:00
2022-06-30T09:51:34.833+02:00,4972.764850625001,0.079864501953125,0.5565643310546875,0.33648681640625,4972.754898625,0.8562990664057943,0.6887265087638735,-1.191351726832127,-2.766569375991821,-2.09913158416748,0.6527284979820251,0.1450346410274506,-0.5544350147247314,0.9057393074035645,XArbitraryZVertical,-0.5964826370417133,0.0349555784611347,0.1511850265267089,0.7874831246968335,0.2354123443365097,0.9288704991340637,-0.2859731316566467,0,0,0,-1,-1,4964.680790625001,unknown,2,2022-06-30T09:51:26.741+02:00,2022-06-30T08:20:05.567+02:00,1418,1.388076,0,0,1121.329,0,0,2022-06-30T09:50:28.075+02:00
2022-06-30T09:51:34.838+02:00,4972.774801625001,-0.0328216552734375,0.68695068359375,0.318389892578125,4972.764850625001,0.9024847133829592,0.7075033806093395,-1.205715102615566,-1.567595601081848,-2.748297214508057,0.07787617295980453,-0.06732633709907532,-0.4623539447784424,0.7241086363792419,XArbitraryZVertical,-0.6030883306568765,0.02484180332385465,0.1602090585792127,0.7810253333799335,0.2320445775985718,0.9340947866439819,-0.271334707736969,0,0,0,-1,-1,4964.680790625001,unknown,2,2022-06-30T09:51:26.741+02:00,2022-06-30T08:20:05.567+02:00,1418,1.388076,0,0,1121.329,0,0,2022-06-30T09:50:28.075+02:00
2022-06-30T09:51:34.848+02:00,4972.784753625,0.059539794921875,0.6111602783203125,0.6402587890625,4972.774801625001,0.9151127539717173,0.6892371469392926,-1.213340426417857,-0.1814463436603546,-3.287958860397339,-0.3413061797618866,-0.2163341492414474,-0.2965767979621887,0.5457795858383179,XArbitraryZVertical,-0.6040246503084662,0.01194773555560722,0.1687877462584212,0.7787954323732005,0.2225136011838913,0.9367899894714355,-0.2700229585170746,0,0,0,-1,-1,4964.680790625001,unknown,2,2022-06-30T09:51:26.741+02:00,2022-06-30T08:20:05.567+02:00,1418,1.388076,0,0,1121.329,0,0,2022-06-30T09:50:28.075+02:00
2022-06-30T09:51:34.858+02:00,4972.794704625,0.2862396240234375,0.410308837890625,0.910919189453125,4972.784753625,0.8972419043570878,0.6364042329507108,-1.212623685244365,0.9990638494491577,-4.026941299438477,-0.5474959015846252,-0.2250666469335556,-0.2608339786529541,0.7416075468063354,XArbitraryZVertical,-0.5991845419260127,-0.003092405023234199,0.177883799392143,0.7805932472062964,0.2083426266908646,0.9365389943122864,-0.2819366455078125,0,0,0,-1,-1,4964.680790625001,unknown,2,2022-06-30T09:51:26.741+02:00,2022-06-30T08:20:05.567+02:00,1418,1.388076,0,0,1121.329,0,0,2022-06-30T09:50:28.075+02:00
2022-06-30T09:51:34.868+02:00,4972.804656625,0.5225677490234375,0.0510406494140625,2.135055541992188,4972.794704625,0.8607449216351512,0.5565640869238597,-1.205617793829413,1.563637971878052,-5.206549644470215,-0.8341444134712219,-0.01732918620109558,-0.4155663251876831,1.093135356903076,XArbitraryZVertical,-0.5898440552589367,-0.02178876338687846,0.1889096077982763,0.7848072700874485,0.1886544525623322,0.9340600371360779,-0.3032184839248657,0,0,0,-1,-1,4964.680790625001,unknown,2,2022-06-30T09:51:26.741+02:00,2022-06-30T08:20:05.567+02:00,1418,1.388076,0,0,1121.329,0,0,2022-06-30T09:50:28.075+02:00
2022-06-30T09:51:34.878+02:00,4972.814607625,0.235870361328125,1.91217041015625,-8.321533203125,4972.804656625,0.8194959543499678,0.4631355855951266,-1.19706751598211,0.3643848896026611,-5.328151226043701,-0.543709397315979,0.2126263231039047,-0.6279787421226501,1.315093636512756,XArbitraryZVertical,-0.5785327343460034,-0.04455567726896034,0.2017344739736374,0.7890613488370913,0.1631056666374207,0.9309724569320679,-0.3266293406486511,0,0,0,-1,-1,4964.680790625001,unknown,2,2022-06-30T09:51:26.741+02:00,2022-06-30T08:20:05.567+02:00,1418,1.388076,0,0,1121.329,0,0,2022-06-30T09:50:28.075+02:00
2022-06-30T09:51:34.888+02:00,4972.824559625,-3.2607421875,4.331954956054688,-8.0472412109375,4972.814607625,0.7500312675243207,0.3478613945985969,-1.162003001362622,5.810884475708008,-3.487196922302246,-1.420458555221558,0.7988066673278809,-1.923841953277588,3.284994125366211,XArbitraryZVertical,-0.5559977004762806,-0.06340205831687928,0.2131825180474238,0.8008744686351833,0.1355037987232208,0.9176011681556702,-0.3736934661865234,0,0,0,-1,-1,4964.680790625001,unknown,2,2022-06-30T09:51:26.741+02:00,2022-06-30T08:20:05.567+02:00,1418,1.388076,0,0,1121.329,0,0,2022-06-30T09:50:28.075+02:00
2022-06-30T09:51:34.900+02:00,4972.834510625,-2.874664306640625,0.484130859375,-4.709197998046875,4972.824559625,0.7283570600692497,0.3056896760737824,-1.15462767058697,1.041202425956726,1.459222674369812,-0.3233327865600586,-1.634830951690674,5.804548263549805,-11.97198104858398,XArbitraryZVertical,-0.5494759450239042,-0.07292020788194151,0.2173317555105304,0.8034462287995749,0.1216622143983841,0.9146444797515869,-0.3855176568031311,0,0,0,-1,-1,4964.680790625001,unknown,2,2022-06-30T09:51:26.741+02:00,2022-06-30T08:20:05.567+02:00,1418,1.388076,0,0,1121.329,0,0,2022-06-30T09:50:28.075+02:00
2022-06-30T09:51:34.908+02:00,4972.844462625,-1.162811279296875,1.54278564453125,0.0232086181640625,4972.834510625,0.6969020848153862,0.2965783037125683,-1.113067273598994,5.567549228668213,2.192145824432373,0.5940218567848206,-3.771803617477417,-0.4072664380073547,-5.780749797821045,XArbitraryZVertical,-0.5338849141048645,-0.06047519849383961,0.2133779660494186,0.8159532100589801,0.1291486918926239,0.897058367729187,-0.4226192831993103,0,0,0,-1,-1,4964.680790625001,unknown,2,2022-06-30T09:51:26.741+02:00,2022-06-30T08:20:05.567+02:00,1418,1.388076,0,0,1121.329,0,0,2022-06-30T09:50:28.075+02:00
2022-06-30T09:51:34.918+02:00,4972.854413625,-0.57257080078125,-0.4139556884765625,-0.214080810546875,4972.844462625,0.6993801144865561,0.3171658547609505,-1.084213386935833,-0.06921034306287766,1.504879117012024,1.32780385017395,-1.872016787528992,0.8256741762161255,-1.499089241027832,XArbitraryZVertical,-0.5249810509638528,-0.04745689260997779,0.2132563469408592,0.8225962561522002,0.145835354924202,0.8839358687400818,-0.4442854821681976,0,0,0,-1,-1,4964.680790625001,unknown,2,2022-06-30T09:51:26.741+02:00,2022-06-30T08:20:05.567+02:00,1418,1.388076,0,0,1121.329,0,0,2022-06-30T09:50:28.075+02:00
2022-06-30T09:51:34.928+02:00,4972.864365625001,0.1555328369140625,-1.184616088867188,-0.8272705078125,4972.854413625,0.7395350971427214,0.3688069354228253,-1.09596173253366,-3.050516843795776,1.834191679954529,1.436665058135986,-0.9719328880310059,-0.4156743288040161,0.7385064959526062,XArbitraryZVertical,-0.5340811884331211,-0.03915010039503785,0.2141841437955821,0.8169148373828768,0.1648188531398773,0.8893683552742004,-0.4264491200447083,0,0,0,-1,-1,4964.680790625001,unknown,2,2022-06-30T09:51:26.741+02:00,2022-06-30T08:20:05.567+02:00,1418,1.388076,0,0,1121.329,0,0,2022-06-30T09:50:28.075+02:00
2022-06-30T09:51:34.938+02:00,4972.874316625001,0.7603607177734375,-0.6867523193359375,-0.4484405517578125,4972.864365625001,0.7946808816445143,0.4385398479406301,-1.120432655931202,-3.334346532821655,2.239453792572021,1.099313259124756,-0.3723641932010651,-1.834264039993286,-0.2658402323722839,XArbitraryZVertical,-0.5495460834660432,-0.03078745126750709,0.213389208994988,0.8071656458530966,0.1848332583904266,0.9002888798713684,-0.3941024839878082,0,0,0,-1,-1,4964.680790625001,unknown,2,2022-06-30T09:51:26.741+02:00,2022-06-30T08:20:05.567+02:00,1418,1.388076,0,0,1121.329,0,0,2022-06-30T09:50:28.075+02:00
2022-06-30T09:51:34.948+02:00,4972.884268625,1.087997436523438,0.3467254638671875,-0.489654541015625,4972.874316625001,0.8420339000745768,0.5029497591031681,-1.148745461624539,-3.50023627281189,1.967253804206848,-0.1590010523796082,0.305023729801178,-1.99399197101593,-0.2815365791320801,XArbitraryZVertical,-0.5656429861221154,-0.02439928159292834,0.2089289203996987,0.7973716195095067,0.1974477618932724,0.9122507572174072,-0.3589053750038147,0,0,0,-1,-1,4964.680790625001,unknown,2,2022-06-30T09:51:26.741+02:00,2022-06-30T08:20:05.567+02:00,1418,1.388076,0,0,1121.329,0,0,2022-06-30T09:50:28.075+02:00
2022-06-30T09:51:34.958+02:00,4972.894219625,0.850982666015625,1.12384033203125,-0.56121826171875,4972.884268625,0.8663560552564544,0.5378500318342134,-1.180965409687242,-2.95755934715271,0.5759063959121704,-1.277245759963989,0.7896417379379272,-1.09016489982605,-0.08349001407623291,XArbitraryZVertical,-0.579816851069755,-0.02498440675054901,0.2018824118866639,0.7889435290782589,0.194687083363533,0.9249733090400696,-0.3263764083385468,0,0,0,-1,-1,4964.680790625001,unknown,2,2022-06-30T09:51:26.741+02:00,2022-06-30T08:20:05.567+02:00,1418,1.388076,0,0,1121.329,0,0,2022-06-30T09:50:28.075+02:00
2022-06-30T09:51:34.968+02:00,4972.904171625,0.3310089111328125,1.409088134765625,-0.2528839111328125,4972.894219625,0.8664412253985243,0.5377181720824604,-1.207916253265801,-1.624457478523254,-0.4614605903625488,-1.367266535758972,0.8676159977912903,-0.1496151685714722,-0.2754014134407043,XArbitraryZVertical,-0.5887075898526659,-0.03139776981067011,0.1962009320661308,0.7835450403035272,0.181806817650795,0.9348783493041992,-0.3048751056194305,0,0,0,-1,-1,4964.680790625001,unknown,2,2022-06-30T09:51:26.741+02:00,2022-06-30T08:20:05.567+02:00,1418,1.388076,0,0,1121.329,0,0,2022-06-30T09:50:28.075+02:00
2022-06-30T09:51:34.978+02:00,4972.914122625,0.027008056640625,1.224960327148438,-0.169036865234375,4972.904171625,0.8498705693727974,0.5161120653266043,-1.221354957455253,-0.1472034752368927,-0.6571146845817566,-1.027203321456909,0.415952742099762,0.3954426646232605,-0.1163768768310547,XArbitraryZVertical,-0.5913209742003279,-0.03809029918386597,0.1932422060891042,0.7820142130530647,0.1689620316028595,0.9395641088485718,-0.2977772653102875,0,0,0,-1,-1,4964.680790625001,unknown,2,2022-06-30T09:51:26.741+02:00,2022-06-30T08:20:05.567+02:00,1418,1.388076,0,0,1121.329,0,0,2022-06-30T09:50:28.075+02:00
2022-06-30T09:51:34.988+02:00,4972.924074625001,-0.005401611328125,0.9289093017578125,-0.2369537353515625,4972.914122625,0.8164734985559542,0.4780354961768941,-1.222661303079446,0.9426525831222534,-0.6795448660850525,-1.191844940185547,-0.01709276437759399,0.4182963967323303,0.1343545913696289,XArbitraryZVertical,-0.5887794938808685,-0.0434405978104862,0.1911315371857135,0.7841686473867426,0.1569391489028931,0.9400105476379395,-0.3029032349586487,0,0,0,-1,-1,4964.680790625001,unknown,2,2022-06-30T09:51:26.741+02:00,2022-06-30T08:20:05.567+02:00,1418,1.388076,0,0,1121.329,0,0,2022-06-30T09:50:28.075+02:00
2022-06-30T09:51:34.997+02:00,4972.934025625001,0.0917205810546875,0.7137908935546875,-0.2499847412109375,4972.924074625001,0.7652765037557453,0.4224565603953593,-1.218299352434479,1.276549339294434,-0.8091101050376892,-1.593668580055237,-0.1603647470474243,0.1300747394561768,0.1097511649131775,XArbitraryZVertical,-0.5831960884382928,-0.04936720406383954,0.1881207623909338,0.7887052094252747,0.1415502429008484,0.9385135769844055,-0.3148904144763947,0,0,0,-1,-1,4964.680790625001,unknown,2,2022-06-30T09:51:26.741+02:00,2022-06-30T08:20:05.567+02:00,1418,1.388076,0,0,1121.329,0,0,2022-06-30T09:50:28.075+02:00
2022-06-30T09:51:35.007+02:00,4972.943978416667,0.1828155517578125,0.6103363037109375,-0.2628021240234375,4972.934025625001,0.7084814196237608,0.3608529164944599,-1.214425508822978,0.9047116041183472,-0.8302273750305176,-1.7327880859375,-0.08811399340629578,-0.1254015564918518,0.07768812775611877,XArbitraryZVertical,-0.577586219573417,-0.05648841293385331,0.1842138442025461,0.7932644498873885,0.1231782585382462,0.9371691346168518,-0.3264064490795135,0,0,0,-1,-1,4964.680790625001,unknown,2,2022-06-30T09:51:26.741+02:00,2022-06-30T08:20:05.567+02:00,1418,1.388076,0,0,1121.329,0,0,2022-06-30T09:50:28.075+02:00
2022-06-30T09:51:35.017+02:00,4972.953929416667,0.226318359375,0.6630096435546875,-0.202362060546875,4972.943978416667,0.6570660966872465,0.3048606559393778,-1.214339941299878,0.2799341976642609,-0.7218304872512817,-1.653319954872131,0.03495112806558609,-0.29477459192276,0.07543399930000305,XArbitraryZVertical,-0.5740046688961628,-0.06392252395540982,0.1799142864788752,0.7962810827078408,0.1047426909208298,0.9371392726898193,-0.3328650891780853,0,0,0,-1,-1,4964.680790625001,unknown,2,2022-06-30T09:51:26.741+02:00,2022-06-30T08:20:05.567+02:00,1418,1.388076,0,0,1121.329,0,0,2022-06-30T09:50:28.075+02:00
2022-06-30T09:51:35.027+02:00,4972.963881416667,0.1915435791015625,0.73370361328125,-0.1404266357421875,4972.953929416667,0.613194017548866,0.2571337019507088,-1.219304708914852,-0.3841407299041748,-0.6041853427886963,-1.563406229019165,0.1238211244344711,-0.3193533420562744,0.09265318512916565,XArbitraryZVertical,-0.5731007792896073,-0.07117516655824349,0.1754118396385555,0.7973207285182077,0.08755845576524734,0.9388601779937744,-0.3329791724681854,0,0,0,-1,-1,4964.680790625001,unknown,2,2022-06-30T09:51:26.741+02:00,2022-06-30T08:20:05.567+02:00,1418,1.388076,0,0,1121.329,0,0,2022-06-30T09:50:28.075+02:00
2022-06-30T09:51:35.037+02:00,4972.973832416667,0.122833251953125,0.644439697265625,-0.163665771484375,4972.963881416667,0.5738211587716305,0.2142494930725909,-1.229259948179247,-0.8686008453369141,-0.5827466249465942,-1.527373075485229,0.146576315164566,-0.2257342338562012,0.1584844887256622,XArbitraryZVertical,-0.5746334726140027,-0.07847125340911201,0.1707384204002404,0.7965469456156447,0.07121194899082184,0.9422411918640137,-0.327277272939682,0,0,0,-1,-1,4964.680790625001,unknown,2,2022-06-30T09:51:26.741+02:00,2022-06-30T08:20:05.567+02:00,1418,1.388076,0,0,1121.329,0,0,2022-06-30T09:50:28.075+02:00
2022-06-30T09:51:35.047+02:00,4972.983784416667,0.0604400634765625,0.61749267578125,-0.3159942626953125,4972.973832416667,0.5318053522862828,0.1683846967822208,-1.240265293455247,-0.6771475076675415,-0.6758869886398315,-1.650591373443604,0.1016300469636917,-0.2451559901237488,0.1870666742324829,XArbitraryZVertical,-0.5767163546484596,-0.08614213086589018,0.1659409854760381,0.7952619211570632,0.05439064651727676,0.9458701610565186,-0.3199555575847626,0,0,0,-1,-1,4964.680790625001,unknown,2,2022-06-30T09:51:26.741+02:00,2022-06-30T08:20:05.567+02:00,1418,1.388076,0,0,1121.329,0,0,2022-06-30T09:50:28.075+02:00
2022-06-30T09:51:35.057+02:00,4972.993735416667,0.0045623779296875,0.6945037841796875,-0.4235687255859375,4972.983784416667,0.4782137183305035,0.1097934384218631,-1.24680900570875,-0.1700310409069061,-0.9123082160949707,-1.968666672706604,0.05586113035678864,-0.3400176167488098,0.08150786161422729,XArbitraryZVertical,-0.5768894218481518,-0.09477594272548807,0.160874193767562,0.7951953669292366,0.03488245978951454,0.9479736089706421,-0.3164322376251221,0,0,0,-1,-1,4964.680790625001,unknown,2,2022-06-30T09:51:26.741+02:00,2022-06-30T08:20:05.567+02:00,1418,1.388076,0,0,1121.329,0,0,2022-06-30T09:50:28.075+02:00
2022-06-30T09:51:35.067+02:00,4973.003687416667,-0.0458831787109375,0.71893310546875,-0.57281494140625,4972.993735416667,0.4123764301577125,0.03715081406468704,-1.249746984758284,-0.1765304803848267,-1.118700265884399,-2.234142541885376,0.01795721054077148,-0.291678249835968,-0.06108960509300232,XArbitraryZVertical,-0.57558892428368,-0.1050001104887899,0.1553795372353522,0.7959457103893594,0.01172070670872927,0.948904812335968,-0.3153447210788727,0,0,0,-1,-1,4964.680790625001,unknown,2,2022-06-30T09:51:26.741+02:00,2022-06-30T08:20:05.567+02:00,1418,1.388076,0,0,1121.329,0,0,2022-06-30T09:50:28.075+02:00
2022-06-30T09:51:35.077+02:00,4973.013638416667,-0.11114501953125,0.7352752685546875,-0.763885498046875,4973.003687416667,0.3400604125162014,-0.04276613038807054,-1.25299828052338,-0.4945462644100189,-1.109043598175049,-2.293110370635986,-0.005775672383606434,-0.2367911338806152,-0.1762899160385132,XArbitraryZVertical,-0.574794634115571,-0.1162595374210291,0.1494003250417564,0.7960994219713635,-0.01335929054766893,0.9499257802963257,-0.3121896982192993,0,0,0,-1,-1,4964.680790625001,unknown,2,2022-06-30T09:51:26.741+02:00,2022-06-30T08:20:05.567+02:00,1418,1.388076,0,0,1121.329,0,0,2022-06-30T09:50:28.075+02:00
2022-06-30T09:51:35.087+02:00,4973.023590416667,-0.19158935546875,0.8360443115234375,-0.9390411376953125,4973.013638416667,0.2664608706220209,-0.1225713666247378,-1.257238092792841,-0.6962221264839172,-0.8425149917602539,-2.205628633499146,-0.04091700538992882,-0.2286927103996277,-0.3618223965167999,XArbitraryZVertical,-0.5751424424879011,-0.1270653694080808,0.142937925920553,0.7953830956480131,-0.03771195933222771,0.9512420892715454,-0.30613112449646,0,0,0,-1,-1,4964.680790625001,unknown,2,2022-06-30T09:51:26.741+02:00,2022-06-30T08:20:05.567+02:00,1418,1.388076,0,0,1121.329,0,0,2022-06-30T09:50:28.075+02:00
2022-06-30T09:51:35.097+02:00,4973.033541416667,-0.2533721923828125,1.032119750976562,-1.1080322265625,4973.023590416667,0.1932622291484451,-0.1985272570702263,-1.260212699987199,-0.5621843934059143,-0.4173950552940369,-2.157906770706177,-0.09110786765813828,-0.179709792137146,-0.5518137216567993,XArbitraryZVertical,-0.5758696513079785,-0.1362659577495232,0.13569013783117,0.7946029731290075,-0.06027500703930855,0.9521553516387939,-0.2996114790439606,0,0,0,-1,-1,4964.680790625001,unknown,2,2022-06-30T09:51:26.741+02:00,2022-06-30T08:20:05.567+02:00,1418,1.388076,0,0,1121.329,0,0,2022-06-30T09:50:28.075+02:00
2022-06-30T09:51:35.107+02:00,4973.043493416667,-0.2938079833984375,1.208328247070312,-1.182403564453125,4973.033541416667,0.1225271991371395,-0.2679334945415798,-1.258518815716176,-0.06942926347255707,-0.004502275492995977,-2.160688161849976,-0.1443124115467072,-0.02466493844985962,-0.7288663387298584,XArbitraryZVertical,-0.5755671693339082,-0.143492022521829,0.1275174155326433,0.7949036282724643,-0.08133498579263687,0.9516363143920898,-0.2962649464607239,0,0,0,-1,-1,4964.680790625001,unknown,2,2022-06-30T09:51:26.741+02:00,2022-06-30T08:20:05.567+02:00,1418,1.388076,0,0,1121.329,0,0,2022-06-30T09:50:28.075+02:00
2022-06-30T09:51:35.117+02:00,4973.053444416667,-0.3254852294921875,1.271438598632812,-1.125244140625,4973.043493416667,0.05819723799739945,-0.3276758556556411,-1.249536575710527,0.6434618830680847,0.2629026770591736,-2.219655513763428,-0.1734903454780579,0.1853931546211243,-0.8719520568847656,XArbitraryZVertical,-0.5729830892442147,-0.1490287195183101,0.1186442278445092,0.7971226479940398,-0.1016260609030724,0.9488384127616882,-0.2989616394042969,0,0,0,-1,-1,4964.680790625001,unknown,2,2022-06-30T09:51:26.741+02:00,2022-06-30T08:20:05.567+02:00,1418,1.388076,0,0,1121.329,0,0,2022-06-30T09:50:28.075+02:00
2022-06-30T09:51:35.127+02:00,4973.063396416667,-0.3682861328125,1.332046508789062,-1.087158203125,4973.053444416667,0.004324577216976272,-0.3757133656587576,-1.231474526264488,1.562872171401978,0.2940424680709839,-2.321552515029907,-0.1882913708686829,0.3050966858863831,-0.848633885383606,XArbitraryZVertical,-0.5670683909764765,-0.1536825160989533,0.1095954411833095,0.8017505715616189,-0.1221338659524918,0.9429806470870972,-0.3096302449703217,0,0,0,-1,-1,4964.680790625001,unknown,2,2022-06-30T09:51:26.741+02:00,2022-06-30T08:20:05.567+02:00,1418,1.388076,0,0,1121.329,0,0,2022-06-30T09:50:28.075+02:00
2022-06-30T09:51:35.137+02:00,4973.073347416667,-0.4672393798828125,1.403732299804688,-1.086074829101562,4973.063396416667,-0.03672193004810422,-0.4122338576684395,-1.20432888430578,2.340798616409302,0.09231435507535934,-2.384795427322388,-0.1999124586582184,0.36263507604599,-0.7700251340866089,XArbitraryZVertical,-0.5574411694840183,-0.1584552708292575,0.101095488313881,0.8086599774288261,-0.14356330037117,0.9335989356040955,-0.3283025324344635,0,0,0,-1,-1,4964.680790625001,unknown,2,2022-06-30T09:51:26.741+02:00,2022-06-30T08:20:05.567+02:00,1418,1.388076,0,0,1121.329,0,0,2022-06-30T09:50:28.075+02:00
2022-06-30T09:51:35.147+02:00,4973.083299416667,-0.6411895751953125,1.40234375,-1.152481079101562,4973.073347416667,-0.06641771125012741,-0.4401975683957455,-1.171639269150067,2.656844854354858,-0.1587937772274017,-2.348658323287964,-0.2442594617605209,0.4527869820594788,-0.7325760126113892,XArbitraryZVertical,-0.5452876139707233,-0.1639075053054808,0.09364305376353725,0.8167169971080135,-0.1656073033809662,0.9213889241218567,-0.3515914976596832,0,0,0,-1,-1,4964.680790625001,unknown,2,2022-06-30T09:51:26.741+02:00,2022-06-30T08:20:05.567+02:00,1418,1.388076,0,0,1121.329,0,0,2022-06-30T09:50:28.075+02:00
2022-06-30T09:51:35.157+02:00,4973.093250416667,-0.8538818359375,1.342666625976562,-1.307815551757812,4973.083299416667,-0.08975351883402138,-0.463726754168898,-1.138095658537854,2.55536937713623,-0.251705527305603,-2.300368070602417,-0.3585553467273712,0.5061342716217041,-0.7301998138427734,XArbitraryZVertical,-0.5325673283236877,-0.16985874746498,0.08691305995087092,0.8246006399256769,-0.1875571459531784,0.9078366160392761,-0.3750400841236115,0,0,0,-1,-1,4964.680790625001,unknown,2,2022-06-30T09:51:26.741+02:00,2022-06-30T08:20:05.567+02:00,1418,1.388076,0,0,1121.329,0,0,2022-06-30T09:50:28.075+02:00
2022-06-30T09:51:35.167+02:00,4973.103202416667,-1.053482055664062,1.361068725585938,-1.44622802734375,4973.093250416667,-0.1106854215669726,-0.4844290868096642,-1.105499690801095,2.457275390625,-0.07724769413471222,-2.311913251876831,-0.5378100872039795,0.4785647988319397,-0.8240679502487183,XArbitraryZVertical,-0.5202147255014106,-0.1756286202080739,0.08003410178610135,0.831941031055475,-0.2089554667472839,0.8936884999275208,-0.3970624506473541,0,0,0,-1,-1,4964.680790625001,unknown,2,2022-06-30T09:51:26.741+02:00,2022-06-30T08:20:05.567+02:00,1418,1.388076,0,0,1121.329,0,0,2022-06-30T09:50:28.075+02:00
2022-06-30T09:51:35.177+02:00,4973.113153416667,-1.186920166015625,1.448043823242188,-1.491104125976562,4973.103202416667,-0.1299305082760307,-0.5002659324137535,-1.073362161985038,2.378922939300537,0.3540975153446198,-2.303455829620361,-0.7303032279014587,0.4577226638793945,-0.9686166048049927,XArbitraryZVertical,-0.5081404669667547,-0.1801239385885298,0.07223691267318791,0.8391248676960538,-0.2288799583911896,0.8788098096847534,-0.4186972677707672,0,0,0,-1,-1,4964.680790625001,unknown,2,2022-06-30T09:51:26.741+02:00,2022-06-30T08:20:05.567+02:00,1418,1.388076,0,0,1121.329,0,0,2022-06-30T09:50:28.075+02:00
2022-06-30T09:51:35.187+02:00,4973.123105416667,-1.2606201171875,1.542098999023438,-1.55029296875,4973.113153416667,-0.147946949200198,-0.5096524096005354,-1.042715549431328,2.127346277236938,0.9218927621841431,-2.213438749313354,-0.8833378553390503,0.5383085012435913,-1.034432649612427,XArbitraryZVertical,-0.496811009642827,-0.1823685847461193,0.06318809677007561,0.8461252347808872,-0.245828241109848,0.8637757301330566,-0.4398410320281982,0,0,0,-1,-1,4964.680790625001,unknown,2,2022-06-30T09:51:26.741+02:00,2022-06-30T08:20:05.567+02:00,1418,1.388076,0,0,1121.329,0,0,2022-06-30T09:50:28.075+02:00
2022-06-30T09:51:35.196+02:00,4973.133056416667,-1.284439086914062,1.633682250976562,-1.511367797851562,4973.123105416667,-0.1656289729840362,-0.5127420672240296,-1.015455000627216,1.764212489128113,1.504246234893799,-2.048927068710327,-0.9712146520614624,0.6445115208625793,-1.059183120727539,XArbitraryZVertical,-0.4870197959795289,-0.1819214489619767,0.05293988056164632,0.8525923776858964,-0.2586441338062286,0.8497205376625061,-0.4594326019287109,0,0,0,-1,-1,4964.680790625001,unknown,2,2022-06-30T09:51:26.741+02:00,2022-06-30T08:20:05.567+02:00,1418,1.388076,0,0,1121.329,0,0,2022-06-30T09:50:28.075+02:00
2022-06-30T09:51:35.207+02:00,4973.143008416667,-1.273193359375,1.78680419921875,-1.415557861328125,4973.133056416667,-0.1819416620378947,-0.5087736233602612,-0.9916357118140142,1.581385493278503,2.056011438369751,-1.811818361282349,-1.012449145317078,0.7499763369560242,-1.073621273040771,XArbitraryZVertical,-0.4786449463270002,-0.1786038637604284,0.04189440251485488,0.8586295126075046,-0.2666040062904358,0.8369223475456238,-0.477999359369278,0,0,0,-1,-1,4964.680790625001,unknown,2,2022-06-30T09:51:26.741+02:00,2022-06-30T08:20:05.567+02:00,1418,1.388076,0,0,1121.329,0,0,2022-06-30T09:50:28.075+02:00
2022-06-30T09:51:35.217+02:00,4973.152959416667,-1.24700927734375,1.992202758789062,-1.37225341796875,4973.143008416667,-0.1947462645361074,-0.4965932511036367,-0.9696020592476414,1.644937515258789,2.523909568786621,-1.571847438812256,-1.012285470962524,0.8739323019981384,-0.9595726728439331,XArbitraryZVertical,-0.4707392010122111,-0.1724866009896185,0.03060780508911002,0.8647057840443556,-0.269483745098114,0.8246607184410095,-0.4973059594631195,0,0,0,-1,-1,4964.680790625001,unknown,2,2022-06-30T09:51:26.741+02:00,2022-06-30T08:20:05.567+02:00,1418,1.388076,0,0,1121.329,0,0,2022-06-30T09:50:28.075+02:00
2022-06-30T09:51:35.226+02:00,4973.162911416667,-1.222076416015625,2.14886474609375,-1.322891235351562,4973.152959416667,-0.2029662422674425,-0.4765233764070036,-0.9469144953433316,1.965528607368469,2.856281518936157,-1.395190119743347,-0.9928246736526489,1.074994802474976,-0.8727373480796814,XArbitraryZVertical,-0.4620852464195307,-0.1640824132530177,0.01944301685758357,0.8713071254156126,-0.2679636776447296,0.811616837978363,-0.5191083550453186,0,0,0,-1,-1,4964.680790625001,unknown,2,2022-06-30T09:51:26.741+02:00,2022-06-30T08:20:05.567+02:00,1418,1.388076,0,0,1121.329,0,0,2022-06-30T09:50:28.075+02:00
2022-06-30T09:51:35.237+02:00,4973.172862416667,-1.20489501953125,2.196441650390625,-1.294036865234375,4973.162911416667,-0.2067991584977948,-0.4501241232959129,-0.9217017344095561,2.370458602905273,3.066061735153198,-1.26282787322998,-0.971386194229126,1.288161516189575,-0.8029725551605225,XArbitraryZVertical,-0.4518107777519419,-0.1540739064553367,0.008598620844412793,0.8786662530468915,-0.2629891932010651,0.796631395816803,-0.5442565083503723,0,0,0,-1,-1,4964.680790625001,unknown,2,2022-06-30T09:51:26.741+02:00,2022-06-30T08:20:05.567+02:00,1418,1.388076,0,0,1121.329,0,0,2022-06-30T09:50:28.075+02:00
2022-06-30T09:51:35.246+02:00,4973.182814416667,-1.20196533203125,2.206588745117188,-1.276885986328125,4973.172862416667,-0.2070485138760329,-0.4192106089409918,-0.8933706964863043,2.780712604522705,3.199471235275269,-1.139763474464417,-0.955428421497345,1.403595924377441,-0.7320649027824402,XArbitraryZVertical,-0.4396542138067255,-0.1429903962351697,-0.001758107968928456,0.8867101083737509,-0.2551279664039612,0.779188871383667,-0.5725158452987671,0,0,0,-1,-1,4964.680790625001,unknown,2,2022-06-30T09:51:26.741+02:00,2022-06-30T08:20:05.567+02:00,1418,1.388076,0,0,1121.329,0,0,2022-06-30T09:50:28.075+02:00
2022-06-30T09:51:35.256+02:00,4973.192765416667,-1.195068359375,2.172821044921875,-1.230941772460938,4973.182814416667,-0.2045278038422986,-0.3846697809282862,-0.8623242568915402,3.067462682723999,3.387196779251099,-0.9734495878219604,-0.9588510394096375,1.444820642471313,-0.6845799088478088,XArbitraryZVertical,-0.4258052802859963,-0.1308722902891502,-0.01156293786154441,0.8952254920653934,-0.2441675364971161,0.7593569755554199,-0.6031246185302734,0,0,0,-1,-1,4964.680790625001,unknown,2,2022-06-30T09:51:26.741+02:00,2022-06-30T08:20:05.567+02:00,1418,1.388076,0,0,1121.329,0,0,2022-06-30T09:50:28.075+02:00
2022-06-30T09:51:35.266+02:00,4973.202717416667,-1.173553466796875,2.129150390625,-1.232681274414062,4973.192765416667,-0.200325621162283,-0.3466555738611716,-0.8299686018954989,3.191262483596802,3.663117170333862,-0.7877617478370667,-0.9711858034133911,1.457905769348145,-0.6192152500152588,XArbitraryZVertical,-0.4109255783656342,-0.1173205134373076,-0.02095330191525946,0.9038457622409687,-0.2292997986078262,0.7379101514816284,-0.6347521543502808,0,0,0,-1,-1,4964.680790625001,unknown,2,2022-06-30T09:51:26.741+02:00,2022-06-30T08:20:05.567+02:00,1418,1.388076,0,0,1121.329,0,0,2022-06-30T09:50:28.075+02:00
2022-06-30T09:51:35.276+02:00,4973.212668416667,-1.134078979492188,2.128860473632812,-1.165603637695312,4973.212668416667,-0.1919529715623753,-0.2642470411834346,-0.7631066299017408,3.452636003494263,4.183002471923828,-0.4632824957370758,-0.9663666486740112,1.429511666297913,-0.513116717338562,XArbitraryZVertical,-0.379135022833601,-0.08633082222925062,-0.03933365245966734,0.9204653821927159,-0.188754603266716,0.6911699175834656,-0.6976072192192078,0,0,0,-1,-1,4964.680790625001,unknown,2,2022-06-30T09:51:26.741+02:00,2022-06-30T08:20:05.567+02:00,1418,1.388076,0,0,1121.329,0,0,2022-06-30T09:50:28.075+02:00
2022-06-30T09:51:35.287+02:00,4973.222620416667,-1.096206665039062,2.209365844726562,-1.064849853515625,4973.212668416667,-0.1919529715623753,-0.2642470411834346,-0.7631066299017408,3.452636003494263,4.183002471923828,-0.4632824957370758,-0.9663666486740112,1.429511666297913,-0.513116717338562,XArbitraryZVertical,-0.379135022833601,-0.08633082222925062,-0.03933365245966734,0.9204653821927159,-0.188754603266716,0.6911699175834656,-0.6976072192192078,0,0,0,-1,-1,4964.680790625001,unknown,2,2022-06-30T09:51:26.741+02:00,2022-06-30T08:20:05.567+02:00,1418,1.388076,0,0,1121.329,0,0,2022-06-30T09:50:28.075+02:00
2022-06-30T09:51:35.296+02:00,4973.232571416667,-1.077056884765625,2.271926879882812,-0.9517669677734375,4973.222620416667,-0.1857557110188859,-0.2179117755793145,-0.7280107518670116,3.612307548522949,4.329360485076904,-0.2789311707019806,-0.9512845873832703,1.495441436767578,-0.386266827583313,XArbitraryZVertical,-0.3618077468187096,-0.06835455607493794,-0.04760677968181481,0.9285238724791555,-0.1613866835832596,0.6653859615325928,-0.7288455963134766,0,0,0,-1,-1,4964.680790625001,unknown,2,2022-06-30T09:51:26.741+02:00,2022-06-30T08:20:05.567+02:00,1418,1.388076,0,0,1121.329,0,0,2022-06-30T09:50:28.075+02:00
2022-06-30T09:51:35.306+02:00,4973.242523416667,-1.055892944335938,2.275741577148438,-0.861785888671875,4973.232571416667,-0.1792223462384596,-0.1703489333662527,-0.6914675929108004,3.792879581451416,4.403406620025635,-0.1342805325984955,-0.9551210403442383,1.612606048583984,-0.2528474926948547,XArbitraryZVertical,-0.3434664476892488,-0.04949893677076225,-0.05517663363909683,0.9362351770166057,-0.1305879354476929,0.6376683712005615,-0.7591612935066223,0,0,0,-1,-1,4964.680790625001,unknown,2,2022-06-30T09:51:26.741+02:00,2022-06-30T08:20:05.567+02:00,1418,1.388076,0,0,1121.329,0,0,2022-06-30T09:50:28.075+02:00
2022-06-30T09:51:35.316+02:00,4973.252474416667,-1.014999389648438,2.219223022460938,-0.7610931396484375,4973.242523416667,-0.1730650016838824,-0.122529910758429,-0.6529937023302097,3.993444681167603,4.461857795715332,-0.01466874312609434,-0.9711440801620483,1.67235541343689,-0.1169600486755371,XArbitraryZVertical,-0.3239393497655698,-0.0301084797060509,-0.0621417549437315,0.943554582303085,-0.09707830846309662,0.6075669527053833,-0.7883135676383972,0,0,0,-1,-1,4964.680790625001,unknown,2,2022-06-30T09:51:26.741+02:00,2022-06-30T08:20:05.567+02:00,1418,1.388076,0,0,1121.329,0,0,2022-06-30T09:50:28.075+02:00
2022-06-30T09:51:35.326+02:00,4973.262426416667,-0.974151611328125,2.142120361328125,-0.677642822265625,4973.252474416667,-0.1676366740593575,-0.07465626187382315,-0.6126414044640907,4.162514209747314,4.534813404083252,0.1055394187569618,-0.976362407207489,1.679196000099182,0.009624361991882324,XArbitraryZVertical,-0.3032635913477087,-0.01022883920363141,-0.06855312536139972,0.9503826626450887,-0.06102195754647255,0.575030505657196,-0.8158531188964844,0,0,0,-1,-1,4964.680790625001,unknown,2,2022-06-30T09:51:26.741+02:00,2022-06-30T08:20:05.567+02:00,1418,1.388076,0,0,1121.329,0,0,2022-06-30T09:50:28.075+02:00
2022-06-30T09:51:35.336+02:00,4973.272377416667,-0.9349212646484375,2.093368530273438,-0.6036834716796875,4973.262426416667,-0.1631441414690572,-0.02678958417126515,-0.5707053876232793,4.29265832901001,4.602323055267334,0.2272338718175888,-0.9714318513870239,1.641262054443359,0.1175242066383362,XArbitraryZVertical,-0.2815819569247675,0.01012466772071039,-0.0744217702361351,0.9565932339089696,-0.02254127897322178,0.5402258038520813,-0.8412181735038757,0,0,0,-1,-1,4964.680790625001,unknown,2,2022-06-30T09:51:26.741+02:00,2022-06-30T08:20:05.567+02:00,1418,1.388076,0,0,1121.329,0,0,2022-06-30T09:50:28.075+02:00
2022-06-30T09:51:35.346+02:00,4973.282329416667,-0.8996429443359375,2.0782470703125,-0.50579833984375,4973.272377416667,-0.1595571096381078,0.02115577712402371,-0.527419283155073,4.398416996002197,4.673202514648438,0.3799512386322021,-0.9720914959907532,1.604070901870728,0.2305840253829956,XArbitraryZVertical,-0.2590062648737482,0.03095169099534281,-0.07968304564030222,0.9620855111669379,0.01827953010797501,0.5033050179481506,-0.8639155030250549,0,0,0,-1,-1,4964.680790625001,unknown,2,2022-06-30T09:51:26.741+02:00,2022-06-30T08:20:05.567+02:00,1418,1.388076,0,0,1121.329,0,0,2022-06-30T09:50:28.075+02:00
2022-06-30T09:51:35.356+02:00,4973.292280416667,-0.877227783203125,2.037322998046875,-0.3786468505859375,4973.282329416667,-0.1566860602467119,0.0691097001169122,-0.4830716551196111,4.494229793548584,4.694786548614502,0.5331041812896729,-0.9766042828559875,1.626272797584534,0.3173418641090393,XArbitraryZVertical,-0.235692793913341,0.05215107120787446,-0.08418404166985197,0.966768970374879,0.06115293130278587,0.4645015299320221,-0.8834583163261414,0,0,0,-1,-1,4964.680790625001,unknown,2,2022-06-30T09:51:26.741+02:00,2022-06-30T08:20:05.567+02:00,1418,1.388076,0,0,1121.329,0,0,2022-06-30T09:50:28.075+02:00
2022-06-30T09:51:35.366+02:00,4973.302232416667,-0.861297607421875,2.015151977539062,-0.290557861328125,4973.292280416667,-0.1548894307292792,0.1163859421036085,-0.4373325843682238,4.621871471405029,4.659784317016602,0.6438949108123779,-0.9922949075698853,1.63184928894043,0.4619660377502441,XArbitraryZVertical,-0.2115190185763072,0.07335974876802509,-0.08797592092716795,0.9706380630622293,0.1051943674683571,0.4235246181488037,-0.899756133556366,0,0,0,-1,-1,4964.680790625001,unknown,2,2022-06-30T09:51:26.741+02:00,2022-06-30T08:20:05.567+02:00,1418,1.388076,0,0,1121.329,0,0,2022-06-30T09:50:28.075+02:00
2022-06-30T09:51:35.378+02:00,4973.312183416667,-0.8487396240234375,1.986236572265625,-0.155609130859375,4973.302232416667,-0.1545443884380506,0.1626641892521125,-0.3899115158470435,4.823182106018066,4.632402420043945,0.7506200671195984,-1.01806366443634,1.646550297737122,0.578595757484436,XArbitraryZVertical,-0.1863538592938976,0.09437066628833213,-0.09117418107972684,0.9736804989756458,0.1497924327850342,0.3801065683364868,-0.9127328395843506,0,0,0,-1,-1,4964.680790625001,unknown,2,2022-06-30T09:51:26.741+02:00,2022-06-30T08:20:05.567+02:00,1418,1.388076,0,0,1121.329,0,0,2022-06-30T09:50:28.075+02:00
2022-06-30T09:51:35.388+02:00,4973.322135416667,-0.827880859375,1.950271606445312,-0.0489349365234375,4973.312183416667,-0.1557743437647744,0.2082225919042708,-0.3402840112110245,5.014486312866211,4.629965782165527,0.8693650960922241,-1.051069259643555,1.667526721954346,0.6957814693450928,XArbitraryZVertical,-0.1599255752737636,0.115215599188313,-0.0938129146280583,0.9758833404421743,0.194867804646492,0.33375483751297,-0.9222983717918396,0,0,0,-1,-1,4964.680790625001,unknown,2,2022-06-30T09:51:26.741+02:00,2022-06-30T08:20:05.567+02:00,1418,1.388076,0,0,1121.329,0,0,2022-06-30T09:50:28.075+02:00
2022-06-30T09:51:35.395+02:00,4973.332086416667,-0.797943115234375,1.878936767578125,-0.0088043212890625,4973.322135416667,-0.158493884917374,0.2533370012183742,-0.2891149695080549,5.10076904296875,4.617069244384766,0.9792344570159912,-1.079345226287842,1.687338352203369,0.8350833654403687,XArbitraryZVertical,-0.1325554466499438,0.1359326076355948,-0.0958519875110606,0.9771202297030214,0.2402336001396179,0.2851040363311768,-0.9279027581214905,0,0,0,-1,-1,4964.680790625001,unknown,2,2022-06-30T09:51:26.741+02:00,2022-06-30T08:20:05.567+02:00,1418,1.388076,0,0,1121.329,0,0,2022-06-30T09:50:28.075+02:00
2022-06-30T09:51:35.405+02:00,4973.342038416667,-0.7603302001953125,1.7659912109375,0.03900146484375,4973.332086416667,-0.1625634737632695,0.297970931199367,-0.2374334577579336,5.101679801940918,4.593157768249512,1.092629671096802,-1.099782824516296,1.684026122093201,0.9035261273384094,XArbitraryZVertical,-0.1047723936565311,0.1564132570503238,-0.09724998698745736,0.9772922272650664,0.2853446900844574,0.2352088689804077,-0.9291152954101562,0,0,0,-1,-1,4964.680790625001,unknown,2,2022-06-30T09:51:26.741+02:00,2022-06-30T08:20:05.567+02:00,1418,1.388076,0,0,1121.329,0,0,2022-06-30T09:50:28.075+02:00
2022-06-30T09:51:35.416+02:00,4973.351989416667,-0.722015380859375,1.64398193359375,0.0996246337890625,4973.342038416667,-0.1675766741918141,0.3427014501595893,-0.1859321947654434,5.025379180908203,4.635380744934082,1.241525888442993,-1.109431266784668,1.641980171203613,0.9373965859413147,XArbitraryZVertical,-0.07694313818637176,0.1768369049743463,-0.09788222846788049,0.9763337210586323,0.330240935087204,0.1848627477884293,-0.9256169199943542,0,0,0,-1,-1,4964.680790625001,unknown,2,2022-06-30T09:51:26.741+02:00,2022-06-30T08:20:05.567+02:00,1418,1.388076,0,0,1121.329,0,0,2022-06-30T09:50:28.075+02:00
2022-06-30T09:51:35.425+02:00,4973.361941416667,-0.680633544921875,1.533889770507812,0.1296539306640625,4973.351989416667,-0.1729411796491192,0.388115997153846,-0.1352522695572569,4.861437320709229,4.688565254211426,1.407311677932739,-1.116795301437378,1.567124724388123,0.9881998300552368,XArbitraryZVertical,-0.04944212576539736,0.1974090314483996,-0.09753066662078413,0.974203784754283,0.3749890029430389,0.1348402798175812,-0.9171702861785889,0,0,0,-1,-1,4964.680790625001,unknown,2,2022-06-30T09:51:26.741+02:00,2022-06-30T08:20:05.567+02:00,1418,1.388076,0,0,1121.329,0,0,2022-06-30T09:50:28.075+02:00
2022-06-30T09:51:35.435+02:00,4973.371892416667,-0.6322021484375,1.414505004882812,0.1627960205078125,4973.361941416667,-0.1783266696889499,0.4342043982130881,-0.08597026236165092,4.6494460105896,4.720705986022949,1.573022246360779,-1.120597124099731,1.502605795860291,1.020843505859375,XArbitraryZVertical,-0.02263377269215075,0.2180835242912923,-0.09609405029432491,0.9709239458726379,0.4191350936889648,0.08586440235376358,-0.9038545489311218,0,0,0,-1,-1,4964.680790625001,unknown,2,2022-06-30T09:51:26.741+02:00,2022-06-30T08:20:05.567+02:00,1418,1.388076,0,0,1121.329,0,0,2022-06-30T09:50:28.075+02:00
2022-06-30T09:51:35.445+02:00,4973.381844416667,-0.5825958251953125,1.298248291015625,0.1864776611328125,4973.371892416667,-0.1834776710793388,0.4808466348766522,-0.03816689595652061,4.439644813537598,4.749141216278076,1.749222993850708,-1.118840098381042,1.437229633331299,1.033769726753235,XArbitraryZVertical,0.003354183528617342,0.2387671746881848,-0.09348369452687201,0.9665608513472426,0.4621931314468384,0.0381576307117939,-0.8859579563140869,0,0,0,-1,-1,4964.680790625001,unknown,2,2022-06-30T09:51:26.741+02:00,2022-06-30T08:20:05.567+02:00,1418,1.388076,0,0,1121.329,0,0,2022-06-30T09:50:28.075+02:00
2022-06-30T09:51:35.455+02:00,4973.391795416667,-0.5318603515625,1.216110229492188,0.2417144775390625,4973.381844416667,-0.1884636445913668,0.527898015563756,0.008677315329416884,4.309855937957764,4.772276878356934,1.93143892288208,-1.111121892929077,1.360636115074158,1.037754774093628,XArbitraryZVertical,0.02871779944853894,0.2593408131761928,-0.0897059837779807,0.9611817941347192,0.5036996603012085,-0.008677206002175808,-0.8638352751731873,0,0,0,-1,-1,4964.680790625001,unknown,2,2022-06-30T09:51:26.741+02:00,2022-06-30T08:20:05.567+02:00,1418,1.388076,0,0,1121.329,0,0,2022-06-30T09:50:28.075+02:00
2022-06-30T09:51:35.465+02:00,4973.401747416667,-0.4814453125,1.150009155273438,0.303955078125,4973.391795416667,-0.1935501376487603,0.5752761092083167,0.05545617637060804,4.262622356414795,4.785821437835693,2.132522583007812,-1.100221872329712,1.309074282646179,1.045027494430542,XArbitraryZVertical,0.05386168622474598,0.279683371732329,-0.08479050043582533,0.9548228915967366,0.5432301163673401,-0.05542775616049767,-0.8377522826194763,0,0,0,-1,-1,4964.680790625001,unknown,2,2022-06-30T09:51:26.741+02:00,2022-06-30T08:20:05.567+02:00,1418,1.388076,0,0,1121.329,0,0,2022-06-30T09:50:28.075+02:00
2022-06-30T09:51:35.475+02:00,4973.411698416667,-0.421234130859375,1.064468383789062,0.3437042236328125,4973.401747416667,-0.1990944906202758,0.6224712683950445,0.1026423125979132,4.23637580871582,4.747684478759766,2.303959608078003,-1.087361574172974,1.282729148864746,1.088178157806396,XArbitraryZVertical,0.07898673879122356,0.2994645756606234,-0.07885191629713986,0.9475570881770543,0.5799760818481445,-0.1024621799588203,-0.808164119720459,0,0,0,-1,-1,4964.680790625001,unknown,2,2022-06-30T09:51:26.741+02:00,2022-06-30T08:20:05.567+02:00,1418,1.388076,0,0,1121.329,0,0,2022-06-30T09:50:28.075+02:00
2022-06-30T09:51:35.485+02:00,4973.421650416667,-0.347747802734375,0.9276885986328125,0.3939208984375,4973.411698416667,-0.2050648388906156,0.6658845991846627,0.1491963425098821,4.238214015960693,4.654350757598877,2.428714513778687,-1.064032793045044,1.263221383094788,1.098725318908691,XArbitraryZVertical,0.1034247697974673,0.3169952071476128,-0.07223308005411655,0.9399998266758459,0.6108922362327576,-0.1486434489488602,-0.7776347398757935,0,0,0,-1,-1,4964.680790625001,unknown,2,2022-06-30T09:51:26.741+02:00,2022-06-30T08:20:05.567+02:00,1418,1.388076,0,0,1121.329,0,0,2022-06-30T09:50:28.075+02:00
2022-06-30T09:51:35.495+02:00,4973.431601416667,-0.256011962890625,0.783294677734375,0.4701385498046875,4973.421650416667,-0.2130800853549867,0.7124847445254622,0.197400740768439,4.275979995727539,4.519264698028564,2.508500814437866,-1.028823137283325,1.194549202919006,1.109383702278137,XArbitraryZVertical,0.1287352117922743,0.335269080428847,-0.06500544721081804,0.9310189695785775,0.6410207152366638,-0.1961212158203125,-0.7420437932014465,0,0,0,-1,-1,4964.680790625001,unknown,2,2022-06-30T09:51:26.741+02:00,2022-06-30T08:20:05.567+02:00,1418,1.388076,0,0,1121.329,0,0,2022-06-30T09:50:28.075+02:00
2022-06-30T09:51:35.505+02:00,4973.441553416667,-0.165863037109375,0.6546173095703125,0.5291595458984375,4973.431601416667,-0.2230972461275008,0.7585652784745078,0.2457318216546958,4.253100395202637,4.341723918914795,2.55623984336853,-0.9712176918983459,1.098078489303589,1.134027481079102,XArbitraryZVertical,0.1540444091845434,0.3525060417099551,-0.0575314038655109,0.9212491504213998,0.6672165393829346,-0.243266224861145,-0.7040196061134338,0,0,0,-1,-1,4964.680790625001,unknown,2,2022-06-30T09:51:26.741+02:00,2022-06-30T08:20:05.567+02:00,1418,1.388076,0,0,1121.329,0,0,2022-06-30T09:50:28.075+02:00
2022-06-30T09:51:35.515+02:00,4973.451504416667,-0.093536376953125,0.567413330078125,0.55157470703125,4973.441553416667,-0.2348640918112762,0.8035742535572471,0.2935456731085217,4.186720848083496,4.096901893615723,2.591012716293335,-0.8985989689826965,1.005030632019043,1.168351888656616,XArbitraryZVertical,0.1789981851882996,0.3684247033222052,-0.04987476293457819,0.9108981445637507,0.6890497207641602,-0.2893480360507965,-0.6644457578659058,0,0,0,-1,-1,4964.680790625001,unknown,2,2022-06-30T09:51:26.741+02:00,2022-06-30T08:20:05.567+02:00,1418,1.388076,0,0,1121.329,0,0,2022-06-30T09:50:28.075+02:00
2022-06-30T09:51:35.525+02:00,4973.461456416667,-0.0356292724609375,0.4928436279296875,0.565582275390625,4973.451504416667,-0.2481452046562791,0.846878560696547,0.3403690934786288,4.067168235778809,3.787601947784424,2.601475715637207,-0.8328529000282288,0.9405546188354492,1.165237188339233,XArbitraryZVertical,0.2033351448329067,0.382740896625568,-0.04213821497685205,0.9002159235240853,0.7062352299690247,-0.3338350355625153,-0.6243284344673157,0,0,0,-1,-1,4964.680790625001,unknown,2,2022-06-30T09:51:26.741+02:00,2022-06-30T08:20:05.567+02:00,1418,1.388076,0,0,1121.329,0,0,2022-06-30T09:50:28.075+02:00
2022-06-30T09:51:35.535+02:00,4973.471407416667,0.0062255859375,0.452178955078125,0.55450439453125,4973.461456416667,-0.262789366590057,0.8880693587755445,0.3859286750789044,3.979819774627686,3.464209318161011,2.600854873657227,-0.7810770869255066,0.9048464894294739,1.151004791259766,XArbitraryZVertical,0.2269181511356989,0.3952905140243033,-0.03444455631465269,0.8894195550354959,0.7187904119491577,-0.3764196634292603,-0.5845071077346802,0,0,0,-1,-1,4964.680790625001,unknown,2,2022-06-30T09:51:26.741+02:00,2022-06-30T08:20:05.567+02:00,1418,1.388076,0,0,1121.329,0,0,2022-06-30T09:50:28.075+02:00
2022-06-30T09:51:35.545+02:00,4973.481359416667,0.0313568115234375,0.462371826171875,0.5551605224609375,4973.471407416667,-0.2794507547738123,0.9274690441628597,0.4306306156847871,3.986909151077271,3.143218994140625,2.592081069946289,-0.7405611872673035,0.8845914602279663,1.098241448402405,XArbitraryZVertical,0.2500849854365736,0.4060909856597942,-0.02705136680064812,0.8785304707679028,0.7270569205284119,-0.4174439311027527,-0.5450952053070068,0,0,0,-1,-1,4964.680790625001,unknown,2,2022-06-30T09:51:26.741+02:00,2022-06-30T08:20:05.567+02:00,1418,1.388076,0,0,1121.329,0,0,2022-06-30T09:50:28.075+02:00
2022-06-30T09:51:35.555+02:00,4973.491310416667,0.042236328125,0.512969970703125,0.5478973388671875,4973.481359416667,-0.2987539691632281,0.9657171260772658,0.4748977061005107,4.054224967956543,2.860396385192871,2.587885618209839,-0.7093033194541931,0.908037543296814,1.066213726997375,XArbitraryZVertical,0.2731721273443669,0.4152549900315942,-0.02010791639656369,0.8674883953555432,0.7314436435699463,-0.4572474658489227,-0.5058805346488953,0,0,0,-1,-1,4964.680790625001,unknown,2,2022-06-30T09:51:26.741+02:00,2022-06-30T08:20:05.567+02:00,1418,1.388076,0,0,1121.329,0,0,2022-06-30T09:50:28.075+02:00
2022-06-30T09:51:35.565+02:00,4973.501262416667,0.0404510498046875,0.5079193115234375,0.59130859375,4973.491310416667,-0.3209686543415292,1.003393266818191,0.5188484611795778,4.09908390045166,2.590707302093506,2.602751970291138,-0.6944262385368347,0.9827117919921875,1.012991189956665,XArbitraryZVertical,0.2962986945194127,0.4229082809473205,-0.01363539514797712,0.8562533915571099,0.7323135733604431,-0.4958804845809937,-0.4667113423347473,0,0,0,-1,-1,4964.680790625001,unknown,2,2022-06-30T09:51:26.741+02:00,2022-06-30T08:20:05.567+02:00,1418,1.388076,0,0,1121.329,0,0,2022-06-30T09:50:28.075+02:00
2022-06-30T09:51:35.575+02:00,4973.511213416667,0.0385894775390625,0.434967041015625,0.6338653564453125,4973.501262416667,-0.345707524123879,1.040557889533018,0.5622462398736375,4.09869384765625,2.327131032943726,2.606751441955566,-0.6866565346717834,1.055960655212402,0.9937118291854858,XArbitraryZVertical,0.3192832540253237,0.4290867586610428,-0.007514014519729681,0.8449179778882465,0.7298844456672668,-0.5330879688262939,-0.427885502576828,0,0,0,-1,-1,4964.680790625001,unknown,2,2022-06-30T09:51:26.741+02:00,2022-06-30T08:20:05.567+02:00,1418,1.388076,0,0,1121.329,0,0,2022-06-30T09:50:28.075+02:00
2022-06-30T09:51:35.585+02:00,4973.521165416667,0.05059814453125,0.3585357666015625,0.694305419921875,4973.511213416667,-0.3732734792175343,1.077738125291083,0.6047290605096006,4.113809108734131,2.107822418212891,2.569206953048706,-0.6871327757835388,1.043560266494751,1.002906560897827,XArbitraryZVertical,0.3420424057033465,0.4339543145733623,-0.001879303971721045,0.8334789220768356,0.7246691584587097,-0.5685392022132874,-0.3893812894821167,0,0,0,-1,-1,4964.680790625001,unknown,2,2022-06-30T09:51:26.741+02:00,2022-06-30T08:20:05.567+02:00,1418,1.388076,0,0,1121.329,0,0,2022-06-30T09:50:28.075+02:00
2022-06-30T09:51:35.594+02:00,4973.531116416667,0.0775909423828125,0.2853546142578125,0.77215576171875,4973.521165416667,-0.4035757958696792,1.11560854334461,0.6457660806254889,4.042555809020996,1.957339644432068,2.514221906661987,-0.6750842928886414,0.9973026514053345,1.010011434555054,XArbitraryZVertical,0.3643486709684723,0.4378319724404753,0.003293528698645519,0.8219138153613892,0.7173203229904175,-0.6018104553222656,-0.3511064052581787,0,0,0,-1,-1,4964.680790625001,unknown,2,2022-06-30T09:51:26.741+02:00,2022-06-30T08:20:05.567+02:00,1418,1.388076,0,0,1121.329,0,0,2022-06-30T09:50:28.075+02:00
2022-06-30T09:51:35.605+02:00,4973.541068416667,0.1137237548828125,0.235015869140625,0.8539581298828125,4973.531116416667,-0.4360587003476672,1.154607765998132,0.6850722474262325,3.9495530128479,1.861998438835144,2.483085155487061,-0.6461213231086731,0.9537582993507385,1.045315504074097,XArbitraryZVertical,0.385975253837246,0.4410128311410228,0.008249451943145188,0.8102238746091409,0.7082700729370117,-0.6327289342880249,-0.3130615651607513,0,0,0,-1,-1,4964.680790625001,unknown,2,2022-06-30T09:51:26.741+02:00,2022-06-30T08:20:05.567+02:00,1418,1.388076,0,0,1121.329,0,0,2022-06-30T09:50:28.075+02:00
2022-06-30T09:51:35.615+02:00,4973.551019416667,0.1499786376953125,0.2098541259765625,0.88787841796875,4973.541068416667,-0.4704202092335429,1.194858335516328,0.7227179697044159,3.838184833526611,1.756775736808777,2.459266901016235,-0.6023266315460205,0.9183070659637451,1.090563535690308,XArbitraryZVertical,0.4068847607626151,0.4435801919105134,0.01316409509162465,0.7984410060293448,0.6976326704025269,-0.6614255905151367,-0.2753628194332123,0,0,0,-1,-1,4964.680790625001,unknown,2,2022-06-30T09:51:26.741+02:00,2022-06-30T08:20:05.567+02:00,1418,1.388076,0,0,1121.329,0,0,2022-06-30T09:50:28.075+02:00
2022-06-30T09:51:35.625+02:00,4973.560971416667,0.180023193359375,0.2040557861328125,0.839019775390625,4973.551019416667,-0.5072321563065834,1.236411491046029,0.758690966175673,3.810000419616699,1.593681573867798,2.417794704437256,-0.5526976585388184,0.9080187678337097,1.118885040283203,XArbitraryZVertical,0.4272020233903235,0.4454315519920876,0.01782601071400941,0.7866202033629546,0.6855403184890747,-0.6879720091819763,-0.2381783276796341,0,0,0,-1,-1,4964.680790625001,unknown,2,2022-06-30T09:51:26.741+02:00,2022-06-30T08:20:05.567+02:00,1418,1.388076,0,0,1121.329,0,0,2022-06-30T09:50:28.075+02:00
2022-06-30T09:51:35.634+02:00,4973.570922416667,0.1908721923828125,0.1614990234375,0.827117919921875,4973.560971416667,-0.5474786785823728,1.279151427780462,0.793039153983543,3.827864170074463,1.326661109924316,2.370501518249512,-0.5046793818473816,0.9200846552848816,1.071077346801758,XArbitraryZVertical,0.4471686796422282,0.4462772382778299,0.02185636282127137,0.7748542327756962,0.6720526814460754,-0.7124890685081482,-0.2017536014318466,0,0,0,-1,-1,4964.680790625001,unknown,2,2022-06-30T09:51:26.741+02:00,2022-06-30T08:20:05.567+02:00,1418,1.388076,0,0,1121.329,0,0,2022-06-30T09:50:28.075+02:00
2022-06-30T09:51:35.644+02:00,4973.580874416667,0.1817626953125,0.097503662109375,0.827789306640625,4973.570922416667,-0.5927723023533065,1.323639596182036,0.8259780597813243,4.018418788909912,1.030992150306702,2.336915969848633,-0.4683213829994202,0.9248775243759155,0.9898827075958252,XArbitraryZVertical,0.4672086725208739,0.4458700872281026,0.02486351759320179,0.7630844037207462,0.657240092754364,-0.7352110743522644,-0.1658318489789963,0,0,0,-1,-1,4964.680790625001,unknown,2,2022-06-30T09:51:26.741+02:00,2022-06-30T08:20:05.567+02:00,1418,1.388076,0,0,1121.329,0,0,2022-06-30T09:50:28.075+02:00
2022-06-30T09:51:35.654+02:00,4973.590825416667,0.156280517578125,0.034332275390625,0.8294677734375,4973.580874416667,-0.6460047501004805,1.372190862667317,0.8575123464618437,4.332350730895996,0.7522410750389099,2.258413076400757,-0.4532264471054077,0.8835362195968628,0.9591618776321411,XArbitraryZVertical,0.4879212442619686,0.4442784349019862,0.02639761495362648,0.7509013060757349,0.6414585709571838,-0.7562171816825867,-0.1290990561246872,0,0,0,-1,-1,4964.680790625001,unknown,2,2022-06-30T09:51:26.741+02:00,2022-06-30T08:20:05.567+02:00,1418,1.388076,0,0,1121.329,0,0,2022-06-30T09:50:28.075+02:00
2022-06-30T09:51:35.664+02:00,4973.600777416667,0.1332244873046875,-0.067138671875,0.8621826171875,4973.590825416667,-0.7078797492765569,1.425827695205777,0.8865864700136898,4.530490398406982,0.5149387717247009,2.126768112182617,-0.4553568959236145,0.8445289731025696,0.9171445369720459,XArbitraryZVertical,0.5091235523336128,0.4417453973184061,0.02629615365851925,0.7382159933944603,0.6254310607910156,-0.7749187350273132,-0.09130842238664627,0,0,0,-1,-1,4964.680790625001,unknown,2,2022-06-30T09:51:26.741+02:00,2022-06-30T08:20:05.567+02:00,1418,1.388076,0,0,1121.329,0,0,2022-06-30T09:50:28.075+02:00
2022-06-30T09:51:35.674+02:00,4973.610729416667,0.1274261474609375,-0.177581787109375,0.925628662109375,4973.600777416667,-0.7766927310409399,1.483955286406784,0.9122739532327451,4.60435962677002,0.3536393344402313,2.012933969497681,-0.4681944251060486,0.7801241874694824,0.8918206691741943,XArbitraryZVertical,0.5302337033147463,0.4385367207706063,0.02490610648010386,0.7252017714807842,0.6096431016921997,-0.7908973097801208,-0.05307552963495255,0,0,0,-1,-1,4964.680790625001,unknown,2,2022-06-30T09:51:26.741+02:00,2022-06-30T08:20:05.567+02:00,1418,1.388076,0,0,1121.329,0,0,2022-06-30T09:50:28.075+02:00
2022-06-30T09:51:35.684+02:00,4973.620680416667,0.1423492431640625,-0.2559967041015625,0.9542388916015625,4973.610729416667,-0.8505196130294113,1.545854717855975,0.9344377693498049,4.567415714263916,0.2563396990299225,1.927061796188354,-0.4637762308120728,0.6797683238983154,0.9116711616516113,XArbitraryZVertical,0.5509012420614229,0.4348534869688288,0.02279258945337319,0.7119626478825689,0.5940859317779541,-0.8042650818824768,-0.0148205328732729,0,0,0,-1,-1,4964.680790625001,unknown,2,2022-06-30T09:51:26.741+02:00,2022-06-30T08:20:05.567+02:00,1418,1.388076,0,0,1121.329,0,0,2022-06-30T09:50:28.075+02:00
