loggingTime(txt),accelerometerTimestamp_sinceReboot(s),accelerometerAccelerationX(G),accelerometerAccelerationY(G),accelerometerAccelerationZ(G),motionTimestamp_sinceReboot(s),motionYaw(rad),motionRoll(rad),motionPitch(rad),motionRotationRateX(rad/s),motionRotationRateY(rad/s),motionRotationRateZ(rad/s),motionUserAccelerationX(G),motionUserAccelerationY(G),motionUserAccelerationZ(G),motionAttitudeReferenceFrame(txt),motionQuaternionX(R),motionQuaternionY(R),motionQuaternionZ(R),motionQuaternionW(R),motionGravityX(G),motionGravityY(G),motionGravityZ(G),motionMagneticFieldX(µT),motionMagneticFieldY(µT),motionMagneticFieldZ(µT),motionHeading(°),motionMagneticFieldCalibrationAccuracy(Z),activityTimestamp_sinceReboot(s),activity(txt),activityActivityConfidence(Z),activityActivityStartDate(txt),pedometerStartDate(txt),pedometerNumberofSteps(N),pedometerAverageActivePace(s/m),pedometerCurrentPace(s/m),pedometerCurrentCadence(steps/s),pedometerDistance(m),pedometerFloorAscended(N),pedometerFloorDescended(N),pedometerEndDate(txt)
2022-06-30T09:51:44.516+02:00,4982.437720166667,0.0646820068359375,-0.0649566650390625,-0.88995361328125,4982.427768166667,0.802538761721188,0.04106507236298446,0.09836334584672854,-0.3591242432594299,0.2258198261260986,-0.05400273203849792,-0.02797709405422211,-0.1773688495159149,0.1260105967521667,XArbitraryZVertical,0.03723769728157317,0.03807531250500222,0.3909618548502463,0.9188647709086976,0.04085508733987808,-0.09820480644702911,-0.9943272471427917,0,0,0,-1,-1,4979.96667475,unknown,2,2022-06-30T09:51:42.027+02:00,2022-06-30T08:20:05.567+02:00,1418,1.388076,0,0,1121.329,0,0,2022-06-30T09:50:28.075+02:00
2022-06-30T09:51:44.518+02:00,4982.447671166667,0.02471923828125,-0.044342041015625,-0.9003143310546875,4982.437720166667,0.8022297548968317,0.04257333477922926,0.09627888872879205,-0.02272480167448521,0.08973431587219238,-0.05111007392406464,0.06507333368062973,-0.0006714686751365662,0.1183071732521057,XArbitraryZVertical,0.0359902675216183,0.03835716705802276,0.3908472261701798,0.9189516035311359,0.04236336797475815,-0.09613021463155746,-0.9944668412208557,0,0,0,-1,-1,4979.96667475,unknown,2,2022-06-30T09:51:42.027+02:00,2022-06-30T08:20:05.567+02:00,1418,1.388076,0,0,1121.329,0,0,2022-06-30T09:50:28.075+02:00
2022-06-30T09:51:44.522+02:00,4982.457623166667,0.0093994140625,-0.0782318115234375,-0.9156341552734375,4982.447671166667,0.8013114990815641,0.04269828551877181,0.09746737374048445,0.2640236020088196,-0.05964930728077888,-0.1175021454691887,-0.01054650545120239,0.04927853494882584,0.09815222024917603,XArbitraryZVertical,0.03653013802238168,0.03862894338199675,0.3904279823571684,0.9190970561963958,0.04248271882534027,-0.09731312841176987,-0.9943466782569885,0,0,0,-1,-1,4979.96667475,unknown,2,2022-06-30T09:51:42.027+02:00,2022-06-30T08:20:05.567+02:00,1418,1.388076,0,0,1121.329,0,0,2022-06-30T09:50:28.075+02:00
2022-06-30T09:51:44.531+02:00,4982.467574166667,-0.0105133056640625,-0.114715576171875,-0.9371185302734375,4982.457623166667,0.8001588278337755,0.04167884513474557,0.1005802837909168,0.3629299402236938,-0.1359850913286209,-0.08110152930021286,-0.02418367564678192,0.04441110789775848,0.08635187149047852,XArbitraryZVertical,0.03818322865447518,0.0387431543816811,0.389879365286108,0.9192579332570731,0.0414561964571476,-0.1004107818007469,-0.9940820336341858,0,0,0,-1,-1,4979.96667475,unknown,2,2022-06-30T09:51:42.027+02:00,2022-06-30T08:20:05.567+02:00,1418,1.388076,0,0,1121.329,0,0,2022-06-30T09:50:28.075+02:00
2022-06-30T09:51:44.541+02:00,4982.477526166667,-0.009429931640625,-0.119354248046875,-0.96527099609375,4982.467574166667,0.7994101426205786,0.04031365181921071,0.1037656933487141,0.2847728133201599,-0.1289245188236237,-0.04926157370209694,-0.04315339773893356,0.00299372524023056,0.06879472732543945,XArbitraryZVertical,0.0399292028267667,0.03871861874457148,0.3895069472272299,0.9193426533031909,0.04008595272898674,-0.103579580783844,-0.9938130378723145,0,0,0,-1,-1,4979.96667475,unknown,2,2022-06-30T09:51:42.027+02:00,2022-06-30T08:20:05.567+02:00,1418,1.388076,0,0,1121.329,0,0,2022-06-30T09:50:28.075+02:00
2022-06-30T09:51:44.551+02:00,4982.487477166667,0.0129547119140625,-0.1016998291015625,-0.987945556640625,4982.477526166667,0.7988486850514271,0.03918346621413795,0.1057570361651906,0.1418500393629074,-0.09043864905834198,-0.04884212836623192,-0.05175713077187538,-0.01458761841058731,0.04214203357696533,XArbitraryZVertical,0.04107628713693311,0.03857348875975732,0.3892239071547767,0.9194180244817414,0.03895457461476326,-0.1055600047111511,-0.9936496615409851,0,0,0,-1,-1,4979.96667475,unknown,2,2022-06-30T09:51:42.027+02:00,2022-06-30T08:20:05.567+02:00,1418,1.388076,0,0,1121.329,0,0,2022-06-30T09:50:28.075+02:00
2022-06-30T09:51:44.561+02:00,4982.497429166667,0.04290771484375,-0.080352783203125,-1.0023193359375,4982.487477166667,0.7983802776301758,0.03839099580690913,0.1065306982951354,0.03764559701085091,-0.0640011802315712,-0.03689891472458839,-0.0393698550760746,-0.007165476679801941,0.01462489366531372,XArbitraryZVertical,0.04159545831523581,0.03834927081492041,0.3889911127498787,0.9195025799045053,0.03816397860646248,-0.1063293144106865,-0.9935982823371887,0,0,0,-1,-1,4979.96667475,unknown,2,2022-06-30T09:51:42.027+02:00,2022-06-30T08:20:05.567+02:00,1418,1.388076,0,0,1121.329,0,0,2022-06-30T09:50:28.075+02:00
2022-06-30T09:51:44.570+02:00,4982.507380166667,0.062530517578125,-0.0687103271484375,-0.9975433349609375,4982.497429166667,0.7980985643069148,0.03774114093100838,0.1064561463613705,-0.02626147866249084,-0.05891241133213043,-0.02119558490812778,-0.008512042462825775,0.01676246523857117,-0.0007845163345336914,XArbitraryZVertical,0.0416929021361658,0.03803019359814199,0.3888481737987766,0.919571885630404,0.03751857578754425,-0.1062551811337471,-0.9936308264732361,0,0,0,-1,-1,4979.96667475,unknown,2,2022-06-30T09:51:42.027+02:00,2022-06-30T08:20:05.567+02:00,1418,1.388076,0,0,1121.329,0,0,2022-06-30T09:50:28.075+02:00
2022-06-30T09:51:44.581+02:00,4982.517332166667,0.0740814208984375,-0.0655670166015625,-0.991668701171875,4982.507380166667,0.7979407673660385,0.03708696996438331,0.1060317548804047,-0.03550158441066742,-0.05900402367115021,-0.01522504445165396,0.01630621775984764,0.031507708132267,-0.009244859218597412,XArbitraryZVertical,0.04162776005473285,0.03764399930667491,0.3887626951246608,0.9196269516457635,0.03687023371458054,-0.1058331876993179,-0.9937001466751099,0,0,0,-1,-1,4979.96667475,unknown,2,2022-06-30T09:51:42.027+02:00,2022-06-30T08:20:05.567+02:00,1418,1.388076,0,0,1121.329,0,0,2022-06-30T09:50:28.075+02:00
2022-06-30T09:51:44.591+02:00,4982.527283166667,0.0741729736328125,-0.0689849853515625,-0.98724365234375,4982.517332166667,0.7978211776434366,0.03677012035059726,0.1057083744776056,-0.02662999555468559,-0.06298292428255081,-0.004264172166585922,0.03212274238467216,0.03934959322214127,-0.001279711723327637,XArbitraryZVertical,0.04154276867808899,0.03743325329390553,0.3887016858703527,0.9196652116515863,0.03655663132667542,-0.1055116131901741,-0.9937459230422974,0,0,0,-1,-1,4979.96667475,unknown,2,2022-06-30T09:51:42.027+02:00,2022-06-30T08:20:05.567+02:00,1418,1.388076,0,0,1121.329,0,0,2022-06-30T09:50:28.075+02:00
2022-06-30T09:51:44.601+02:00,4982.537235166667,0.0746612548828125,-0.07623291015625,-0.9732513427734375,4982.527283166667,0.7978435542312384,0.03616698782184307,0.1053393131278559,-0.001118509564548731,-0.05921481177210808,0.009024469181895256,0.04018225520849228,0.0382348969578743,0.003999471664428711,XArbitraryZVertical,0.04148972641723553,0.03708498123576019,0.3887001641805321,0.9196822583705189,0.0359586700797081,-0.1051446050405502,-0.9938066005706787,0,0,0,-1,-1,4979.96667475,unknown,2,2022-06-30T09:51:42.027+02:00,2022-06-30T08:20:05.567+02:00,1418,1.388076,0,0,1121.329,0,0,2022-06-30T09:50:28.075+02:00
2022-06-30T09:51:44.611+02:00,4982.547186166667,0.0740814208984375,-0.0940093994140625,-0.9656829833984375,4982.537235166667,0.7979889207542339,0.03540990102128111,0.1052850790670856,0.03609210997819901,-0.07470840215682983,0.01483435463160276,0.03873719274997711,0.03403057903051376,0.01361465454101562,XArbitraryZVertical,0.04160923513067488,0.03672937158766165,0.38875139564312,0.9196694484560849,0.03520646691322327,-0.1050906702876091,-0.9938392639160156,0,0,0,-1,-1,4979.96667475,unknown,2,2022-06-30T09:51:42.027+02:00,2022-06-30T08:20:05.567+02:00,1418,1.388076,0,0,1121.329,0,0,2022-06-30T09:50:28.075+02:00
2022-06-30T09:51:44.621+02:00,4982.557138166667,0.0698394775390625,-0.11492919921875,-0.9638671875,4982.547186166667,0.7981388864820417,0.03439327188258107,0.105889103543451,0.07750613242387772,-0.08543774485588074,0.01257572695612907,0.04158082231879234,0.02103565633296967,0.02309250831604004,XArbitraryZVertical,0.04208207728822921,0.03638193686692721,0.388797741049916,0.9196421540774343,0.03419389203190804,-0.1056913360953331,-0.9938108921051025,0,0,0,-1,-1,4979.96667475,unknown,2,2022-06-30T09:51:42.027+02:00,2022-06-30T08:20:05.567+02:00,1418,1.388076,0,0,1121.329,0,0,2022-06-30T09:50:28.075+02:00
2022-06-30T09:51:44.631+02:00,4982.567089166667,0.061676025390625,-0.142486572265625,-0.9600830078125,4982.557138166667,0.7982369601522992,0.03319187724967321,0.1068713774857718,0.09530156850814819,-0.1016860678792,0.009042412042617798,0.03954340517520905,0.004052780568599701,0.02817082405090332,XArbitraryZVertical,0.04276586273504173,0.03602173666772226,0.3888148203297813,0.919617658138566,0.03299644961953163,-0.1066680550575256,-0.9937470555305481,0,0,0,-1,-1,4979.96667475,unknown,2,2022-06-30T09:51:42.027+02:00,2022-06-30T08:20:05.567+02:00,1418,1.388076,0,0,1121.329,0,0,2022-06-30T09:50:28.075+02:00
2022-06-30T09:51:44.640+02:00,4982.577041166667,0.0545806884765625,-0.155853271484375,-0.96258544921875,4982.567089166667,0.7982238134768889,0.0320098255809349,0.1078811553282279,0.09273161739110947,-0.1005355790257454,-0.006270231679081917,0.03367199003696442,-0.02124941349029541,0.03171730041503906,XArbitraryZVertical,0.04346053469048567,0.03567342277568057,0.3887803395693943,0.9196132437692296,0.03181830048561096,-0.1076720207929611,-0.9936771988868713,0,0,0,-1,-1,4979.96667475,unknown,2,2022-06-30T09:51:42.027+02:00,2022-06-30T08:20:05.567+02:00,1418,1.388076,0,0,1121.329,0,0,2022-06-30T09:50:28.075+02:00
2022-06-30T09:51:44.651+02:00,4982.586992166667,0.0454864501953125,-0.150634765625,-0.9683074951171875,4982.577041166667,0.7981066020445461,0.03106169971037737,0.1084850877239609,0.05688733607530594,-0.08460137993097305,-0.01349618658423424,0.02868049405515194,-0.04224018752574921,0.03331458568572998,XArbitraryZVertical,0.04392480013623939,0.03535181636422535,0.388703775156544,0.9196359453057168,0.03087413124740124,-0.1082724183797836,-0.99364173412323,0,0,0,-1,-1,4979.96667475,unknown,2,2022-06-30T09:51:42.027+02:00,2022-06-30T08:20:05.567+02:00,1418,1.388076,0,0,1121.329,0,0,2022-06-30T09:50:28.075+02:00
2022-06-30T09:51:44.675+02:00,4982.596944166667,0.0442962646484375,-0.1316986083984375,-0.9667816162109375,4982.586992166667,0.7978999778026847,0.03058394895426578,0.1085167773942733,0.02550997212529182,-0.06402686238288879,-0.01904088631272316,0.0183368306607008,-0.04715253412723541,0.02583372592926025,XArbitraryZVertical,0.04403586261277639,0.03513372294682809,0.3885981509099731,0.9196836183227927,0.03039930947124958,-0.1083039194345474,-0.9936529397964478,0,0,0,-1,-1,4979.96667475,unknown,2,2022-06-30T09:51:42.027+02:00,2022-06-30T08:20:05.567+02:00,1418,1.388076,0,0,1121.329,0,0,2022-06-30T09:50:28.075+02:00
2022-06-30T09:51:44.677+02:00,4982.606895166667,0.0399627685546875,-0.1136322021484375,-0.9786224365234375,4982.596944166667,0.7975901240673132,0.03053956411776055,0.1081775994613918,0.0237579457461834,-0.05468112230300903,-0.0308013092726469,0.0148855559527874,-0.03422983735799789,0.02840465307235718,XArbitraryZVertical,0.04389383776617817,0.03504086950282312,0.3884558674804888,0.9197540566739886,0.03035632520914078,-0.107966735959053,-0.9936909079551697,0,0,0,-1,-1,4979.96667475,unknown,2,2022-06-30T09:51:42.027+02:00,2022-06-30T08:20:05.567+02:00,1418,1.388076,0,0,1121.329,0,0,2022-06-30T09:50:28.075+02:00
2022-06-30T09:51:44.681+02:00,4982.616847166667,0.0366668701171875,-0.1154937744140625,-0.983184814453125,4982.606895166667,0.7971647598308552,0.03088270301516615,0.1077541264111209,0.03982239961624146,-0.04653744027018547,-0.03523600101470947,0.01075899228453636,-0.01478390395641327,0.01821643114089966,XArbitraryZVertical,0.04363977599170044,0.03510746605933516,0.3882692065889646,0.9198423719889096,0.03069870732724667,-0.1075457260012627,-0.9937260746955872,0,0,0,-1,-1,4979.96667475,unknown,2,2022-06-30T09:51:42.027+02:00,2022-06-30T08:20:05.567+02:00,1418,1.388076,0,0,1121.329,0,0,2022-06-30T09:50:28.075+02:00
2022-06-30T09:51:44.690+02:00,4982.626799166667,0.0332794189453125,-0.1271209716796875,-0.9907073974609375,4982.616847166667,0.7966151567762347,0.03152300014053018,0.107388460746801,0.0602240078151226,-0.04577501490712166,-0.0497354157269001,0.007207054644823074,-0.003154054284095764,0.01478731632232666,XArbitraryZVertical,0.04335688022247617,0.03531932950038398,0.3880315223907816,0.9199479675382461,0.0313362181186676,-0.1071821749210358,-0.9937454462051392,0,0,0,-1,-1,4979.96667475,unknown,2,2022-06-30T09:51:42.027+02:00,2022-06-30T08:20:05.567+02:00,1418,1.388076,0,0,1121.329,0,0,2022-06-30T09:50:28.075+02:00
2022-06-30T09:51:44.700+02:00,4982.636750166667,0.0272979736328125,-0.1314849853515625,-0.99249267578125,4982.626799166667,0.7959169899411114,0.03235663964895535,0.1074092486116602,0.0621982105076313,-0.03774398565292358,-0.06031002849340439,0.002319872379302979,-0.0164543017745018,0.005099833011627197,XArbitraryZVertical,0.04321716728327896,0.03569170872916923,0.3877283312724492,0.9200680404249949,0.0321645624935627,-0.1072028428316116,-0.9937167763710022,0,0,0,-1,-1,4979.96667475,unknown,2,2022-06-30T09:51:42.027+02:00,2022-06-30T08:20:05.567+02:00,1418,1.388076,0,0,1121.329,0,0,2022-06-30T09:50:28.075+02:00
2022-06-30T09:51:44.710+02:00,4982.646702166667,0.0225677490234375,-0.129669189453125,-0.9907073974609375,4982.636750166667,0.7952061407687224,0.0331534843544064,0.1078071805514643,0.0351545438170433,-0.02516363561153412,-0.05872395262122154,-0.003093957901000977,-0.02126191556453705,0.002513468265533447,XArbitraryZVertical,0.04325872140976877,0.03611973297817685,0.3874173923770433,0.9201803043095668,0.03295497223734856,-0.1075984761118889,-0.9936481118202209,0,0,0,-1,-1,4979.96667475,unknown,2,2022-06-30T09:51:42.027+02:00,2022-06-30T08:20:05.567+02:00,1418,1.388076,0,0,1121.329,0,0,2022-06-30T09:50:28.075+02:00
2022-06-30T09:51:44.720+02:00,4982.656653166667,0.0170745849609375,-0.12109375,-0.985748291015625,4982.646702166667,0.794529096400849,0.03386101297423413,0.1086215843774714,0.01829992979764938,-0.00672577228397131,-0.05742646008729935,-0.008631031960248947,-0.02365662902593613,0.001196503639221191,XArbitraryZVertical,0.04350902992274139,0.03658760424441512,0.3871189722065457,0.9202756417175669,0.03365502133965492,-0.1084081158041954,-0.993536651134491,0,0,0,-1,-1,4979.96667475,unknown,2,2022-06-30T09:51:42.027+02:00,2022-06-30T08:20:05.567+02:00,1418,1.388076,0,0,1121.329,0,0,2022-06-30T09:50:28.075+02:00
2022-06-30T09:51:44.730+02:00,4982.666605166667,0.0179901123046875,-0.1157073974609375,-0.988128662109375,4982.656653166667,0.7939193664349662,0.03453455510314409,0.109784387727338,0.0009859870187938213,0.005827534012496471,-0.0485357977449894,-0.01599444821476936,-0.01613783836364746,0.004998981952667236,XArbitraryZVertical,0.04392542836533373,0.03710820143113093,0.3868499990691369,0.9203481535029873,0.03431982547044754,-0.1095639914274216,-0.9933871030807495,0,0,0,-1,-1,4979.96667475,unknown,2,2022-06-30T09:51:42.027+02:00,2022-06-30T08:20:05.567+02:00,1418,1.388076,0,0,1121.329,0,0,2022-06-30T09:50:28.075+02:00
2022-06-30T09:51:44.740+02:00,4982.676556166667,0.0195770263671875,-0.11279296875,-0.9937744140625,4982.666605166667,0.7934155802589157,0.03503437699529469,0.1110291321325644,-0.002198354806751013,0.01127449702471495,-0.04722046107053757,-0.01798151805996895,-0.007484897971153259,0.00662994384765625,XArbitraryZVertical,0.04441146111526482,0.03756668355484072,0.3866259102840127,0.9204003446082241,0.03481153398752213,-0.1108011528849602,-0.9932327270507812,0,0,0,-1,-1,4979.96667475,unknown,2,2022-06-30T09:51:42.027+02:00,2022-06-30T08:20:05.567+02:00,1418,1.388076,0,0,1121.329,0,0,2022-06-30T09:50:28.075+02:00
2022-06-30T09:51:44.750+02:00,4982.686508166667,0.026153564453125,-0.1124725341796875,-0.9937286376953125,4982.676556166667,0.7929310505066485,0.03557295606264202,0.1121227375152002,-0.003149236086755991,0.02132081240415573,-0.04383445158600807,-0.01703201606869698,-0.001637354493141174,0.001957476139068604,XArbitraryZVertical,0.04482023767407119,0.03801409072577419,0.386412043734369,0.9204520003096511,0.03534213081002235,-0.1118879616260529,-0.9930921792984009,0,0,0,-1,-1,4979.96667475,unknown,2,2022-06-30T09:51:42.027+02:00,2022-06-30T08:20:05.567+02:00,1418,1.388076,0,0,1121.329,0,0,2022-06-30T09:50:28.075+02:00
2022-06-30T09:51:44.760+02:00,4982.696459166667,0.027862548828125,-0.11541748046875,-0.997344970703125,4982.686508166667,0.7924977711274778,0.03605463417177806,0.1125108917895798,-0.005722914822399616,0.02520343475043774,-0.0372183583676815,-0.01282434165477753,0.0006862208247184753,-0.001643180847167969,XArbitraryZVertical,0.04491425940680534,0.03830067530357165,0.386222435044947,0.9205151025584435,0.035818912088871,-0.112273670732975,-0.9930315613746643,0,0,0,-1,-1,4979.96667475,unknown,2,2022-06-30T09:51:42.027+02:00,2022-06-30T08:20:05.567+02:00,1418,1.388076,0,0,1121.329,0,0,2022-06-30T09:50:28.075+02:00
2022-06-30T09:51:44.770+02:00,4982.706411166667,0.022796630859375,-0.1262359619140625,-1.003890991210938,4982.696459166667,0.7921288748773214,0.0364970485786026,0.1124130354806229,-0.01128719095140696,0.03308305144309998,-0.03621161729097366,-0.00935782864689827,-6.714463233947754e-05,-0.0006105303764343262,XArbitraryZVertical,0.04479084346801364,0.03847723299041022,0.3860628071870121,0.9205807112315614,0.03625863790512085,-0.1121764332056046,-0.9930265545845032,0,0,0,-1,-1,4979.96667475,unknown,2,2022-06-30T09:51:42.027+02:00,2022-06-30T08:20:05.567+02:00,1418,1.388076,0,0,1121.329,0,0,2022-06-30T09:50:28.075+02:00
2022-06-30T09:51:44.780+02:00,4982.716362166667,0.023193359375,-0.1248931884765625,-0.9976959228515625,4982.706411166667,0.7917441543647533,0.03679430403551815,0.1128323384464464,-0.01089890208095312,0.03829086199402809,-0.0466323010623455,-0.01052102446556091,-0.009095683693885803,-0.00944221019744873,XArbitraryZVertical,0.04493407215975346,0.0386859540372578,0.3858913786168782,0.920636841548955,0.03655208647251129,-0.1125930771231651,-0.9929686784744263,0,0,0,-1,-1,4979.96667475,unknown,2,2022-06-30T09:51:42.027+02:00,2022-06-30T08:20:05.567+02:00,1418,1.388076,0,0,1121.329,0,0,2022-06-30T09:50:28.075+02:00
2022-06-30T09:51:44.790+02:00,4982.726314166667,0.020965576171875,-0.1240386962890625,-0.993255615234375,4982.716362166667,0.7912929615065992,0.03697795562391658,0.1133967573217737,-0.02156958915293217,0.05019992217421532,-0.05047234892845154,-0.01451572403311729,-0.01402804255485535,-0.008352994918823242,XArbitraryZVertical,0.04516744281428433,0.03886865974757856,0.3856864511732586,0.9207036377054895,0.03673209249973297,-0.1131538897752762,-0.9928982853889465,0,0,0,-1,-1,4979.96667475,unknown,2,2022-06-30T09:51:42.027+02:00,2022-06-30T08:20:05.567+02:00,1418,1.388076,0,0,1121.329,0,0,2022-06-30T09:50:28.075+02:00
2022-06-30T09:51:44.800+02:00,4982.736265166667,0.021881103515625,-0.125701904296875,-0.9907073974609375,4982.726314166667,0.7909101325966458,0.03703588083483948,0.1139402780460235,-0.02957878075540066,0.05805305391550064,-0.04211055487394333,-0.01484560966491699,-0.009093500673770905,-0.002160608768463135,XArbitraryZVertical,0.04541416626138346,0.03899092499838251,0.3855102244071015,0.9207600655338598,0.03678732365369797,-0.1136939004063606,-0.9928345084190369,0,0,0,-1,-1,4979.96667475,unknown,2,2022-06-30T09:51:42.027+02:00,2022-06-30T08:20:05.567+02:00,1418,1.388076,0,0,1121.329,0,0,2022-06-30T09:50:28.075+02:00
2022-06-30T09:51:44.810+02:00,4982.746217166667,0.022705078125,-0.1217193603515625,-0.9882354736328125,4982.736265166667,0.7905969877648171,0.03692627792094517,0.1141426651300771,-0.03346193581819534,0.06877452880144119,-0.04462244734168053,-0.01499534398317337,-0.01124227792024612,0.001345157623291016,XArbitraryZVertical,0.04553465147073332,0.03897214857368074,0.3853630548594575,0.9208165558859411,0.03667765483260155,-0.1138949766755104,-0.9928155541419983,0,0,0,-1,-1,4979.96667475,unknown,2,2022-06-30T09:51:42.027+02:00,2022-06-30T08:20:05.567+02:00,1418,1.388076,0,0,1121.329,0,0,2022-06-30T09:50:28.075+02:00
2022-06-30T09:51:44.820+02:00,4982.756168166667,0.0344696044921875,-0.118896484375,-0.983551025390625,4982.746217166667,0.7902361539715373,0.03687560460940113,0.114090008679182,-0.0169583261013031,0.071797214448452,-0.04615616053342819,-0.01615069806575775,-0.009906046092510223,0.0007884502410888672,XArbitraryZVertical,0.04552717438013187,0.03893050803871589,0.3851958863527804,0.9208886606513791,0.03662756457924843,-0.1138426586985588,-0.9928233623504639,0,0,0,-1,-1,4979.96667475,unknown,2,2022-06-30T09:51:42.027+02:00,2022-06-30T08:20:05.567+02:00,1418,1.388076,0,0,1121.329,0,0,2022-06-30T09:50:28.075+02:00
2022-06-30T09:51:44.830+02:00,4982.766120166667,0.0352935791015625,-0.115386962890625,-0.9821929931640625,4982.756168166667,0.7898839870909037,0.0368626889182954,0.1140265507067325,0.004524396266788244,0.06388168036937714,-0.03950348496437073,-0.006494589149951935,-0.006749480962753296,0.007845699787139893,XArbitraryZVertical,0.04550726755835843,0.03890438459106319,0.3850335758347281,0.9209586797482311,0.03661501035094261,-0.1137796118855476,-0.9928310513496399,0,0,0,-1,-1,4979.96667475,unknown,2,2022-06-30T09:51:42.027+02:00,2022-06-30T08:20:05.567+02:00,1418,1.388076,0,0,1121.329,0,0,2022-06-30T09:50:28.075+02:00
2022-06-30T09:51:44.840+02:00,4982.776071166667,0.034423828125,-0.1237945556640625,-0.982513427734375,4982.766120166667,0.7895902907154564,0.03697200356151832,0.1141333717167672,0.03036052174866199,0.05309322103857994,-0.03059254959225655,-0.0007280409336090088,-0.002752363681793213,0.009370684623718262,XArbitraryZVertical,0.0455411779196044,0.03896849715368659,0.3849005629198752,0.9210098667395774,0.03672309219837189,-0.1138857379555702,-0.9928148984909058,0,0,0,-1,-1,4979.96667475,unknown,2,2022-06-30T09:51:42.027+02:00,2022-06-30T08:20:05.567+02:00,1418,1.388076,0,0,1121.329,0,0,2022-06-30T09:50:28.075+02:00
2022-06-30T09:51:44.849+02:00,4982.786023166667,0.0320281982421875,-0.134979248046875,-0.9812164306640625,4982.776071166667,0.7892966495875858,0.03714642693822588,0.1144130493038664,0.03853056579828262,0.04649548232555389,-0.03513803333044052,-0.0010831318795681,-0.004152968525886536,0.01026320457458496,XArbitraryZVertical,0.04564225789797546,0.0390956758388697,0.3847686533719321,0.9210544973340851,0.03689507767558098,-0.1141635924577713,-0.99277663230896,0,0,0,-1,-1,4979.96667475,unknown,2,2022-06-30T09:51:42.027+02:00,2022-06-30T08:20:05.567+02:00,1418,1.388076,0,0,1121.329,0,0,2022-06-30T09:50:28.075+02:00
2022-06-30T09:51:44.860+02:00,4982.795975166667,0.029937744140625,-0.1385498046875,-0.9767608642578125,4982.786023166667,0.7889488463399369,0.03723385665596851,0.1149660356480342,0.02518626488745213,0.0448664203286171,-0.0383165143430233,-0.004036221653223038,-0.01501719653606415,0.01066970825195312,XArbitraryZVertical,0.04588715009674026,0.03923379983494454,0.3846091166954214,0.921103118639192,0.03697951883077621,-0.1147129461169243,-0.9927101731300354,0,0,0,-1,-1,4979.96667475,unknown,2,2022-06-30T09:51:42.027+02:00,2022-06-30T08:20:05.567+02:00,1418,1.388076,0,0,1121.329,0,0,2022-06-30T09:50:28.075+02:00
2022-06-30T09:51:44.869+02:00,4982.805926166667,0.0249786376953125,-0.1339111328125,-0.9745635986328125,4982.795975166667,0.7886249320453339,0.0372186157023227,0.1154753553025028,-0.001301668118685484,0.05126135051250458,-0.03703959658741951,-0.006017815321683884,-0.02253738045692444,0.01540303230285645,XArbitraryZVertical,0.04613122461878122,0.03931674863610829,0.3844583122307465,0.9211503699077056,0.03696221113204956,-0.1152188926935196,-0.9926521778106689,0,0,0,-1,-1,4979.96667475,unknown,2,2022-06-30T09:51:42.027+02:00,2022-06-30T08:20:05.567+02:00,1418,1.388076,0,0,1121.329,0,0,2022-06-30T09:50:28.075+02:00
2022-06-30T09:51:44.879+02:00,4982.815878166667,0.0239410400390625,-0.1197357177734375,-0.9744873046875,4982.805926166667,0.7883147907205597,0.03723793261235448,0.1155699426412131,-0.02483655512332916,0.05377963557839394,-0.03589470311999321,-0.009774982929229736,-0.02302326261997223,0.01674944162368774,XArbitraryZVertical,0.04617721536039044,0.0393365737287079,0.3843156726395024,0.9212067415234052,0.03698097914457321,-0.1153128445148468,-0.9926406145095825,0,0,0,-1,-1,4979.96667475,unknown,2,2022-06-30T09:51:42.027+02:00,2022-06-30T08:20:05.567+02:00,1418,1.388076,0,0,1121.329,0,0,2022-06-30T09:50:28.075+02:00
2022-06-30T09:51:44.889+02:00,4982.825829166667,0.0278472900390625,-0.108123779296875,-0.9716033935546875,4982.815878166667,0.7880622661620343,0.03729206626121172,0.1156255575733661,-0.02977991476655006,0.05597589910030365,-0.02851255424320698,-0.01210204139351845,-0.01097460091114044,0.01889252662658691,XArbitraryZVertical,0.04619742435976355,0.03936631069115538,0.3842004820598429,0.9212524466791956,0.03703447431325912,-0.115368090569973,-0.9926322102546692,0,0,0,-1,-1,4979.96667475,unknown,2,2022-06-30T09:51:42.027+02:00,2022-06-30T08:20:05.567+02:00,1418,1.388076,0,0,1121.329,0,0,2022-06-30T09:50:28.075+02:00
2022-06-30T09:51:44.899+02:00,4982.835781166667,0.029205322265625,-0.11016845703125,-0.9707489013671875,4982.825829166667,0.787841553547293,0.0372885194977297,0.1156323780229283,-0.02388234622776508,0.0479416735470295,-0.03047450259327888,-0.01219004392623901,0.002902410924434662,0.01849514245986938,XArbitraryZVertical,0.04620559339785459,0.03936087839926777,0.3840987028614756,0.9212947557170936,0.03703092411160469,-0.1153748631477356,-0.9926315546035767,0,0,0,-1,-1,4979.96667475,unknown,2,2022-06-30T09:51:42.027+02:00,2022-06-30T08:20:05.567+02:00,1418,1.388076,0,0,1121.329,0,0,2022-06-30T09:50:28.075+02:00
2022-06-30T09:51:44.909+02:00,4982.845732166667,0.02532958984375,-0.1169586181640625,-0.9649810791015625,4982.835781166667,0.7875629999590303,0.03754528166175582,0.1156153541076469,-0.01823624409735203,0.04425488039851189,-0.03119072876870632,-0.008386153727769852,0.006318718194961548,0.02208864688873291,XArbitraryZVertical,0.04615393086929249,0.03946947582910339,0.3839763593965947,0.9213436788260821,0.03728586807847023,-0.1153579577803612,-0.9926239252090454,0,0,0,-1,-1,4979.96667475,unknown,2,2022-06-30T09:51:42.027+02:00,2022-06-30T08:20:05.567+02:00,1418,1.388076,0,0,1121.329,0,0,2022-06-30T09:50:28.075+02:00
2022-06-30T09:51:44.919+02:00,4982.855684166667,0.0184173583984375,-0.125732421875,-0.9518585205078125,4982.845732166667,0.7871955957676763,0.03798988874842497,0.1154791501660623,-0.02416017837822437,0.04494170844554901,-0.04509748890995979,-0.009804636240005493,0.001926228404045105,0.021919846534729,XArbitraryZVertical,0.04601305014305884,0.03963982521708195,0.3838176553766888,0.9214095856166045,0.03772778809070587,-0.1152226626873016,-0.992622971534729,0,0,0,-1,-1,4979.96667475,unknown,2,2022-06-30T09:51:42.027+02:00,2022-06-30T08:20:05.567+02:00,1418,1.388076,0,0,1121.329,0,0,2022-06-30T09:50:28.075+02:00
2022-06-30T09:51:44.929+02:00,4982.865635166667,0.0114898681640625,-0.132415771484375,-0.9442596435546875,4982.855684166667,0.7866908358203564,0.03842382043588757,0.1152944829125737,-0.04024620354175568,0.04784346371889114,-0.05816255882382393,-0.01643124595284462,-0.006939463317394257,0.03468096256256104,XArbitraryZVertical,0.04585466255220026,0.03979291337674806,0.3835954695854256,0.9215034405865693,0.0381593331694603,-0.1150392219424248,-0.992627739906311,0,0,0,-1,-1,4979.96667475,unknown,2,2022-06-30T09:51:42.027+02:00,2022-06-30T08:20:05.567+02:00,1418,1.388076,0,0,1121.329,0,0,2022-06-30T09:50:28.075+02:00
2022-06-30T09:51:44.940+02:00,4982.875587166667,0.0059661865234375,-0.1397705078125,-0.9415740966796875,4982.865635166667,0.7861023106016337,0.03886688816261947,0.1151159265900027,-0.06759846955537796,0.05540817230939865,-0.06507106870412827,-0.02573719993233681,-0.01422742009162903,0.04406863451004028,XArbitraryZVertical,0.04569909537330863,0.03994955518116799,0.3833348372422068,0.9216127292849439,0.03859992697834969,-0.1148618459701538,-0.9926312565803528,0,0,0,-1,-1,4979.96667475,unknown,2,2022-06-30T09:51:42.027+02:00,2022-06-30T08:20:05.567+02:00,1418,1.388076,0,0,1121.329,0,0,2022-06-30T09:50:28.075+02:00
2022-06-30T09:51:44.949+02:00,4982.885538166667,4.57763671875e-05,-0.1456756591796875,-0.9371795654296875,4982.875587166667,0.7854108637440422,0.03940559303785467,0.114704335149802,-0.0979352667927742,0.06607840955257416,-0.0879264771938324,-0.03124815598130226,-0.02127388119697571,0.05088496208190918,XArbitraryZVertical,0.04541986693103586,0.04010362782543804,0.3830292604615575,0.9217469282102274,0.03913651406764984,-0.1144529730081558,-0.992657482624054,0,0,0,-1,-1,4979.96667475,unknown,2,2022-06-30T09:51:42.027+02:00,2022-06-30T08:20:05.567+02:00,1418,1.388076,0,0,1121.329,0,0,2022-06-30T09:50:28.075+02:00
2022-06-30T09:51:44.959+02:00,4982.895490166667,-0.0071258544921875,-0.1483154296875,-0.9307098388671875,4982.885538166667,0.7844691567936209,0.04003346532869759,0.113846665459036,-0.1397628784179688,0.07213230431079865,-0.1148504987359047,-0.03587311878800392,-0.0298621654510498,0.05330777168273926,XArbitraryZVertical,0.04492290150626464,0.04020848525727474,0.3826108758521564,0.921940541615544,0.0397636853158474,-0.1136008948087692,-0.992730438709259,0,0,0,-1,-1,4979.96667475,unknown,2,2022-06-30T09:51:42.027+02:00,2022-06-30T08:20:05.567+02:00,1418,1.388076,0,0,1121.329,0,0,2022-06-30T09:50:28.075+02:00
2022-06-30T09:51:44.969+02:00,4982.905441166667,-0.01641845703125,-0.1479644775390625,-0.9219970703125,4982.895490166667,0.7832705925532577,0.04080168098970777,0.1123769876135218,-0.1820815056562424,0.08893226087093353,-0.1399793326854706,-0.04402776435017586,-0.03556439280509949,0.05791354179382324,XArbitraryZVertical,0.04412193923910176,0.04025657755682627,0.3820775967781541,0.9221980992530916,0.04053306952118874,-0.1121406108140945,-0.9928653240203857,0,0,0,-1,-1,4979.96667475,unknown,2,2022-06-30T09:51:42.027+02:00,2022-06-30T08:20:05.567+02:00,1418,1.388076,0,0,1121.329,0,0,2022-06-30T09:50:28.075+02:00
2022-06-30T09:51:44.979+02:00,4982.915393166667,-0.0243377685546875,-0.142303466796875,-0.917510986328125,4982.905441166667,0.7818265823240862,0.04177839964298769,0.110291257406293,-0.2289741784334183,0.1062803566455841,-0.1716025024652481,-0.05243820324540138,-0.03870533406734467,0.0654597282409668,XArbitraryZVertical,0.0430017692422051,0.04027965318229256,0.3814351456472648,0.9225160254285428,0.04151247814297676,-0.110067792236805,-0.9930567741394043,0,0,0,-1,-1,4979.96667475,unknown,2,2022-06-30T09:51:42.027+02:00,2022-06-30T08:20:05.567+02:00,1418,1.388076,0,0,1121.329,0,0,2022-06-30T09:50:28.075+02:00
2022-06-30T09:51:44.989+02:00,4982.925344166667,-0.0414581298828125,-0.152496337890625,-0.89910888671875,4982.915393166667,0.7799804324849033,0.0430381197543934,0.1077132151168249,-0.2799115777015686,0.1264371871948242,-0.219647690653801,-0.06299380958080292,-0.03691931068897247,0.07235491275787354,XArbitraryZVertical,0.04160844918443463,0.04033339313708029,0.3806115475153169,0.9229176183081127,0.04277548566460609,-0.1075050532817841,-0.9932839274406433,0,0,0,-1,-1,4979.96667475,unknown,2,2022-06-30T09:51:42.027+02:00,2022-06-30T08:20:05.567+02:00,1418,1.388076,0,0,1121.329,0,0,2022-06-30T09:50:28.075+02:00
2022-06-30T09:51:44.999+02:00,4982.935296166667,-0.0777587890625,-0.17413330078125,-0.8837432861328125,4982.925344166667,0.7776066807170675,0.0445855866373617,0.1045926680299129,-0.3387887477874756,0.1605639904737473,-0.2912579476833344,-0.07379239797592163,-0.04105989634990692,0.08343631029129028,XArbitraryZVertical,0.03992050568159151,0.04040962257624572,0.3795472250942034,0.9234270713742114,0.04432724416255951,-0.1044020727276802,-0.9935468435287476,0,0,0,-1,-1,4979.96667475,unknown,2,2022-06-30T09:51:42.027+02:00,2022-06-30T08:20:05.567+02:00,1418,1.388076,0,0,1121.329,0,0,2022-06-30T09:50:28.075+02:00
2022-06-30T09:51:45.009+02:00,4982.945247166667,-0.0980682373046875,-0.2274322509765625,-0.8743896484375,4982.935296166667,0.7744344607650321,0.04656959376504347,0.1007103021583085,-0.4404674470424652,0.1924851685762405,-0.3804365694522858,-0.1110908687114716,-0.05821222066879272,0.1009862422943115,XArbitraryZVertical,0.03781398595212822,0.04053317188509172,0.3781173907745333,0.924096585738818,0.04631688073277473,-0.1005401462316513,-0.9938543438911438,0,0,0,-1,-1,4979.96667475,unknown,2,2022-06-30T09:51:42.027+02:00,2022-06-30T08:20:05.567+02:00,1418,1.388076,0,0,1121.329,0,0,2022-06-30T09:50:28.075+02:00
2022-06-30T09:51:45.019+02:00,4982.955199875,-0.1305999755859375,-0.2564849853515625,-0.871795654296875,4982.945247166667,0.7702059213059997,0.0490831632067301,0.09581907626621214,-0.53220134973526,0.2619902193546295,-0.5241362452507019,-0.1335403621196747,-0.1087951809167862,0.116970956325531,XArbitraryZVertical,0.03516262843972603,0.04070090220122266,0.3761996413451537,0.9249762169821796,0.04883839562535286,-0.09567251801490784,-0.9942140579223633,0,0,0,-1,-1,4979.96667475,unknown,2,2022-06-30T09:51:42.027+02:00,2022-06-30T08:20:05.567+02:00,1418,1.388076,0,0,1121.329,0,0,2022-06-30T09:50:28.075+02:00
2022-06-30T09:51:45.029+02:00,4982.965151875001,-0.149993896484375,-0.27978515625,-0.8534088134765625,4982.955199875,0.7644511501219344,0.05242804056536061,0.08974072230296458,-0.670082688331604,0.3316409587860107,-0.6900953650474548,-0.1670159697532654,-0.1500646770000458,0.1230559945106506,XArbitraryZVertical,0.03183759362715675,0.04101973863446141,0.373573789163958,0.9261459919855464,0.05219315364956856,-0.08962031453847885,-0.9946075081825256,0,0,0,-1,-1,4979.96667475,unknown,2,2022-06-30T09:51:42.027+02:00,2022-06-30T08:20:05.567+02:00,1418,1.388076,0,0,1121.329,0,0,2022-06-30T09:50:28.075+02:00
2022-06-30T09:51:45.039+02:00,4982.975102875001,-0.155487060546875,-0.255340576171875,-0.8331146240234375,4982.965151875001,0.7572595706243408,0.05674259093906944,0.08155715100524726,-0.8844000697135925,0.4302173554897308,-0.8327939510345459,-0.1993005573749542,-0.1931608468294144,0.1282812356948853,XArbitraryZVertical,0.0273873076465335,0.04139982054231684,0.3702662397349739,0.9275985820789566,0.0565236397087574,-0.08146676421165466,-0.9950720071792603,0,0,0,-1,-1,4979.96667475,unknown,2,2022-06-30T09:51:42.027+02:00,2022-06-30T08:20:05.567+02:00,1418,1.388076,0,0,1121.329,0,0,2022-06-30T09:50:28.075+02:00
2022-06-30T09:51:45.049+02:00,4982.985054875,-0.1664276123046875,-0.205078125,-0.8431243896484375,4982.975102875001,0.7488955421341082,0.06223286921376604,0.07099361939637913,-1.117997288703918,0.5635879635810852,-0.9651758074760437,-0.2151736915111542,-0.2009165287017822,0.1555231809616089,XArbitraryZVertical,0.02164220050120266,0.04191171084127179,0.3663788936976997,0.9292693265261379,0.06203604489564896,-0.070933997631073,-0.9955500364303589,0,0,0,-1,-1,4979.96667475,unknown,2,2022-06-30T09:51:42.027+02:00,2022-06-30T08:20:05.567+02:00,1418,1.388076,0,0,1121.329,0,0,2022-06-30T09:50:28.075+02:00
2022-06-30T09:51:45.059+02:00,4982.995005875,-0.158355712890625,-0.1624603271484375,-0.837158203125,4982.985054875,0.7394687042393628,0.06913734417004035,0.05818691159651143,-1.298453569412231,0.7143609523773193,-1.092648029327393,-0.2293509244918823,-0.1755494624376297,0.1581388115882874,XArbitraryZVertical,0.01462315674092314,0.04271825477776318,0.3619364622008379,0.9311086367788107,0.0689653679728508,-0.05815408378839493,-0.9959226250648499,0,0,0,-1,-1,4979.96667475,unknown,2,2022-06-30T09:51:42.027+02:00,2022-06-30T08:20:05.567+02:00,1418,1.388076,0,0,1121.329,0,0,2022-06-30T09:50:28.075+02:00
2022-06-30T09:51:45.069+02:00,4983.004957875,-0.1433868408203125,-0.137481689453125,-0.859039306640625,4982.995005875,0.7287999023976558,0.07733215265890919,0.04379289194231351,-1.402615904808044,0.8316102623939514,-1.261655807495117,-0.2429834604263306,-0.1343826651573181,0.1577985882759094,XArbitraryZVertical,0.006668334914906752,0.04390670555971502,0.3568277531015462,0.9331139982073829,0.07718102633953094,-0.04377889633178711,-0.9960554838180542,0,0,0,-1,-1,4979.96667475,unknown,2,2022-06-30T09:51:42.027+02:00,2022-06-30T08:20:05.567+02:00,1418,1.388076,0,0,1121.329,0,0,2022-06-30T09:50:28.075+02:00
2022-06-30T09:51:45.078+02:00,4983.014908875,-0.1417236328125,-0.117706298828125,-0.8650970458984375,4983.004957875,0.7164697948387263,0.08639842237272817,0.0283405795249615,-1.473887920379639,0.9261447787284851,-1.462173461914062,-0.2361285835504532,-0.1245104521512985,0.1477558612823486,XArbitraryZVertical,-0.001882454120199734,0.04540376739113591,0.3508325222799314,0.9353350392264173,0.08625631779432297,-0.0283367857336998,-0.9958699345588684,0,0,0,-1,-1,4979.96667475,unknown,2,2022-06-30T09:51:42.027+02:00,2022-06-30T08:20:05.567+02:00,1418,1.388076,0,0,1121.329,0,0,2022-06-30T09:50:28.075+02:00
2022-06-30T09:51:45.088+02:00,4983.024860875001,-0.14593505859375,-0.12713623046875,-0.8651580810546875,4983.014908875,0.702439112832707,0.09634950847025389,0.01168881224836168,-1.595812201499939,1.040610194206238,-1.650197863578796,-0.2383299767971039,-0.1114193201065063,0.131371796131134,XArbitraryZVertical,-0.01108627102801403,0.04722398584194124,0.3439024025817859,0.9377516682042856,0.09619393199682236,-0.01168854627758265,-0.9952939748764038,0,0,0,-1,-1,4979.96667475,unknown,2,2022-06-30T09:51:42.027+02:00,2022-06-30T08:20:05.567+02:00,1418,1.388076,0,0,1121.329,0,0,2022-06-30T09:50:28.075+02:00
2022-06-30T09:51:45.098+02:00,4983.034811875001,-0.1359405517578125,-0.157440185546875,-0.8537445068359375,4983.024860875001,0.6869089156978955,0.1072892558655745,-0.007093775975633936,-1.841872572898865,1.165919065475464,-1.836005806922913,-0.2503613233566284,-0.12879778444767,0.1275104880332947,XArbitraryZVertical,-0.02139053428202688,0.04929441267790363,0.3360761731017077,0.9403007677714234,0.1070808470249176,0.007093716412782669,-0.994225025177002,0,0,0,-1,-1,4979.96667475,unknown,2,2022-06-30T09:51:42.027+02:00,2022-06-30T08:20:05.567+02:00,1418,1.388076,0,0,1121.329,0,0,2022-06-30T09:50:28.075+02:00
2022-06-30T09:51:45.108+02:00,4983.044763875,-0.122955322265625,-0.15936279296875,-0.8502655029296875,4983.034811875001,0.6702096158837603,0.1191297958202033,-0.02936947799509467,-2.227631092071533,1.295037031173706,-1.997310996055603,-0.2608719766139984,-0.1700054705142975,0.1352912187576294,XArbitraryZVertical,-0.03341812706048768,0.05139172737910727,0.327423997992332,0.9428868583931953,0.1187969595193863,0.02936525642871857,-0.9924842119216919,0,0,0,-1,-1,4979.96667475,unknown,2,2022-06-30T09:51:42.027+02:00,2022-06-30T08:20:05.567+02:00,1418,1.388076,0,0,1121.329,0,0,2022-06-30T09:50:28.075+02:00
2022-06-30T09:51:45.118+02:00,4983.054714875,-0.0998992919921875,-0.126190185546875,-0.83746337890625,4983.044763875,0.6529942546959049,0.1318817433953039,-0.05640210884496817,-2.720649242401123,1.437722563743591,-2.100488662719727,-0.2622115015983582,-0.2215180546045303,0.1355832815170288,XArbitraryZVertical,-0.04777495722088105,0.05336326157167712,0.3181430373060144,0.9453332322132593,0.1312906742095947,0.05637221038341522,-0.9897398352622986,0,0,0,-1,-1,4979.96667475,unknown,2,2022-06-30T09:51:42.027+02:00,2022-06-30T08:20:05.567+02:00,1418,1.388076,0,0,1121.329,0,0,2022-06-30T09:50:28.075+02:00
2022-06-30T09:51:45.128+02:00,4983.064666875001,-0.065582275390625,-0.052825927734375,-0.838165283203125,4983.054714875,0.6360124524014639,0.1454671949924006,-0.08881778126206562,-3.242581844329834,1.562991499900818,-2.165246486663818,-0.2581990957260132,-0.2346513569355011,0.1419102549552917,XArbitraryZVertical,-0.06475632145788278,0.05511362171636128,0.3084748903697764,0.947424025573508,0.1443833410739899,0.08870105445384979,-0.9855382442474365,0,0,0,-1,-1,4979.96667475,unknown,2,2022-06-30T09:51:42.027+02:00,2022-06-30T08:20:05.567+02:00,1418,1.388076,0,0,1121.329,0,0,2022-06-30T09:50:28.075+02:00
2022-06-30T09:51:45.138+02:00,4983.074617875001,-0.0290374755859375,0.0702056884765625,-0.836578369140625,4983.064666875001,0.6196861614807745,0.1597997493390078,-0.1265736345372266,-3.735284566879272,1.696369051933289,-2.200520515441895,-0.2407795190811157,-0.2233581244945526,0.1447665691375732,XArbitraryZVertical,-0.0843283721355295,0.05663970870466452,0.2985204857536615,0.9489816863999047,0.1578475832939148,0.1262359321117401,-0.979361355304718,0,0,0,-1,-1,4979.96667475,unknown,2,2022-06-30T09:51:42.027+02:00,2022-06-30T08:20:05.567+02:00,1418,1.388076,0,0,1121.329,0,0,2022-06-30T09:50:28.075+02:00
2022-06-30T09:51:45.148+02:00,4983.084569875,0.009765625,0.20703125,-0.835052490234375,4983.074617875001,0.6045555222762723,0.1750373754730898,-0.1690631839869693,-4.151381015777588,1.845903515815735,-2.175030708312988,-0.2198955863714218,-0.1648562401533127,0.1277698874473572,XArbitraryZVertical,-0.1062221936572768,0.05810758379277186,0.2884519220878377,0.9498083446092369,0.1716621220111847,0.1682589650154114,-0.9706807136535645,0,0,0,-1,-1,4979.96667475,unknown,2,2022-06-30T09:51:42.027+02:00,2022-06-30T08:20:05.567+02:00,1418,1.388076,0,0,1121.329,0,0,2022-06-30T09:50:28.075+02:00
2022-06-30T09:51:45.159+02:00,4983.094521875,0.050048828125,0.346343994140625,-0.8363494873046875,4983.084569875,0.5910597321782406,0.1914132272520444,-0.2150798515396553,-4.417555809020996,1.992878079414368,-2.115124702453613,-0.1968498528003693,-0.07501295208930969,0.1294045448303223,XArbitraryZVertical,-0.1298807027667576,0.05977245518451114,0.2784270177183467,0.9497560773531699,0.1858630925416946,0.2134254425764084,-0.959116518497467,0,0,0,-1,-1,4979.96667475,unknown,2,2022-06-30T09:51:42.027+02:00,2022-06-30T08:20:05.567+02:00,1418,1.388076,0,0,1121.329,0,0,2022-06-30T09:50:28.075+02:00
2022-06-30T09:51:45.168+02:00,4983.104472875,0.0948028564453125,0.4852142333984375,-0.8683013916015625,4983.094521875,0.5792562458795226,0.2089995119365355,-0.2629881439208846,-4.508309364318848,2.137701749801636,-2.045433044433594,-0.1703034192323685,0.01792597770690918,0.1063324809074402,XArbitraryZVertical,-0.1545022761374804,0.06186043798607571,0.2684788260947116,0.9488000923716429,0.2003475576639175,0.2599671185016632,-0.9446046948432922,0,0,0,-1,-1,4979.96667475,unknown,2,2022-06-30T09:51:42.027+02:00,2022-06-30T08:20:05.567+02:00,1418,1.388076,0,0,1121.329,0,0,2022-06-30T09:50:28.075+02:00
2022-06-30T09:51:45.178+02:00,4983.114424875001,0.168121337890625,0.62347412109375,-0.8791046142578125,4983.104472875,0.5689769169442559,0.2278890681621083,-0.31057881454756,-4.349826812744141,2.26670241355896,-1.939648866653442,-0.1470285654067993,0.108544260263443,0.0812714695930481,XArbitraryZVertical,-0.1790138791227641,0.06468684063153343,0.2586126419787451,0.9470424332773308,0.2151128649711609,0.3056098222732544,-0.9275392889976501,0,0,0,-1,-1,4979.96667475,unknown,2,2022-06-30T09:51:42.027+02:00,2022-06-30T08:20:05.567+02:00,1418,1.388076,0,0,1121.329,0,0,2022-06-30T09:50:28.075+02:00
2022-06-30T09:51:45.188+02:00,4983.124375875001,0.2230224609375,0.7065277099609375,-0.8690032958984375,4983.114424875001,0.5601885080711677,0.2478136695061828,-0.3556502312183762,-4.032994270324707,2.334156513214111,-1.796982049942017,-0.1003884375095367,0.2077082395553589,0.027984619140625,XArbitraryZVertical,-0.2023198317614686,0.06837516520975959,0.2489910783630119,0.9446666390550902,0.2299351394176483,0.3481999933719635,-0.9087830185890198,0,0,0,-1,-1,4979.96667475,unknown,2,2022-06-30T09:51:42.027+02:00,2022-06-30T08:20:05.567+02:00,1418,1.388076,0,0,1121.329,0,0,2022-06-30T09:50:28.075+02:00
2022-06-30T09:51:45.198+02:00,4983.134327875,0.2487945556640625,0.6931304931640625,-0.8280181884765625,4983.124375875001,0.5527357112971577,0.2682598453813843,-0.3972069987037585,-3.65658974647522,2.353079319000244,-1.671602845191956,-0.04272790253162384,0.2902491986751556,0.01459038257598877,XArbitraryZVertical,-0.223880772151198,0.07277209513150518,0.2397134167740362,0.9418700706030352,0.2444181591272354,0.3868443071842194,-0.8891632556915283,0,0,0,-1,-1,4979.96667475,unknown,2,2022-06-30T09:51:42.027+02:00,2022-06-30T08:20:05.567+02:00,1418,1.388076,0,0,1121.329,0,0,2022-06-30T09:50:28.075+02:00
2022-06-30T09:51:45.208+02:00,4983.144278875,0.2740325927734375,0.6386566162109375,-0.7899932861328125,4983.134327875,0.5457746793422664,0.2886431257823595,-0.4347242085188957,-3.223300218582153,2.336376667022705,-1.619929790496826,-0.02134394645690918,0.2892736792564392,0.01619350910186768,XArbitraryZVertical,-0.2433651500737603,0.0777228409395096,0.2305673334276051,0.9389203313137054,0.2581752240657806,0.4211602807044983,-0.8694651126861572,0,0,0,-1,-1,4979.96667475,unknown,2,2022-06-30T09:51:42.027+02:00,2022-06-30T08:20:05.567+02:00,1418,1.388076,0,0,1121.329,0,0,2022-06-30T09:50:28.075+02:00
2022-06-30T09:51:45.218+02:00,4983.154230875,0.298431396484375,0.6131744384765625,-0.7135772705078125,4983.144278875,0.538606059937948,0.3085385548645055,-0.4682942884537674,-2.845600128173828,2.316244125366211,-1.574759483337402,-0.009560465812683105,0.2148338556289673,0.04144006967544556,XArbitraryZVertical,-0.2607614913729877,0.0830815936002805,0.2213603015462833,0.9360024741808464,0.2709736526012421,0.4513648748397827,-0.8502017855644226,0,0,0,-1,-1,4979.96667475,unknown,2,2022-06-30T09:51:42.027+02:00,2022-06-30T08:20:05.567+02:00,1418,1.388076,0,0,1121.329,0,0,2022-06-30T09:50:28.075+02:00
2022-06-30T09:51:45.228+02:00,4983.164181875,0.3018646240234375,0.58868408203125,-0.645050048828125,4983.154230875,0.5320164185463482,0.3283483657707922,-0.4993913163997573,-2.754447937011719,2.313086748123169,-1.467629075050354,0.004500329494476318,0.1421566903591156,0.0744897723197937,XArbitraryZVertical,-0.2768442828520651,0.08871184713306564,0.2123379384634551,0.9329523728370173,0.2830969393253326,0.4788912832736969,-0.8309748768806458,0,0,0,-1,-1,4979.96667475,unknown,2,2022-06-30T09:51:42.027+02:00,2022-06-30T08:20:05.567+02:00,1418,1.388076,0,0,1121.329,0,0,2022-06-30T09:50:28.075+02:00
2022-06-30T09:51:45.238+02:00,4983.174133875001,0.311859130859375,0.560791015625,-0.580657958984375,4983.164181875,0.5275870037609123,0.3491442660854308,-0.5308513305469352,-2.960894823074341,2.338849544525146,-1.34142804145813,0.006347030401229858,0.0997198224067688,0.1330841183662415,XArbitraryZVertical,-0.2930986954321489,0.09444766293843419,0.2038039152637649,0.9293205794054882,0.2950136363506317,0.5062676668167114,-0.8103455901145935,0,0,0,-1,-1,4979.96667475,unknown,2,2022-06-30T09:51:42.027+02:00,2022-06-30T08:20:05.567+02:00,1418,1.388076,0,0,1121.329,0,0,2022-06-30T09:50:28.075+02:00
2022-06-30T09:51:45.248+02:00,4983.184084875001,0.3448944091796875,0.5949249267578125,-0.535919189453125,4983.174133875001,0.5262691388052126,0.3720094718292954,-0.5643318785713023,-3.241477489471436,2.426918029785156,-1.216462254524231,-0.002776533365249634,0.03535425662994385,0.1740983128547668,XArbitraryZVertical,-0.3104158440554897,0.1003324485706242,0.1957932067675728,0.9247920869722144,0.3071279227733612,0.5348514318466187,-0.7871508002281189,0,0,0,-1,-1,4979.96667475,unknown,2,2022-06-30T09:51:42.027+02:00,2022-06-30T08:20:05.567+02:00,1418,1.388076,0,0,1121.329,0,0,2022-06-30T09:50:28.075+02:00
2022-06-30T09:51:45.257+02:00,4983.194036875,0.39874267578125,0.65057373046875,-0.4691314697265625,4983.184084875001,0.5286340603631833,0.3976813118445833,-0.6000143289706972,-3.540547847747803,2.495490550994873,-1.081527948379517,0.004919826984405518,0.005612432956695557,0.2036080360412598,XArbitraryZVertical,-0.3289434482787941,0.1064711454722758,0.1883144984627833,0.9192376735758748,0.3196342289447784,0.5646542906761169,-0.7609202265739441,0,0,0,-1,-1,4979.96667475,unknown,2,2022-06-30T09:51:42.027+02:00,2022-06-30T08:20:05.567+02:00,1418,1.388076,0,0,1121.329,0,0,2022-06-30T09:50:28.075+02:00
2022-06-30T09:51:45.268+02:00,4983.203987875,0.4629364013671875,0.6463623046875,-0.407806396484375,4983.194036875,0.5352077872484947,0.4262810562442594,-0.6377131043519432,-3.824739694595337,2.496492624282837,-0.9359046220779419,0.03789633512496948,0.02950310707092285,0.2244926691055298,XArbitraryZVertical,-0.3485959320256993,0.1127033042069063,0.1814606296823382,0.9126067441897119,0.3322204649448395,0.5953595638275146,-0.7315576672554016,0,0,0,-1,-1,4979.96667475,unknown,2,2022-06-30T09:51:42.027+02:00,2022-06-30T08:20:05.567+02:00,1418,1.388076,0,0,1121.329,0,0,2022-06-30T09:50:28.075+02:00
2022-06-30T09:51:45.283+02:00,4983.213939875001,0.504608154296875,0.65545654296875,-0.3722076416015625,4983.203987875,0.5463798341109224,0.4575302380646678,-0.6771101502269031,-4.072433471679688,2.426007270812988,-0.8147872686386108,0.08697739243507385,0.02828758955001831,0.2701159119606018,XArbitraryZVertical,-0.3691876008337653,0.1186955894054554,0.1753345659427449,0.9049142102706478,0.3442813456058502,0.6265433430671692,-0.6992237567901611,0,0,0,-1,-1,4979.96667475,unknown,2,2022-06-30T09:51:42.027+02:00,2022-06-30T08:20:05.567+02:00,1418,1.388076,0,0,1121.329,0,0,2022-06-30T09:50:28.075+02:00
2022-06-30T09:51:45.287+02:00,4983.223890875001,0.509307861328125,0.6885528564453125,-0.3160552978515625,4983.213939875001,0.562564382813275,0.4914302028231521,-0.7180779449951609,-4.390732765197754,2.337850093841553,-0.6834336519241333,0.132870078086853,-0.01232379674911499,0.2694514989852905,XArbitraryZVertical,-0.3906440353714592,0.1241814788364432,0.1699683456108706,0.8961512535027252,0.3553650081157684,0.6579384207725525,-0.6639524102210999,0,0,0,-1,-1,4979.96667475,unknown,2,2022-06-30T09:51:42.027+02:00,2022-06-30T08:20:05.567+02:00,1418,1.388076,0,0,1121.329,0,0,2022-06-30T09:50:28.075+02:00
2022-06-30T09:51:45.297+02:00,4983.233842875,0.4870452880859375,0.740081787109375,-0.27398681640625,4983.223890875001,0.5856530665795011,0.5300689205752858,-0.7609886880240136,-4.801409244537354,2.349004745483398,-0.4901502132415771,0.1451332867145538,-0.01954799890518188,0.2803589105606079,XArbitraryZVertical,-0.4133597649129306,0.1293966220251735,0.1655177924379646,0.8859989452198401,0.3661273419857025,0.6896377205848694,-0.6247804164886475,0,0,0,-1,-1,4979.96667475,unknown,2,2022-06-30T09:51:42.027+02:00,2022-06-30T08:20:05.567+02:00,1418,1.388076,0,0,1121.329,0,0,2022-06-30T09:50:28.075+02:00
2022-06-30T09:51:45.307+02:00,4983.243794875,0.490264892578125,0.7742156982421875,-0.201385498046875,4983.233842875,0.6178571568590049,0.576350099648316,-0.8056318541113037,-5.22844934463501,2.416202545166016,-0.2765505909919739,0.1213499903678894,-0.009812116622924805,0.2846652269363403,XArbitraryZVertical,-0.4375453853656762,0.1348069176205385,0.1620329910903227,0.8741433529066531,0.3774747252464294,0.7212684154510498,-0.5807622671127319,0,0,0,-1,-1,4979.96667475,unknown,2,2022-06-30T09:51:42.027+02:00,2022-06-30T08:20:05.567+02:00,1418,1.388076,0,0,1121.329,0,0,2022-06-30T09:50:28.075+02:00
2022-06-30T09:51:45.317+02:00,4983.253745875,0.511932373046875,0.798858642578125,-0.13671875,4983.243794875,0.6606222032661364,0.6320036291212321,-0.851257860791733,-5.59062385559082,2.455632925033569,-0.1038800105452538,0.09459736943244934,0.01031070947647095,0.2914764285087585,XArbitraryZVertical,-0.4630352511099888,0.1404549737282828,0.1593951429395463,0.8605021505581381,0.3893347680568695,0.7521100044250488,-0.5317414999008179,0,0,0,-1,-1,4979.96667475,unknown,2,2022-06-30T09:51:42.027+02:00,2022-06-30T08:20:05.567+02:00,1418,1.388076,0,0,1121.329,0,0,2022-06-30T09:50:28.075+02:00
2022-06-30T09:51:45.327+02:00,4983.263697875001,0.5394287109375,0.8717498779296875,-0.1665191650390625,4983.253745875,0.7145100807743318,0.6974903294821698,-0.896586348273796,-5.831440925598145,2.431675910949707,0.0133496755734086,0.1013918519020081,-0.0015372633934021,0.3143448233604431,XArbitraryZVertical,-0.4893097867147688,0.1460616839099237,0.1574189634767431,0.8452581268339715,0.4009729325771332,0.7812004089355469,-0.4784838259220123,0,0,0,-1,-1,4979.96667475,unknown,2,2022-06-30T09:51:42.027+02:00,2022-06-30T08:20:05.567+02:00,1418,1.388076,0,0,1121.329,0,0,2022-06-30T09:50:28.075+02:00
2022-06-30T09:51:45.337+02:00,4983.273648875001,0.574859619140625,0.9407958984375,-0.149627685546875,4983.263697875001,0.779202166782787,0.7730946855785672,-0.9392903879623173,-5.795183658599854,2.447588682174683,0.1612312793731689,0.112667053937912,0.02777582406997681,0.2710783779621124,XArbitraryZVertical,-0.5154506189993103,0.1517707964576725,0.1558759299617855,0.8288419617886548,0.4122807085514069,0.8071393966674805,-0.4225525557994843,0,0,0,-1,-1,4979.96667475,unknown,2,2022-06-30T09:51:42.027+02:00,2022-06-30T08:20:05.567+02:00,1418,1.388076,0,0,1121.329,0,0,2022-06-30T09:50:28.075+02:00
2022-06-30T09:51:45.347+02:00,4983.283600875,0.6118927001953125,0.996673583984375,-0.171875,4983.273648875001,0.8532110958178224,0.8580049467359707,-0.9766784809361527,-5.548962593078613,2.461908340454102,0.2925640940666199,0.1345346570014954,0.07783633470535278,0.2127910554409027,XArbitraryZVertical,-0.5404076626144754,0.1578817932842461,0.1546404986583008,0.811861610088463,0.4234941601753235,0.8286426067352295,-0.3660658001899719,0,0,0,-1,-1,4979.96667475,unknown,2,2022-06-30T09:51:42.027+02:00,2022-06-30T08:20:05.567+02:00,1418,1.388076,0,0,1121.329,0,0,2022-06-30T09:50:28.075+02:00
2022-06-30T09:51:45.357+02:00,4983.293551875,0.6142578125,1.04241943359375,-0.215057373046875,4983.283600875,0.9330041696403801,0.9491714564502552,-1.007231523575258,-5.100736618041992,2.442577838897705,0.3741803765296936,0.1608056426048279,0.1260794401168823,0.1590275466442108,XArbitraryZVertical,-0.5634036125066726,0.1644017932124177,0.1534207774385473,0.7949908727473566,0.4342714846134186,0.8453561663627625,-0.3110968470573425,0,0,0,-1,-1,4979.96667475,unknown,2,2022-06-30T09:51:42.027+02:00,2022-06-30T08:20:05.567+02:00,1418,1.388076,0,0,1121.329,0,0,2022-06-30T09:50:28.075+02:00
2022-06-30T09:51:45.368+02:00,4983.303503875,0.5834197998046875,1.041213989257812,-0.204833984375,4983.293551875,1.013626110048096,1.041907971422462,-1.030525807895995,-4.577794075012207,2.40873646736145,0.3861905634403229,0.1743950545787811,0.1631061434745789,0.05387851595878601,XArbitraryZVertical,-0.5838880933194752,0.1711910124860402,0.1519186008343879,0.7789024772648785,0.4440891444683075,0.8575695753097534,-0.2595366537570953,0,0,0,-1,-1,4979.96667475,unknown,2,2022-06-30T09:51:42.027+02:00,2022-06-30T08:20:05.567+02:00,1418,1.388076,0,0,1121.329,0,0,2022-06-30T09:50:28.075+02:00
2022-06-30T09:51:45.377+02:00,4983.313454875,0.521484375,1.004837036132812,-0.194000244140625,4983.303503875,1.092640571940861,1.133791576878671,-1.047580191023544,-4.12686824798584,2.373573541641235,0.3800961971282959,0.1501781940460205,0.1845952868461609,0.009645342826843262,XArbitraryZVertical,-0.6021097289516429,0.1781209685445005,0.1500148537066892,0.7636965474485026,0.4527115523815155,0.8662166595458984,-0.2114735841751099,0,0,0,-1,-1,4979.96667475,unknown,2,2022-06-30T09:51:42.027+02:00,2022-06-30T08:20:05.567+02:00,1418,1.388076,0,0,1121.329,0,0,2022-06-30T09:50:28.075+02:00
2022-06-30T09:51:45.387+02:00,4983.323406875001,0.4795379638671875,0.9483184814453125,-0.1397705078125,4983.313454875,1.168218818014503,1.222979927857447,-1.059347142961323,-3.729765176773071,2.347727060317993,0.3682659268379211,0.09440109133720398,0.1516456604003906,-0.04682968556880951,XArbitraryZVertical,-0.6183110552136106,0.1851469227433395,0.1476888802982449,0.7493998437246311,0.4601334929466248,0.8720361590385437,-0.1668241173028946,0,0,0,-1,-1,4979.96667475,unknown,2,2022-06-30T09:51:42.027+02:00,2022-06-30T08:20:05.567+02:00,1418,1.388076,0,0,1121.329,0,0,2022-06-30T09:50:28.075+02:00
2022-06-30T09:51:45.397+02:00,4983.333357875001,0.4609375,0.8759613037109375,-0.1173553466796875,4983.323406875001,1.240488973794697,1.309435709923884,-1.066847036001143,-3.461950063705444,2.348211050033569,0.3743901252746582,0.02733129262924194,0.1039627194404602,-0.03481598198413849,XArbitraryZVertical,-0.6329746345617567,0.192237243888012,0.1450334053549326,0.7357672215819426,0.4664886593818665,0.8756823539733887,-0.1247759088873863,0,0,0,-1,-1,4979.96667475,unknown,2,2022-06-30T09:51:42.027+02:00,2022-06-30T08:20:05.567+02:00,1418,1.388076,0,0,1121.329,0,0,2022-06-30T09:50:28.075+02:00
2022-06-30T09:51:45.407+02:00,4983.343309875,0.4527740478515625,0.7945556640625,-0.0660858154296875,4983.333357875001,1.310099586963273,1.393874584464054,-1.070783624415724,-3.292932033538818,2.354718208312988,0.3609294593334198,-0.002409815788269043,0.03531128168106079,-0.05076634883880615,XArbitraryZVertical,-0.6465474946393482,0.199463875194306,0.1420844454687762,0.7224975024393294,0.4719529747962952,0.877576470375061,-0.08438099920749664,0,0,0,-1,-1,4979.96667475,unknown,2,2022-06-30T09:51:42.027+02:00,2022-06-30T08:20:05.567+02:00,1418,1.388076,0,0,1121.329,0,0,2022-06-30T09:50:28.075+02:00
2022-06-30T09:51:45.417+02:00,4983.353261875,0.45245361328125,0.75970458984375,-0.021514892578125,4983.343309875,1.377261693868693,1.476191356627125,-1.072144629703832,-3.128336191177368,2.333698749542236,0.2941139340400696,-0.02224633097648621,-0.04232096672058105,-0.04422485828399658,XArbitraryZVertical,-0.6593538527169849,0.2065531150340303,0.1387899645120757,0.7094545440288994,0.4761034846305847,0.8782281875610352,-0.04517661407589912,0,0,0,-1,-1,4979.96667475,unknown,2,2022-06-30T09:51:42.027+02:00,2022-06-30T08:20:05.567+02:00,1418,1.388076,0,0,1121.329,0,0,2022-06-30T09:50:28.075+02:00
2022-06-30T09:51:45.427+02:00,4983.363212875,0.45574951171875,0.7761383056640625,0.0752105712890625,4983.353261875,1.439883978688746,1.554048820276112,-1.07183534316416,-2.881094694137573,2.26090145111084,0.1550238281488419,-0.0250929594039917,-0.1123939752578735,-0.04377502202987671,XArbitraryZVertical,-0.6712213626233565,0.2132020500757679,0.1350170248562491,0.696977244895812,0.4784465730190277,0.8780802488327026,-0.008013536222279072,0,0,0,-1,-1,4979.96667475,unknown,2,2022-06-30T09:51:42.027+02:00,2022-06-30T08:20:05.567+02:00,1418,1.388076,0,0,1121.329,0,0,2022-06-30T09:50:28.075+02:00
2022-06-30T09:51:45.437+02:00,4983.373164875,0.4622344970703125,0.7692413330078125,0.16455078125,4983.363212875,1.497148337189865,1.626319950645636,-1.070869780041329,-2.626275539398193,2.158887147903442,-0.007618623785674572,-0.02467387914657593,-0.109657883644104,0.001153234392404556,XArbitraryZVertical,-0.6821173894900522,0.21912774864178,0.1306897869756782,0.6852876842539956,0.4786226451396942,0.8776177763938904,0.02660220675170422,0,0,0,-1,-1,4979.96667475,unknown,2,2022-06-30T09:51:42.027+02:00,2022-06-30T08:20:05.567+02:00,1418,1.388076,0,0,1121.329,0,0,2022-06-30T09:50:28.075+02:00
2022-06-30T09:51:45.447+02:00,4983.383115875,0.4747772216796875,0.7524566650390625,0.283355712890625,4983.373164875,1.548497847719226,1.692125654906999,-1.069892300868409,-2.32776927947998,2.003414630889893,-0.1741444319486618,-0.0193982720375061,-0.1010406613349915,0.05950797349214554,XArbitraryZVertical,-0.6919537326090175,0.2241895050234629,0.1258824811988459,0.6746056914867438,0.4766887426376343,0.8771488070487976,0.05812180414795876,0,0,0,-1,-1,4979.96667475,unknown,2,2022-06-30T09:51:42.027+02:00,2022-06-30T08:20:05.567+02:00,1418,1.388076,0,0,1121.329,0,0,2022-06-30T09:50:28.075+02:00
2022-06-30T09:51:45.457+02:00,4983.393067875,0.4962310791015625,0.7519683837890625,0.4412384033203125,4983.383115875,1.594150980349906,1.75111447314966,-1.069470781332777,-2.060075044631958,1.799682259559631,-0.3405357897281647,-0.005206584930419922,-0.1162496209144592,0.1336736679077148,XArbitraryZVertical,-0.7007306501116145,0.2281919202652201,0.1207809408853935,0.6650692104432895,0.4727966487407684,0.8769462704658508,0.08618999272584915,0,0,0,-1,-1,4979.96667475,unknown,2,2022-06-30T09:51:42.027+02:00,2022-06-30T08:20:05.567+02:00,1418,1.388076,0,0,1121.329,0,0,2022-06-30T09:50:28.075+02:00
2022-06-30T09:51:45.466+02:00,4983.403018875,0.526824951171875,0.7632293701171875,0.5851287841796875,4983.393067875,1.635939988365729,1.8044841897242,-1.069862563310127,-1.883678317070007,1.543197631835938,-0.5011249184608459,0.0158558189868927,-0.1263408064842224,0.2513551712036133,XArbitraryZVertical,-0.7087011208272944,0.2309699000902353,0.1156465182573763,0.6565223417133709,0.4671914279460907,0.8771345019340515,0.1112087443470955,0,0,0,-1,-1,4979.96667475,unknown,2,2022-06-30T09:51:42.027+02:00,2022-06-30T08:20:05.567+02:00,1418,1.388076,0,0,1121.329,0,0,2022-06-30T09:50:28.075+02:00
2022-06-30T09:51:45.476+02:00,4983.412970875001,0.5302886962890625,0.7514801025390625,0.7271575927734375,4983.403018875,1.675670466378784,1.853044676619384,-1.071229560606308,-1.7668696641922,1.192759394645691,-0.6776168942451477,0.05184173583984375,-0.1195502281188965,0.3794260025024414,XArbitraryZVertical,-0.7160918525096108,0.2322139105934718,0.1108430146026511,0.6488474623673187,0.4600903689861298,0.8777902126312256,0.1334216892719269,0,0,0,-1,-1,4979.96667475,unknown,2,2022-06-30T09:51:42.027+02:00,2022-06-30T08:20:05.567+02:00,1418,1.388076,0,0,1121.329,0,0,2022-06-30T09:50:28.075+02:00
2022-06-30T09:51:45.487+02:00,4983.422921875001,0.52117919921875,0.7277069091796875,0.8265838623046875,4983.412970875001,1.714788986472056,1.897334947782477,-1.073882559530226,-1.659988522529602,0.7824432253837585,-0.901371955871582,0.08320432901382446,-0.1194753646850586,0.5059144496917725,XArbitraryZVertical,-0.7230732315123141,0.2315645976082915,0.106622397251137,0.6420082389247938,0.4515243470668793,0.8790580034255981,0.1529141217470169,0,0,0,-1,-1,4979.96667475,unknown,2,2022-06-30T09:51:42.027+02:00,2022-06-30T08:20:05.567+02:00,1418,1.388076,0,0,1121.329,0,0,2022-06-30T09:50:28.075+02:00
2022-06-30T09:51:45.497+02:00,4983.432873875,0.4871826171875,0.6694183349609375,0.8477325439453125,4983.422921875001,1.754192676028612,1.937166405826469,-1.078415385791657,-1.585747957229614,0.2258074134588242,-1.166120767593384,0.08238983154296875,-0.1396933794021606,0.6141183376312256,XArbitraryZVertical,-0.7296943041829468,0.2285129870456563,0.1032071191971737,0.6361418440149803,0.4413526356220245,0.8812098503112793,0.1693439185619354,0,0,0,-1,-1,4979.96667475,unknown,2,2022-06-30T09:51:42.027+02:00,2022-06-30T08:20:05.567+02:00,1418,1.388076,0,0,1121.329,0,0,2022-06-30T09:50:28.075+02:00
2022-06-30T09:51:45.507+02:00,4983.442824875,0.371002197265625,0.617523193359375,0.82672119140625,4983.432873875,1.795439751425263,1.972609370479116,-1.085087411971871,-1.514888882637024,-0.4355472028255463,-1.484987616539001,0.0850709080696106,-0.1771755814552307,0.6638160943984985,XArbitraryZVertical,-0.7360608071283967,0.2224887475396191,0.1010461053734889,0.6312708533555089,0.4296534657478333,0.884344220161438,0.1825735121965408,0,0,0,-1,-1,4979.96667475,unknown,2,2022-06-30T09:51:42.027+02:00,2022-06-30T08:20:05.567+02:00,1418,1.388076,0,0,1121.329,0,0,2022-06-30T09:50:28.075+02:00
2022-06-30T09:51:45.516+02:00,4983.452776875,0.2492828369140625,0.641448974609375,0.8267669677734375,4983.442824875,1.838936303152257,2.003384307486969,-1.095026053636726,-1.368695974349976,-1.141290187835693,-1.920283913612366,0.01777690649032593,-0.2585842609405518,0.6525146961212158,XArbitraryZVertical,-0.7420653282189296,0.2129452787084455,0.1000649629341099,0.6276785006165403,0.4158318340778351,0.888940155506134,0.192013293504715,0,0,0,-1,-1,4979.96667475,unknown,2,2022-06-30T09:51:42.027+02:00,2022-06-30T08:20:05.567+02:00,1418,1.388076,0,0,1121.329,0,0,2022-06-30T09:50:28.075+02:00
2022-06-30T09:51:45.526+02:00,4983.462727875,0.20758056640625,0.6902313232421875,0.899688720703125,4983.452776875,1.884047738314109,2.029006562877398,-1.109281876819102,-1.075596570968628,-1.80762243270874,-2.349360466003418,-0.09367525577545166,-0.2684869170188904,0.613050103187561,XArbitraryZVertical,-0.7474036645285536,0.1996912785478462,0.09999420691165017,0.6257094522338706,0.3993695080280304,0.8953791260719299,0.1969776898622513,0,0,0,-1,-1,4979.96667475,unknown,2,2022-06-30T09:51:42.027+02:00,2022-06-30T08:20:05.567+02:00,1418,1.388076,0,0,1121.329,0,0,2022-06-30T09:50:28.075+02:00
2022-06-30T09:51:45.536+02:00,4983.472679875001,0.246795654296875,0.7278594970703125,0.945587158203125,4983.462727875,1.928206070609496,2.047418322740135,-1.128114351618371,-0.6633775234222412,-2.496325492858887,-2.686524391174316,-0.1670766770839691,-0.2431139349937439,0.6706315279006958,XArbitraryZVertical,-0.7515072168519251,0.183028646812236,0.100838029951476,0.6257548343065092,0.3806231319904327,0.9036060571670532,0.1965251713991165,0,0,0,-1,-1,4979.96667475,unknown,2,2022-06-30T09:51:42.027+02:00,2022-06-30T08:20:05.567+02:00,1418,1.388076,0,0,1121.329,0,0,2022-06-30T09:50:28.075+02:00
2022-06-30T09:51:45.546+02:00,4983.482631875,0.3224945068359375,0.7282867431640625,0.9833831787109375,4983.472679875001,1.967438470209806,2.054727108107334,-1.151553192876789,-0.05025236681103706,-3.224535226821899,-2.930646657943726,-0.1362518966197968,-0.1966917514801025,0.7303445339202881,XArbitraryZVertical,-0.7536810216071134,0.1632848706634863,0.1029327589203862,0.6282578412581341,0.3603269457817078,0.9133973121643066,0.1893940567970276,0,0,0,-1,-1,4979.96667475,unknown,2,2022-06-30T09:51:42.027+02:00,2022-06-30T08:20:05.567+02:00,1418,1.388076,0,0,1121.329,0,0,2022-06-30T09:50:28.075+02:00
2022-06-30T09:51:45.556+02:00,4983.492582875,0.4589385986328125,0.730255126953125,0.9770355224609375,4983.482631875,1.997105477396254,2.04664067627852,-1.180098085874278,0.6233449578285217,-3.896870136260986,-3.162164211273193,-0.06118282675743103,-0.1937928199768066,0.7900210618972778,XArbitraryZVertical,-0.7532794760379933,0.1407058882234852,0.1063489263759048,0.6336102615061662,0.3385263085365295,0.9246433973312378,0.1744562387466431,0,0,0,-1,-1,4979.96667475,unknown,2,2022-06-30T09:51:42.027+02:00,2022-06-30T08:20:05.567+02:00,1418,1.388076,0,0,1121.329,0,0,2022-06-30T09:50:28.075+02:00
2022-06-30T09:51:45.566+02:00,4983.502534875,0.6169586181640625,0.79071044921875,0.85009765625,4983.492582875,2.014258160617827,2.020050477554964,-1.213985297714111,1.294713616371155,-4.686305999755859,-3.398268222808838,0.0671457052230835,-0.211887001991272,0.8455594778060913,XArbitraryZVertical,-0.7500498056140688,0.1152049120059501,0.1111741389790816,0.6417114315856306,0.3146288990974426,0.9370154738426208,0.1516937613487244,0,0,0,-1,-1,4979.96667475,unknown,2,2022-06-30T09:51:42.027+02:00,2022-06-30T08:20:05.567+02:00,1418,1.388076,0,0,1121.329,0,0,2022-06-30T09:50:28.075+02:00
2022-06-30T09:51:45.576+02:00,4983.512485875,0.6751251220703125,0.89337158203125,0.66387939453125,4983.502534875,2.014499403114909,1.969249558220883,-1.252384684308318,1.867563366889954,-5.588607788085938,-3.539554595947266,0.2550749778747559,-0.1969870924949646,0.8016155958175659,XArbitraryZVertical,-0.7438061902388959,0.08651391842188474,0.1181030543181324,0.6521651697541037,0.2885342836380005,0.9497338533401489,0.1214646100997925,0,0,0,-1,-1,4979.96667475,unknown,2,2022-06-30T09:51:42.027+02:00,2022-06-30T08:20:05.567+02:00,1418,1.388076,0,0,1121.329,0,0,2022-06-30T09:50:28.075+02:00
2022-06-30T09:51:45.586+02:00,4983.522437875,0.59869384765625,0.9480438232421875,0.613189697265625,4983.512485875,1.993611712832192,1.889348089582034,-1.292961110995519,2.115231513977051,-6.451179981231689,-3.558938026428223,0.4030219316482544,-0.1225858330726624,0.6793735027313232,XArbitraryZVertical,-0.7348130223071528,0.05477246872251336,0.1277546729510468,0.6638738592894131,0.2604756057262421,0.9616514444351196,0.08590040355920792,0,0,0,-1,-1,4979.96667475,unknown,2,2022-06-30T09:51:42.027+02:00,2022-06-30T08:20:05.567+02:00,1418,1.388076,0,0,1121.329,0,0,2022-06-30T09:50:28.075+02:00
2022-06-30T09:51:45.596+02:00,4983.532388875,0.91363525390625,-0.5477294921875,2.825576782226562,4983.522437875,1.956936698159223,1.787574769974966,-1.331674521382694,1.601794123649597,-6.686008453369141,-3.247785806655884,0.420655369758606,-0.03926467895507812,0.5182404518127441,XArbitraryZVertical,-0.7245852143225124,0.02115776254983499,0.1399177604221851,0.6745010963560722,0.2313065528869629,0.9715463519096375,0.05094276741147041,0,0,0,-1,-1,4979.96667475,unknown,2,2022-06-30T09:51:42.027+02:00,2022-06-30T08:20:05.567+02:00,1418,1.388076,0,0,1121.329,0,0,2022-06-30T09:50:28.075+02:00
2022-06-30T09:51:45.606+02:00,4983.542340875,-1.549652099609375,5.3917236328125,-9.243301391601562,4983.532388875,1.910170123054464,1.675145967415978,-1.35736306893034,3.950957059860229,-8.659835815429688,-2.802448511123657,0.5950292944908142,-0.5363150835037231,2.926148414611816,XArbitraryZVertical,-0.714808500550226,-0.008959830971838854,0.15590191510681,0.6816621130190013,0.2106648683547974,0.9773094654083252,0.02206294238567352,0,0,0,-1,-1,4979.96667475,unknown,2,2022-06-30T09:51:42.027+02:00,2022-06-30T08:20:05.567+02:00,1418,1.388076,0,0,1121.329,0,0,2022-06-30T09:50:28.075+02:00
2022-06-30T09:51:45.616+02:00,4983.552291875,-4.364532470703125,2.20831298828125,-5.459243774414062,4983.542340875,1.84727346765693,1.548444843116124,-1.384775403232829,-3.200385093688965,-4.677642822265625,-1.670209765434265,0.03199908137321472,0.8230382800102234,-6.095963954925537,XArbitraryZVertical,-0.7045284244165219,-0.03965997054458312,0.1699485217166279,0.6878839822075458,0.1849042177200317,0.9827479720115662,-0.004133571870625019,0,0,0,-1,-1,4979.96667475,unknown,2,2022-06-30T09:51:42.027+02:00,2022-06-30T08:20:05.567+02:00,1418,1.388076,0,0,1121.329,0,0,2022-06-30T09:50:28.075+02:00
2022-06-30T09:51:45.626+02:00,4983.562243875001,-2.067916870117188,2.205413818359375,-3.295379638671875,4983.552291875,1.984731491135526,1.680200423837312,-1.390961845975472,-0.1127146780490875,2.504751920700073,-0.1633211374282837,-3.770908355712891,3.535093545913696,-6.478514194488525,XArbitraryZVertical,-0.7125279558454551,-0.04548468596374355,0.1681536972993048,0.679676122152582,0.1777987033128738,0.9838733077049255,0.01952988840639591,0,0,0,-1,-1,4979.96667475,unknown,2,2022-06-30T09:51:42.027+02:00,2022-06-30T08:20:05.567+02:00,1418,1.388076,0,0,1121.329,0,0,2022-06-30T09:50:28.075+02:00
2022-06-30T09:51:45.636+02:00,4983.572194875001,-0.847869873046875,1.876373291015625,-0.1875457763671875,4983.562243875001,1.899740118689021,1.630978143387243,-1.390321014790515,2.052954196929932,3.921910524368286,0.499253123998642,-3.641865730285645,0.6918855905532837,-4.945015430450439,XArbitraryZVertical,-0.7102005054739824,-0.03183143280096163,0.1568696634520353,0.6855611246002726,0.1791730374097824,0.9837585091590881,0.01079599652439356,0,0,0,-1,-1,4979.96667475,unknown,2,2022-06-30T09:51:42.027+02:00,2022-06-30T08:20:05.567+02:00,1418,1.388076,0,0,1121.329,0,0,2022-06-30T09:50:28.075+02:00
2022-06-30T09:51:45.646+02:00,4983.582146875,-0.1792144775390625,0.9842376708984375,0.678375244140625,4983.572194875001,1.837242656929178,1.606322985578609,-1.385978454171172,0.2523957788944244,3.519778966903687,0.4112242460250854,-1.415875554084778,1.329423546791077,-1.401195883750916,XArbitraryZVertical,-0.7092163855925493,-0.01660588565605271,0.145621296580065,0.6895874197900611,0.1836515963077545,0.9829697608947754,0.006527273915708065,0,0,0,-1,-1,4979.96667475,unknown,2,2022-06-30T09:51:42.027+02:00,2022-06-30T08:20:05.567+02:00,1418,1.388076,0,0,1121.329,0,0,2022-06-30T09:50:28.075+02:00
2022-06-30T09:51:45.659+02:00,4983.592097875,0.7528839111328125,0.686431884765625,0.5788726806640625,4983.582146875,1.845291688282137,1.649906797991618,-1.383056572355511,-0.4102495610713959,3.712141990661621,0.2038348317146301,-0.7390494346618652,0.3647242188453674,0.4021812677383423,XArbitraryZVertical,-0.7122942900721565,-0.003420084858612762,0.1339109680725793,0.688979705283308,0.1860553026199341,0.9824286103248596,0.01474970486015081,0,0,0,-1,-1,4979.96667475,unknown,2,2022-06-30T09:51:42.027+02:00,2022-06-30T08:20:05.567+02:00,1418,1.388076,0,0,1121.329,0,0,2022-06-30T09:50:28.075+02:00
2022-06-30T09:51:45.669+02:00,4983.602049875,1.748626708984375,0.506317138671875,0.08001708984375,4983.592097875,1.867132059789348,1.706801698092455,-1.380533418034199,-0.4198250770568848,3.191749095916748,0.2386356145143509,0.06818337738513947,-0.1905269622802734,0.693443775177002,XArbitraryZVertical,-0.7160555558444509,0.009234738385880388,0.1219719608126581,0.6872422808434206,0.1873704046010971,0.9819545745849609,0.02564167976379395,0,0,0,-1,-1,4979.96667475,unknown,2,2022-06-30T09:51:42.027+02:00,2022-06-30T08:20:05.567+02:00,1418,1.388076,0,0,1121.329,0,0,2022-06-30T09:50:28.075+02:00
2022-06-30T09:51:45.676+02:00,4983.612001875001,1.777984619140625,0.2348480224609375,0.0341644287109375,4983.602049875,1.883455059507197,1.744962918052314,-1.378313377610174,-0.2687069475650787,1.110724091529846,0.07980123907327652,1.095257759094238,-0.3735151886940002,0.2777330875396729,XArbitraryZVertical,-0.7185243464706946,0.01724622361747866,0.1146439045844166,0.6857712165117082,0.1884028017520905,0.9815322756767273,0.03314933925867081,0,0,0,-1,-1,4979.96667475,unknown,2,2022-06-30T09:51:42.027+02:00,2022-06-30T08:20:05.567+02:00,1418,1.388076,0,0,1121.329,0,0,2022-06-30T09:50:28.075+02:00
2022-06-30T09:51:45.685+02:00,4983.621952875001,0.8562164306640625,0.2292327880859375,-0.072113037109375,4983.612001875001,1.894810390592882,1.756698507226561,-1.380718626780923,-0.06430873274803162,-0.8396897315979004,-0.68907231092453,1.761096835136414,-0.6183114647865295,-0.02829945459961891,XArbitraryZVertical,-0.7191613707556503,0.01636150550134888,0.1135033931059612,0.6853147086862553,0.1856800764799118,0.9819895625114441,0.0349215529859066,0,0,0,-1,-1,4979.96667475,unknown,2,2022-06-30T09:51:42.027+02:00,2022-06-30T08:20:05.567+02:00,1418,1.388076,0,0,1121.329,0,0,2022-06-30T09:50:28.075+02:00
2022-06-30T09:51:45.695+02:00,4983.631904875,0.2100830078125,0.4157867431640625,-0.1887664794921875,4983.621952875001,1.906463483440033,1.755781632096381,-1.392977164589537,0.09318182617425919,-1.505182266235352,-1.755079746246338,1.167762994766235,-0.7975709438323975,-0.01597893610596657,XArbitraryZVertical,-0.7184766158667885,0.007656781133428948,0.1136837158063488,0.6861550315066688,0.1738656610250473,0.9842317700386047,0.03253454715013504,0,0,0,-1,-1,4979.96667475,unknown,2,2022-06-30T09:51:42.027+02:00,2022-06-30T08:20:05.567+02:00,1418,1.388076,0,0,1121.329,0,0,2022-06-30T09:50:28.075+02:00
2022-06-30T09:51:45.705+02:00,4983.641855875,-0.0776519775390625,0.633453369140625,-0.2839813232421875,4983.631904875,1.916265606747965,1.750734703034771,-1.413462617591943,0.3560195863246918,-1.398666977882385,-2.231703519821167,0.317966103553772,-0.670158863067627,-0.1784477233886719,XArbitraryZVertical,-0.7169376681701944,-0.004614396035658917,0.1119384682076716,0.6880762089546139,0.1541557013988495,0.9876485466957092,0.02804182469844818,0,0,0,-1,-1,4979.96667475,unknown,2,2022-06-30T09:51:42.027+02:00,2022-06-30T08:20:05.567+02:00,1418,1.388076,0,0,1121.329,0,0,2022-06-30T09:50:28.075+02:00
2022-06-30T09:51:45.715+02:00,4983.651807875,-0.182952880859375,0.8365936279296875,-0.3784332275390625,4983.641855875,1.905663683733142,1.728546002842606,-1.436338038990894,0.7420194745063782,-0.9282515048980713,-2.180136919021606,-0.0957082062959671,-0.4700998663902283,-0.2463403940200806,XArbitraryZVertical,-0.714327031909224,-0.01632842434587339,0.1084665281887627,0.6911623639557182,0.1323899626731873,0.9909740686416626,0.02105945162475109,0,0,0,-1,-1,4979.96667475,unknown,2,2022-06-30T09:51:42.027+02:00,2022-06-30T08:20:05.567+02:00,1418,1.388076,0,0,1121.329,0,0,2022-06-30T09:50:28.075+02:00
2022-06-30T09:51:45.726+02:00,4983.661758875,-0.138916015625,1.03631591796875,-0.53057861328125,4983.651807875,1.84620968529753,1.663204087900122,-1.459087054103695,1.300881385803223,-0.3580939173698425,-2.166100263595581,-0.2622179985046387,-0.2533493041992188,-0.3453241586685181,XArbitraryZVertical,-0.7102695544255316,-0.02570174248851233,0.1033207753740634,0.6958315691102855,0.1110030338168144,0.9937670230865479,0.01028683874756098,0,0,0,-1,-1,4979.96667475,unknown,2,2022-06-30T09:51:42.027+02:00,2022-06-30T08:20:05.567+02:00,1418,1.388076,0,0,1121.329,0,0,2022-06-30T09:50:28.075+02:00
2022-06-30T09:51:45.735+02:00,4983.671710875,0.026031494140625,1.083938598632812,-0.683929443359375,4983.661758875,1.699796304362836,1.515984807505632,-1.482593432519043,1.741474747657776,0.02805965021252632,-2.476815700531006,-0.2675389051437378,-0.05298203229904175,-0.4517018795013428,XArbitraryZVertical,-0.7045940270867614,-0.03367920099665478,0.09598607145828737,0.702281838540786,0.08795784413814545,0.9961126446723938,-0.004825936630368233,0,0,0,-1,-1,4979.96667475,unknown,2,2022-06-30T09:51:42.027+02:00,2022-06-30T08:20:05.567+02:00,1418,1.388076,0,0,1121.329,0,0,2022-06-30T09:50:28.075+02:00
2022-06-30T09:51:45.745+02:00,4983.681661875,0.196197509765625,1.123306274414062,-0.8195343017578125,4983.671710875,1.353223680259813,1.171507794336607,-1.504380628165166,2.559609413146973,0.1587979048490524,-2.883842706680298,-0.126394510269165,0.0779036283493042,-0.5692761540412903,XArbitraryZVertical,-0.6966749302568959,-0.04175274495978342,0.08649228109371618,0.7109289173200897,0.061147540807724,0.9977952837944031,-0.02580150030553341,0,0,0,-1,-1,4979.96667475,unknown,2,2022-06-30T09:51:42.027+02:00,2022-06-30T08:20:05.567+02:00,1418,1.388076,0,0,1121.329,0,0,2022-06-30T09:50:28.075+02:00
2022-06-30T09:51:45.755+02:00,4983.691613875,0.2724609375,1.15399169921875,-0.871673583984375,4983.681661875,0.680074680636782,0.5008660041440105,-1.507141934532046,3.460265874862671,0.06600804626941681,-3.227391004562378,0.08757254481315613,0.09731638431549072,-0.7116581797599792,XArbitraryZVertical,-0.6852218437193567,-0.05071529122536865,0.07577076981123251,0.7226048606851169,0.03054534085094929,0.9979747533798218,-0.05579796805977821,0,0,0,-1,-1,4979.96667475,unknown,2,2022-06-30T09:51:42.027+02:00,2022-06-30T08:20:05.567+02:00,1418,1.388076,0,0,1121.329,0,0,2022-06-30T09:50:28.075+02:00
2022-06-30T09:51:45.765+02:00,4983.701564875,0.2269744873046875,1.014999389648438,-0.9080963134765625,4983.691613875,0.1467401506987672,-0.0312388594640191,-1.478198857812342,3.859439134597778,-0.1196569055318832,-3.441969156265259,0.2522315382957458,0.155742883682251,-0.755219578742981,XArbitraryZVertical,-0.6708816295273368,-0.06088567053419059,0.06466357716835912,0.7362265582895369,-0.002888083225116134,0.9957159161567688,-0.09242154657840729,0,0,0,-1,-1,4979.96667475,unknown,2,2022-06-30T09:51:42.027+02:00,2022-06-30T08:20:05.567+02:00,1418,1.388076,0,0,1121.329,0,0,2022-06-30T09:50:28.075+02:00
2022-06-30T09:51:45.776+02:00,4983.711516875001,0.0634307861328125,0.791534423828125,-1.036529541015625,4983.701564875,-0.1048292560340914,-0.283235469716301,-1.434404529653472,3.859316349029541,-0.2596973478794098,-3.575009107589722,0.3018986582756042,0.1187991499900818,-0.7637207508087158,XArbitraryZVertical,-0.6553782799826079,-0.07213686267975569,0.05355538833397524,0.7499381988643227,-0.03799830004572868,0.9907130599021912,-0.1305511593818665,0,0,0,-1,-1,4979.96667475,unknown,2,2022-06-30T09:51:42.027+02:00,2022-06-30T08:20:05.567+02:00,1418,1.388076,0,0,1121.329,0,0,2022-06-30T09:50:28.075+02:00
2022-06-30T09:51:45.785+02:00,4983.721467875001,-0.1485748291015625,0.7081756591796875,-1.192474365234375,4983.711516875001,-0.2389295792086018,-0.4183183035774014,-1.385420947522931,3.875706672668457,-0.2515093386173248,-3.839585065841675,0.2333812415599823,-0.09187602996826172,-0.7801251411437988,XArbitraryZVertical,-0.6392973228818757,-0.08418879329754692,0.0419444587837873,0.7631852895328733,-0.07487333565950394,0.9828671216964722,-0.1684223562479019,0,0,0,-1,-1,4979.96667475,unknown,2,2022-06-30T09:51:42.027+02:00,2022-06-30T08:20:05.567+02:00,1418,1.388076,0,0,1121.329,0,0,2022-06-30T09:50:28.075+02:00
2022-06-30T09:51:45.795+02:00,4983.731419875,-0.315093994140625,0.7433624267578125,-1.300079345703125,4983.721467875001,-0.3287225845268905,-0.5078395400401143,-1.332867111651302,3.909155607223511,-0.05481172725558281,-4.222958087921143,0.07039398699998856,-0.2339740991592407,-0.9249895811080933,XArbitraryZVertical,-0.6226076881546249,-0.09688428420323844,0.02870723945401916,0.7759826778325967,-0.1146143600344658,0.9718281030654907,-0.2059462070465088,0,0,0,-1,-1,4979.96667475,unknown,2,2022-06-30T09:51:42.027+02:00,2022-06-30T08:20:05.567+02:00,1418,1.388076,0,0,1121.329,0,0,2022-06-30T09:50:28.075+02:00
2022-06-30T09:51:45.805+02:00,4983.741371875,-0.4445037841796875,0.9814453125,-1.386505126953125,4983.731419875,-0.3925522276429255,-0.568296928974692,-1.275859512004512,4.214437961578369,0.2954504489898682,-4.494977474212646,-0.08382228016853333,-0.2554197907447815,-0.9972431659698486,XArbitraryZVertical,-0.6045963613648658,-0.1093989185794478,0.0133643923770213,0.7888704528166371,-0.1564430296421051,0.9568204879760742,-0.2449902296066284,0,0,0,-1,-1,4979.96667475,unknown,2,2022-06-30T09:51:42.027+02:00,2022-06-30T08:20:05.567+02:00,1418,1.388076,0,0,1121.329,0,0,2022-06-30T09:50:28.075+02:00
2022-06-30T09:51:45.815+02:00,4983.751322875,-0.5267181396484375,1.305679321289062,-1.418472290039062,4983.741371875,-0.4358028828920478,-0.6046697328368615,-1.213681752190819,4.673325538635254,0.6310185790061951,-4.697772026062012,-0.1846945583820343,-0.09279322624206543,-1.064903497695923,XArbitraryZVertical,-0.5844114104344876,-0.1211130133185044,-0.003744186545657361,0.8023596989946826,-0.1987286955118179,0.9369093775749207,-0.2875898778438568,0,0,0,-1,-1,4979.96667475,unknown,2,2022-06-30T09:51:42.027+02:00,2022-06-30T08:20:05.567+02:00,1418,1.388076,0,0,1121.329,0,0,2022-06-30T09:50:28.075+02:00
2022-06-30T09:51:45.825+02:00,4983.761274875001,-0.574554443359375,1.551773071289062,-1.287322998046875,4983.751322875,-0.4636764203899355,-0.6234965877533114,-1.145738083285149,5.215304374694824,0.7409623265266418,-4.870697975158691,-0.2517934441566467,0.2248647212982178,-1.07935643196106,XArbitraryZVertical,-0.5613383838951798,-0.1323176304391335,-0.02196792325211787,0.8166448525559008,-0.2407758980989456,0.9110147356987,-0.3347825407981873,0,0,0,-1,-1,4979.96667475,unknown,2,2022-06-30T09:51:42.027+02:00,2022-06-30T08:20:05.567+02:00,1418,1.388076,0,0,1121.329,0,0,2022-06-30T09:50:28.075+02:00
2022-06-30T09:51:45.840+02:00,4983.771225875001,-0.6885986328125,1.5643310546875,-1.307098388671875,4983.761274875001,-0.4837189945257248,-0.6349260892979289,-1.074314012487935,5.314344882965088,0.5495893955230713,-4.996722221374512,-0.2696927189826965,0.5855799913406372,-0.975473165512085,XArbitraryZVertical,-0.5362121999904367,-0.1439579558063779,-0.04041461110560501,0.8307341820439822,-0.2825232148170471,0.8792635798454285,-0.3835051655769348,0,0,0,-1,-1,4979.96667475,unknown,2,2022-06-30T09:51:42.027+02:00,2022-06-30T08:20:05.567+02:00,1418,1.388076,0,0,1121.329,0,0,2022-06-30T09:50:28.075+02:00
2022-06-30T09:51:45.848+02:00,4983.781177875,-0.9503173828125,1.51531982421875,-1.384918212890625,4983.771225875001,-0.5014311783478974,-0.6470951607311194,-1.001798799818191,5.245925903320312,0.0671556293964386,-5.133777141571045,-0.2922613024711609,0.7267874479293823,-0.8468220829963684,XArbitraryZVertical,-0.5102511164058932,-0.157197289601226,-0.05842502697714327,0.8435160675812913,-0.3248197436332703,0.8424414992332458,-0.4298656284809113,0,0,0,-1,-1,4979.96667475,unknown,2,2022-06-30T09:51:42.027+02:00,2022-06-30T08:20:05.567+02:00,1418,1.388076,0,0,1121.329,0,0,2022-06-30T09:50:28.075+02:00
2022-06-30T09:51:45.855+02:00,4983.791128875,-1.351455688476562,1.45489501953125,-1.505905151367188,4983.781177875,-0.5190614488970972,-0.6632283516096166,-0.9298530952388425,4.992077827453613,-0.3674443066120148,-5.255529403686523,-0.4313777387142181,0.7493404746055603,-0.8698123097419739,XArbitraryZVertical,-0.4844140970320816,-0.1724742550637514,-0.07580677526941935,0.8543119893017596,-0.368137389421463,0.8015320897102356,-0.4711912274360657,0,0,0,-1,-1,4979.96667475,unknown,2,2022-06-30T09:51:42.027+02:00,2022-06-30T08:20:05.567+02:00,1418,1.388076,0,0,1121.329,0,0,2022-06-30T09:50:28.075+02:00
2022-06-30T09:51:45.865+02:00,4983.801080875,-1.891555786132812,1.471176147460938,-1.595855712890625,4983.791128875,-0.5378187787881329,-0.6830394927166801,-0.8587270078278249,4.687005519866943,-0.6323986053466797,-5.492480278015137,-0.7243223190307617,0.7195966243743896,-0.9447372555732727,XArbitraryZVertical,-0.4590576835474273,-0.1893620319754165,-0.0931998719153226,0.8629726327781956,-0.4123967289924622,0.7570114135742188,-0.5068161487579346,0,0,0,-1,-1,4979.96667475,unknown,2,2022-06-30T09:51:42.027+02:00,2022-06-30T08:20:05.567+02:00,1418,1.388076,0,0,1121.329,0,0,2022-06-30T09:50:28.075+02:00
2022-06-30T09:51:45.874+02:00,4983.811031875,-2.560562133789062,1.556747436523438,-1.771026611328125,4983.801080875,-0.5598265834749646,-0.7052235498640629,-0.7888305112401996,4.156937599182129,-0.517977237701416,-5.785058975219727,-1.1447434425354,0.7438697814941406,-1.004077672958374,XArbitraryZVertical,-0.4346752053415326,-0.2067944072130229,-0.1118256022897483,0.8693611421005465,-0.4567736685276031,0.7095296382904053,-0.5365870594978333,0,0,0,-1,-1,4979.96667475,unknown,2,2022-06-30T09:51:42.027+02:00,2022-06-30T08:20:05.567+02:00,1418,1.388076,0,0,1121.329,0,0,2022-06-30T09:50:28.075+02:00
2022-06-30T09:51:45.884+02:00,4983.820983875,-3.170974731445312,1.615310668945312,-1.817657470703125,4983.811031875,-0.5862134683769964,-0.7253213458461922,-0.7219424027261223,3.442672967910767,0.213855654001236,-5.881834030151367,-1.720977783203125,0.8481739163398743,-1.12288761138916,XArbitraryZVertical,-0.4120226210533527,-0.222337825547014,-0.1327733353132983,0.8735986438484596,-0.4978792667388916,0.6608437299728394,-0.5616065263748169,0,0,0,-1,-1,4979.96667475,unknown,2,2022-06-30T09:51:42.027+02:00,2022-06-30T08:20:05.567+02:00,1418,1.388076,0,0,1121.329,0,0,2022-06-30T09:50:28.075+02:00
2022-06-30T09:51:45.894+02:00,4983.830934875,-3.361526489257812,1.7945556640625,-1.80029296875,4983.820983875,-0.6138103494845546,-0.7338709802443343,-0.6605008790893465,2.977765560150146,1.6850426197052,-5.459101676940918,-2.363153457641602,0.9780246615409851,-1.224548816680908,XArbitraryZVertical,-0.3910760803278292,-0.2320655801926812,-0.1558583938704066,0.8768769522607938,-0.5288909077644348,0.6135124564170837,-0.5864101052284241,0,0,0,-1,-1,4979.96667475,unknown,2,2022-06-30T09:51:42.027+02:00,2022-06-30T08:20:05.567+02:00,1418,1.388076,0,0,1121.329,0,0,2022-06-30T09:50:28.075+02:00
2022-06-30T09:51:45.904+02:00,4983.840886875,-3.052200317382812,2.149017333984375,-1.585189819335938,4983.830934875,-0.6354172612544864,-0.7215315391048743,-0.6049067340886151,3.055352210998535,3.337211608886719,-4.553837299346924,-2.79763126373291,1.099908709526062,-1.201338529586792,XArbitraryZVertical,-0.3700070342420695,-0.2330443090922457,-0.1791331247745932,0.881303884277169,-0.543326735496521,0.5686853528022766,-0.6175702810287476,0,0,0,-1,-1,4979.96667475,unknown,2,2022-06-30T09:51:42.027+02:00,2022-06-30T08:20:05.567+02:00,1418,1.388076,0,0,1121.329,0,0,2022-06-30T09:50:28.075+02:00
2022-06-30T09:51:45.914+02:00,4983.850837875,-2.681793212890625,2.34130859375,-1.289596557617188,4983.840886875,-0.6483399518418762,-0.6898551946691881,-0.5544240715106614,3.237346649169922,4.356689453125,-3.717786550521851,-2.707047462463379,1.44762122631073,-1.067761898040771,XArbitraryZVertical,-0.3477305974128304,-0.2262434276314061,-0.2005992851796555,0.8875006618241017,-0.5410913825035095,0.5264537334442139,-0.6557946801185608,0,0,0,-1,-1,4979.96667475,unknown,2,2022-06-30T09:51:42.027+02:00,2022-06-30T08:20:05.567+02:00,1418,1.388076,0,0,1121.329,0,0,2022-06-30T09:50:28.075+02:00
2022-06-30T09:51:45.924+02:00,4983.860789875001,-2.531295776367188,2.26251220703125,-1.164764404296875,4983.850837875,-0.6561948200780523,-0.6487892800156315,-0.5076431272135797,3.262157678604126,4.6231689453125,-3.211604356765747,-2.319966793060303,1.791224479675293,-0.7259249091148376,XArbitraryZVertical,-0.3247313121566925,-0.2153688951298253,-0.2198828009568928,0.8943251777530858,-0.5280253291130066,0.4861189424991608,-0.6963316202163696,0,0,0,-1,-1,4979.96667475,unknown,2,2022-06-30T09:51:42.027+02:00,2022-06-30T08:20:05.567+02:00,1418,1.388076,0,0,1121.329,0,0,2022-06-30T09:50:28.075+02:00
2022-06-30T09:51:45.934+02:00,4983.870741875,-2.560333251953125,2.048233032226562,-1.085525512695312,4983.860789875001,-0.6623143453329894,-0.6058141216213229,-0.4637828047253932,3.234667301177979,4.597185134887695,-2.833878517150879,-2.066876173019409,1.887290358543396,-0.4760843515396118,XArbitraryZVertical,-0.3018287561432148,-0.2032174128982298,-0.2371992477925903,0.9007434481198691,-0.5092806220054626,0.4473345279693604,-0.7352041602134705,0,0,0,-1,-1,4979.96667475,unknown,2,2022-06-30T09:51:42.027+02:00,2022-06-30T08:20:05.567+02:00,1418,1.388076,0,0,1121.329,0,0,2022-06-30T09:50:28.075+02:00
2022-06-30T09:51:45.944+02:00,4983.880692875,-2.602935791015625,1.901931762695312,-1.030380249023438,4983.870741875,-0.6667597460895979,-0.5611575512621823,-0.4229670436023103,3.135094881057739,4.808903217315674,-2.337469816207886,-2.046743631362915,1.744759440422058,-0.3485148549079895,XArbitraryZVertical,-0.2791941181632405,-0.1898310594722183,-0.2525101535915837,0.9067819412792973,-0.4852694571018219,0.4104678332805634,-0.7720296382904053,0,0,0,-1,-1,4979.96667475,unknown,2,2022-06-30T09:51:42.027+02:00,2022-06-30T08:20:05.567+02:00,1418,1.388076,0,0,1121.329,0,0,2022-06-30T09:50:28.075+02:00
2022-06-30T09:51:45.954+02:00,4983.890644875,-2.5394287109375,1.850326538085938,-0.99554443359375,4983.880692875,-0.6691510226192281,-0.511947395019264,-0.3870105114002669,2.828428745269775,5.291546821594238,-1.735440969467163,-2.1381516456604,1.585697412490845,-0.2502557039260864,XArbitraryZVertical,-0.2573056225217817,-0.1735970488732163,-0.2657520065254158,0.9127069179432477,-0.4536454379558563,0.3774217069149017,-0.8073157668113708,0,0,0,-1,-1,4979.96667475,unknown,2,2022-06-30T09:51:42.027+02:00,2022-06-30T08:20:05.567+02:00,1418,1.388076,0,0,1121.329,0,0,2022-06-30T09:50:28.075+02:00
2022-06-30T09:51:45.964+02:00,4983.900595875,-2.409866333007812,1.859619140625,-0.9074859619140625,4983.890644875,-0.6695322911749105,-0.4570473900439859,-0.3568151051629252,2.519937038421631,5.758184909820557,-1.163833141326904,-2.17159366607666,1.515759229660034,-0.1683627367019653,XArbitraryZVertical,-0.2365015109201651,-0.1537786186705477,-0.2769567716461438,0.9185391174827285,-0.4135047495365143,0.3492917120456696,-0.8408383727073669,0,0,0,-1,-1,4979.96667475,unknown,2,2022-06-30T09:51:42.027+02:00,2022-06-30T08:20:05.567+02:00,1418,1.388076,0,0,1121.329,0,0,2022-06-30T09:50:28.075+02:00
2022-06-30T09:51:45.974+02:00,4983.910547875001,-2.26971435546875,1.85772705078125,-0.7706146240234375,4983.900595875,-0.6675010084077279,-0.3974321511497618,-0.3310258816499206,2.373852491378784,6.071094512939453,-0.6376297473907471,-2.112889051437378,1.527449011802673,-0.09603399038314819,XArbitraryZVertical,-0.2163894002549943,-0.1310579836018668,-0.2860231155834586,0.9242241308967695,-0.3660386502742767,0.3250133991241455,-0.8719988465309143,0,0,0,-1,-1,4979.96667475,unknown,2,2022-06-30T09:51:42.027+02:00,2022-06-30T08:20:05.567+02:00,1418,1.388076,0,0,1121.329,0,0,2022-06-30T09:50:28.075+02:00
2022-06-30T09:51:45.984+02:00,4983.920498875001,-2.140945434570312,1.79901123046875,-0.6612701416015625,4983.910547875001,-0.6624460907049424,-0.334528869859598,-0.3077016862585054,2.349648237228394,6.238216876983643,-0.1450279057025909,-2.026101112365723,1.559633612632751,0.06433963775634766,XArbitraryZVertical,-0.1963941918217117,-0.1064371036155698,-0.2927474853486096,0.9297308052195296,-0.3129035234451294,0.3028690814971924,-0.9002009034156799,0,0,0,-1,-1,4979.96667475,unknown,2,2022-06-30T09:51:42.027+02:00,2022-06-30T08:20:05.567+02:00,1418,1.388076,0,0,1121.329,0,0,2022-06-30T09:50:28.075+02:00
2022-06-30T09:51:45.994+02:00,4983.930450875,-2.014144897460938,1.684555053710938,-0.560394287109375,4983.920498875001,-0.654570386296226,-0.2697547076126202,-0.2854998660311296,2.355419158935547,6.316593170166016,0.2524440586566925,-1.948790907859802,1.555245995521545,0.2139751315116882,XArbitraryZVertical,-0.1762789186449902,-0.08071658237843203,-0.2971988597798085,0.9349242480072413,-0.2557075619697571,0.2816371321678162,-0.924821138381958,0,0,0,-1,-1,4979.96667475,unknown,2,2022-06-30T09:51:42.027+02:00,2022-06-30T08:20:05.567+02:00,1418,1.388076,0,0,1121.329,0,0,2022-06-30T09:50:28.075+02:00
2022-06-30T09:51:46.004+02:00,4983.940401875,-1.882736206054688,1.603744506835938,-0.45916748046875,4983.930450875,-0.6447571129600738,-0.2040059512845251,-0.2635109816024746,2.391830921173096,6.366082668304443,0.5486146211624146,-1.881853222846985,1.485224723815918,0.3337809443473816,XArbitraryZVertical,-0.1559404196700566,-0.05433725872457438,-0.299756752386023,0.9396148185305355,-0.1956005692481995,0.2604719400405884,-0.9454600811004639,0,0,0,-1,-1,4979.96667475,unknown,2,2022-06-30T09:51:42.027+02:00,2022-06-30T08:20:05.567+02:00,1418,1.388076,0,0,1121.329,0,0,2022-06-30T09:50:28.075+02:00
2022-06-30T09:51:46.014+02:00,4983.950353875,-1.757720947265625,1.618759155273438,-0.3709259033203125,4983.940401875,-0.6336743890975732,-0.1377400505258305,-0.2405389504915058,2.522524833679199,6.397300720214844,0.7910277843475342,-1.815775513648987,1.392907500267029,0.4543665051460266,XArbitraryZVertical,-0.135023037009589,-0.02762538467832642,-0.3007333319094379,0.9436976406455185,-0.1333518773317337,0.2382261008024216,-0.9620112180709839,0,0,0,-1,-1,4979.96667475,unknown,2,2022-06-30T09:51:42.027+02:00,2022-06-30T08:20:05.567+02:00,1418,1.388076,0,0,1121.329,0,0,2022-06-30T09:50:28.075+02:00
2022-06-30T09:51:46.024+02:00,4983.960304791667,-1.663284301757812,1.661102294921875,-0.3084869384765625,4983.950353875,-0.6217228670281713,-0.07135856040109981,-0.2158054389463373,2.660270690917969,6.400074481964111,1.017687439918518,-1.748013377189636,1.388511180877686,0.5614612102508545,XArbitraryZVertical,-0.1133142693728815,-0.0008442702587972425,-0.3002489333958038,0.9471059449436932,-0.06964420527219772,0.2141342610120773,-0.9743183255195618,0,0,0,-1,-1,4979.96667475,unknown,2,2022-06-30T09:51:42.027+02:00,2022-06-30T08:20:05.567+02:00,1418,1.388076,0,0,1121.329,0,0,2022-06-30T09:50:28.075+02:00
2022-06-30T09:51:46.034+02:00,4983.970256791667,-1.587646484375,1.673141479492188,-0.26885986328125,4983.960304791667,-0.6092607217928956,-0.005265519073963091,-0.1888576878787012,2.851351499557495,6.385627746582031,1.227558612823486,-1.701279759407043,1.45426082611084,0.6434758305549622,XArbitraryZVertical,-0.09073316658031005,0.02578051937104826,-0.298366463452294,0.9497791071072084,-0.005171870812773705,0.1877370178699493,-0.9822056889533997,0,0,0,-1,-1,4979.96667475,unknown,2,2022-06-30T09:51:42.027+02:00,2022-06-30T08:20:05.567+02:00,1418,1.388076,0,0,1121.329,0,0,2022-06-30T09:50:28.075+02:00
2022-06-30T09:51:46.044+02:00,4983.980207791667,-1.519851684570312,1.69451904296875,-0.2394561767578125,4983.970256791667,-0.5967380880466072,0.06045116132368793,-0.1585971321889862,3.168427705764771,6.400386810302734,1.424571633338928,-1.683435559272766,1.510569334030151,0.7024124264717102,XArbitraryZVertical,-0.06682504509611029,0.05207064041242294,-0.2951922822258514,0.951674618212757,0.05965613946318626,0.1579331010580063,-0.98564612865448,0,0,0,-1,-1,4979.96667475,unknown,2,2022-06-30T09:51:42.027+02:00,2022-06-30T08:20:05.567+02:00,1418,1.388076,0,0,1121.329,0,0,2022-06-30T09:50:28.075+02:00
2022-06-30T09:51:46.054+02:00,4983.990159791667,-1.466629028320312,1.67486572265625,-0.1625823974609375,4983.980207791667,-0.5844764817819401,0.1261729621425858,-0.1242085192893259,3.463969945907593,6.474610805511475,1.651880383491516,-1.677099943161011,1.557949185371399,0.7256646752357483,XArbitraryZVertical,-0.041186765157883,0.07810019110690158,-0.2907158031883238,0.9527267949699206,0.1248690038919449,0.1238893866539001,-0.9844080209732056,0,0,0,-1,-1,4979.96667475,unknown,2,2022-06-30T09:51:42.027+02:00,2022-06-30T08:20:05.567+02:00,1418,1.388076,0,0,1121.329,0,0,2022-06-30T09:50:28.075+02:00
2022-06-30T09:51:46.064+02:00,4984.000111791667,-1.416641235351562,1.606475830078125,-0.081695556640625,4983.990159791667,-0.5727277410568283,0.192380103565741,-0.08641049607705041,3.652509212493896,6.59041690826416,1.871267557144165,-1.681525468826294,1.609588980674744,0.7719417810440063,XArbitraryZVertical,-0.01413816200847167,0.1041885486484555,-0.2848771974143302,0.952780075379141,0.1904822736978531,0.08630300313234329,-0.9778897166252136,0,0,0,-1,-1,4979.96667475,unknown,2,2022-06-30T09:51:42.027+02:00,2022-06-30T08:20:05.567+02:00,1418,1.388076,0,0,1121.329,0,0,2022-06-30T09:50:28.075+02:00
2022-06-30T09:51:46.074+02:00,4984.010062791667,-1.36639404296875,1.562423706054688,0.0316925048828125,4984.000111791667,-0.561840630743252,0.2592856822148314,-0.04589619264063912,3.781645536422729,6.715744018554688,2.076099634170532,-1.697099328041077,1.594103693962097,0.8434699177742004,XArbitraryZVertical,0.01397054275706926,0.130487777474358,-0.2776912297776201,0.9516645847799652,0.2561201751232147,0.04588008299469948,-0.9655555486679077,0,0,0,-1,-1,4979.96667475,unknown,2,2022-06-30T09:51:42.027+02:00,2022-06-30T08:20:05.567+02:00,1418,1.388076,0,0,1121.329,0,0,2022-06-30T09:50:28.075+02:00
2022-06-30T09:51:46.084+02:00,4984.020014791667,-1.3101806640625,1.514373779296875,0.168609619140625,4984.010062791667,-0.5519643527077341,0.3269967337463143,-0.003521707786896351,3.778997659683228,6.852670192718506,2.286630153656006,-1.713898658752441,1.576891660690308,0.9167776703834534,XArbitraryZVertical,0.04268209148943591,0.1570845143479646,-0.2691334490053287,0.9492469901148636,0.3211983740329742,0.00352170062251389,-0.9470053911209106,0,0,0,-1,-1,4979.96667475,unknown,2,2022-06-30T09:51:42.027+02:00,2022-06-30T08:20:05.567+02:00,1418,1.388076,0,0,1121.329,0,0,2022-06-30T09:50:28.075+02:00
2022-06-30T09:51:46.093+02:00,4984.029965791667,-1.246536254882812,1.424102783203125,0.299407958984375,4984.020014791667,-0.5428177068853132,0.3956142403437098,0.03961017720761919,3.669666051864624,6.970381736755371,2.487804174423218,-1.722475290298462,1.581988334655762,1.021096229553223,XArbitraryZVertical,0.0713812480612025,0.184083136860769,-0.2590602912234818,0.9454659727690931,0.3850727677345276,-0.03959982097148895,-0.9220362305641174,0,0,0,-1,-1,4979.96667475,unknown,2,2022-06-30T09:51:42.027+02:00,2022-06-30T08:20:05.567+02:00,1418,1.388076,0,0,1121.329,0,0,2022-06-30T09:50:28.075+02:00
2022-06-30T09:51:46.103+02:00,4984.039917791667,-1.141021728515625,1.323333740234375,0.430206298828125,4984.029965791667,-0.5344347717910567,0.464685911023524,0.0828872758993984,3.532250165939331,6.999741077423096,2.666000127792358,-1.727167010307312,1.555860280990601,1.127297639846802,XArbitraryZVertical,0.099634678919325,0.211249397737593,-0.2475314341058532,0.940305791111811,0.4466035068035126,-0.08279240131378174,-0.8908932209014893,0,0,0,-1,-1,4979.96667475,unknown,2,2022-06-30T09:51:42.027+02:00,2022-06-30T08:20:05.567+02:00,1418,1.388076,0,0,1121.329,0,0,2022-06-30T09:50:28.075+02:00
2022-06-30T09:51:46.113+02:00,4984.049868791667,-1.020248413085938,1.204574584960938,0.5199432373046875,4984.039917791667,-0.5267095618395383,0.5337325776983994,0.1262779926022146,3.387513160705566,7.034997463226318,2.863883018493652,-1.704330325126648,1.502101898193359,1.220788836479187,XArbitraryZVertical,0.1272775788018812,0.2382663658707677,-0.2345402968398153,0.9338203283700257,0.5046994090080261,-0.1259426474571228,-0.854059100151062,0,0,0,-1,-1,4979.96667475,unknown,2,2022-06-30T09:51:42.027+02:00,2022-06-30T08:20:05.567+02:00,1418,1.388076,0,0,1121.329,0,0,2022-06-30T09:50:28.075+02:00
2022-06-30T09:51:46.123+02:00,4984.059820791667,-0.8971099853515625,1.08282470703125,0.577484130859375,4984.049868791667,-0.5195904865635763,0.6024695430433495,0.1699045435934321,3.234384059906006,6.987306594848633,3.040904521942139,-1.640337109565735,1.434194087982178,1.299623489379883,XArbitraryZVertical,0.1542523752358507,0.264894004241678,-0.2201005939476878,0.9260632869116511,0.5585193037986755,-0.1690882742404938,-0.8120747208595276,0,0,0,-1,-1,4979.96667475,unknown,2,2022-06-30T09:51:42.027+02:00,2022-06-30T08:20:05.567+02:00,1418,1.388076,0,0,1121.329,0,0,2022-06-30T09:50:28.075+02:00
2022-06-30T09:51:46.134+02:00,4984.069771791667,-0.781951904296875,0.944854736328125,0.5881195068359375,4984.059820791667,-0.5132445582152445,0.6700923017918161,0.2134907203883444,3.067373514175415,6.844870090484619,3.1620934009552,-1.566370487213135,1.358722805976868,1.313486576080322,XArbitraryZVertical,0.1803060175074872,0.2906963154720433,-0.204451799969188,0.917161362029103,0.6069586277008057,-0.2118726521730423,-0.765970766544342,0,0,0,-1,-1,4979.96667475,unknown,2,2022-06-30T09:51:42.027+02:00,2022-06-30T08:20:05.567+02:00,1418,1.388076,0,0,1121.329,0,0,2022-06-30T09:50:28.075+02:00
2022-06-30T09:51:46.143+02:00,4984.079723791667,-0.6923828125,0.8211669921875,0.5648040771484375,4984.069771791667,-0.5082384449298515,0.7359998483117038,0.2569566388202424,2.987372398376465,6.642409324645996,3.224211454391479,-1.485209822654724,1.269564509391785,1.30972146987915,XArbitraryZVertical,0.205400988988224,0.3152735201081214,-0.1880159273255948,0.907228296386373,0.6492874026298523,-0.2541382908821106,-0.7168260812759399,0,0,0,-1,-1,4979.96667475,unknown,2,2022-06-30T09:51:42.027+02:00,2022-06-30T08:20:05.567+02:00,1418,1.388076,0,0,1121.329,0,0,2022-06-30T09:50:28.075+02:00
2022-06-30T09:51:46.153+02:00,4984.089674791667,-0.620697021484375,0.725555419921875,0.629425048828125,4984.079723791667,-0.505941595857008,0.8002708785624055,0.3009673782356811,3.086448192596436,6.402923107147217,3.237138032913208,-1.419559717178345,1.173946261405945,1.239163637161255,XArbitraryZVertical,0.2300732394132964,0.3383255144109438,-0.1713658332255279,0.8962344086087644,0.6852912902832031,-0.2964442372322083,-0.6652042865753174,0,0,0,-1,-1,4979.96667475,unknown,2,2022-06-30T09:51:42.027+02:00,2022-06-30T08:20:05.567+02:00,1418,1.388076,0,0,1121.329,0,0,2022-06-30T09:50:28.075+02:00
2022-06-30T09:51:46.163+02:00,4984.099626791667,-0.550750732421875,0.6006927490234375,0.721160888671875,4984.089674791667,-0.5075342230124119,0.8630521147489587,0.3458301741765565,3.205626010894775,6.121267318725586,3.218676328659058,-1.369873523712158,1.112811684608459,1.192700505256653,XArbitraryZVertical,0.2547155668169932,0.3595896109674094,-0.1549788031626147,0.8841928231162387,0.7148441076278687,-0.3389778137207031,-0.6116305589675903,0,0,0,-1,-1,4979.96667475,unknown,2,2022-06-30T09:51:42.027+02:00,2022-06-30T08:20:05.567+02:00,1418,1.388076,0,0,1121.329,0,0,2022-06-30T09:50:28.075+02:00
2022-06-30T09:51:46.173+02:00,4984.109578791667,-0.464111328125,0.4461669921875,0.84210205078125,4984.099626791667,-0.5128829154455841,0.924347824620171,0.3908645575249742,3.243238210678101,5.816482543945312,3.206349849700928,-1.324329733848572,1.04903256893158,1.241633296012878,XArbitraryZVertical,0.2790769561604861,0.3790160949791153,-0.1389505964918316,0.8712953976365798,0.7380257844924927,-0.3809879124164581,-0.5569257140159607,0,0,0,-1,-1,4979.96667475,unknown,2,2022-06-30T09:51:42.027+02:00,2022-06-30T08:20:05.567+02:00,1418,1.388076,0,0,1121.329,0,0,2022-06-30T09:50:28.075+02:00
2022-06-30T09:51:46.183+02:00,4984.119529791667,-0.3810882568359375,0.312896728515625,0.954864501953125,4984.109578791667,-0.521084046322224,0.9838668841371637,0.435516875212784,3.156469345092773,5.49724817276001,3.242027759552002,-1.266150116920471,0.9460028409957886,1.27141261100769,XArbitraryZVertical,0.3027979419937533,0.3965580341399625,-0.1230965739749554,0.8578475650279083,0.7549194693565369,-0.4218790829181671,-0.5021102428436279,0,0,0,-1,-1,4979.96667475,unknown,2,2022-06-30T09:51:42.027+02:00,2022-06-30T08:20:05.567+02:00,1418,1.388076,0,0,1121.329,0,0,2022-06-30T09:50:28.075+02:00
2022-06-30T09:51:46.193+02:00,4984.129481791667,-0.3269195556640625,0.234283447265625,0.9337005615234375,4984.119529791667,-0.5304361890688013,1.041239601588642,0.4792560036179627,2.930813312530518,5.232892036437988,3.315961122512817,-1.184440851211548,0.8337231278419495,1.36358380317688,XArbitraryZVertical,0.3253546120225592,0.4123403230724183,-0.1069644093141282,0.8442028861328509,0.7658005356788635,-0.4611191153526306,-0.448239654302597,0,0,0,-1,-1,4979.96667475,unknown,2,2022-06-30T09:51:42.027+02:00,2022-06-30T08:20:05.567+02:00,1418,1.388076,0,0,1121.329,0,0,2022-06-30T09:50:28.075+02:00
2022-06-30T09:51:46.203+02:00,4984.139432791667,-0.26824951171875,0.1949310302734375,0.87451171875,4984.129481791667,-0.5405958402755343,1.096977316119351,0.522145754796089,2.818127870559692,5.014126300811768,3.36575984954834,-1.124214291572571,0.7663646340370178,1.352534532546997,XArbitraryZVertical,0.3467629669904249,0.4266279922035147,-0.09043414466177299,0.8304009505747874,0.7712630033493042,-0.4987411201000214,-0.3954879939556122,0,0,0,-1,-1,4979.96667475,unknown,2,2022-06-30T09:51:42.027+02:00,2022-06-30T08:20:05.567+02:00,1418,1.388076,0,0,1121.329,0,0,2022-06-30T09:50:28.075+02:00
2022-06-30T09:51:46.213+02:00,4984.149384791667,-0.1895904541015625,0.18438720703125,0.806365966796875,4984.139432791667,-0.5533581304404871,1.152162167137082,0.56463709161216,2.877383232116699,4.771573066711426,3.376330852508545,-1.071987628936768,0.7456344366073608,1.246003031730652,XArbitraryZVertical,0.3676480254753753,0.4394625528757458,-0.07402229968657013,0.816228142768755,0.7718316912651062,-0.535109281539917,-0.3434152007102966,0,0,0,-1,-1,4979.96667475,unknown,2,2022-06-30T09:51:42.027+02:00,2022-06-30T08:20:05.567+02:00,1418,1.388076,0,0,1121.329,0,0,2022-06-30T09:50:28.075+02:00
2022-06-30T09:51:46.223+02:00,4984.159335791667,-0.118865966796875,0.193267822265625,0.707000732421875,4984.149384791667,-0.5708318113606625,1.207600992143751,0.6071321706201985,3.130119800567627,4.446643352508545,3.391552209854126,-0.9985778331756592,0.7574039697647095,1.13816249370575,XArbitraryZVertical,0.3886668756546129,0.4506124345041275,-0.05831924867579804,0.8015517827420118,0.7677119374275208,-0.5705145001411438,-0.2917729914188385,0,0,0,-1,-1,4979.96667475,unknown,2,2022-06-30T09:51:42.027+02:00,2022-06-30T08:20:05.567+02:00,1418,1.388076,0,0,1121.329,0,0,2022-06-30T09:50:28.075+02:00
2022-06-30T09:51:46.233+02:00,4984.169287791667,-0.0734100341796875,0.2249755859375,0.6699981689453125,4984.159335791667,-0.5964045077215577,1.264757583355167,0.6503234094383499,3.726184606552124,4.043185710906982,3.428888320922852,-0.9106252193450928,0.7926688194274902,0.9952355623245239,XArbitraryZVertical,0.4108695311221905,0.4596652162467782,-0.04408013620769565,0.7860987452833003,0.7589068412780762,-0.6054438352584839,-0.2397882342338562,0,0,0,-1,-1,4979.96667475,unknown,2,2022-06-30T09:51:42.027+02:00,2022-06-30T08:20:05.567+02:00,1418,1.388076,0,0,1121.329,0,0,2022-06-30T09:50:28.075+02:00
2022-06-30T09:51:46.243+02:00,4984.179238791667,-0.063446044921875,0.2762451171875,0.748992919921875,4984.169287791667,-0.6352443848817485,1.326821209817098,0.6945511843071015,4.603179931640625,3.619158029556274,3.434361696243286,-0.8376893997192383,0.8455914258956909,0.85941481590271,XArbitraryZVertical,0.4355788884817069,0.4663368382528882,-0.03227837856691113,0.7692588784958634,0.7455870509147644,-0.6400406360626221,-0.1856019645929337,0,0,0,-1,-1,4979.96667475,unknown,2,2022-06-30T09:51:42.027+02:00,2022-06-30T08:20:05.567+02:00,1418,1.388076,0,0,1121.329,0,0,2022-06-30T09:50:28.075+02:00
2022-06-30T09:51:46.253+02:00,4984.189190791667,-0.072662353515625,0.2709503173828125,0.8571929931640625,4984.179238791667,-0.6893049013029603,1.395826592977794,0.7378105229960267,5.241549015045166,3.207618236541748,3.294092416763306,-0.7926412224769592,0.92424076795578,0.8279809951782227,XArbitraryZVertical,0.4625492143427368,0.4707910295329835,-0.02335612700370254,0.7509051203689061,0.7286455035209656,-0.6726694107055664,-0.1288080662488937,0,0,0,-1,-1,4979.96667475,unknown,2,2022-06-30T09:51:42.027+02:00,2022-06-30T08:20:05.567+02:00,1418,1.388076,0,0,1121.329,0,0,2022-06-30T09:50:28.075+02:00
2022-06-30T09:51:46.263+02:00,4984.199141791667,-0.072723388671875,0.20428466796875,0.976409912109375,4984.189190791667,-0.7554096755038845,1.470474264072081,0.7772010641919642,5.578864097595215,2.904947519302368,3.060398101806641,-0.7763576507568359,0.9865800142288208,0.8743456602096558,XArbitraryZVertical,0.4901325036911007,0.4733617122492093,-0.0168923045981244,0.7317196887956318,0.7092950940132141,-0.7012868523597717,-0.07139763981103897,0,0,0,-1,-1,4979.96667475,unknown,2,2022-06-30T09:51:42.027+02:00,2022-06-30T08:20:05.567+02:00,1418,1.388076,0,0,1121.329,0,0,2022-06-30T09:50:28.075+02:00
2022-06-30T09:51:46.273+02:00,4984.209093791667,-0.0557098388671875,0.122528076171875,1.086349487304688,4984.199141791667,-0.8308335289221989,1.551146309845025,0.810602476272124,5.609631538391113,2.737511157989502,2.843486070632935,-0.7640177011489868,0.9665540456771851,0.9281967878341675,XArbitraryZVertical,0.5172491799430509,0.4750617674851815,-0.01223509972793915,0.7117723276292085,0.6889288425445557,-0.7247024774551392,-0.01353920623660088,0,0,0,-1,-1,4979.96667475,unknown,2,2022-06-30T09:51:42.027+02:00,2022-06-30T08:20:05.567+02:00,1418,1.388076,0,0,1121.329,0,0,2022-06-30T09:50:28.075+02:00
2022-06-30T09:51:46.283+02:00,4984.219044791667,-0.0135345458984375,0.0433502197265625,1.167449951171875,4984.209093791667,-0.9120361798908453,1.637322034643273,0.836995081412243,5.39041805267334,2.674918174743652,2.665133476257324,-0.735126256942749,0.9057502150535583,0.99025559425354,XArbitraryZVertical,0.5430976186906467,0.4767647224115031,-0.008467883189026188,0.6911358471934346,0.6682161688804626,-0.742634117603302,0.04451924934983253,0,0,0,-1,-1,4979.96667475,unknown,2,2022-06-30T09:51:42.027+02:00,2022-06-30T08:20:05.567+02:00,1418,1.388076,0,0,1121.329,0,0,2022-06-30T09:50:28.075+02:00
2022-06-30T09:51:46.292+02:00,4984.228996791667,0.064208984375,-0.02435302734375,1.177627563476562,4984.219044791667,-0.9930129610922176,1.724142061481531,0.8570875001260588,4.904443740844727,2.598536491394043,2.482300519943237,-0.6857331991195679,0.8389617800712585,1.03484833240509,XArbitraryZVertical,0.5667505650778042,0.4783206154952359,-0.004621752652793659,0.6708069945411324,0.6469603776931763,-0.7559391260147095,0.09999363124370575,0,0,0,-1,-1,4979.96667475,unknown,2,2022-06-30T09:51:42.027+02:00,2022-06-30T08:20:05.567+02:00,1418,1.388076,0,0,1121.329,0,0,2022-06-30T09:50:28.075+02:00
2022-06-30T09:51:46.303+02:00,4984.238947791667,0.1625518798828125,-0.048065185546875,1.181533813476562,4984.228996791667,-1.069194470898801,1.806680661694647,0.8716003671627576,4.300273895263672,2.339896440505981,2.273268699645996,-0.6053029894828796,0.7704254984855652,1.02750563621521,XArbitraryZVertical,0.5875948449668903,0.4795187165225326,-0.0006090651325871731,0.6517620430549008,0.6257799863815308,-0.7653599381446838,0.1504117995500565,0,0,0,-1,-1,4979.96667475,unknown,2,2022-06-30T09:51:42.027+02:00,2022-06-30T08:20:05.567+02:00,1418,1.388076,0,0,1121.329,0,0,2022-06-30T09:50:28.075+02:00
2022-06-30T09:51:46.313+02:00,4984.248899791667,0.2313079833984375,-0.0718841552734375,1.148147583007812,4984.238947791667,-1.137123276743223,1.879936579479604,0.8821250556010075,3.551420450210571,1.891053080558777,2.099007129669189,-0.4915098547935486,0.7319754362106323,0.9889793395996094,XArbitraryZVertical,0.6053641482513604,0.4798002288071326,0.003327264663394034,0.6350708715908508,0.6053858995437622,-0.7720910906791687,0.1933480203151703,0,0,0,-1,-1,4979.96667475,unknown,2,2022-06-30T09:51:42.027+02:00,2022-06-30T08:20:05.567+02:00,1418,1.388076,0,0,1121.329,0,0,2022-06-30T09:50:28.075+02:00
2022-06-30T09:51:46.323+02:00,4984.258851791667,0.2602996826171875,-0.1104583740234375,1.133285522460938,4984.248899791667,-1.194894325850423,1.941135358367529,0.8909867098910903,2.816435098648071,1.433354377746582,2.017228364944458,-0.3849611878395081,0.7194645404815674,0.9400150775909424,XArbitraryZVertical,0.6201256082165164,0.4787561681606599,0.007262853193593247,0.6214371205440372,0.5860259532928467,-0.777692437171936,0.2275264710187912,0,0,0,-1,-1,4979.96667475,unknown,2,2022-06-30T09:51:42.027+02:00,2022-06-30T08:20:05.567+02:00,1418,1.388076,0,0,1121.329,0,0,2022-06-30T09:50:28.075+02:00
2022-06-30T09:51:46.332+02:00,4984.268802791667,0.2707061767578125,-0.137451171875,1.058914184570312,4984.258851791667,-1.244377781207348,1.992072330822123,0.899891272078261,2.279194593429565,1.071136593818665,2.020476102828979,-0.3179804086685181,0.6954447031021118,0.8842160701751709,XArbitraryZVertical,0.6326117033161646,0.4763568968869363,0.01132613047163156,0.6105394145079661,0.5673392415046692,-0.7832593321800232,0.2542269229888916,0,0,0,-1,-1,4979.96667475,unknown,2,2022-06-30T09:51:42.027+02:00,2022-06-30T08:20:05.567+02:00,1418,1.388076,0,0,1121.329,0,0,2022-06-30T09:50:28.075+02:00
2022-06-30T09:51:46.342+02:00,4984.278754791667,0.2813568115234375,-0.1143951416015625,0.9269256591796875,4984.268802791667,-1.288632664437327,2.036008736698736,0.9090694228660612,1.948738694190979,0.7840955853462219,1.975916028022766,-0.2818741202354431,0.6592475175857544,0.8345201015472412,XArbitraryZVertical,0.6435970833570318,0.4728790814333924,0.01538076301748813,0.6016075880525764,0.5491772294044495,-0.7889322638511658,0.2756636738777161,0,0,0,-1,-1,4979.96667475,unknown,2,2022-06-30T09:51:42.027+02:00,2022-06-30T08:20:05.567+02:00,1418,1.388076,0,0,1121.329,0,0,2022-06-30T09:50:28.075+02:00
2022-06-30T09:51:46.352+02:00,4984.288705791667,0.302337646484375,-0.029693603515625,0.8585205078125,4984.278754791667,-1.331337452526801,2.076458437828949,0.9171014620875452,2.031617403030396,0.5784180164337158,1.891013860702515,-0.2576056122779846,0.6635168194770813,0.6981239914894104,XArbitraryZVertical,0.6538593962937538,0.4687764734673597,0.01874666794540505,0.5936033788730194,0.5320191979408264,-0.7938423156738281,0.2945669889450073,0,0,0,-1,-1,4979.96667475,unknown,2,2022-06-30T09:51:42.027+02:00,2022-06-30T08:20:05.567+02:00,1418,1.388076,0,0,1121.329,0,0,2022-06-30T09:50:28.075+02:00
2022-06-30T09:51:46.362+02:00,4984.298657791667,0.318634033203125,0.1035614013671875,0.8530731201171875,4984.288705791667,-1.378710377138193,2.118977938522463,0.9218150408653043,2.524420976638794,0.39834925532341,1.81903350353241,-0.2242535352706909,0.7144548296928406,0.5616862177848816,XArbitraryZVertical,0.6647462708655187,0.4643201684982761,0.02056006351058363,0.5848900753894615,0.5158180594444275,-0.7966998815536499,0.3149616420269012,0,0,0,-1,-1,4979.96667475,unknown,2,2022-06-30T09:51:42.027+02:00,2022-06-30T08:20:05.567+02:00,1418,1.388076,0,0,1121.329,0,0,2022-06-30T09:50:28.075+02:00
2022-06-30T09:51:46.372+02:00,4984.308608791667,0.306915283203125,0.15386962890625,0.89642333984375,4984.298657791667,-1.43337819427749,2.165433239628221,0.9217006499146244,3.087199926376343,0.1866652518510818,1.740731239318848,-0.1876773238182068,0.8359981179237366,0.5142326354980469,XArbitraryZVertical,0.6768959509816987,0.4594838167529146,0.02025183946732461,0.5746968724634584,0.5007110238075256,-0.7966307401657104,0.3386270105838776,0,0,0,-1,-1,4979.96667475,unknown,2,2022-06-30T09:51:42.027+02:00,2022-06-30T08:20:05.567+02:00,1418,1.388076,0,0,1121.329,0,0,2022-06-30T09:50:28.075+02:00
2022-06-30T09:51:46.382+02:00,4984.318560791667,0.2889862060546875,0.1434173583984375,0.9552001953125,4984.308608791667,-1.494213540276717,2.214737291577298,0.9160650876531907,3.619369268417358,0.01463168952614069,1.628973126411438,-0.1705446243286133,0.9347976446151733,0.506808876991272,XArbitraryZVertical,0.6902103916307063,0.4543133535201587,0.01774828699703118,0.56293346164581,0.4869962632656097,-0.7932116389274597,0.3655820190906525,0,0,0,-1,-1,4979.96667475,unknown,2,2022-06-30T09:51:42.027+02:00,2022-06-30T08:20:05.567+02:00,1418,1.388076,0,0,1121.329,0,0,2022-06-30T09:50:28.075+02:00
2022-06-30T09:51:46.392+02:00,4984.328511791667,0.2843170166015625,0.1385498046875,1.054428100585938,4984.318560791667,-1.558577724838673,2.265268520787219,0.9047983817055687,4.00344181060791,-0.0605275072157383,1.504534482955933,-0.1779784858226776,0.9387966990470886,0.5268944501876831,XArbitraryZVertical,0.7043048109026203,0.4490642532438681,0.01342501452188922,0.5496506640512353,0.4747463166713715,-0.7863005995750427,0.3954079449176788,0,0,0,-1,-1,4979.96667475,unknown,2,2022-06-30T09:51:42.027+02:00,2022-06-30T08:20:05.567+02:00,1418,1.388076,0,0,1121.329,0,0,2022-06-30T09:50:28.075+02:00
2022-06-30T09:51:46.402+02:00,4984.338463791667,0.304290771484375,0.159271240234375,1.176177978515625,4984.328511791667,-1.623151708630276,2.315171124615925,0.8887101717795378,4.207211494445801,-0.04663258790969849,1.39313018321991,-0.1787040233612061,0.9136491417884827,0.5651508569717407,XArbitraryZVertical,0.7186313481596872,0.4439882218222307,0.008014269710875146,0.535144192652376,0.4636768400669098,-0.7762592434883118,0.4271131157875061,0,0,0,-1,-1,4979.96667475,unknown,2,2022-06-30T09:51:42.027+02:00,2022-06-30T08:20:05.567+02:00,1418,1.388076,0,0,1121.329,0,0,2022-06-30T09:50:28.075+02:00
2022-06-30T09:51:46.412+02:00,4984.348414791667,0.3220977783203125,0.194854736328125,1.287338256835938,4984.338463791667,-1.685310285213099,2.362340139077719,0.8690625597149594,4.274946689605713,-0.09254015237092972,1.29684841632843,-0.1631573438644409,0.9101625680923462,0.6610054969787598,XArbitraryZVertical,0.7327190027747952,0.4390387255414095,0.001989872479100349,0.5199652594294983,0.4536537230014801,-0.7637240886688232,0.4592642784118652,0,0,0,-1,-1,4979.96667475,unknown,2,2022-06-30T09:51:42.027+02:00,2022-06-30T08:20:05.567+02:00,1418,1.388076,0,0,1121.329,0,0,2022-06-30T09:50:28.075+02:00
2022-06-30T09:51:46.422+02:00,4984.358366791667,0.303466796875,0.23101806640625,1.442276000976562,4984.348414791667,-1.744406980403109,2.405978962634059,0.846675438787402,4.340725898742676,-0.1171023324131966,1.252399563789368,-0.1269848346710205,0.9252750277519226,0.7418588995933533,XArbitraryZVertical,0.7464568921768753,0.4340378556416873,-0.00449831079459279,0.5043740537539323,0.4445504546165466,-0.749082088470459,0.4911735057830811,0,0,0,-1,-1,4979.96667475,unknown,2,2022-06-30T09:51:42.027+02:00,2022-06-30T08:20:05.567+02:00,1418,1.388076,0,0,1121.329,0,0,2022-06-30T09:50:28.075+02:00
2022-06-30T09:51:46.432+02:00,4984.368317791667,0.2613067626953125,0.2332611083984375,1.6275634765625,4984.358366791667,-1.800521316675874,2.446429743029711,0.8222936216376844,4.324100494384766,-0.1095141917467117,1.242993235588074,-0.1191225945949554,0.9468502402305603,0.8333044052124023,XArbitraryZVertical,0.7598414906389075,0.4288962948649789,-0.01113529894810769,0.4884311060764698,0.4358946979045868,-0.7327086329460144,0.5226222276687622,0,0,0,-1,-1,4979.96667475,unknown,2,2022-06-30T09:51:42.027+02:00,2022-06-30T08:20:05.567+02:00,1418,1.388076,0,0,1121.329,0,0,2022-06-30T09:50:28.075+02:00
2022-06-30T09:51:46.442+02:00,4984.378269791667,0.21881103515625,0.130401611328125,1.833770751953125,4984.368317791667,-1.852757109520511,2.483165423476156,0.7973492752437326,4.091008186340332,-0.1189773753285408,1.26115083694458,-0.1455527544021606,0.9548102021217346,0.9793094992637634,XArbitraryZVertical,0.7725821600694518,0.4235562558536182,-0.01751257761338023,0.4726629454462938,0.4274584949016571,-0.7155067920684814,0.5525661706924438,0,0,0,-1,-1,4979.96667475,unknown,2,2022-06-30T09:51:42.027+02:00,2022-06-30T08:20:05.567+02:00,1418,1.388076,0,0,1121.329,0,0,2022-06-30T09:50:28.075+02:00
