loggingTime(txt),accelerometerTimestamp_sinceReboot(s),accelerometerAccelerationX(G),accelerometerAccelerationY(G),accelerometerAccelerationZ(G),motionTimestamp_sinceReboot(s),motionYaw(rad),motionRoll(rad),motionPitch(rad),motionRotationRateX(rad/s),motionRotationRateY(rad/s),motionRotationRateZ(rad/s),motionUserAccelerationX(G),motionUserAccelerationY(G),motionUserAccelerationZ(G),motionAttitudeReferenceFrame(txt),motionQuaternionX(R),motionQuaternionY(R),motionQuaternionZ(R),motionQuaternionW(R),motionGravityX(G),motionGravityY(G),motionGravityZ(G),motionMagneticFieldX(µT),motionMagneticFieldY(µT),motionMagneticFieldZ(µT),motionHeading(°),motionMagneticFieldCalibrationAccuracy(Z),activityTimestamp_sinceReboot(s),activity(txt),activityActivityConfidence(Z),activityActivityStartDate(txt),pedometerStartDate(txt),pedometerNumberofSteps(N),pedometerAverageActivePace(s/m),pedometerCurrentPace(s/m),pedometerCurrentCadence(steps/s),pedometerDistance(m),pedometerFloorAscended(N),pedometerFloorDescended(N),pedometerEndDate(txt)
2022-06-30T09:52:42.384+02:00,5040.305792375,-0.056060791015625,-0.3459014892578125,-0.8329315185546875,5040.305792375,1.084902658566281,-0.006994001600037623,0.2987783503676881,0.1537901908159256,-0.2106889635324478,-0.1622455716133118,-0.01602138578891754,-0.05000728368759155,0.1302797198295593,XArbitraryZVertical,0.129252759640776,0.0738715788337158,0.5100383255111134,0.8471704117804849,-0.006684090476483107,-0.2943528890609741,-0.9556734561920166,0,0,0,-1,-1,5038.563056125,unknown,2,2022-06-30T09:52:40.624+02:00,2022-06-30T08:20:05.567+02:00,1418,1.388076,0,0,1121.329,0,0,2022-06-30T09:50:28.075+02:00
2022-06-30T09:52:42.385+02:00,5040.315743375,-0.0907135009765625,-0.3723297119140625,-0.869720458984375,5040.305792375,1.084902658566281,-0.006994001600037623,0.2987783503676881,0.1537901908159256,-0.2106889635324478,-0.1622455716133118,-0.01602138578891754,-0.05000728368759155,0.1302797198295593,XArbitraryZVertical,0.129252759640776,0.0738715788337158,0.5100383255111134,0.8471704117804849,-0.006684090476483107,-0.2943528890609741,-0.9556734561920166,0,0,0,-1,-1,5038.563056125,unknown,2,2022-06-30T09:52:40.624+02:00,2022-06-30T08:20:05.567+02:00,1418,1.388076,0,0,1121.329,0,0,2022-06-30T09:50:28.075+02:00
2022-06-30T09:52:42.389+02:00,5040.325695375001,-0.095611572265625,-0.3939361572265625,-0.9029083251953125,5040.315743375,1.082950174013809,-0.00817501821615026,0.2993717723995203,-0.06625910103321075,-0.1265192925930023,-0.1874919533729553,-0.06782688945531845,-0.06080800294876099,0.1019438505172729,XArbitraryZVertical,0.1298768173056053,0.07339616144390586,0.5091107668848878,0.8476740965933987,-0.007811322342604399,-0.2949199676513672,-0.9554900527000427,0,0,0,-1,-1,5038.563056125,unknown,2,2022-06-30T09:52:40.624+02:00,2022-06-30T08:20:05.567+02:00,1418,1.388076,0,0,1121.329,0,0,2022-06-30T09:50:28.075+02:00
2022-06-30T09:52:42.400+02:00,5040.335646375001,-0.0197601318359375,-0.3227996826171875,-0.94219970703125,5040.325695375001,1.081167384719585,-0.008404534533518448,0.2980378143862488,-0.1766697615385056,-0.03368762508034706,-0.1854623556137085,-0.09337638318538666,-0.1017557382583618,0.07132869958877563,XArbitraryZVertical,0.1294352403488351,0.07284324618600808,0.5083934890294791,0.8482196451833131,-0.00803392194211483,-0.2936450839042664,-0.9558807611465454,0,0,0,-1,-1,5038.563056125,unknown,2,2022-06-30T09:52:40.624+02:00,2022-06-30T08:20:05.567+02:00,1418,1.388076,0,0,1121.329,0,0,2022-06-30T09:50:28.075+02:00
2022-06-30T09:52:42.409+02:00,5040.345598375,0.0041046142578125,-0.239288330078125,-0.9531707763671875,5040.335646375001,1.078766069150672,-0.008422178893696954,0.2963292434819929,-0.1460599899291992,-0.1128800734877586,-0.2401126474142075,-0.05224812775850296,-0.07390943169593811,0.03127098083496094,XArbitraryZVertical,0.1288024472734582,0.07224592983771372,0.5074415899609112,0.848936652708058,-0.008055001497268677,-0.2920114099979401,-0.9563809037208557,0,0,0,-1,-1,5038.563056125,unknown,2,2022-06-30T09:52:40.624+02:00,2022-06-30T08:20:05.567+02:00,1418,1.388076,0,0,1121.329,0,0,2022-06-30T09:50:28.075+02:00
2022-06-30T09:52:42.419+02:00,5040.355549375,-0.0346221923828125,-0.213043212890625,-0.9743804931640625,5040.345598375,1.077156317270177,-0.009394855305432829,0.2952054482254036,-0.07591818273067474,-0.165595218539238,-0.0654071569442749,0.01681569218635559,0.01371493935585022,0.008839428424835205,XArbitraryZVertical,0.1286301091774339,0.07144376551505857,0.5067401106470858,0.849449539465189,-0.008988323621451855,-0.2909364104270935,-0.9567001461982727,0,0,0,-1,-1,5038.563056125,unknown,2,2022-06-30T09:52:40.624+02:00,2022-06-30T08:20:05.567+02:00,1418,1.388076,0,0,1121.329,0,0,2022-06-30T09:50:28.075+02:00
2022-06-30T09:52:42.429+02:00,5040.365501375,-0.0381927490234375,-0.2171630859375,-0.979248046875,5040.355549375,1.076853697640063,-0.01106983691312255,0.2945696258993632,-0.05325687676668167,-0.1736084818840027,-0.01228424813598394,-0.004696890711784363,0.07217329740524292,-0.008005738258361816,XArbitraryZVertical,0.1287953178665577,0.07055132573266482,0.5065290924304194,0.8496249940920605,-0.01059281174093485,-0.2903280258178711,-0.9568685293197632,0,0,0,-1,-1,5038.563056125,unknown,2,2022-06-30T09:52:40.624+02:00,2022-06-30T08:20:05.567+02:00,1418,1.388076,0,0,1121.329,0,0,2022-06-30T09:50:28.075+02:00
2022-06-30T09:52:42.439+02:00,5040.375452375,-0.01385498046875,-0.2230987548828125,-0.9777069091796875,5040.365501375,1.076707589462375,-0.01262649989246631,0.2938773221783263,-0.07867168635129929,-0.1414177864789963,-0.01033960841596127,-0.0303502231836319,0.07532545924186707,-0.02044171094894409,XArbitraryZVertical,0.1289008222040735,0.06970474284101735,0.5063944915347012,0.8497590908126723,-0.01208485476672649,-0.2896654903888702,-0.9570516347885132,0,0,0,-1,-1,5038.563056125,unknown,2,2022-06-30T09:52:40.624+02:00,2022-06-30T08:20:05.567+02:00,1418,1.388076,0,0,1121.329,0,0,2022-06-30T09:50:28.075+02:00
2022-06-30T09:52:42.449+02:00,5040.385404375001,-0.016998291015625,-0.209869384765625,-0.973663330078125,5040.375452375,1.076609043840965,-0.01395451306993013,0.2928557175483315,-0.1106915399432182,-0.1239611655473709,-0.008490908890962601,-0.01110028475522995,0.06806087493896484,-0.02411520481109619,XArbitraryZVertical,0.1288068761420864,0.06887461602943655,0.5063082300569782,0.8498923579686716,-0.01335994340479374,-0.288687527179718,-0.9573301672935486,0,0,0,-1,-1,5038.563056125,unknown,2,2022-06-30T09:52:40.624+02:00,2022-06-30T08:20:05.567+02:00,1418,1.388076,0,0,1121.329,0,0,2022-06-30T09:50:28.075+02:00
2022-06-30T09:52:42.459+02:00,5040.395355375001,-0.0123138427734375,-0.208404541015625,-0.9605560302734375,5040.385404375001,1.076452352149079,-0.01511632047034984,0.2918256756871568,-0.0822436511516571,-0.1098863556981087,-0.02129645273089409,0.001018011011183262,0.06780698895454407,-0.01913481950759888,XArbitraryZVertical,0.1286691420841526,0.06810911997009303,0.5062084970581259,0.8500342664577273,-0.0144766541197896,-0.2877011895179749,-0.9576107859611511,0,0,0,-1,-1,5038.563056125,unknown,2,2022-06-30T09:52:40.624+02:00,2022-06-30T08:20:05.567+02:00,1418,1.388076,0,0,1121.329,0,0,2022-06-30T09:50:28.075+02:00
2022-06-30T09:52:42.469+02:00,5040.405307375,-0.0117950439453125,-0.2305450439453125,-0.9473724365234375,5040.395355375001,1.076240203729498,-0.01622977818934846,0.2912347242441707,-0.0288446806371212,-0.1217001527547836,-0.01987495645880699,-0.0008274093270301819,0.08326268196105957,-0.009261906147003174,XArbitraryZVertical,0.1287072695855831,0.06747204675463385,0.5060706186116539,0.850161508360037,-0.01554566062986851,-0.2871351838111877,-0.9577639102935791,0,0,0,-1,-1,5038.563056125,unknown,2,2022-06-30T09:52:40.624+02:00,2022-06-30T08:20:05.567+02:00,1418,1.388076,0,0,1121.329,0,0,2022-06-30T09:50:28.075+02:00
2022-06-30T09:52:42.479+02:00,5040.415258375,-0.02215576171875,-0.244842529296875,-0.944854736328125,5040.405307375,1.076066134811142,-0.0174425132507612,0.2911674416088505,0.02196683548390865,-0.1226474344730377,-0.0131731117144227,0.006071740761399269,0.06734436750411987,0.00396728515625,XArbitraryZVertical,0.1289913799585283,0.06692820767305974,0.5059212404000232,0.8502503040922778,-0.01670750044286251,-0.2870707213878632,-0.957763671875,0,0,0,-1,-1,5038.563056125,unknown,2,2022-06-30T09:52:40.624+02:00,2022-06-30T08:20:05.567+02:00,1418,1.388076,0,0,1121.329,0,0,2022-06-30T09:50:28.075+02:00
2022-06-30T09:52:42.489+02:00,5040.425210375,-0.0283355712890625,-0.2637939453125,-0.9465789794921875,5040.415258375,1.075913925677223,-0.01863044204193124,0.2915290699178457,0.05416958034038544,-0.118289552628994,-0.01739891618490219,0.0009056571871042252,0.04956331849098206,0.01348644495010376,XArbitraryZVertical,0.1294504123459878,0.0665052142886861,0.5057649513646959,0.8503066742002102,-0.01784330792725086,-0.2874171137809753,-0.9576392769813538,0,0,0,-1,-1,5038.563056125,unknown,2,2022-06-30T09:52:40.624+02:00,2022-06-30T08:20:05.567+02:00,1418,1.388076,0,0,1121.329,0,0,2022-06-30T09:50:28.075+02:00
2022-06-30T09:52:42.499+02:00,5040.435161375,-0.032989501953125,-0.276214599609375,-0.94732666015625,5040.425210375,1.07568437806159,-0.01972891562726205,0.2921642069693821,0.07764880359172821,-0.1093613058328629,-0.02978474646806717,-0.005904294550418854,0.03402775526046753,0.01226121187210083,XArbitraryZVertical,0.1300053440393198,0.06618463437746883,0.5055698597348695,0.8503630404035067,-0.01889163255691528,-0.2880253791809082,-0.9574363827705383,0,0,0,-1,-1,5038.563056125,unknown,2,2022-06-30T09:52:40.624+02:00,2022-06-30T08:20:05.567+02:00,1418,1.388076,0,0,1121.329,0,0,2022-06-30T09:50:28.075+02:00
2022-06-30T09:52:42.509+02:00,5040.445113375,-0.0331878662109375,-0.2776336669921875,-0.9566497802734375,5040.435161375,1.075324468447295,-0.02063818129646625,0.2925991119256414,0.08660275489091873,-0.09886644035577774,-0.03794953227043152,-0.01023956947028637,0.01859036087989807,0.01004314422607422,XArbitraryZVertical,0.1304316212291309,0.06588504081710171,0.5053395378571139,0.850457907677276,-0.01975960284471512,-0.2884418368339539,-0.9572935104370117,0,0,0,-1,-1,5038.563056125,unknown,2,2022-06-30T09:52:40.624+02:00,2022-06-30T08:20:05.567+02:00,1418,1.388076,0,0,1121.329,0,0,2022-06-30T09:50:28.075+02:00
2022-06-30T09:52:42.519+02:00,5040.455064375,-0.03631591796875,-0.2694854736328125,-0.963043212890625,5040.445113375,1.07500740880242,-0.0216204420504534,0.2928509109878208,0.07172580063343048,-0.09269749373197556,-0.03271189332008362,-0.0123220756649971,0.009676158428192139,0.006517350673675537,XArbitraryZVertical,0.1307970494236233,0.06551056014855455,0.5051300177341668,0.8505552208323529,-0.02069833315908909,-0.2886829376220703,-0.9572010040283203,0,0,0,-1,-1,5038.563056125,unknown,2,2022-06-30T09:52:40.624+02:00,2022-06-30T08:20:05.567+02:00,1418,1.388076,0,0,1121.329,0,0,2022-06-30T09:50:28.075+02:00
2022-06-30T09:52:42.529+02:00,5040.465016375,-0.04205322265625,-0.263885498046875,-0.9656982421875,5040.455064375,1.07467506908254,-0.02238875536071112,0.2929047364561613,0.04882701113820076,-0.08270698040723801,-0.03530934080481529,-0.01192270219326019,0.01447317004203796,-0.002486526966094971,XArbitraryZVertical,0.1310247650736952,0.06517570064572875,0.5049361131492734,0.850661059050321,-0.02143340930342674,-0.2887344658374786,-0.9571692943572998,0,0,0,-1,-1,5038.563056125,unknown,2,2022-06-30T09:52:40.624+02:00,2022-06-30T08:20:05.567+02:00,1418,1.388076,0,0,1121.329,0,0,2022-06-30T09:50:28.075+02:00
2022-06-30T09:52:42.539+02:00,5040.474967375,-0.0376129150390625,-0.26507568359375,-0.9636077880859375,5040.465016375,1.074200622215218,-0.02288557806227778,0.2927250306240874,0.03933071345090866,-0.06442891061306,-0.05331763625144958,-0.01983829401433468,0.02354797720909119,-0.008732020854949951,XArbitraryZVertical,0.1310893028318345,0.06488765468621477,0.5047093026542708,0.85080778276792,-0.02191013842821121,-0.2885624170303345,-0.95721036195755,0,0,0,-1,-1,5038.563056125,unknown,2,2022-06-30T09:52:40.624+02:00,2022-06-30T08:20:05.567+02:00,1418,1.388076,0,0,1121.329,0,0,2022-06-30T09:50:28.075+02:00
2022-06-30T09:52:42.549+02:00,5040.484919375001,-0.0402374267578125,-0.25518798828125,-0.9510345458984375,5040.474967375,1.073543693616635,-0.02318612621796521,0.2921839064933193,0.0230797715485096,-0.05473361164331436,-0.06724966317415237,-0.0177311971783638,0.02362489700317383,-0.007545113563537598,XArbitraryZVertical,0.1309566366023395,0.06457946732816258,0.504432954519611,0.8510154174620754,-0.02220144122838974,-0.2880442440509796,-0.9573597311973572,0,0,0,-1,-1,5038.563056125,unknown,2,2022-06-30T09:52:40.624+02:00,2022-06-30T08:20:05.567+02:00,1418,1.388076,0,0,1121.329,0,0,2022-06-30T09:50:28.075+02:00
2022-06-30T09:52:42.559+02:00,5040.494870375001,-0.0478668212890625,-0.2402801513671875,-0.9416046142578125,5040.484919375001,1.072758352228005,-0.0232621308540226,0.2911279636904329,0.01140633597970009,-0.05373359471559525,-0.07104440033435822,-0.01653748750686646,0.024505615234375,-0.00107872486114502,XArbitraryZVertical,0.1305526158648698,0.06422798963771706,0.5041381828769647,0.8512787806698464,-0.02228126674890518,-0.2870329022407532,-0.9576615691184998,0,0,0,-1,-1,5038.563056125,unknown,2,2022-06-30T09:52:40.624+02:00,2022-06-30T08:20:05.567+02:00,1418,1.388076,0,0,1121.329,0,0,2022-06-30T09:50:28.075+02:00
2022-06-30T09:52:42.569+02:00,5040.504822375,-0.052001953125,-0.2338409423828125,-0.9325714111328125,5040.494870375001,1.071951376777272,-0.0232543570151711,0.2893538696442154,0.02758483961224556,-0.04791798442602158,-0.06947024166584015,-0.02111075818538666,0.03847649693489075,0.01447421312332153,XArbitraryZVertical,0.129822736569719,0.06372913504026063,0.5038694538750316,0.8515869096062815,-0.02228562906384468,-0.2853330075740814,-0.9581692814826965,0,0,0,-1,-1,5038.563056125,unknown,2,2022-06-30T09:52:40.624+02:00,2022-06-30T08:20:05.567+02:00,1418,1.388076,0,0,1121.329,0,0,2022-06-30T09:50:28.075+02:00
2022-06-30T09:52:42.578+02:00,5040.514773375,-0.0464630126953125,-0.2471923828125,-0.9274749755859375,5040.504822375,1.071219124961167,-0.02359880708928908,0.2884984717322236,0.05390273034572601,-0.04810813814401627,-0.07808183878660202,-0.02747358381748199,0.05035185813903809,0.01861637830734253,XArbitraryZVertical,0.1295692115797817,0.06331829085646402,0.5035709885426816,0.8518326294367408,-0.02262141928076744,-0.2845130860805511,-0.9584052562713623,0,0,0,-1,-1,5038.563056125,unknown,2,2022-06-30T09:52:40.624+02:00,2022-06-30T08:20:05.567+02:00,1418,1.388076,0,0,1121.329,0,0,2022-06-30T09:50:28.075+02:00
2022-06-30T09:52:42.588+02:00,5040.524725375,-0.0511627197265625,-0.2561798095703125,-0.9334869384765625,5040.514773375,1.070517945151426,-0.02422981945377238,0.2885981385879677,0.0711139440536499,-0.04926775023341179,-0.07759488373994827,-0.0275866761803627,0.04521366953849792,0.02957510948181152,XArbitraryZVertical,0.1297925509464017,0.06302926777143412,0.5032272293385657,0.8520232103660157,-0.02322549372911453,-0.2846086323261261,-0.9583624005317688,0,0,0,-1,-1,5038.563056125,unknown,2,2022-06-30T09:52:40.624+02:00,2022-06-30T08:20:05.567+02:00,1418,1.388076,0,0,1121.329,0,0,2022-06-30T09:50:28.075+02:00
2022-06-30T09:52:42.598+02:00,5040.534676375,-0.0612335205078125,-0.2650604248046875,-0.93310546875,5040.524725375,1.069804992094918,-0.02487082915332294,0.2891921004620336,0.07057252526283264,-0.04501308500766754,-0.0889362171292305,-0.02369591593742371,0.03227898478507996,0.02777343988418579,XArbitraryZVertical,0.1302287356889321,0.06286010308553162,0.502856889129386,0.8521878605898294,-0.02383559942245483,-0.2851779758930206,-0.9581781625747681,0,0,0,-1,-1,5038.563056125,unknown,2,2022-06-30T09:52:40.624+02:00,2022-06-30T08:20:05.567+02:00,1418,1.388076,0,0,1121.329,0,0,2022-06-30T09:50:28.075+02:00
2022-06-30T09:52:42.608+02:00,5040.544628375001,-0.062896728515625,-0.2697296142578125,-0.9354705810546875,5040.534676375,1.068870085877815,-0.02525968435848258,0.2894828754460812,0.05710844323039055,-0.03234613314270973,-0.1088467091321945,-0.03241967409849167,0.02512663602828979,0.02420216798782349,XArbitraryZVertical,0.1304794622117992,0.06270699819067865,0.5024209175881142,0.8524178309169349,-0.02420609630644321,-0.285456657409668,-0.9580858945846558,0,0,0,-1,-1,5038.563056125,unknown,2,2022-06-30T09:52:40.624+02:00,2022-06-30T08:20:05.567+02:00,1418,1.388076,0,0,1121.329,0,0,2022-06-30T09:50:28.075+02:00
2022-06-30T09:52:42.618+02:00,5040.554579375001,-0.0623016357421875,-0.2629241943359375,-0.936370849609375,5040.544628375001,1.067866737423431,-0.02565555247552391,0.2893882503815981,0.03931054100394249,-0.01693601720035076,-0.1074552088975906,-0.03896719217300415,0.01713186502456665,0.02432632446289062,XArbitraryZVertical,0.1305700055665029,0.06244884879611579,0.5019713521138566,0.852687794592651,-0.02458606287837029,-0.2853659689426422,-0.9581032395362854,0,0,0,-1,-1,5038.563056125,unknown,2,2022-06-30T09:52:40.624+02:00,2022-06-30T08:20:05.567+02:00,1418,1.388076,0,0,1121.329,0,0,2022-06-30T09:50:28.075+02:00
2022-06-30T09:52:42.628+02:00,5040.564531375,-0.0581512451171875,-0.2592315673828125,-0.9402008056640625,5040.554579375001,1.066941264771436,-0.02587809630630694,0.2890461332337422,0.009164420887827873,-0.004377820994704962,-0.09626543521881104,-0.03757651895284653,0.01729226112365723,0.02078676223754883,XArbitraryZVertical,0.1305091249655911,0.06220717671859099,0.5015766239761194,0.852946975376748,-0.02480180561542511,-0.2850380539894104,-0.9581952691078186,0,0,0,-1,-1,5038.563056125,unknown,2,2022-06-30T09:52:40.624+02:00,2022-06-30T08:20:05.567+02:00,1418,1.388076,0,0,1121.329,0,0,2022-06-30T09:50:28.075+02:00
2022-06-30T09:52:42.638+02:00,5040.574482375,-0.0550384521484375,-0.252105712890625,-0.9440460205078125,5040.564531375,1.06605191994807,-0.02594912430537505,0.2884926121356211,-0.01005561277270317,0.005843124818056822,-0.09928705543279648,-0.03561228513717651,0.02414694428443909,0.01987451314926147,XArbitraryZVertical,0.1303189632618218,0.06197921928679311,0.5012159302137782,0.8532047290985788,-0.02487395517528057,-0.2845074534416199,-0.9583510756492615,0,0,0,-1,-1,5038.563056125,unknown,2,2022-06-30T09:52:40.624+02:00,2022-06-30T08:20:05.567+02:00,1418,1.388076,0,0,1121.329,0,0,2022-06-30T09:50:28.075+02:00
2022-06-30T09:52:42.648+02:00,5040.584434375,-0.057037353515625,-0.2419891357421875,-0.9426422119140625,5040.574482375,1.065105169729252,-0.02607231510200948,0.2874673253154919,-0.03139019384980202,0.01082117855548859,-0.1092681884765625,-0.03084795922040939,0.02777200937271118,0.01701921224594116,XArbitraryZVertical,0.1299425820624181,0.06160656053662011,0.5008470066024998,0.8535056953566851,-0.02499960549175739,-0.2835243940353394,-0.9586390852928162,0,0,0,-1,-1,5038.563056125,unknown,2,2022-06-30T09:52:40.624+02:00,2022-06-30T08:20:05.567+02:00,1418,1.388076,0,0,1121.329,0,0,2022-06-30T09:50:28.075+02:00
2022-06-30T09:52:42.662+02:00,5040.594385375,-0.0458831787109375,-0.242279052734375,-0.9428863525390625,5040.584434375,1.064146321996885,-0.02626046987623345,0.2859582462698,-0.04695530608296394,0.02828245982527733,-0.1105209365487099,-0.03070215880870819,0.03502202033996582,0.01181060075759888,XArbitraryZVertical,0.1293764045498904,0.06108390346521053,0.5004886892786246,0.8538392664220985,-0.02519118413329124,-0.2820769250392914,-0.9590610265731812,0,0,0,-1,-1,5038.563056125,unknown,2,2022-06-30T09:52:40.624+02:00,2022-06-30T08:20:05.567+02:00,1418,1.388076,0,0,1121.329,0,0,2022-06-30T09:50:28.075+02:00
2022-06-30T09:52:42.679+02:00,5040.604337375,-0.0364227294921875,-0.2354736328125,-0.9343109130859375,5040.594385375,1.063301853532414,-0.02632006188133407,0.2847255111243954,-0.04209756851196289,0.03742639720439911,-0.08854260295629501,-0.02845386974513531,0.03878301382064819,0.01795434951782227,XArbitraryZVertical,0.1288918242206006,0.06069356048800756,0.5001756168572249,0.8541237874377441,-0.02525746822357178,-0.280894011259079,-0.9594063758850098,0,0,0,-1,-1,5038.563056125,unknown,2,2022-06-30T09:52:40.624+02:00,2022-06-30T08:20:05.567+02:00,1418,1.388076,0,0,1121.329,0,0,2022-06-30T09:50:28.075+02:00
2022-06-30T09:52:42.680+02:00,5040.614288375,-0.0385894775390625,-0.243682861328125,-0.935302734375,5040.604337375,1.062492362185226,-0.02630444555034547,0.2838712505387443,-0.04828488826751709,0.02288820408284664,-0.09496321529150009,-0.01492800563573837,0.04331886768341064,0.02058988809585571,XArbitraryZVertical,0.1285483560856062,0.06043316749934195,0.4998663029108878,0.8543751686546498,-0.02524878829717636,-0.2800740599632263,-0.9596462845802307,0,0,0,-1,-1,5038.563056125,unknown,2,2022-06-30T09:52:40.624+02:00,2022-06-30T08:20:05.567+02:00,1418,1.388076,0,0,1121.329,0,0,2022-06-30T09:50:28.075+02:00
2022-06-30T09:52:42.688+02:00,5040.624240375,-0.0424041748046875,-0.2582855224609375,-0.9375762939453125,5040.614288375,1.061645973652884,-0.02647206650751711,0.2832128566766816,-0.04466112703084946,0.01420474983751774,-0.1009975373744965,-0.01064239256083965,0.04055055975914001,0.02490490674972534,XArbitraryZVertical,0.1283350762700835,0.06014165149128062,0.4995211960938766,0.8546295264741068,-0.02541451901197433,-0.2794419527053833,-0.9598261713981628,0,0,0,-1,-1,5038.563056125,unknown,2,2022-06-30T09:52:40.624+02:00,2022-06-30T08:20:05.567+02:00,1418,1.388076,0,0,1121.329,0,0,2022-06-30T09:50:28.075+02:00
2022-06-30T09:52:42.698+02:00,5040.634191375,-0.0516204833984375,-0.27264404296875,-0.9371795654296875,5040.624240375,1.060726581804716,-0.02675373792246059,0.2827008066180037,-0.05122129246592522,0.006393697578459978,-0.1093843653798103,-0.01518999040126801,0.02951499819755554,0.02220249176025391,XArbitraryZVertical,0.1282146141357511,0.05983361936851066,0.4991313546768975,0.8548970523967033,-0.02568869851529598,-0.2789502739906311,-0.9599618911743164,0,0,0,-1,-1,5038.563056125,unknown,2,2022-06-30T09:52:40.624+02:00,2022-06-30T08:20:05.567+02:00,1418,1.388076,0,0,1121.329,0,0,2022-06-30T09:50:28.075+02:00
2022-06-30T09:52:42.708+02:00,5040.644143375001,-0.0522613525390625,-0.281524658203125,-0.9421234130859375,5040.634191375,1.059737791403376,-0.02691016596614487,0.2820729767159832,-0.06766112148761749,0.01413342542946339,-0.1076627001166344,-0.02145906537771225,0.01226469874382019,0.02328884601593018,XArbitraryZVertical,0.1280153417972694,0.05954577136127463,0.4987245537375722,0.8551843057613601,-0.02584357000887394,-0.2783473134040833,-0.9601327180862427,0,0,0,-1,-1,5038.563056125,unknown,2,2022-06-30T09:52:40.624+02:00,2022-06-30T08:20:05.567+02:00,1418,1.388076,0,0,1121.329,0,0,2022-06-30T09:50:28.075+02:00
2022-06-30T09:52:42.718+02:00,5040.654094375001,-0.0557861328125,-0.280242919921875,-0.94366455078125,5040.644143375001,1.058805102109948,-0.02697137473464242,0.2811235258316437,-0.09723099321126938,0.02155911736190319,-0.1019805818796158,-0.02586401998996735,0.0002747774124145508,0.02030086517333984,XArbitraryZVertical,0.1276531514045675,0.05922175602463571,0.4983608765874821,0.8554729343934895,-0.02590945363044739,-0.2774352431297302,-0.9603949189186096,0,0,0,-1,-1,5038.563056125,unknown,2,2022-06-30T09:52:40.624+02:00,2022-06-30T08:20:05.567+02:00,1418,1.388076,0,0,1121.329,0,0,2022-06-30T09:50:28.075+02:00
2022-06-30T09:52:42.728+02:00,5040.664046375,-0.0548095703125,-0.267547607421875,-0.9434356689453125,5040.654094375001,1.057890325949863,-0.02695075911337952,0.2798171606094201,-0.1253282725811005,0.02192832715809345,-0.09389941394329071,-0.0295209214091301,-0.006229579448699951,0.01838934421539307,XArbitraryZVertical,0.127117386939414,0.05884478827393606,0.4980244672211305,0.855774499994567,-0.02589939907193184,-0.2761799395084381,-0.9607568979263306,0,0,0,-1,-1,5038.563056125,unknown,2,2022-06-30T09:52:40.624+02:00,2022-06-30T08:20:05.567+02:00,1418,1.388076,0,0,1121.329,0,0,2022-06-30T09:50:28.075+02:00
2022-06-30T09:52:42.737+02:00,5040.673997375,-0.0526123046875,-0.2584381103515625,-0.94219970703125,5040.664046375,1.057061896737084,-0.02694985659642362,0.2780990464059228,-0.1482517123222351,0.0246743131428957,-0.08470192551612854,-0.0306229293346405,0.0003584623336791992,0.01822143793106079,XArbitraryZVertical,0.1264077599604456,0.05836215527760249,0.4977400924498714,0.8560782166104708,-0.02591128088533878,-0.2745282351970673,-0.9612298607826233,0,0,0,-1,-1,5038.563056125,unknown,2,2022-06-30T09:52:40.624+02:00,2022-06-30T08:20:05.567+02:00,1418,1.388076,0,0,1121.329,0,0,2022-06-30T09:50:28.075+02:00
2022-06-30T09:52:42.748+02:00,5040.683949375,-0.051055908203125,-0.2489471435546875,-0.942169189453125,5040.673997375,1.056308610530656,-0.02690976728668359,0.2761698610330705,-0.1555211991071701,0.02983958646655083,-0.08094799518585205,-0.02838896214962006,0.01019114255905151,0.01981818675994873,XArbitraryZVertical,0.1255955800793444,0.05784878406774299,0.4974984252983933,0.8563728776321728,-0.02588694728910923,-0.2726726531982422,-0.961758553981781,0,0,0,-1,-1,5038.563056125,unknown,2,2022-06-30T09:52:40.624+02:00,2022-06-30T08:20:05.567+02:00,1418,1.388076,0,0,1121.329,0,0,2022-06-30T09:50:28.075+02:00
2022-06-30T09:52:42.758+02:00,5040.693900375,-0.054168701171875,-0.234588623046875,-0.9445343017578125,5040.683949375,1.055404958015468,-0.02664189478940179,0.2742149221263245,-0.1419712901115417,0.02353215590119362,-0.101243682205677,-0.02559594064950943,0.0156644880771637,0.01977628469467163,XArbitraryZVertical,0.124719571928656,0.05741769605655766,0.4972068956626841,0.8566992433227451,-0.02564346976578236,-0.2707912623882294,-0.9622964859008789,0,0,0,-1,-1,5038.563056125,unknown,2,2022-06-30T09:52:40.624+02:00,2022-06-30T08:20:05.567+02:00,1418,1.388076,0,0,1121.329,0,0,2022-06-30T09:50:28.075+02:00
2022-06-30T09:52:42.767+02:00,5040.703852375001,-0.059783935546875,-0.219940185546875,-0.94512939453125,5040.693900375,1.054348799270922,-0.02636174596159071,0.2726317795204263,-0.1002515554428101,0.01693896576762199,-0.1061690598726273,-0.02832619100809097,0.02663710713386536,0.01914268732070923,XArbitraryZVertical,0.1240033430752003,0.05707614047795505,0.4968350769805138,0.8570417537758391,-0.02538515068590641,-0.2692669332027435,-0.9627309441566467,0,0,0,-1,-1,5038.563056125,unknown,2,2022-06-30T09:52:40.624+02:00,2022-06-30T08:20:05.567+02:00,1418,1.388076,0,0,1121.329,0,0,2022-06-30T09:50:28.075+02:00
2022-06-30T09:52:42.777+02:00,5040.713803375001,-0.0496673583984375,-0.222320556640625,-0.954986572265625,5040.703852375001,1.053377611392423,-0.02622643863171997,0.2715785014260553,-0.07313524931669235,0.01196444872766733,-0.08645181357860565,-0.03467461466789246,0.04594728350639343,0.01874244213104248,XArbitraryZVertical,0.1235469162074421,0.05681086384294734,0.4964690745484784,0.8573372367303742,-0.02526230737566948,-0.268252432346344,-0.9630173444747925,0,0,0,-1,-1,5038.563056125,unknown,2,2022-06-30T09:52:40.624+02:00,2022-06-30T08:20:05.567+02:00,1418,1.388076,0,0,1121.329,0,0,2022-06-30T09:50:28.075+02:00
2022-06-30T09:52:42.787+02:00,5040.723755375,-0.04833984375,-0.212158203125,-0.9632720947265625,5040.713803375001,1.052754951651726,-0.02628431302789393,0.2710024274271053,-0.06534004211425781,0.01836128905415535,-0.05894489586353302,-0.02912165783345699,0.04453781247138977,0.01263922452926636,XArbitraryZVertical,0.1233324751345537,0.05660377048349564,0.4962213684267391,0.8575252048067479,-0.02532210014760494,-0.2676974236965179,-0.9631702303886414,0,0,0,-1,-1,5038.563056125,unknown,2,2022-06-30T09:52:40.624+02:00,2022-06-30T08:20:05.567+02:00,1418,1.388076,0,0,1121.329,0,0,2022-06-30T09:50:28.075+02:00
2022-06-30T09:52:42.797+02:00,5040.733706375,-0.04052734375,-0.218475341796875,-0.970855712890625,5040.723755375,1.05225479729856,-0.02640580834420271,0.2707488436208638,-0.03668469190597534,0.02226015739142895,-0.05889695882797241,-0.024303138256073,0.04942041635513306,0.005440771579742432,XArbitraryZVertical,0.1232682364434289,0.05645753695848479,0.4960094298079367,0.8576667444609644,-0.02544091083109379,-0.2674530744552612,-0.9632349610328674,0,0,0,-1,-1,5038.563056125,unknown,2,2022-06-30T09:52:40.624+02:00,2022-06-30T08:20:05.567+02:00,1418,1.388076,0,0,1121.329,0,0,2022-06-30T09:50:28.075+02:00
2022-06-30T09:52:42.807+02:00,5040.743658375,-0.0354461669921875,-0.2435455322265625,-0.9783172607421875,5040.733706375,1.051782200775014,-0.02664378518361106,0.2709936042278327,0.007554140873253345,0.01002099551260471,-0.06050404161214828,-0.01980320364236832,0.05572924017906189,-0.003755569458007812,XArbitraryZVertical,0.1234453222843108,0.05638739424949774,0.4957823846008969,0.8577771689505677,-0.02566839382052422,-0.2676889002323151,-0.963163435459137,0,0,0,-1,-1,5038.563056125,unknown,2,2022-06-30T09:52:40.624+02:00,2022-06-30T08:20:05.567+02:00,1418,1.388076,0,0,1121.329,0,0,2022-06-30T09:50:28.075+02:00
2022-06-30T09:52:42.817+02:00,5040.753609375,-0.062896728515625,-0.2835235595703125,-0.995697021484375,5040.743658375,1.051334716778246,-0.02712218913996017,0.2713210943121491,0.00373223889619112,-0.007313253823667765,-0.06158049404621124,-0.01014374010264874,0.03846666216850281,-0.01151549816131592,XArbitraryZVertical,0.1237166498059095,0.05623622070115666,0.4955478892286666,0.8578835395467506,-0.0261267926543951,-0.268004447221756,-0.9630633592605591,0,0,0,-1,-1,5038.563056125,unknown,2,2022-06-30T09:52:40.624+02:00,2022-06-30T08:20:05.567+02:00,1418,1.388076,0,0,1121.329,0,0,2022-06-30T09:50:28.075+02:00
2022-06-30T09:52:42.827+02:00,5040.763561375,-0.052490234375,-0.3419189453125,-1.002578735351562,5040.753609375,1.050662614762397,-0.02759942885446793,0.2710614231504327,-0.0642910897731781,0.01137943752110004,-0.1074595302343369,-0.01546530425548553,0.007622599601745605,-0.02206343412399292,XArbitraryZVertical,0.1237425614573393,0.05592519731997814,0.4952403990706896,0.8580775216174052,-0.0265883207321167,-0.2677542567253113,-0.9631202816963196,0,0,0,-1,-1,5038.563056125,unknown,2,2022-06-30T09:52:40.624+02:00,2022-06-30T08:20:05.567+02:00,1418,1.388076,0,0,1121.329,0,0,2022-06-30T09:50:28.075+02:00
2022-06-30T09:52:42.837+02:00,5040.773512375,-0.045074462890625,-0.2894134521484375,-0.9897918701171875,5040.763561375,1.04980221038606,-0.0276579462257381,0.2698550162897826,-0.1643260717391968,0.03942837938666344,-0.06828789412975311,-0.04188928753137589,-0.0566045343875885,-0.04070949554443359,XArbitraryZVertical,0.1232644642953562,0.05554636483881521,0.4949154656877954,0.8583584651599423,-0.02665359526872635,-0.2665916979312897,-0.9634409546852112,0,0,0,-1,-1,5038.563056125,unknown,2,2022-06-30T09:52:40.624+02:00,2022-06-30T08:20:05.567+02:00,1418,1.388076,0,0,1121.329,0,0,2022-06-30T09:50:28.075+02:00
2022-06-30T09:52:42.847+02:00,5040.783464375,-0.06195068359375,-0.2468719482421875,-0.9854888916015625,5040.773512375,1.04923499153584,-0.02749300668815233,0.2673877739804334,-0.2658068239688873,0.0503087118268013,-0.06146610900759697,-0.01316056400537491,-0.05921217799186707,-0.03081893920898438,XArbitraryZVertical,0.1221825519088995,0.05496796233723766,0.4947794501719353,0.8586287585525567,-0.02651268430054188,-0.2642129361629486,-0.9640998840332031,0,0,0,-1,-1,5038.563056125,unknown,2,2022-06-30T09:52:40.624+02:00,2022-06-30T08:20:05.567+02:00,1418,1.388076,0,0,1121.329,0,0,2022-06-30T09:50:28.075+02:00
2022-06-30T09:52:42.857+02:00,5040.793415375,-0.0474395751953125,-0.22601318359375,-0.9778289794921875,5040.783464375,1.048721300328338,-0.02726249326248256,0.2640860345763498,-0.2723906934261322,0.07740957289934158,-0.05248486250638962,-0.03211221843957901,-0.0009508728981018066,-0.02343058586120605,XArbitraryZVertical,0.120724821953265,0.05421381987685266,0.4947017846426441,0.858927548862903,-0.02631408348679543,-0.2610270977020264,-0.9649727344512939,0,0,0,-1,-1,5038.563056125,unknown,2,2022-06-30T09:52:40.624+02:00,2022-06-30T08:20:05.567+02:00,1418,1.388076,0,0,1121.329,0,0,2022-06-30T09:50:28.075+02:00
2022-06-30T09:52:42.867+02:00,5040.803367375001,-0.041107177734375,-0.21441650390625,-0.9634246826171875,5040.793415375,1.048274962372726,-0.02686746766035764,0.2610213161706162,-0.2408106029033661,0.06426115334033966,-0.0454590804874897,-0.03180065751075745,0.02189207077026367,-0.01693356037139893,XArbitraryZVertical,0.1193254733761506,0.05359397943035367,0.4946519581033341,0.8591906984177528,-0.02595426142215729,-0.258067399263382,-0.9657782316207886,0,0,0,-1,-1,5038.563056125,unknown,2,2022-06-30T09:52:40.624+02:00,2022-06-30T08:20:05.567+02:00,1418,1.388076,0,0,1121.329,0,0,2022-06-30T09:50:28.075+02:00
2022-06-30T09:52:42.877+02:00,5040.813318375001,-0.054168701171875,-0.217864990234375,-0.9549560546875,5040.803367375001,1.047810289186397,-0.02657228377760072,0.2582206780156644,-0.2152189463376999,0.04813544452190399,-0.06007610633969307,-0.01473264954984188,0.03688547015190125,-0.004213809967041016,XArbitraryZVertical,0.1180639627951344,0.05299642840830774,0.4945765918601108,0.8594453219205891,-0.02568827942013741,-0.2553606331348419,-0.9665045738220215,0,0,0,-1,-1,5038.563056125,unknown,2,2022-06-30T09:52:40.624+02:00,2022-06-30T08:20:05.567+02:00,1418,1.388076,0,0,1121.329,0,0,2022-06-30T09:50:28.075+02:00
2022-06-30T09:52:42.887+02:00,5040.823270375,-0.066864013671875,-0.2222900390625,-0.944671630859375,5040.813318375001,1.047062934482967,-0.02619318838468415,0.2555966187179275,-0.1897653788328171,0.05107934772968292,-0.08990383893251419,-0.02174967527389526,0.0381011962890625,0.008364200592041016,XArbitraryZVertical,0.1168643357677131,0.05246286419249467,0.4943765567627642,0.8597570341123789,-0.02533934265375137,-0.2528226971626282,-0.9671807289123535,0,0,0,-1,-1,5038.563056125,unknown,2,2022-06-30T09:52:40.624+02:00,2022-06-30T08:20:05.567+02:00,1418,1.388076,0,0,1121.329,0,0,2022-06-30T09:50:28.075+02:00
2022-06-30T09:52:42.897+02:00,5040.833221375,-0.0819854736328125,-0.227294921875,-0.9312744140625,5040.823270375,1.046021144197213,-0.02557451421805244,0.2535141622972589,-0.1638653427362442,0.05425596609711647,-0.1080029532313347,-0.03686100989580154,0.0306231677532196,0.01821178197860718,XArbitraryZVertical,0.1158450276937812,0.05215071307338998,0.4940422286907539,0.8601061048987673,-0.02475437708199024,-0.2508073449134827,-0.9677204489707947,0,0,0,-1,-1,5038.563056125,unknown,2,2022-06-30T09:52:40.624+02:00,2022-06-30T08:20:05.567+02:00,1418,1.388076,0,0,1121.329,0,0,2022-06-30T09:50:28.075+02:00
2022-06-30T09:52:42.907+02:00,5040.843173375,-0.095367431640625,-0.2485504150390625,-0.92584228515625,5040.833221375,1.044841705841734,-0.02493484541841931,0.2520662676578232,-0.1541527360677719,0.07150154560804367,-0.1272439211606979,-0.04882355034351349,0.0237434059381485,0.02853816747665405,XArbitraryZVertical,0.1150961471142265,0.05199826398309759,0.4936252588458078,0.8604551673502033,-0.02414438128471375,-0.2494054585695267,-0.9680981040000916,0,0,0,-1,-1,5038.563056125,unknown,2,2022-06-30T09:52:40.624+02:00,2022-06-30T08:20:05.567+02:00,1418,1.388076,0,0,1121.329,0,0,2022-06-30T09:50:28.075+02:00
2022-06-30T09:52:42.917+02:00,5040.853124375,-0.09893798828125,-0.278564453125,-0.9228973388671875,5040.843173375,1.043530529111086,-0.02440810619909806,0.2514400222062091,-0.1648261547088623,0.09850253164768219,-0.1520962715148926,-0.06785385310649872,0.01440885663032532,0.04181396961212158,XArbitraryZVertical,0.1147312993529873,0.05199426627172005,0.4931142336783955,0.8607970677423901,-0.02363825030624866,-0.2487989515066147,-0.9682666659355164,0,0,0,-1,-1,5038.563056125,unknown,2,2022-06-30T09:52:40.624+02:00,2022-06-30T08:20:05.567+02:00,1418,1.388076,0,0,1121.329,0,0,2022-06-30T09:50:28.075+02:00
2022-06-30T09:52:42.927+02:00,5040.863076375001,-0.115966796875,-0.3041534423828125,-0.9190521240234375,5040.853124375,1.041682311374497,-0.02306118697789591,0.2505815450834308,-0.213454008102417,0.1265350580215454,-0.2156679928302765,-0.07376128435134888,-0.01814572513103485,0.04234802722930908,XArbitraryZVertical,0.1140786475624545,0.05225577294227341,0.4924267067755975,0.8612615571857974,-0.02233896963298321,-0.2479673773050308,-0.9685108065605164,0,0,0,-1,-1,5038.563056125,unknown,2,2022-06-30T09:52:40.624+02:00,2022-06-30T08:20:05.567+02:00,1418,1.388076,0,0,1121.329,0,0,2022-06-30T09:50:28.075+02:00
2022-06-30T09:52:42.937+02:00,5040.873027375001,-0.1378021240234375,-0.3356781005859375,-0.91632080078125,5040.863076375001,1.039060375102292,-0.02146932143920087,0.2483541667436183,-0.2749716937541962,0.1568141430616379,-0.3100568056106567,-0.08540782332420349,-0.04612202942371368,0.04822695255279541,XArbitraryZVertical,0.1127975414418491,0.05224229358090436,0.4914669696029058,0.8619790409444689,-0.02080900780856609,-0.2458089590072632,-0.9690949320793152,0,0,0,-1,-1,5038.563056125,unknown,2,2022-06-30T09:52:40.624+02:00,2022-06-30T08:20:05.567+02:00,1418,1.388076,0,0,1121.329,0,0,2022-06-30T09:50:28.075+02:00
2022-06-30T09:52:42.947+02:00,5040.882979375,-0.1583709716796875,-0.3570556640625,-0.9037933349609375,5040.873027375001,1.035309206247149,-0.01920861425155182,0.2452134701797651,-0.3493251502513885,0.1938164681196213,-0.4318037033081055,-0.1085648164153099,-0.07739633321762085,0.0517851710319519,XArbitraryZVertical,0.1109883089100261,0.05223325211879401,0.4900853498157782,0.8630004063380937,-0.01863285340368748,-0.242763414978981,-0.9699065685272217,0,0,0,-1,-1,5038.563056125,unknown,2,2022-06-30T09:52:40.624+02:00,2022-06-30T08:20:05.567+02:00,1418,1.388076,0,0,1121.329,0,0,2022-06-30T09:50:28.075+02:00
2022-06-30T09:52:42.957+02:00,5040.892930375,-0.185089111328125,-0.361236572265625,-0.87347412109375,5040.882979375,1.030196938139529,-0.01603463847360174,0.2411010115639503,-0.4572931826114655,0.2394462674856186,-0.5673574805259705,-0.1318606436252594,-0.1115391701459885,0.05987900495529175,XArbitraryZVertical,0.1085718929983549,0.05231369373168062,0.4881906174465789,0.8643757717039673,-0.01557018049061298,-0.2387719303369522,-0.9709508419036865,0,0,0,-1,-1,5038.563056125,unknown,2,2022-06-30T09:52:40.624+02:00,2022-06-30T08:20:05.567+02:00,1418,1.388076,0,0,1121.329,0,0,2022-06-30T09:50:28.075+02:00
2022-06-30T09:52:42.966+02:00,5040.902882375,-0.223724365234375,-0.3730010986328125,-0.8453826904296875,5040.892930375,1.023500550473369,-0.01177038746404104,0.235890054472296,-0.6044051051139832,0.2997826635837555,-0.7272485494613647,-0.1580966413021088,-0.1254527121782303,0.08204162120819092,XArbitraryZVertical,0.1054568646525457,0.05252777232959246,0.485689605339289,0.8661555532014623,-0.01144416257739067,-0.2337084859609604,-0.9722393751144409,0,0,0,-1,-1,5038.563056125,unknown,2,2022-06-30T09:52:40.624+02:00,2022-06-30T08:20:05.567+02:00,1418,1.388076,0,0,1121.329,0,0,2022-06-30T09:50:28.075+02:00
2022-06-30T09:52:42.976+02:00,5040.912833375,-0.25030517578125,-0.387054443359375,-0.8170623779296875,5040.902882375,1.015156178677415,-0.00646940847300533,0.2291903346764153,-0.7500618696212769,0.3900409042835236,-0.8955531120300293,-0.1979390978813171,-0.1395557075738907,0.1132040619850159,XArbitraryZVertical,0.1014898802857028,0.05276990628631789,0.4825483359987571,0.8683675827756295,-0.006300193723291159,-0.2271891087293625,-0.9738302826881409,0,0,0,-1,-1,5038.563056125,unknown,2,2022-06-30T09:52:40.624+02:00,2022-06-30T08:20:05.567+02:00,1418,1.388076,0,0,1121.329,0,0,2022-06-30T09:50:28.075+02:00
2022-06-30T09:52:42.986+02:00,5040.922785375,-0.2652435302734375,-0.4120635986328125,-0.787078857421875,5040.912833375,1.005132363844246,0.0001570456767907132,0.2208535280117002,-0.9332824349403381,0.4981126189231873,-1.065728068351746,-0.2391215264797211,-0.162544384598732,0.1449307799339294,XArbitraryZVertical,0.09653827851381076,0.05315028071607238,0.4787497629243821,0.8710075076055104,0.0001532311725895852,-0.2190624922513962,-0.9757108092308044,0,0,0,-1,-1,5038.563056125,unknown,2,2022-06-30T09:52:40.624+02:00,2022-06-30T08:20:05.567+02:00,1418,1.388076,0,0,1121.329,0,0,2022-06-30T09:50:28.075+02:00
2022-06-30T09:52:42.996+02:00,5040.932736375,-0.2742462158203125,-0.437408447265625,-0.753753662109375,5040.922785375,0.9933792500477403,0.008097357648785405,0.210306301665512,-1.174359917640686,0.5927312970161438,-1.250931262969971,-0.2657470405101776,-0.1882893145084381,0.1770316362380981,XArbitraryZVertical,0.09035731858030593,0.05355443838910472,0.4742554684717202,0.8740990464777317,0.007918861694633961,-0.2087594568729401,-0.9779349565505981,0,0,0,-1,-1,5038.563056125,unknown,2,2022-06-30T09:52:40.624+02:00,2022-06-30T08:20:05.567+02:00,1418,1.388076,0,0,1121.329,0,0,2022-06-30T09:50:28.075+02:00
2022-06-30T09:52:43.006+02:00,5040.942688375,-0.284698486328125,-0.4384765625,-0.716217041015625,5040.932736375,0.9799021159829929,0.0171876816463081,0.1970510498743428,-1.455451488494873,0.6870205402374268,-1.435944318771362,-0.2871793508529663,-0.2319864332675934,0.2082560062408447,XArbitraryZVertical,0.08276633871978652,0.05383367647546921,0.469029093316646,0.8776465468619813,0.01685423962771893,-0.1957783102989197,-0.9805033206939697,0,0,0,-1,-1,5038.563056125,unknown,2,2022-06-30T09:52:40.624+02:00,2022-06-30T08:20:05.567+02:00,1418,1.388076,0,0,1121.329,0,0,2022-06-30T09:50:28.075+02:00
2022-06-30T09:52:43.016+02:00,5040.952639375,-0.29132080078125,-0.4296417236328125,-0.6862945556640625,5040.942688375,0.964743507885229,0.02730875897214497,0.180738139606947,-1.753638982772827,0.7795584201812744,-1.631288766860962,-0.3053644299507141,-0.2603533267974854,0.2491526007652283,XArbitraryZVertical,0.07363335855780399,0.05390625678845804,0.4630372908003946,0.8816284285163637,0.02686059474945068,-0.1797557324171066,-0.9833444952964783,0,0,0,-1,-1,5038.563056125,unknown,2,2022-06-30T09:52:40.624+02:00,2022-06-30T08:20:05.567+02:00,1418,1.388076,0,0,1121.329,0,0,2022-06-30T09:50:28.075+02:00
2022-06-30T09:52:43.026+02:00,5040.962591375001,-0.2946929931640625,-0.3970184326171875,-0.685516357421875,5040.952639375,0.9478543629628853,0.03843574231876296,0.1611295293689713,-2.070598840713501,0.885003387928009,-1.839035391807556,-0.3271898031234741,-0.2749151587486267,0.2890825867652893,XArbitraryZVertical,0.06285265365583168,0.05376514174924197,0.4561958412861621,0.8860273380112174,0.03792853280901909,-0.1604332029819489,-0.9863176941871643,0,0,0,-1,-1,5038.563056125,unknown,2,2022-06-30T09:52:40.624+02:00,2022-06-30T08:20:05.567+02:00,1418,1.388076,0,0,1121.329,0,0,2022-06-30T09:50:28.075+02:00
2022-06-30T09:52:43.036+02:00,5040.972542375001,-0.3015594482421875,-0.33892822265625,-0.6962890625,5040.962591375001,0.9294352048842307,0.05053049117796999,0.1380172811817854,-2.403169870376587,1.000244975090027,-2.017547369003296,-0.3423417210578918,-0.2811672687530518,0.3061362504959106,XArbitraryZVertical,0.05032654070024943,0.05342288427148575,0.4485181646831928,0.8907551810457311,0.05002868548035622,-0.1375795155763626,-0.9892264604568481,0,0,0,-1,-1,5038.563056125,unknown,2,2022-06-30T09:52:40.624+02:00,2022-06-30T08:20:05.567+02:00,1418,1.388076,0,0,1121.329,0,0,2022-06-30T09:50:28.075+02:00
2022-06-30T09:52:43.046+02:00,5040.982494375,-0.29437255859375,-0.2779541015625,-0.701324462890625,5040.972542375001,0.9099704546812829,0.06347128851393356,0.1113234203349497,-2.718943119049072,1.120409369468689,-2.162928819656372,-0.3616204559803009,-0.2581689357757568,0.3029354810714722,XArbitraryZVertical,0.03602586695847286,0.0528937104661524,0.440133172449623,0.8956491307252974,0.06303605437278748,-0.1110936254262924,-0.9918087720870972,0,0,0,-1,-1,5038.563056125,unknown,2,2022-06-30T09:52:40.624+02:00,2022-06-30T08:20:05.567+02:00,1418,1.388076,0,0,1121.329,0,0,2022-06-30T09:50:28.075+02:00
2022-06-30T09:52:43.056+02:00,5040.992445375,-0.2823944091796875,-0.231292724609375,-0.713134765625,5040.982494375,0.8899423635191497,0.0770611537758637,0.0811020598166708,-3.058629989624023,1.224955201148987,-2.249642372131348,-0.3776203393936157,-0.2253984361886978,0.294292151927948,XArbitraryZVertical,0.01999805165823976,0.05217811848254153,0.4311683760375427,0.9005395054677731,0.07673186063766479,-0.08101318031549454,-0.993755042552948,0,0,0,-1,-1,5038.563056125,unknown,2,2022-06-30T09:52:40.624+02:00,2022-06-30T08:20:05.567+02:00,1418,1.388076,0,0,1121.329,0,0,2022-06-30T09:50:28.075+02:00
2022-06-30T09:52:43.066+02:00,5041.002397375,-0.2924346923828125,-0.173065185546875,-0.6834716796875,5040.992445375,0.8700385526526826,0.09097817791045552,0.04705215490161305,-3.421732664108276,1.325567603111267,-2.303257703781128,-0.3756647109985352,-0.2073291093111038,0.288005530834198,XArbitraryZVertical,0.00215241435912202,0.05113005628364858,0.4218454954476966,0.9052224201105332,0.09075217694044113,-0.04703479632735252,-0.9947621822357178,0,0,0,-1,-1,5038.563056125,unknown,2,2022-06-30T09:52:40.624+02:00,2022-06-30T08:20:05.567+02:00,1418,1.388076,0,0,1121.329,0,0,2022-06-30T09:50:28.075+02:00
2022-06-30T09:52:43.076+02:00,5041.012347125,-0.286346435546875,-0.1347198486328125,-0.6602935791015625,5041.002397375,0.8502672983828691,0.1053959227377768,0.009075945914003089,-3.776512861251831,1.467948436737061,-2.403121471405029,-0.3922606110572815,-0.1926757842302322,0.2861275672912598,XArbitraryZVertical,-0.01759633011936326,0.04985331535804385,0.4120834771065324,0.9096110821471119,0.1051965728402138,-0.009075821377336979,-0.9944100379943848,0,0,0,-1,-1,5038.563056125,unknown,2,2022-06-30T09:52:40.624+02:00,2022-06-30T08:20:05.567+02:00,1418,1.388076,0,0,1121.329,0,0,2022-06-30T09:50:28.075+02:00
2022-06-30T09:52:43.086+02:00,5041.022299125,-0.2647705078125,-0.081512451171875,-0.686676025390625,5041.012347125,0.8304040005255062,0.1205211675402931,-0.03274652950406869,-4.118375778198242,1.627512454986572,-2.506425857543945,-0.4123408794403076,-0.1842756122350693,0.3301960229873657,XArbitraryZVertical,-0.03924387645408589,0.04850750164935953,0.4016863764199833,0.9136493242774815,0.120165154337883,0.03274067863821983,-0.9922139048576355,0,0,0,-1,-1,5038.563056125,unknown,2,2022-06-30T09:52:40.624+02:00,2022-06-30T08:20:05.567+02:00,1418,1.388076,0,0,1121.329,0,0,2022-06-30T09:50:28.075+02:00
2022-06-30T09:52:43.096+02:00,5041.032250125,-0.2437744140625,0.0419158935546875,-0.7220458984375,5041.022299125,0.8109339484013748,0.1366873396269139,-0.07828071495211121,-4.453515529632568,1.852792382240295,-2.526152849197388,-0.4120140671730042,-0.1945184469223022,0.3186174035072327,XArbitraryZVertical,-0.0627900620425562,0.04730645056101934,0.3907700862239024,0.917125084889108,0.1358448266983032,0.07820078730583191,-0.9876390099525452,0,0,0,-1,-1,5038.563056125,unknown,2,2022-06-30T09:52:40.624+02:00,2022-06-30T08:20:05.567+02:00,1418,1.388076,0,0,1121.329,0,0,2022-06-30T09:50:28.075+02:00
2022-06-30T09:52:43.106+02:00,5041.042202125001,-0.216064453125,0.163543701171875,-0.734100341796875,5041.032250125,0.7929675653269649,0.1546578997358975,-0.1274506697769168,-4.804721832275391,2.143349409103394,-2.452500104904175,-0.4071418642997742,-0.1528321355581284,0.2742854356765747,XArbitraryZVertical,-0.08833887349021688,0.04659528349518024,0.3797038019187227,0.919701098576208,0.152792677283287,0.1271059066057205,-0.980050265789032,0,0,0,-1,-1,5038.563056125,unknown,2,2022-06-30T09:52:40.624+02:00,2022-06-30T08:20:05.567+02:00,1418,1.388076,0,0,1121.329,0,0,2022-06-30T09:50:28.075+02:00
2022-06-30T09:52:43.116+02:00,5041.052153125001,-0.15533447265625,0.2433319091796875,-0.7505950927734375,5041.042202125001,0.7773779035165675,0.1753230602522007,-0.1804122507421343,-5.176877975463867,2.501847505569458,-2.338461399078369,-0.4046584367752075,-0.06912927329540253,0.2394712567329407,XArbitraryZVertical,-0.1160882306981264,0.04668082417236404,0.3686868998026264,0.9210940846300025,0.1715952754020691,0.1794351488351822,-0.9686888456344604,0,0,0,-1,-1,5038.563056125,unknown,2,2022-06-30T09:52:40.624+02:00,2022-06-30T08:20:05.567+02:00,1418,1.388076,0,0,1121.329,0,0,2022-06-30T09:50:28.075+02:00
2022-06-30T09:52:43.126+02:00,5041.062105125,-0.0615386962890625,0.3356781005859375,-0.7336273193359375,5041.052153125001,0.7648069759793733,0.1995222248711788,-0.2369507098414702,-5.519082069396973,2.895894050598145,-2.193487644195557,-0.3828336894512177,-0.03050066530704498,0.2065581083297729,XArbitraryZVertical,-0.1460194914536579,0.04786762814127496,0.3577715566630976,0.9210790408212098,0.1926629841327667,0.2347396314144135,-0.9527739882469177,0,0,0,-1,-1,5038.563056125,unknown,2,2022-06-30T09:52:40.624+02:00,2022-06-30T08:20:05.567+02:00,1418,1.388076,0,0,1121.329,0,0,2022-06-30T09:50:28.075+02:00
2022-06-30T09:52:43.135+02:00,5041.072056125,0.030975341796875,0.434600830078125,-0.7605743408203125,5041.062105125,0.756044847210472,0.2278818027899766,-0.2965148448666791,-5.806668281555176,3.277246952056885,-2.003522396087646,-0.325950026512146,-0.004438579082489014,0.192652702331543,XArbitraryZVertical,-0.1778979064204546,0.05034252115791586,0.3470587945086891,0.9194390164231513,0.2160558253526688,0.2921889126300812,-0.9316359162330627,0,0,0,-1,-1,5038.563056125,unknown,2,2022-06-30T09:52:40.624+02:00,2022-06-30T08:20:05.567+02:00,1418,1.388076,0,0,1121.329,0,0,2022-06-30T09:50:28.075+02:00
2022-06-30T09:52:43.145+02:00,5041.082008125,0.11810302734375,0.5230712890625,-0.792816162109375,5041.072056125,0.7514114286528202,0.2607368329477625,-0.358336311258077,-6.037102222442627,3.634058475494385,-1.863850235939026,-0.2559294998645782,0.03478142619132996,0.1594521403312683,XArbitraryZVertical,-0.2113108718235047,0.05416005951696095,0.3364401115381001,0.9160909115797196,0.2414179891347885,0.3507167100906372,-0.9048287868499756,0,0,0,-1,-1,5038.563056125,unknown,2,2022-06-30T09:52:40.624+02:00,2022-06-30T08:20:05.567+02:00,1418,1.388076,0,0,1121.329,0,0,2022-06-30T09:50:28.075+02:00
2022-06-30T09:52:43.160+02:00,5041.091959125,0.2065582275390625,0.5839385986328125,-0.7889404296875,5041.082008125,0.7506620640852574,0.2983152640308009,-0.4222178888423507,-6.246718406677246,3.975382328033447,-1.810516715049744,-0.1930422186851501,0.07227116823196411,0.09389400482177734,XArbitraryZVertical,-0.2460588553502301,0.05922875237553151,0.3254905554116673,0.9110449950181841,0.2680997848510742,0.4097845852375031,-0.8718940019607544,0,0,0,-1,-1,5038.563056125,unknown,2,2022-06-30T09:52:40.624+02:00,2022-06-30T08:20:05.567+02:00,1418,1.388076,0,0,1121.329,0,0,2022-06-30T09:50:28.075+02:00
2022-06-30T09:52:43.169+02:00,5041.101911125001,0.2755126953125,0.67889404296875,-0.710784912109375,5041.091959125,0.7537379012509119,0.3407206687510345,-0.4870828065664077,-6.27625036239624,4.268738269805908,-1.740636229515076,-0.1326452493667603,0.08521857857704163,0.0334477424621582,XArbitraryZVertical,-0.2815227453803369,0.06552976933281422,0.3139674097395459,0.9043645423271297,0.2953035235404968,0.468049943447113,-0.8329015970230103,0,0,0,-1,-1,5038.563056125,unknown,2,2022-06-30T09:52:40.624+02:00,2022-06-30T08:20:05.567+02:00,1418,1.388076,0,0,1121.329,0,0,2022-06-30T09:50:28.075+02:00
2022-06-30T09:52:43.175+02:00,5041.111862125001,0.3224945068359375,0.8065948486328125,-0.627838134765625,5041.101911125001,0.761047312340116,0.3881369126187144,-0.550574360516665,-6.059919834136963,4.535051345825195,-1.596268057823181,-0.07641279697418213,0.1032881140708923,0.03530728816986084,XArbitraryZVertical,-0.3165718821343115,0.07325403671218764,0.3020404724724224,0.89620746322542,0.3225366771221161,0.5231767892837524,-0.7888321876525879,0,0,0,-1,-1,5038.563056125,unknown,2,2022-06-30T09:52:40.624+02:00,2022-06-30T08:20:05.567+02:00,1418,1.388076,0,0,1121.329,0,0,2022-06-30T09:50:28.075+02:00
2022-06-30T09:52:43.185+02:00,5041.121814125,0.388763427734375,0.9257659912109375,-0.517303466796875,5041.111862125001,0.7724705257021116,0.4405855551233406,-0.6096755753875297,-5.552975654602051,4.743692398071289,-1.417871713638306,-0.05143177509307861,0.1685637831687927,0.07187891006469727,XArbitraryZVertical,-0.3498298096738902,0.08275488612683583,0.2898986499036763,0.8869778365482526,0.3496338725090027,0.5726014971733093,-0.7415414452552795,0,0,0,-1,-1,5038.563056125,unknown,2,2022-06-30T09:52:40.624+02:00,2022-06-30T08:20:05.567+02:00,1418,1.388076,0,0,1121.329,0,0,2022-06-30T09:50:28.075+02:00
2022-06-30T09:52:43.195+02:00,5041.131765125,0.4707183837890625,0.9692535400390625,-0.34307861328125,5041.121814125,0.7869168980717726,0.4969520790008198,-0.6621816413502281,-4.909368991851807,4.844863891601562,-1.259287595748901,-0.0227484405040741,0.2543476223945618,0.1124769449234009,XArbitraryZVertical,-0.3801786462296474,0.09399814817838376,0.2775916838033227,0.877252163308083,0.3759890198707581,0.6148388981819153,-0.6932570934295654,0,0,0,-1,-1,5038.563056125,unknown,2,2022-06-30T09:52:40.624+02:00,2022-06-30T08:20:05.567+02:00,1418,1.388076,0,0,1121.329,0,0,2022-06-30T09:50:28.075+02:00
2022-06-30T09:52:43.205+02:00,5041.141717125,0.544952392578125,0.9247894287109375,-0.2580413818359375,5041.131765125,0.8031272699634581,0.5553634723730443,-0.7078398351387216,-4.307220935821533,4.822910308837891,-1.169897317886353,0.02593910694122314,0.3110639452934265,0.2149023413658142,XArbitraryZVertical,-0.4072914586560023,0.1064084559775393,0.2651402431905982,0.8674628175510455,0.4005894660949707,0.6501940488815308,-0.645581841468811,0,0,0,-1,-1,5038.563056125,unknown,2,2022-06-30T09:52:40.624+02:00,2022-06-30T08:20:05.567+02:00,1418,1.388076,0,0,1121.329,0,0,2022-06-30T09:50:28.075+02:00
2022-06-30T09:52:43.215+02:00,5041.151668125,0.71026611328125,0.8595733642578125,-0.16827392578125,5041.141717125,0.8198753135194264,0.6135092139388169,-0.7486378221504966,-3.936170339584351,4.666514873504639,-1.219707727432251,0.08923476934432983,0.2776258587837219,0.3140533566474915,XArbitraryZVertical,-0.4317055485640125,0.1188470647402171,0.2523758664285778,0.8577949737938985,0.4217969477176666,0.6806414127349854,-0.5990113615989685,0,0,0,-1,-1,5038.563056125,unknown,2,2022-06-30T09:52:40.624+02:00,2022-06-30T08:20:05.567+02:00,1418,1.388076,0,0,1121.329,0,0,2022-06-30T09:50:28.075+02:00
2022-06-30T09:52:43.225+02:00,5041.161620125,0.817047119140625,0.7751312255859375,-0.1180267333984375,5041.151668125,0.8402022155430289,0.6729947594738606,-0.7870629128348344,-4.06423282623291,4.436500072479248,-1.003751277923584,0.1790065467357635,0.1816859841346741,0.331181526184082,XArbitraryZVertical,-0.4548472468229719,0.130807262712121,0.2399511701821572,0.8476006761858227,0.4400269091129303,0.7082829475402832,-0.5520069003105164,0,0,0,-1,-1,5038.563056125,unknown,2,2022-06-30T09:52:40.624+02:00,2022-06-30T08:20:05.567+02:00,1418,1.388076,0,0,1121.329,0,0,2022-06-30T09:50:28.075+02:00
2022-06-30T09:52:43.241+02:00,5041.171571125,0.82379150390625,0.71917724609375,-0.08740234375,5041.161620125,0.8710652381130198,0.7385522161035036,-0.8248529635333643,-4.527729988098145,4.261295795440674,-0.6489087343215942,0.3233835101127625,0.0884738564491272,0.363116979598999,XArbitraryZVertical,-0.4784256768780047,0.1420966619530352,0.2292916169840932,0.8356691405866418,0.4568895995616913,0.7344480156898499,-0.5018348097801208,0,0,0,-1,-1,5038.563056125,unknown,2,2022-06-30T09:52:40.624+02:00,2022-06-30T08:20:05.567+02:00,1418,1.388076,0,0,1121.329,0,0,2022-06-30T09:50:28.075+02:00
2022-06-30T09:52:43.245+02:00,5041.181523125,0.797271728515625,0.7725677490234375,-0.0569000244140625,5041.171571125,0.9159550398405061,0.8141594059860793,-0.8626232262266018,-5.082386493682861,4.203619003295898,-0.4020186364650726,0.3550612032413483,-0.02592408657073975,0.344864696264267,XArbitraryZVertical,-0.5033600758827056,0.1528698132273161,0.2203556479620065,0.8214029455748325,0.4729718863964081,0.759551465511322,-0.4465188980102539,0,0,0,-1,-1,5038.563056125,unknown,2,2022-06-30T09:52:40.624+02:00,2022-06-30T08:20:05.567+02:00,1418,1.388076,0,0,1121.329,0,0,2022-06-30T09:50:28.075+02:00
2022-06-30T09:52:43.255+02:00,5041.191474125,0.7910308837890625,0.90911865234375,-0.031768798828125,5041.181523125,0.9752581210415824,0.9020817385033774,-0.8996949927982438,-5.482693195343018,4.272015571594238,-0.275571197271347,0.3264619112014771,-0.04981511831283569,0.3136024475097656,XArbitraryZVertical,-0.5296462112136027,0.1634276898806674,0.2122745254657622,0.8048017056126521,0.4879145622253418,0.7831372618675232,-0.385532557964325,0,0,0,-1,-1,5038.563056125,unknown,2,2022-06-30T09:52:40.624+02:00,2022-06-30T08:20:05.567+02:00,1418,1.388076,0,0,1121.329,0,0,2022-06-30T09:50:28.075+02:00
2022-06-30T09:52:43.265+02:00,5041.201426125001,0.7993011474609375,1.105209350585938,0.0106964111328125,5041.191474125,1.046537455214096,1.002188001353363,-0.9329372567698725,-5.42021369934082,4.47886323928833,-0.07296863198280334,0.2870082259178162,0.03007793426513672,0.2759777009487152,XArbitraryZVertical,-0.556071467708788,0.1745403362009173,0.2043162710464595,0.7864954276270357,0.5017792582511902,0.8033724427223206,-0.3206403851509094,0,0,0,-1,-1,5038.563056125,unknown,2,2022-06-30T09:52:40.624+02:00,2022-06-30T08:20:05.567+02:00,1418,1.388076,0,0,1121.329,0,0,2022-06-30T09:50:28.075+02:00
2022-06-30T09:52:43.275+02:00,5041.211377125001,0.8389129638671875,1.305465698242188,-0.0363616943359375,5041.201426125001,1.1227979994021,1.109624862172674,-0.957853877776295,-4.785914421081543,4.676581382751465,0.1388623863458633,0.2796971201896667,0.1819038987159729,0.2509000599384308,XArbitraryZVertical,-0.5804723322511924,0.1872258345981752,0.1961065530512627,0.7678154627966621,0.5151786208152771,0.8179588317871094,-0.2559967041015625,0,0,0,-1,-1,5038.563056125,unknown,2,2022-06-30T09:52:40.624+02:00,2022-06-30T08:20:05.567+02:00,1418,1.388076,0,0,1121.329,0,0,2022-06-30T09:50:28.075+02:00
2022-06-30T09:52:43.285+02:00,5041.221329125,0.9115142822265625,1.400466918945312,-0.1193389892578125,5041.211377125001,1.192018931620624,1.213055025295391,-0.9732051105247835,-3.650813102722168,4.619011402130127,0.1808317452669144,0.2857734560966492,0.385587215423584,0.1943019330501556,XArbitraryZVertical,-0.6008061119152848,0.2013029893817117,0.1870875629734981,0.7506713682816248,0.5270314812660217,0.8266932964324951,-0.1970182508230209,0,0,0,-1,-1,5038.563056125,unknown,2,2022-06-30T09:52:40.624+02:00,2022-06-30T08:20:05.567+02:00,1418,1.388076,0,0,1121.329,0,0,2022-06-30T09:50:28.075+02:00
2022-06-30T09:52:43.295+02:00,5041.231280125,0.93231201171875,1.285659790039062,-0.14483642578125,5041.221329125,1.243369036296735,1.299916341443691,-0.9808532308712887,-2.323831081390381,4.239818096160889,0.1644277423620224,0.3397800922393799,0.5408539772033691,0.07399827241897583,XArbitraryZVertical,-0.6157143597692113,0.2155614803376395,0.1773085301108903,0.736879123429481,0.5360283255577087,0.8309723138809204,-0.1488581448793411,0,0,0,-1,-1,5038.563056125,unknown,2,2022-06-30T09:52:40.624+02:00,2022-06-30T08:20:05.567+02:00,1418,1.388076,0,0,1121.329,0,0,2022-06-30T09:50:28.075+02:00
2022-06-30T09:52:43.305+02:00,5041.241232125,0.8420257568359375,1.006607055664062,-0.0987701416015625,5041.231280125,1.274316397552761,1.365263785404699,-0.9832857157726475,-1.183579802513123,3.727195978164673,0.1957513093948364,0.3939750790596008,0.5422040224075317,-0.03377222269773483,XArbitraryZVertical,-0.6252634478539274,0.2290926113183231,0.1675591175982934,0.7269705407355549,0.5426243543624878,0.8323230743408203,-0.113124392926693,0,0,0,-1,-1,5038.563056125,unknown,2,2022-06-30T09:52:40.624+02:00,2022-06-30T08:20:05.567+02:00,1418,1.388076,0,0,1121.329,0,0,2022-06-30T09:50:28.075+02:00
2022-06-30T09:52:43.315+02:00,5041.251183125,0.730438232421875,0.7313232421875,-0.0250244140625,5041.241232125,1.288635162499143,1.412193914370623,-0.9827920649830463,-0.4342296421527863,3.334439992904663,0.1967526525259018,0.3495228886604309,0.3224917054176331,-0.03803252428770065,XArbitraryZVertical,-0.6306814865684807,0.2417365422282025,0.1581693498713823,0.7202684851978045,0.5477393865585327,0.8320493698120117,-0.08760861307382584,0,0,0,-1,-1,5038.563056125,unknown,2,2022-06-30T09:52:40.624+02:00,2022-06-30T08:20:05.567+02:00,1418,1.388076,0,0,1121.329,0,0,2022-06-30T09:50:28.075+02:00
2022-06-30T09:52:43.325+02:00,5041.261135125001,0.650634765625,0.51202392578125,0.028961181640625,5041.251183125,1.294374839328987,1.448635611386668,-0.9816113093892608,-0.2363286912441254,3.044723510742188,0.1258484572172165,0.2320721745491028,0.03092634677886963,0.005015432834625244,XArbitraryZVertical,-0.6339874158053286,0.2533829996387938,0.1491066839711905,0.7152792017136497,0.5515426993370056,0.831393837928772,-0.06771402060985565,0,0,0,-1,-1,5038.563056125,unknown,2,2022-06-30T09:52:40.624+02:00,2022-06-30T08:20:05.567+02:00,1418,1.388076,0,0,1121.329,0,0,2022-06-30T09:50:28.075+02:00
2022-06-30T09:52:43.335+02:00,5041.271086125001,0.606048583984375,0.356201171875,0.108917236328125,5041.261135125001,1.300759887638946,1.483166297412814,-0.9814678871979894,-0.5196722745895386,2.840362071990967,-0.01544635277241468,0.1319525837898254,-0.2169798016548157,0.05010730028152466,XArbitraryZVertical,-0.6372888888308433,0.2637072466581847,0.1404565805811564,0.7103473588498486,0.553670346736908,0.8313141465187073,-0.04864272102713585,0,0,0,-1,-1,5038.563056125,unknown,2,2022-06-30T09:52:40.624+02:00,2022-06-30T08:20:05.567+02:00,1418,1.388076,0,0,1121.329,0,0,2022-06-30T09:50:28.075+02:00
2022-06-30T09:52:43.345+02:00,5041.281038125,0.571929931640625,0.32220458984375,0.1950531005859375,5041.271086125001,1.314253224114658,1.521656913850687,-0.9829264671089272,-1.009901762008667,2.634362459182739,-0.1739247739315033,0.0705910325050354,-0.4080056548118591,0.09465432167053223,XArbitraryZVertical,-0.6419542078773658,0.2725328724294471,0.1324176824216311,0.704333931967417,0.5539204478263855,0.8321239352226257,-0.02724125608801842,0,0,0,-1,-1,5038.563056125,unknown,2,2022-06-30T09:52:40.624+02:00,2022-06-30T08:20:05.567+02:00,1418,1.388076,0,0,1121.329,0,0,2022-06-30T09:50:28.075+02:00
2022-06-30T09:52:43.355+02:00,5041.290989125,0.5607147216796875,0.441192626953125,0.321807861328125,5041.281038125,1.336523264797346,1.565086914605181,-0.9862137282394088,-1.468916416168213,2.36435604095459,-0.4230642914772034,0.03574270009994507,-0.5148504972457886,0.151313304901123,XArbitraryZVertical,-0.6483090890966423,0.279499480502566,0.1250721099472356,0.6970885467952802,0.5518425703048706,0.8339424729347229,-0.003150730859488249,0,0,0,-1,-1,5038.563056125,unknown,2,2022-06-30T09:52:40.624+02:00,2022-06-30T08:20:05.567+02:00,1418,1.388076,0,0,1121.329,0,0,2022-06-30T09:50:28.075+02:00
2022-06-30T09:52:43.365+02:00,5041.300941125,0.5810394287109375,0.642425537109375,0.438934326171875,5041.290989125,1.366036241258946,1.611681524227033,-0.9916282467526725,-1.745272040367126,2.043152570724487,-0.7122310400009155,0.01565968990325928,-0.4721261858940125,0.234204888343811,XArbitraryZVertical,-0.6560337285429846,0.2842629707567757,0.1182160270390044,0.6890858740916194,0.5468705892562866,0.8369182944297791,0.02237137965857983,0,0,0,-1,-1,5038.563056125,unknown,2,2022-06-30T09:52:40.624+02:00,2022-06-30T08:20:05.567+02:00,1418,1.388076,0,0,1121.329,0,0,2022-06-30T09:50:28.075+02:00
2022-06-30T09:52:43.374+02:00,5041.310892125,0.6293487548828125,0.8063507080078125,0.5467681884765625,5041.300941125,1.399257707288738,1.658141921892653,-0.9987890114401312,-1.750959753990173,1.68938159942627,-0.9306115508079529,0.02666032314300537,-0.3008530735969543,0.3366889953613281,XArbitraryZVertical,-0.6643127289231179,0.2868789912164665,0.1117462617896198,0.6811034459828953,0.5392574667930603,0.8408160805702209,0.04722191393375397,0,0,0,-1,-1,5038.563056125,unknown,2,2022-06-30T09:52:40.624+02:00,2022-06-30T08:20:05.567+02:00,1418,1.388076,0,0,1121.329,0,0,2022-06-30T09:50:28.075+02:00
2022-06-30T09:52:43.384+02:00,5041.320844125,0.66912841796875,0.8800201416015625,0.6236572265625,5041.310892125,1.431234949254613,1.700064893518224,-1.006750490165669,-1.498396396636963,1.311431169509888,-1.010643005371094,0.07370179891586304,-0.1110137701034546,0.4227524995803833,XArbitraryZVertical,-0.6720331660767354,0.2878009612767309,0.1057684531722331,0.6740587077849547,0.5301492810249329,0.8450990915298462,0.06891594082117081,0,0,0,-1,-1,5038.563056125,unknown,2,2022-06-30T09:52:40.624+02:00,2022-06-30T08:20:05.567+02:00,1418,1.388076,0,0,1121.329,0,0,2022-06-30T09:50:28.075+02:00
2022-06-30T09:52:43.394+02:00,5041.330795125,0.66607666015625,0.8395538330078125,0.6732330322265625,5041.320844125,1.458647974982403,1.73400602564583,-1.014825702520614,-1.157410144805908,0.8340528607368469,-1.013251066207886,0.131161630153656,0.008628726005554199,0.5079032182693481,XArbitraryZVertical,-0.6784802932220182,0.2873012317695204,0.1006594039625001,0.6685733739061569,0.5207547545433044,0.849388599395752,0.08575501292943954,0,0,0,-1,-1,5038.563056125,unknown,2,2022-06-30T09:52:40.624+02:00,2022-06-30T08:20:05.567+02:00,1418,1.388076,0,0,1121.329,0,0,2022-06-30T09:50:28.075+02:00
2022-06-30T09:52:43.404+02:00,5041.340747125,0.624237060546875,0.7619476318359375,0.6834869384765625,5041.330795125,1.480838482615028,1.758634573329869,-1.023251741198118,-0.8808203935623169,0.3134250342845917,-1.065678477287292,0.1627588868141174,0.0148928165435791,0.5511478185653687,XArbitraryZVertical,-0.6835687148131911,0.2852023211775887,0.09669386233072266,0.6648636580521858,0.5114350914955139,0.8538053631782532,0.09721310436725616,0,0,0,-1,-1,5038.563056125,unknown,2,2022-06-30T09:52:40.624+02:00,2022-06-30T08:20:05.567+02:00,1418,1.388076,0,0,1121.329,0,0,2022-06-30T09:50:28.075+02:00
2022-06-30T09:52:43.415+02:00,5041.350698125,0.556610107421875,0.695465087890625,0.68212890625,5041.340747125,1.500849608109465,1.7763065792113,-1.03269634508918,-0.8125030994415283,-0.1980845779180527,-1.202073097229004,0.1468386054039001,-0.05724650621414185,0.5798627138137817,XArbitraryZVertical,-0.6879432134142477,0.2811170133751018,0.09393994171459846,0.662482174619878,0.5017207264900208,0.8586840033531189,0.1045852825045586,0,0,0,-1,-1,5038.563056125,unknown,2,2022-06-30T09:52:40.624+02:00,2022-06-30T08:20:05.567+02:00,1418,1.388076,0,0,1121.329,0,0,2022-06-30T09:50:28.075+02:00
2022-06-30T09:52:43.424+02:00,5041.360650125001,0.48858642578125,0.6748504638671875,0.71160888671875,5041.350698125,1.522744684363708,1.790952524420522,-1.043579390577195,-0.9329501390457153,-0.6378940343856812,-1.401842951774597,0.1021836400032043,-0.1402724981307983,0.5713232755661011,XArbitraryZVertical,-0.6923864781795755,0.2748422547636719,0.09229030626759226,0.6607156836466654,0.4909862875938416,0.8642106652259827,0.1098745986819267,0,0,0,-1,-1,5038.563056125,unknown,2,2022-06-30T09:52:40.624+02:00,2022-06-30T08:20:05.567+02:00,1418,1.388076,0,0,1121.329,0,0,2022-06-30T09:50:28.075+02:00
2022-06-30T09:52:43.434+02:00,5041.370601125001,0.452117919921875,0.6674652099609375,0.789794921875,5041.360650125001,1.549578659083045,1.806065182308139,-1.055817631234164,-1.125552654266357,-0.9902526140213013,-1.582988739013672,0.04230687022209167,-0.1876858472824097,0.5735464096069336,XArbitraryZVertical,-0.6974149126458218,0.2664888727652663,0.09158497240863418,0.658944876810325,0.4789484143257141,0.870303213596344,0.1148077622056007,0,0,0,-1,-1,5038.563056125,unknown,2,2022-06-30T09:52:40.624+02:00,2022-06-30T08:20:05.567+02:00,1418,1.388076,0,0,1121.329,0,0,2022-06-30T09:50:28.075+02:00
2022-06-30T09:52:43.444+02:00,5041.380553125,0.4565582275390625,0.6646575927734375,0.8756866455078125,5041.370601125001,1.581334230502771,1.822410476336446,-1.068922987464761,-1.244571447372437,-1.302499294281006,-1.710018038749695,-0.002511590719223022,-0.2068218588829041,0.6307632923126221,XArbitraryZVertical,-0.7029391903712715,0.256440563326811,0.09171246263453099,0.6570415333372325,0.4659207761287689,0.8766828775405884,0.1197705343365669,0,0,0,-1,-1,5038.563056125,unknown,2,2022-06-30T09:52:40.624+02:00,2022-06-30T08:20:05.567+02:00,1418,1.388076,0,0,1121.329,0,0,2022-06-30T09:50:28.075+02:00
2022-06-30T09:52:43.454+02:00,5041.390504125,0.47357177734375,0.6382293701171875,0.9967498779296875,5041.380553125,1.61627487696983,1.838488864008889,-1.082825390997503,-1.250554800033569,-1.652148604393005,-1.840954542160034,-0.002628117799758911,-0.2155764698982239,0.7047861814498901,XArbitraryZVertical,-0.708571750724313,0.2448082115806449,0.09264641750151341,0.6552950907071385,0.4521365165710449,0.8832859992980957,0.1240099743008614,0,0,0,-1,-1,5038.563056125,unknown,2,2022-06-30T09:52:40.624+02:00,2022-06-30T08:20:05.567+02:00,1418,1.388076,0,0,1121.329,0,0,2022-06-30T09:50:28.075+02:00
2022-06-30T09:52:43.464+02:00,5041.400456125,0.484130859375,0.5955963134765625,1.10137939453125,5041.390504125,1.652271766552089,1.851867963347562,-1.098117874340014,-1.125934958457947,-2.089175701141357,-2.023299932479858,0.02810770273208618,-0.2364975214004517,0.8074142932891846,XArbitraryZVertical,-0.7138783986429758,0.2313452488576068,0.09436042150141799,0.6541812508446703,0.4374071955680847,0.8903520703315735,0.1262859851121902,0,0,0,-1,-1,5038.563056125,unknown,2,2022-06-30T09:52:40.624+02:00,2022-06-30T08:20:05.567+02:00,1418,1.388076,0,0,1121.329,0,0,2022-06-30T09:50:28.075+02:00
2022-06-30T09:52:43.474+02:00,5041.410407125,0.4557037353515625,0.552520751953125,1.102890014648438,5041.400456125,1.688311696015844,1.860434507156554,-1.115555116192254,-1.0008145570755,-2.686334609985352,-2.245657920837402,0.05927079916000366,-0.2786630988121033,0.9325456619262695,XArbitraryZVertical,-0.7185782151698332,0.2154826756932172,0.09705912085454427,0.6540583177717486,0.4213656187057495,0.8981549739837646,0.1255748718976974,0,0,0,-1,-1,5038.563056125,unknown,2,2022-06-30T09:52:40.624+02:00,2022-06-30T08:20:05.567+02:00,1418,1.388076,0,0,1121.329,0,0,2022-06-30T09:50:28.075+02:00
2022-06-30T09:52:43.484+02:00,5041.420359125001,0.357757568359375,0.54986572265625,1.04541015625,5041.410407125,1.724837304722724,1.863026542619816,-1.135543928705877,-0.8743076920509338,-3.435048818588257,-2.512535095214844,0.07539239525794983,-0.3358557224273682,0.9930015802383423,XArbitraryZVertical,-0.7225654691930876,0.1965552338944467,0.1012213871145141,0.6549958982473649,0.4037638902664185,0.9067636728286743,0.1214696317911148,0,0,0,-1,-1,5038.563056125,unknown,2,2022-06-30T09:52:40.624+02:00,2022-06-30T08:20:05.567+02:00,1418,1.388076,0,0,1121.329,0,0,2022-06-30T09:50:28.075+02:00
2022-06-30T09:52:43.494+02:00,5041.430310125001,0.2462158203125,0.6083526611328125,0.982177734375,5041.420359125001,1.762141800166109,1.858854870940135,-1.158691847874052,-0.7430005669593811,-4.235995292663574,-2.812272787094116,0.02847033739089966,-0.3729904294013977,0.9593150615692139,XArbitraryZVertical,-0.7256867958680658,0.1739927448232758,0.1070789855865442,0.6569927042085105,0.3840355277061462,0.9162799119949341,0.1137896031141281,0,0,0,-1,-1,5038.563056125,unknown,2,2022-06-30T09:52:40.624+02:00,2022-06-30T08:20:05.567+02:00,1418,1.388076,0,0,1121.329,0,0,2022-06-30T09:50:28.075+02:00
2022-06-30T09:52:43.504+02:00,5041.440262125,0.16668701171875,0.729949951171875,0.8829803466796875,5041.430310125001,1.799028594465055,1.846848374005891,-1.185024819501174,-0.5471549034118652,-4.995082855224609,-3.052619695663452,-0.06188783049583435,-0.3572181463241577,0.9180117845535278,XArbitraryZVertical,-0.7276112644451146,0.1478524104920426,0.1146689527358451,0.6599791807348003,0.3620278835296631,0.9265084266662598,0.102556973695755,0,0,0,-1,-1,5038.563056125,unknown,2,2022-06-30T09:52:40.624+02:00,2022-06-30T08:20:05.567+02:00,1418,1.388076,0,0,1121.329,0,0,2022-06-30T09:50:28.075+02:00
2022-06-30T09:52:43.514+02:00,5041.450214125,0.1410369873046875,0.8787384033203125,0.7857208251953125,5041.440262125,1.833067462621922,1.825586091996876,-1.214040215886047,-0.2998103201389313,-5.641269683837891,-3.203591108322144,-0.1377516686916351,-0.2719343900680542,0.8502709865570068,XArbitraryZVertical,-0.7279583622570079,0.1186918536594436,0.1238980299486965,0.6638058300254901,0.3379619121551514,0.9370346069335938,0.08802226930856705,0,0,0,-1,-1,5038.563056125,unknown,2,2022-06-30T09:52:40.624+02:00,2022-06-30T08:20:05.567+02:00,1418,1.388076,0,0,1121.329,0,0,2022-06-30T09:50:28.075+02:00
2022-06-30T09:52:43.524+02:00,5041.460165125,0.1322784423828125,0.98809814453125,0.835601806640625,5041.450214125,1.860637668419437,1.792557939372549,-1.245055593865286,-0.05493666604161263,-6.204678535461426,-3.271846294403076,-0.1636152863502502,-0.1472581028938293,0.7518643140792847,XArbitraryZVertical,-0.7263556119605967,0.08718082168328185,0.1346742092520042,0.6683337640544044,0.3121744990348816,0.9474139213562012,0.07038594037294388,0,0,0,-1,-1,5038.563056125,unknown,2,2022-06-30T09:52:40.624+02:00,2022-06-30T08:20:05.567+02:00,1418,1.388076,0,0,1121.329,0,0,2022-06-30T09:50:28.075+02:00
2022-06-30T09:52:43.534+02:00,5041.470117125,0.1458587646484375,0.8880157470703125,0.9413299560546875,5041.460165125,1.884311649107424,1.751112084895643,-1.276887087085849,-0.1163153350353241,-6.639836311340332,-3.266351461410522,-0.148235559463501,-0.006694316864013672,0.7421129941940308,XArbitraryZVertical,-0.7232409949427123,0.05384779133465415,0.146950079954675,0.6726281985172022,0.2849997282028198,0.9571186900138855,0.0519542433321476,0,0,0,-1,-1,5038.563056125,unknown,2,2022-06-30T09:52:40.624+02:00,2022-06-30T08:20:05.567+02:00,1418,1.388076,0,0,1121.329,0,0,2022-06-30T09:50:28.075+02:00
2022-06-30T09:52:43.544+02:00,5041.480068125,0.1644744873046875,0.623291015625,0.9533233642578125,5041.470117125,1.910892637143438,1.708759027228141,-1.308294949488927,-0.3308920860290527,-7.014016628265381,-3.181884288787842,-0.12336465716362,0.0003969073295593262,0.8595608472824097,XArbitraryZVertical,-0.7193579108726401,0.01918104080357446,0.160640627735828,0.6755374440400997,0.2570312321186066,0.9657438993453979,0.03568743169307709,0,0,0,-1,-1,5038.563056125,unknown,2,2022-06-30T09:52:40.624+02:00,2022-06-30T08:20:05.567+02:00,1418,1.388076,0,0,1121.329,0,0,2022-06-30T09:50:28.075+02:00
2022-06-30T09:52:43.554+02:00,5041.490020125,0.1237335205078125,0.15234375,2.695892333984375,5041.480068125,1.941809871575201,1.666428095928273,-1.339301661840389,-0.4245607852935791,-7.551568984985352,-3.19439697265625,-0.06868618726730347,-0.2086607813835144,0.9319802522659302,XArbitraryZVertical,-0.7146092178953533,-0.01695507005025494,0.1758557107474065,0.6768463388850582,0.2283842712640762,0.9733245372772217,0.0219076182693243,0,0,0,-1,-1,5038.563056125,unknown,2,2022-06-30T09:52:40.624+02:00,2022-06-30T08:20:05.567+02:00,1418,1.388076,0,0,1121.329,0,0,2022-06-30T09:50:28.075+02:00
2022-06-30T09:52:43.564+02:00,5041.499971125,-0.770843505859375,2.300399780273438,-7.441268920898438,5041.490020125,1.980641118803239,1.630004902288942,-1.369370078480752,-1.438413262367249,-7.277400016784668,-2.689100980758667,-0.0562843531370163,-0.4863434433937073,1.092744946479797,XArbitraryZVertical,-0.7092605923010877,-0.05356115670823917,0.1918579939093825,0.6762182811075573,0.1997165679931641,0.9797822237014771,0.01183877047151327,0,0,0,-1,-1,5038.563056125,unknown,2,2022-06-30T09:52:40.624+02:00,2022-06-30T08:20:05.567+02:00,1418,1.388076,0,0,1121.329,0,0,2022-06-30T09:50:28.075+02:00
2022-06-30T09:52:43.573+02:00,5041.509923125001,-6.03607177734375,5.19708251953125,-7.065948486328125,5041.499971125,1.788338340990552,1.361257452369546,-1.400752628170272,5.437533378601074,-6.856403827667236,-3.829195976257324,-0.05633275210857391,-1.310696363449097,1.929045081138611,XArbitraryZVertical,-0.6887901753425733,-0.08926291734275534,0.2093564155543929,0.6883096464227071,0.1655242294073105,0.9855773448944092,-0.03520045056939125,0,0,0,-1,-1,5038.563056125,unknown,2,2022-06-30T09:52:40.624+02:00,2022-06-30T08:20:05.567+02:00,1418,1.388076,0,0,1121.329,0,0,2022-06-30T09:50:28.075+02:00
2022-06-30T09:52:43.583+02:00,5041.519874125001,-2.852920532226562,1.10284423828125,-4.928207397460938,5041.509923125001,1.711897843557769,1.270622911745007,-1.421132631869183,-0.6940023899078369,3.371919393539429,-0.780184268951416,-3.664336204528809,5.479211807250977,-9.782556533813477,XArbitraryZVertical,-0.6838339823731822,-0.1016203621521354,0.2070164623863269,0.6922346121041585,0.1424395143985748,0.988821268081665,-0.04408877342939377,0,0,0,-1,-1,5038.563056125,unknown,2,2022-06-30T09:52:40.624+02:00,2022-06-30T08:20:05.567+02:00,1418,1.388076,0,0,1121.329,0,0,2022-06-30T09:50:28.075+02:00
2022-06-30T09:52:43.593+02:00,5041.529826125,-0.362945556640625,1.929336547851562,-1.736053466796875,5041.519874125001,1.699436159176724,1.29660014500409,-1.423534901908114,0.3657985627651215,4.250513076782227,-0.0192456841468811,-5.413724899291992,0.8250018358230591,-5.846835613250732,XArbitraryZVertical,-0.6871522294971826,-0.08919968457674207,0.1929596939481493,0.6947170426952398,0.1412482857704163,0.9891766309738159,-0.03973045945167542,0,0,0,-1,-1,5038.563056125,unknown,2,2022-06-30T09:52:40.624+02:00,2022-06-30T08:20:05.567+02:00,1418,1.388076,0,0,1121.329,0,0,2022-06-30T09:50:28.075+02:00
2022-06-30T09:52:43.604+02:00,5041.539777125,-0.1775970458984375,0.9059295654296875,0.218048095703125,5041.529826125,1.739497499236405,1.370418012108982,-1.422048600789919,-1.534198641777039,2.012693643569946,0.5335420370101929,-1.226655602455139,0.8895368576049805,-3.335340023040771,XArbitraryZVertical,-0.6923469588342392,-0.0768561472281433,0.1819263346158154,0.6940112276842669,0.145234227180481,0.9889574646949768,-0.02949764207005501,0,0,0,-1,-1,5038.563056125,unknown,2,2022-06-30T09:52:40.624+02:00,2022-06-30T08:20:05.567+02:00,1418,1.388076,0,0,1121.329,0,0,2022-06-30T09:50:28.075+02:00
2022-06-30T09:52:43.613+02:00,5041.549729125,0.218994140625,0.75567626953125,1.361724853515625,5041.539777125,1.866551627110815,1.509853849359775,-1.419119679940365,-2.118310451507568,0.9637268781661987,0.5791100263595581,-0.4015638828277588,0.3582064509391785,-0.5049424171447754,XArbitraryZVertical,-0.7001659311700423,-0.07187786281324876,0.1782894261822865,0.6876148671274832,0.1508157849311829,0.9885191321372986,-0.009202483110129833,0,0,0,-1,-1,5038.563056125,unknown,2,2022-06-30T09:52:40.624+02:00,2022-06-30T08:20:05.567+02:00,1418,1.388076,0,0,1121.329,0,0,2022-06-30T09:50:28.075+02:00
2022-06-30T09:52:43.623+02:00,5041.559680125,0.69366455078125,0.6453857421875,0.4991912841796875,5041.549729125,2.051176080328435,1.707165845913849,-1.413122434859605,-3.807806015014648,2.197500467300415,0.47383713722229,-0.1542675793170929,-0.2209172248840332,0.8261415958404541,XArbitraryZVertical,-0.711410571597201,-0.06758956588684889,0.1737129307522956,0.6776064897743883,0.1555641740560532,0.9875952005386353,0.02134670130908489,0,0,0,-1,-1,5038.563056125,unknown,2,2022-06-30T09:52:40.624+02:00,2022-06-30T08:20:05.567+02:00,1418,1.388076,0,0,1121.329,0,0,2022-06-30T09:50:28.075+02:00
2022-06-30T09:52:43.633+02:00,5041.569632125001,0.85589599609375,0.46429443359375,-0.4937591552734375,5041.559680125,2.287876045725404,1.965667008136861,-1.399498899988709,-3.947381734848022,2.538957357406616,0.1316661983728409,0.3265424966812134,-0.2480901479721069,1.223304748535156,XArbitraryZVertical,-0.727316186372113,-0.06163172984641778,0.1643886852782374,0.6634675095457475,0.1573438048362732,0.9853644371032715,0.06557460874319077,0,0,0,-1,-1,5038.563056125,unknown,2,2022-06-30T09:52:40.624+02:00,2022-06-30T08:20:05.567+02:00,1418,1.388076,0,0,1121.329,0,0,2022-06-30T09:50:28.075+02:00
2022-06-30T09:52:43.643+02:00,5041.579583125001,0.550384521484375,0.5655670166015625,0.2033233642578125,5041.569632125001,2.445964132551582,2.14287800084049,-1.386395616824229,-2.296273708343506,1.570083498954773,-0.3704096078872681,0.704372227191925,-0.4496141672134399,-0.4305813312530518,XArbitraryZVertical,-0.7391391861684276,-0.05750488390241353,0.1550833148317287,0.6529285914411729,0.1541631519794464,0.983046293258667,0.09926709532737732,0,0,0,-1,-1,5038.563056125,unknown,2,2022-06-30T09:52:40.624+02:00,2022-06-30T08:20:05.567+02:00,1418,1.388076,0,0,1121.329,0,0,2022-06-30T09:50:28.075+02:00
2022-06-30T09:52:43.653+02:00,5041.589535125,0.1519317626953125,0.9356231689453125,0.0020294189453125,5041.579583125001,2.547410966045397,2.248866998360388,-1.38180358105535,-1.382872581481934,-0.3076474964618683,-1.099326133728027,0.6097465753555298,-0.5086829662322998,-0.2291169017553329,XArbitraryZVertical,-0.7452387338176204,-0.059532214865989,0.1498489681498293,0.6470089651549047,0.1463107615709305,0.9821939468383789,0.1178497076034546,0,0,0,-1,-1,5038.563056125,unknown,2,2022-06-30T09:52:40.624+02:00,2022-06-30T08:20:05.567+02:00,1418,1.388076,0,0,1121.329,0,0,2022-06-30T09:50:28.075+02:00
2022-06-30T09:52:43.669+02:00,5041.599486125,-0.2439117431640625,1.286148071289062,-0.33868408203125,5041.589535125,2.641790416160323,2.330832149138493,-1.386584980983924,-0.5765169262886047,-1.739437818527222,-1.87052857875824,0.2264727205038071,-0.2485839128494263,0.07029210031032562,XArbitraryZVertical,-0.7471820654431029,-0.06940173196658771,0.1486658592407513,0.6440503080975016,0.1327645182609558,0.983081042766571,0.1261952817440033,0,0,0,-1,-1,5038.563056125,unknown,2,2022-06-30T09:52:40.624+02:00,2022-06-30T08:20:05.567+02:00,1418,1.388076,0,0,1121.329,0,0,2022-06-30T09:50:28.075+02:00
2022-06-30T09:52:43.673+02:00,5041.609438125,-0.5824432373046875,1.559906005859375,-0.3918914794921875,5041.599486125,2.720684655511938,2.389382619370241,-1.401459900174115,0.7890104055404663,-1.918480038642883,-2.105129480361938,-0.1478320211172104,0.1373347640037537,-0.3309721052646637,XArbitraryZVertical,-0.7447316072739845,-0.08308230366969999,0.1492782319603744,0.6451264097226586,0.1151472553610802,0.9856967926025391,0.123055674135685,0,0,0,-1,-1,5038.563056125,unknown,2,2022-06-30T09:52:40.624+02:00,2022-06-30T08:20:05.567+02:00,1418,1.388076,0,0,1121.329,0,0,2022-06-30T09:50:28.075+02:00
2022-06-30T09:52:43.683+02:00,5041.619389125,-0.742218017578125,1.69757080078125,-0.4284820556640625,5041.609438125,2.75025993439792,2.403589850582826,-1.42596724450743,2.135673522949219,-0.9784744381904602,-1.876493096351624,-0.5213578343391418,0.4418811202049255,-0.4934144020080566,XArbitraryZVertical,-0.7379035899833469,-0.09425643543945605,0.1490113386965476,0.6514672414760782,0.09710204601287842,0.9895305633544922,0.1067719683051109,0,0,0,-1,-1,5038.563056125,unknown,2,2022-06-30T09:52:40.624+02:00,2022-06-30T08:20:05.567+02:00,1418,1.388076,0,0,1121.329,0,0,2022-06-30T09:50:28.075+02:00
2022-06-30T09:52:43.693+02:00,5041.629341125,-0.70367431640625,1.636947631835938,-0.5672454833984375,5041.619389125,2.714341814837451,2.364143430878167,-1.45680595538521,2.934453725814819,0.1821069717407227,-1.728787302970886,-0.7629393339157104,0.6630451083183289,-0.4733850955963135,XArbitraryZVertical,-0.7283550419366207,-0.1001602189782864,0.1458041169734137,0.661972890577804,0.07978762686252594,0.9935101270675659,0.08106627315282822,0,0,0,-1,-1,5038.563056125,unknown,2,2022-06-30T09:52:40.624+02:00,2022-06-30T08:20:05.567+02:00,1418,1.388076,0,0,1121.329,0,0,2022-06-30T09:50:28.075+02:00
2022-06-30T09:52:43.703+02:00,5041.639292125,-0.5699615478515625,1.592376708984375,-0.6845550537109375,5041.629341125,2.599623041693105,2.255041992913813,-1.490742560978808,3.243948221206665,0.7656180262565613,-1.805829882621765,-0.8024320006370544,0.6832411289215088,-0.5453600883483887,XArbitraryZVertical,-0.7174598530750255,-0.1025932852071447,0.1396647343461205,0.6746998289767591,0.06196833401918411,0.9967973828315735,0.05054804682731628,0,0,0,-1,-1,5038.563056125,unknown,2,2022-06-30T09:52:40.624+02:00,2022-06-30T08:20:05.567+02:00,1418,1.388076,0,0,1121.329,0,0,2022-06-30T09:50:28.075+02:00
2022-06-30T09:52:43.713+02:00,5041.649244125,-0.465576171875,1.606887817382812,-0.695343017578125,5041.639292125,2.320561437611495,1.984562157361004,-1.523353054978009,3.131409406661987,0.8317387104034424,-1.834699273109436,-0.6805874705314636,0.6023826003074646,-0.6492112874984741,XArbitraryZVertical,-0.7061722021176113,-0.1041887593375552,0.1322163875100211,0.6877386658616014,0.0434257984161377,0.9988747835159302,0.01906895264983177,0,0,0,-1,-1,5038.563056125,unknown,2,2022-06-30T09:52:40.624+02:00,2022-06-30T08:20:05.567+02:00,1418,1.388076,0,0,1121.329,0,0,2022-06-30T09:50:28.075+02:00
2022-06-30T09:52:43.723+02:00,5041.659195125,-0.4464874267578125,1.541656494140625,-0.6165008544921875,5041.649244125,1.551131592166418,1.223758043028442,-1.543052466735179,2.6253502368927,0.837346613407135,-1.603543162345886,-0.5338132381439209,0.6023746728897095,-0.7022026181221008,XArbitraryZVertical,-0.6957991631087025,-0.1055704583736748,0.1248628562616256,0.6993767436519299,0.02609189413487911,0.9996151924133301,-0.009436805732548237,0,0,0,-1,-1,5038.563056125,unknown,2,2022-06-30T09:52:40.624+02:00,2022-06-30T08:20:05.567+02:00,1418,1.388076,0,0,1121.329,0,0,2022-06-30T09:50:28.075+02:00
2022-06-30T09:52:43.733+02:00,5041.669147125001,-0.4835968017578125,1.385940551757812,-0.4337921142578125,5041.659195125,0.6741736636250696,0.3563469067495891,-1.536134587764903,2.039687871932983,1.037103891372681,-1.247252106666565,-0.4565479159355164,0.5852563977241516,-0.6257864236831665,XArbitraryZVertical,-0.6874290862280513,-0.1058411629538696,0.11791795612352,0.7087554297369534,0.01208946760743856,0.9993993639945984,-0.03247779980301857,0,0,0,-1,-1,5038.563056125,unknown,2,2022-06-30T09:52:40.624+02:00,2022-06-30T08:20:05.567+02:00,1418,1.388076,0,0,1121.329,0,0,2022-06-30T09:50:28.075+02:00
2022-06-30T09:52:43.743+02:00,5041.679098125001,-0.523284912109375,1.184814453125,-0.3104400634765625,5041.669147125001,0.3318891196538342,0.02619526696250599,-1.521079001356536,1.477821111679077,1.365192532539368,-1.038872122764587,-0.4654744863510132,0.4843441843986511,-0.495805025100708,XArbitraryZVertical,-0.6813515989608728,-0.104495157994544,0.1107554663751534,0.7159427892329514,0.001301718410104513,0.9987643361091614,-0.04968152195215225,0,0,0,-1,-1,5038.563056125,unknown,2,2022-06-30T09:52:40.624+02:00,2022-06-30T08:20:05.567+02:00,1418,1.388076,0,0,1121.329,0,0,2022-06-30T09:50:28.075+02:00
2022-06-30T09:52:43.753+02:00,5041.689050125,-0.5519866943359375,1.346343994140625,-0.2914581298828125,5041.679098125001,0.1608930107709786,-0.1294369370292225,-1.505976299609655,1.507128119468689,1.65032947063446,-1.104653000831604,-0.4943557679653168,0.2660923004150391,-0.2741472721099854,XArbitraryZVertical,-0.6763919277506394,-0.101873046141042,0.1025937674180716,0.7222120772143352,-0.008360696025192738,0.9978998899459839,-0.06423168629407883,0,0,0,-1,-1,5038.563056125,unknown,2,2022-06-30T09:52:40.624+02:00,2022-06-30T08:20:05.567+02:00,1418,1.388076,0,0,1121.329,0,0,2022-06-30T09:50:28.075+02:00
2022-06-30T09:52:43.763+02:00,5041.699001125,-0.5444183349609375,1.66839599609375,-0.3389434814453125,5041.689050125,0.0404117970100915,-0.2323799900413787,-1.488145111109505,1.659296751022339,1.808478236198425,-1.265071630477905,-0.5240330100059509,0.2178606390953064,-0.2279963493347168,XArbitraryZVertical,-0.6708625757811864,-0.09886531234617957,0.09326589408139353,0.7290202524656668,-0.01901243440806866,0.9965863227844238,-0.08033810555934906,0,0,0,-1,-1,5038.563056125,unknown,2,2022-06-30T09:52:40.624+02:00,2022-06-30T08:20:05.567+02:00,1418,1.388076,0,0,1121.329,0,0,2022-06-30T09:50:28.075+02:00
2022-06-30T09:52:43.773+02:00,5041.708953125,-0.523651123046875,1.9586181640625,-0.45513916015625,5041.699001125,-0.0423380607536924,-0.2959845392228419,-1.467478028888399,2.002980470657349,1.96844494342804,-1.285701036453247,-0.5217214822769165,0.5188060998916626,-0.1920604705810547,XArbitraryZVertical,-0.664500864740827,-0.09546509882198372,0.08317096979059239,0.7364832862251169,-0.03008253686130047,0.9946674108505249,-0.09865003079175949,0,0,0,-1,-1,5038.563056125,unknown,2,2022-06-30T09:52:40.624+02:00,2022-06-30T08:20:05.567+02:00,1418,1.388076,0,0,1121.329,0,0,2022-06-30T09:50:28.075+02:00
2022-06-30T09:52:43.783+02:00,5041.718904125,-0.5235595703125,2.236984252929688,-0.5186309814453125,5041.708953125,-0.08246996026475215,-0.3157009004890811,-1.44173452908995,2.669721603393555,2.079165697097778,-1.135987639427185,-0.4961879551410675,0.8220681548118591,-0.2802594900131226,XArbitraryZVertical,-0.6561442695165594,-0.09111972717174179,0.07308330605264261,0.7455406257325353,-0.03996053338050842,0.9916830658912659,-0.1223437860608101,0,0,0,-1,-1,5038.563056125,unknown,2,2022-06-30T09:52:40.624+02:00,2022-06-30T08:20:05.567+02:00,1418,1.388076,0,0,1121.329,0,0,2022-06-30T09:50:28.075+02:00
2022-06-30T09:52:43.799+02:00,5041.728856125001,-0.538818359375,2.339279174804688,-0.493194580078125,5041.718904125,-0.08741513326438421,-0.2997795167116225,-1.410295511326647,3.270636320114136,2.089801549911499,-0.8941845297813416,-0.4742141664028168,1.120808601379395,-0.3478332757949829,XArbitraryZVertical,-0.6452355238272477,-0.08560553512881643,0.06379430374865434,0.7564873937339787,-0.04719431325793266,0.9871473908424377,-0.1526856273412704,0,0,0,-1,-1,5038.563056125,unknown,2,2022-06-30T09:52:40.624+02:00,2022-06-30T08:20:05.567+02:00,1418,1.388076,0,0,1121.329,0,0,2022-06-30T09:50:28.075+02:00
2022-06-30T09:52:43.804+02:00,5041.738807125001,-0.5975341796875,2.268157958984375,-0.5072784423828125,5041.728856125001,-0.07507798436599315,-0.2671976050403678,-1.375231031347062,3.584863185882568,2.015185594558716,-0.6478406190872192,-0.4760681986808777,1.334857821464539,-0.3160232305526733,XArbitraryZVertical,-0.632460531803274,-0.07925267065428533,0.05573966913226733,0.7685087790475077,-0.05130646377801895,0.9809379577636719,-0.1874253749847412,0,0,0,-1,-1,5038.563056125,unknown,2,2022-06-30T09:52:40.624+02:00,2022-06-30T08:20:05.567+02:00,1418,1.388076,0,0,1121.329,0,0,2022-06-30T09:50:28.075+02:00
2022-06-30T09:52:43.812+02:00,5041.748759125,-0.6713409423828125,2.140289306640625,-0.5142364501953125,5041.738807125001,-0.05819132142558767,-0.2309819742228291,-1.338756689430448,3.675317525863647,1.9678955078125,-0.45407834649086,-0.5104034543037415,1.346121311187744,-0.2739166021347046,XArbitraryZVertical,-0.6187330667687534,-0.07239843357138907,0.04881068149875874,0.780733887272086,-0.05264625698328018,0.9731993675231934,-0.2238557189702988,0,0,0,-1,-1,5038.563056125,unknown,2,2022-06-30T09:52:40.624+02:00,2022-06-30T08:20:05.567+02:00,1418,1.388076,0,0,1121.329,0,0,2022-06-30T09:50:28.075+02:00
2022-06-30T09:52:43.823+02:00,5041.758710125,-0.7107696533203125,2.084335327148438,-0.51495361328125,5041.748759125,-0.04200067522416154,-0.1951536689376547,-1.302410214969739,3.613856315612793,2.11041784286499,-0.2996803820133209,-0.5852817296981812,1.236529111862183,-0.2538808882236481,XArbitraryZVertical,-0.6047560814261999,-0.06480016194080303,0.04241688688333148,0.7926359923624533,-0.05142214149236679,0.9642001390457153,-0.2601420283317566,0,0,0,-1,-1,5038.563056125,unknown,2,2022-06-30T09:52:40.624+02:00,2022-06-30T08:20:05.567+02:00,1418,1.388076,0,0,1121.329,0,0,2022-06-30T09:50:28.075+02:00
2022-06-30T09:52:43.832+02:00,5041.768662125,-0.6865386962890625,2.066650390625,-0.4982147216796875,5041.758710125,-0.02807151193779431,-0.1593306151082379,-1.267397961892761,3.445123910903931,2.418628931045532,-0.1505886614322662,-0.6501241326332092,1.147556185722351,-0.2199117839336395,XArbitraryZVertical,-0.5910934924915248,-0.05583915096277008,0.03584328415149202,0.8038692558730791,-0.04740129038691521,0.9543266892433167,-0.2949809432029724,0,0,0,-1,-1,5038.563056125,unknown,2,2022-06-30T09:52:40.624+02:00,2022-06-30T08:20:05.567+02:00,1418,1.388076,0,0,1121.329,0,0,2022-06-30T09:50:28.075+02:00
2022-06-30T09:52:43.842+02:00,5041.778613125,-0.61834716796875,2.105880737304688,-0.4841461181640625,5041.768662125,-0.01533027596225888,-0.1214540431144107,-1.233696937131238,3.397159814834595,2.752456426620483,0.003272706642746925,-0.6653875708580017,1.130500674247742,-0.1815271973609924,XArbitraryZVertical,-0.5777634352147352,-0.04507765480696561,0.02886505629764173,0.8144472450836967,-0.04007239639759064,0.9437180161476135,-0.3283148407936096,0,0,0,-1,-1,5038.563056125,unknown,2,2022-06-30T09:52:40.624+02:00,2022-06-30T08:20:05.567+02:00,1418,1.388076,0,0,1121.329,0,0,2022-06-30T09:50:28.075+02:00
2022-06-30T09:52:43.852+02:00,5041.788565125,-0.54962158203125,2.176223754882812,-0.491485595703125,5041.778613125,-0.003319723987709468,-0.08167150008491562,-1.199819872274652,3.476347208023071,2.963968276977539,0.1467739343643188,-0.6263242959976196,1.144335269927979,-0.1241106688976288,XArbitraryZVertical,-0.5641526023518353,-0.03275953701756436,0.02167923627906845,0.8247355350333908,-0.02957511320710182,0.9319738149642944,-0.3613173067569733,0,0,0,-1,-1,5038.563056125,unknown,2,2022-06-30T09:52:40.624+02:00,2022-06-30T08:20:05.567+02:00,1418,1.388076,0,0,1121.329,0,0,2022-06-30T09:50:28.075+02:00
2022-06-30T09:52:43.862+02:00,5041.798516125,-0.50445556640625,2.266860961914062,-0.517303466796875,5041.788565125,0.008250493174827298,-0.04100469374651157,-1.164156556784977,3.747610569000244,3.046576023101807,0.3061164319515228,-0.5662297606468201,1.220354080200195,-0.09090647101402283,XArbitraryZVertical,-0.5495702868235071,-0.01939213082050209,0.01471568279856246,0.8350927504288697,-0.01621385104954243,0.9184550642967224,-0.3951928913593292,0,0,0,-1,-1,5038.563056125,unknown,2,2022-06-30T09:52:40.624+02:00,2022-06-30T08:20:05.567+02:00,1418,1.388076,0,0,1121.329,0,0,2022-06-30T09:50:28.075+02:00
2022-06-30T09:52:43.872+02:00,5041.808468125,-0.484100341796875,2.324005126953125,-0.5514068603515625,5041.798516125,0.01963388844467346,-0.000246275909010108,-1.125101547901868,4.128633975982666,3.058910369873047,0.4858084321022034,-0.5240336060523987,1.319200396537781,-0.07123440504074097,XArbitraryZVertical,-0.5333187934013068,-0.00533989407423888,0.008369664613674947,0.845856174051709,-0.0001061658767866902,0.902311384677887,-0.4310851097106934,0,0,0,-1,-1,5038.563056125,unknown,2,2022-06-30T09:52:40.624+02:00,2022-06-30T08:20:05.567+02:00,1418,1.388076,0,0,1121.329,0,0,2022-06-30T09:50:28.075+02:00
2022-06-30T09:52:43.882+02:00,5041.818419125,-0.466705322265625,2.301956176757812,-0.507049560546875,5041.808468125,0.03018744565749389,0.03954171248868855,-1.081849410126297,4.536856174468994,3.03970193862915,0.6406214237213135,-0.510313093662262,1.420196294784546,-0.06926029920578003,XArbitraryZVertical,-0.5150253770470117,0.00917481400944721,0.002757054269810516,0.8571214233485022,0.01856776513159275,0.8828279972076416,-0.4693293571472168,0,0,0,-1,-1,5038.563056125,unknown,2,2022-06-30T09:52:40.624+02:00,2022-06-30T08:20:05.567+02:00,1418,1.388076,0,0,1121.329,0,0,2022-06-30T09:50:28.075+02:00
2022-06-30T09:52:43.892+02:00,5041.828371125001,-0.446624755859375,2.246917724609375,-0.4488525390625,5041.818419125,0.03891516829368975,0.07727252250208304,-1.034732123204031,4.847166538238525,3.021042346954346,0.7744378447532654,-0.5163877606391907,1.460876703262329,-0.0282588005065918,XArbitraryZVertical,-0.4947830712603255,0.02394923902307416,-0.002203449096569763,0.8686837481370888,0.03942817077040672,0.8597255945205688,-0.5092322826385498,0,0,0,-1,-1,5038.563056125,unknown,2,2022-06-30T09:52:40.624+02:00,2022-06-30T08:20:05.567+02:00,1418,1.388076,0,0,1121.329,0,0,2022-06-30T09:50:28.075+02:00
2022-06-30T09:52:43.902+02:00,5041.838322125001,-0.43798828125,2.17669677734375,-0.385467529296875,5041.828371125001,0.04582587287039747,0.1132445988523715,-0.9849510248441665,5.024353981018066,3.038911581039429,0.9208372235298157,-0.5177106857299805,1.441687822341919,0.07330328226089478,XArbitraryZVertical,-0.4730695123359711,0.03903872181987382,-0.006594225784956039,0.8801350867710331,0.0624796450138092,0.8332450389862061,-0.5493624210357666,0,0,0,-1,-1,5038.563056125,unknown,2,2022-06-30T09:52:40.624+02:00,2022-06-30T08:20:05.567+02:00,1418,1.388076,0,0,1121.329,0,0,2022-06-30T09:50:28.075+02:00
2022-06-30T09:52:43.912+02:00,5041.848274125,-0.43988037109375,2.114105224609375,-0.3222808837890625,5041.838322125001,0.05137935323014516,0.1482808555399682,-0.9334048324596174,5.165107250213623,3.09393835067749,1.062709450721741,-0.5276625156402588,1.410719752311707,0.1704340577125549,XArbitraryZVertical,-0.4502588821529829,0.0546032585597039,-0.01044067323046777,0.8911657906257771,0.08791910111904144,0.8036507964134216,-0.5885708332061768,0,0,0,-1,-1,5038.563056125,unknown,2,2022-06-30T09:52:40.624+02:00,2022-06-30T08:20:05.567+02:00,1418,1.388076,0,0,1121.329,0,0,2022-06-30T09:50:28.075+02:00
2022-06-30T09:52:43.922+02:00,5041.858225125,-0.4336090087890625,2.079757690429688,-0.22119140625,5041.848274125,0.05509189875020924,0.1822839848031695,-0.8800734997144599,5.335044860839844,3.15313458442688,1.152218818664551,-0.5539211630821228,1.370373249053955,0.2680795788764954,XArbitraryZVertical,-0.4263117832626185,0.0706304475419204,-0.01394033685215703,0.9017068176005961,0.115490049123764,0.7707856893539429,-0.6265392303466797,0,0,0,-1,-1,5038.563056125,unknown,2,2022-06-30T09:52:40.624+02:00,2022-06-30T08:20:05.567+02:00,1418,1.388076,0,0,1121.329,0,0,2022-06-30T09:50:28.075+02:00
2022-06-30T09:52:43.932+02:00,5041.868177125,-0.41729736328125,2.060791015625,-0.1750030517578125,5041.858225125,0.05645441882185349,0.2149002062711915,-0.8251255470062492,5.458046436309814,3.200747966766357,1.204727530479431,-0.5830678939819336,1.36020028591156,0.3919385671615601,XArbitraryZVertical,-0.401259941974513,0.08695501949479341,-0.01727672801450967,0.9116638546202352,0.1446825712919235,0.7346329689025879,-0.6628585457801819,0,0,0,-1,-1,5038.563056125,unknown,2,2022-06-30T09:52:40.624+02:00,2022-06-30T08:20:05.567+02:00,1418,1.388076,0,0,1121.329,0,0,2022-06-30T09:50:28.075+02:00
2022-06-30T09:52:43.942+02:00,5041.878128125,-0.3892364501953125,2.050460815429688,-0.1167755126953125,5041.868177125,0.05540118824271865,0.2462137443545979,-0.7685133619953857,5.647080421447754,3.241621971130371,1.259946703910828,-0.6025232076644897,1.371033668518066,0.5048037171363831,XArbitraryZVertical,-0.3750434044064875,0.103493633648144,-0.02053196253630668,0.9209831895980426,0.1752310395240784,0.6950671672821045,-0.6972630023956299,0,0,0,-1,-1,5038.563056125,unknown,2,2022-06-30T09:52:40.624+02:00,2022-06-30T08:20:05.567+02:00,1418,1.388076,0,0,1121.329,0,0,2022-06-30T09:50:28.075+02:00
2022-06-30T09:52:43.952+02:00,5041.888080125001,-0.36090087890625,1.963653564453125,-0.0702056884765625,5041.878128125,0.05232900324061338,0.2765013338744174,-0.7102380381373121,5.781554222106934,3.26028037071228,1.328778266906738,-0.6106403470039368,1.409493684768677,0.5792301297187805,XArbitraryZVertical,-0.3476468908775671,0.1201581555410928,-0.023605511993003,0.9295947971893549,0.2069840282201767,0.6520142555236816,-0.7294073104858398,0,0,0,-1,-1,5038.563056125,unknown,2,2022-06-30T09:52:40.624+02:00,2022-06-30T08:20:05.567+02:00,1418,1.388076,0,0,1121.329,0,0,2022-06-30T09:50:28.075+02:00
2022-06-30T09:52:43.962+02:00,5041.898031125001,-0.332061767578125,1.854751586914062,-0.0556488037109375,5041.888080125001,0.04726312092450526,0.3057500729507385,-0.6507706466815715,5.881467819213867,3.257324695587158,1.339555382728577,-0.6138622760772705,1.40947413444519,0.6705979108810425,XArbitraryZVertical,-0.3192669047188713,0.1367838652171618,-0.02653807488467242,0.937365814528578,0.2394875735044479,0.6057997345924377,-0.7587176561355591,0,0,0,-1,-1,5038.563056125,unknown,2,2022-06-30T09:52:40.624+02:00,2022-06-30T08:20:05.567+02:00,1418,1.388076,0,0,1121.329,0,0,2022-06-30T09:50:28.075+02:00
2022-06-30T09:52:43.971+02:00,5041.907983125,-0.295440673828125,1.754486083984375,-0.0292816162109375,5041.898031125001,0.0401986359208889,0.3340225719794804,-0.5910960137170552,5.855903148651123,3.256495475769043,1.343975186347961,-0.6212350130081177,1.351404547691345,0.7249753475189209,XArbitraryZVertical,-0.2903496015143579,0.1532239194952617,-0.02944973264067221,0.9441146141815823,0.2722204327583313,0.557271420955658,-0.7844390869140625,0,0,0,-1,-1,5038.563056125,unknown,2,2022-06-30T09:52:40.624+02:00,2022-06-30T08:20:05.567+02:00,1418,1.388076,0,0,1121.329,0,0,2022-06-30T09:50:28.075+02:00
2022-06-30T09:52:43.981+02:00,5041.917934125,-0.263641357421875,1.700241088867188,-0.014312744140625,5041.907983125,0.03215247919831357,0.36228128629245,-0.5319519007249285,5.775642871856689,3.295795679092407,1.438692450523376,-0.6196449995040894,1.2938392162323,0.7592170834541321,XArbitraryZVertical,-0.2613112440779087,0.1696380784327982,-0.03209041174735057,0.9496892891919103,0.3054357469081879,0.5072165131568909,-0.8058786988258362,0,0,0,-1,-1,5038.563056125,unknown,2,2022-06-30T09:52:40.624+02:00,2022-06-30T08:20:05.567+02:00,1418,1.388076,0,0,1121.329,0,0,2022-06-30T09:50:28.075+02:00
2022-06-30T09:52:43.991+02:00,5041.927886125,-0.239959716796875,1.659469604492188,-0.008148193359375,5041.917934125,0.02431676888434319,0.3915899887843755,-0.473559744382661,5.633798599243164,3.353360652923584,1.597221374511719,-0.6175200343132019,1.265515565872192,0.8047617673873901,XArbitraryZVertical,-0.2323739358460112,0.1863067744408841,-0.03403902519536372,0.954009236996572,0.3396572172641754,0.4560571610927582,-0.8225842714309692,0,0,0,-1,-1,5038.563056125,unknown,2,2022-06-30T09:52:40.624+02:00,2022-06-30T08:20:05.567+02:00,1418,1.388076,0,0,1121.329,0,0,2022-06-30T09:50:28.075+02:00
2022-06-30T09:52:44.001+02:00,5041.937837125,-0.2176513671875,1.584579467773438,0.011688232421875,5041.927886125,0.01709183560773062,0.4218778891392287,-0.416322610367469,5.464623928070068,3.361788511276245,1.750038146972656,-0.625337541103363,1.279834508895874,0.823330283164978,XArbitraryZVertical,-0.2038238494761804,0.2031237612576769,-0.03509276312205148,0.957060649777064,0.374498039484024,0.4043999314308167,-0.8343931436538696,0,0,0,-1,-1,5038.563056125,unknown,2,2022-06-30T09:52:40.624+02:00,2022-06-30T08:20:05.567+02:00,1418,1.388076,0,0,1121.329,0,0,2022-06-30T09:50:28.075+02:00
2022-06-30T09:52:44.011+02:00,5041.947789125,-0.1953887939453125,1.5201416015625,0.062896728515625,5041.937837125,0.01007380341075007,0.4525703702481603,-0.3596614737402233,5.39692211151123,3.345479488372803,1.888560652732849,-0.6371442675590515,1.269044637680054,0.8379992246627808,XArbitraryZVertical,-0.1754128440617648,0.2198602065135545,-0.03529969940298523,0.9589816265817179,0.4092997610569,0.351957380771637,-0.8417836427688599,0,0,0,-1,-1,5038.563056125,unknown,2,2022-06-30T09:52:40.624+02:00,2022-06-30T08:20:05.567+02:00,1418,1.388076,0,0,1121.329,0,0,2022-06-30T09:50:28.075+02:00
2022-06-30T09:52:44.021+02:00,5041.957740125,-0.1712188720703125,1.430511474609375,0.105621337890625,5041.947789125,0.003053915030429396,0.4835033449341336,-0.3033736054740533,5.308779716491699,3.336368560791016,2.025538206100464,-0.6512504816055298,1.257532715797424,0.8810577392578125,XArbitraryZVertical,-0.1470728299079338,0.2364304961675805,-0.03470971362548743,0.9598257469361227,0.4436544477939606,0.2987414598464966,-0.8449404239654541,0,0,0,-1,-1,5038.563056125,unknown,2,2022-06-30T09:52:40.624+02:00,2022-06-30T08:20:05.567+02:00,1418,1.388076,0,0,1121.329,0,0,2022-06-30T09:50:28.075+02:00
2022-06-30T09:52:44.031+02:00,5041.967692125,-0.1465606689453125,1.384841918945312,0.1361846923828125,5041.957740125,-0.004266821499403418,0.514554671774012,-0.247048766374522,5.318862915039062,3.310060501098633,2.145336151123047,-0.6608598828315735,1.228890776634216,0.9283100962638855,XArbitraryZVertical,-0.1186162085558875,0.2527633241515437,-0.03339811811513812,0.9596486143479539,0.477204829454422,0.2445434033870697,-0.8440818190574646,0,0,0,-1,-1,5038.563056125,unknown,2,2022-06-30T09:52:40.624+02:00,2022-06-30T08:20:05.567+02:00,1418,1.388076,0,0,1121.329,0,0,2022-06-30T09:50:28.075+02:00
2022-06-30T09:52:44.041+02:00,5041.977643125,-0.1274566650390625,1.333236694335938,0.131256103515625,5041.967692125,-0.01243859063387423,0.5453479092530734,-0.190159597530935,5.358311653137207,3.232983827590942,2.253360986709595,-0.6677517294883728,1.21459436416626,0.9634368419647217,XArbitraryZVertical,-0.08976000512402693,0.268654620340939,-0.03152907921863595,0.9585268637727333,0.5093652606010437,0.1890156120061874,-0.839535653591156,0,0,0,-1,-1,5038.563056125,unknown,2,2022-06-30T09:52:40.624+02:00,2022-06-30T08:20:05.567+02:00,1418,1.388076,0,0,1121.329,0,0,2022-06-30T09:50:28.075+02:00
2022-06-30T09:52:44.051+02:00,5041.987595125001,-0.1217193603515625,1.26336669921875,0.1457977294921875,5041.977643125,-0.02179537380294239,0.5754309839223597,-0.1322751306960619,5.491854190826416,3.118432760238647,2.358440160751343,-0.6756427884101868,1.230658769607544,0.9680424332618713,XArbitraryZVertical,-0.06028343581786726,0.2838157567765611,-0.02917923760084199,0.9565370793762992,0.5394425392150879,0.1318897306919098,-0.8316290378570557,0,0,0,-1,-1,5038.563056125,unknown,2,2022-06-30T09:52:40.624+02:00,2022-06-30T08:20:05.567+02:00,1418,1.388076,0,0,1121.329,0,0,2022-06-30T09:50:28.075+02:00
2022-06-30T09:52:44.061+02:00,5041.997546125001,-0.1201629638671875,1.163894653320312,0.1883087158203125,5041.987595125001,-0.03283483264747796,0.6046369908979012,-0.07290338573325615,5.648032665252686,2.992962837219238,2.446047067642212,-0.6906262040138245,1.229666471481323,0.9522520899772644,XArbitraryZVertical,-0.02990160658432636,0.2980676225947783,-0.02651080644157038,0.953707914574666,0.5669534802436829,0.07283882051706314,-0.8205231428146362,0,0,0,-1,-1,5038.563056125,unknown,2,2022-06-30T09:52:40.624+02:00,2022-06-30T08:20:05.567+02:00,1418,1.388076,0,0,1121.329,0,0,2022-06-30T09:50:28.075+02:00
2022-06-30T09:52:44.071+02:00,5042.007498125,-0.123321533203125,1.050765991210938,0.22100830078125,5041.997546125001,-0.04581121741284027,0.6334483070856237,-0.0121558620697469,5.797879219055176,2.918820381164551,2.515612840652466,-0.7123064994812012,1.204427480697632,0.9710315465927124,XArbitraryZVertical,0.001359247913490574,0.3115001340823911,-0.02365649027034642,0.9499507239010287,0.5918838381767273,0.01215556263923645,-0.8059316277503967,0,0,0,-1,-1,5038.563056125,unknown,2,2022-06-30T09:52:40.624+02:00,2022-06-30T08:20:05.567+02:00,1418,1.388076,0,0,1121.329,0,0,2022-06-30T09:50:28.075+02:00
2022-06-30T09:52:44.081+02:00,5042.017449166667,-0.12750244140625,0.904296875,0.2198944091796875,5042.007498125,-0.06055444526790578,0.6625124609603815,0.04916753690584053,5.800753593444824,2.876153469085693,2.558881759643555,-0.7361675500869751,1.159315943717957,0.9962060451507568,XArbitraryZVertical,0.03307688002750898,0.3242802268339497,-0.02062722317152281,0.9451576219254337,0.6143563985824585,-0.04914772883057594,-0.7874965071678162,0,0,0,-1,-1,5038.563056125,unknown,2,2022-06-30T09:52:40.624+02:00,2022-06-30T08:20:05.567+02:00,1418,1.388076,0,0,1121.329,0,0,2022-06-30T09:50:28.075+02:00
2022-06-30T09:52:44.091+02:00,5042.027401166667,-0.12200927734375,0.7492523193359375,0.242767333984375,5042.017449166667,-0.07664635233809351,0.6922571824634656,0.1099328685949378,5.731532096862793,2.855825901031494,2.583778381347656,-0.7597288489341736,1.089905381202698,0.9870992302894592,XArbitraryZVertical,0.06462121912435916,0.33651736868792,-0.0173623357016603,0.939296964794272,0.6344234347343445,-0.1097115725278854,-0.7651603221893311,0,0,0,-1,-1,5038.563056125,unknown,2,2022-06-30T09:52:40.624+02:00,2022-06-30T08:20:05.567+02:00,1418,1.388076,0,0,1121.329,0,0,2022-06-30T09:50:28.075+02:00
2022-06-30T09:52:44.101+02:00,5042.037352166667,-0.105682373046875,0.5861968994140625,0.27178955078125,5042.027401166667,-0.09369338089713258,0.7230558067831584,0.1694792717670158,5.556527137756348,2.867338180541992,2.617141008377075,-0.7794422507286072,0.994382917881012,0.9680028557777405,XArbitraryZVertical,0.09558452745714556,0.348340585182735,-0.01374117627196075,0.9323806260681581,0.6521989107131958,-0.1686691045761108,-0.7390448451042175,0,0,0,-1,-1,5038.563056125,unknown,2,2022-06-30T09:52:40.624+02:00,2022-06-30T08:20:05.567+02:00,1418,1.388076,0,0,1121.329,0,0,2022-06-30T09:50:28.075+02:00
2022-06-30T09:52:44.111+02:00,5042.047304166667,-0.08642578125,0.4323883056640625,0.269622802734375,5042.037352166667,-0.1110377375056863,0.7551483025470463,0.227122381901856,5.305605888366699,2.904792308807373,2.656077861785889,-0.7817169427871704,0.893921434879303,0.968624472618103,XArbitraryZVertical,0.1254987654195407,0.359882484192027,-0.009537536539739867,0.9244693657663631,0.6677945852279663,-0.2251747399568558,-0.7094693183898926,0,0,0,-1,-1,5038.563056125,unknown,2,2022-06-30T09:52:40.624+02:00,2022-06-30T08:20:05.567+02:00,1418,1.388076,0,0,1121.329,0,0,2022-06-30T09:50:28.075+02:00
2022-06-30T09:52:44.121+02:00,5042.057255166667,-0.0567474365234375,0.3127288818359375,0.29998779296875,5042.047304166667,-0.1285996851834363,0.7885862596053476,0.2826215205092457,5.0732102394104,2.926765441894531,2.668994188308716,-0.7785822749137878,0.7844737768173218,0.9507657289505005,XArbitraryZVertical,0.1542033250867703,0.3711851031633885,-0.004740749844301968,0.9156531284037654,0.6812157034873962,-0.2788741290569305,-0.6768859028816223,0,0,0,-1,-1,5038.563056125,unknown,2,2022-06-30T09:52:40.624+02:00,2022-06-30T08:20:05.567+02:00,1418,1.388076,0,0,1121.329,0,0,2022-06-30T09:50:28.075+02:00
2022-06-30T09:52:44.131+02:00,5042.067207166667,-0.018341064453125,0.2301483154296875,0.342620849609375,5042.057255166667,-0.1467348417062279,0.8232983488223663,0.3360980125953265,4.879237651824951,2.95121693611145,2.67751407623291,-0.7659055590629578,0.6974203586578369,0.9192051291465759,XArbitraryZVertical,0.1817906843964062,0.3821873380118812,0.0005120788976758868,0.9060269695492447,0.6923578977584839,-0.3298059403896332,-0.6417699456214905,0,0,0,-1,-1,5038.563056125,unknown,2,2022-06-30T09:52:40.624+02:00,2022-06-30T08:20:05.567+02:00,1418,1.388076,0,0,1121.329,0,0,2022-06-30T09:50:28.075+02:00
2022-06-30T09:52:44.141+02:00,5042.077158166667,0.021820068359375,0.1861724853515625,0.360076904296875,5042.067207166667,-0.1656580549231064,0.85932929941815,0.3878355630086431,4.704497814178467,2.945548295974731,2.702092409133911,-0.7400471568107605,0.6461143493652344,0.929280161857605,XArbitraryZVertical,0.2084066336514981,0.392862649966741,0.00619450917883178,0.8956491202545518,0.7011522054672241,-0.3781856298446655,-0.6044512391090393,0,0,0,-1,-1,5038.563056125,unknown,2,2022-06-30T09:52:40.624+02:00,2022-06-30T08:20:05.567+02:00,1418,1.388076,0,0,1121.329,0,0,2022-06-30T09:50:28.075+02:00
2022-06-30T09:52:44.151+02:00,5042.087110166667,0.06231689453125,0.1625823974609375,0.43304443359375,5042.077158166667,-0.1856635405243419,0.8963844475804323,0.4381943331197704,4.609583854675293,2.890734672546387,2.733497858047485,-0.7049130797386169,0.6284826397895813,0.9155382513999939,XArbitraryZVertical,0.2342473401529906,0.4029985286773745,0.01223390717174905,0.8846303185689319,0.7072778940200806,-0.4243050813674927,-0.5654407143592834,0,0,0,-1,-1,5038.563056125,unknown,2,2022-06-30T09:52:40.624+02:00,2022-06-30T08:20:05.567+02:00,1418,1.388076,0,0,1121.329,0,0,2022-06-30T09:50:28.075+02:00
2022-06-30T09:52:44.161+02:00,5042.097061166667,0.1046142578125,0.1464385986328125,0.4722442626953125,5042.087110166667,-0.207587438288049,0.9345559638304649,0.4878318586966395,4.601271152496338,2.813175916671753,2.768187046051025,-0.6694494485855103,0.6411205530166626,0.9164977669715881,XArbitraryZVertical,0.2597435652196913,0.4124322696640804,0.01843961447114032,0.8729794262831937,0.7105106115341187,-0.4687117636203766,-0.5248658061027527,0,0,0,-1,-1,5038.563056125,unknown,2,2022-06-30T09:52:40.624+02:00,2022-06-30T08:20:05.567+02:00,1418,1.388076,0,0,1121.329,0,0,2022-06-30T09:50:28.075+02:00
2022-06-30T09:52:44.171+02:00,5042.107013166667,0.1353302001953125,0.1120452880859375,0.47113037109375,5042.097061166667,-0.2321643704216621,0.9737926234404397,0.5368173765225662,4.608896255493164,2.6525559425354,2.762828350067139,-0.6274892091751099,0.6657918095588684,0.9459834098815918,XArbitraryZVertical,0.2850521667692164,0.4209498764507866,0.024550096935546,0.8607808767608333,0.7106950879096985,-0.5114036202430725,-0.4830929338932037,0,0,0,-1,-1,5038.563056125,unknown,2,2022-06-30T09:52:40.624+02:00,2022-06-30T08:20:05.567+02:00,1418,1.388076,0,0,1121.329,0,0,2022-06-30T09:50:28.075+02:00
2022-06-30T09:52:44.181+02:00,5042.116964166667,0.1532440185546875,0.045562744140625,0.4819488525390625,5042.107013166667,-0.2602283902900971,1.013909328766847,0.5847623766065426,4.663386821746826,2.415305852890015,2.695070266723633,-0.5851424932479858,0.6862783432006836,0.9113361239433289,XArbitraryZVertical,0.3101723882165318,0.4282881946193712,0.03014445393861763,0.8482061100962672,0.707853376865387,-0.5520012378692627,-0.4407246112823486,0,0,0,-1,-1,5038.563056125,unknown,2,2022-06-30T09:52:40.624+02:00,2022-06-30T08:20:05.567+02:00,1418,1.388076,0,0,1121.329,0,0,2022-06-30T09:50:28.075+02:00
2022-06-30T09:52:44.191+02:00,5042.126916166667,0.1605682373046875,-0.0111236572265625,0.5096588134765625,5042.116964166667,-0.2929476824792271,1.05547366598081,0.6314186882014838,4.775070190429688,2.186450719833374,2.600326776504517,-0.5568870306015015,0.6694833636283875,0.8751369118690491,XArbitraryZVertical,0.3352410189297365,0.4344137722209541,0.03482060909937472,0.8352757685495642,0.7023640275001526,-0.5902904868125916,-0.3977962732315063,0,0,0,-1,-1,5038.563056125,unknown,2,2022-06-30T09:52:40.624+02:00,2022-06-30T08:20:05.567+02:00,1418,1.388076,0,0,1121.329,0,0,2022-06-30T09:50:28.075+02:00
2022-06-30T09:52:44.200+02:00,5042.136867166667,0.154998779296875,-0.05157470703125,0.5214996337890625,5042.126916166667,-0.3308880859181795,1.09940681535038,0.6764751729733215,4.832935810089111,2.023796319961548,2.503705978393555,-0.5350719094276428,0.6405438184738159,0.8456658124923706,XArbitraryZVertical,0.360241894402055,0.439506676540542,0.03851811401847442,0.8219343541360812,0.6947395801544189,-0.6260483264923096,-0.3541193306446075,0,0,0,-1,-1,5038.563056125,unknown,2,2022-06-30T09:52:40.624+02:00,2022-06-30T08:20:05.567+02:00,1418,1.388076,0,0,1121.329,0,0,2022-06-30T09:50:28.075+02:00
2022-06-30T09:52:44.210+02:00,5042.146819166667,0.1460113525390625,-0.0883941650390625,0.483734130859375,5042.136867166667,-0.3731134353530591,1.146126666393581,0.71923702046213,4.747870445251465,1.926024079322815,2.416646242141724,-0.5271599292755127,0.6269654631614685,0.835997462272644,XArbitraryZVertical,0.3846993109531902,0.4438731743432147,0.04162540077118885,0.8082391265855686,0.6854848265647888,-0.6588108539581299,-0.3099660873413086,0,0,0,-1,-1,5038.563056125,unknown,2,2022-06-30T09:52:40.624+02:00,2022-06-30T08:20:05.567+02:00,1418,1.388076,0,0,1121.329,0,0,2022-06-30T09:50:28.075+02:00
2022-06-30T09:52:44.220+02:00,5042.156770166667,0.1433563232421875,-0.1263275146484375,0.50445556640625,5042.146819166667,-0.4187183430719184,1.195687206338418,0.7592603418113608,4.634683609008789,1.87476646900177,2.347623109817505,-0.5247794389724731,0.6166075468063354,0.7655493021011353,XArbitraryZVertical,0.4082649887921204,0.4477117841499371,0.04447498989927213,0.7942894804417465,0.6749103665351868,-0.6883851289749146,-0.2657477259635925,0,0,0,-1,-1,5038.563056125,unknown,2,2022-06-30T09:52:40.624+02:00,2022-06-30T08:20:05.567+02:00,1418,1.388076,0,0,1121.329,0,0,2022-06-30T09:50:28.075+02:00
2022-06-30T09:52:44.230+02:00,5042.166722166667,0.154022216796875,-0.1593170166015625,0.5687255859375,5042.156770166667,-0.4679871599836697,1.248913970570729,0.7967826766265977,4.585164546966553,1.888394832611084,2.32238507270813,-0.5188546776771545,0.6092603802680969,0.7050970792770386,XArbitraryZVertical,0.4310929653267302,0.4512114967687919,0.04725305453494925,0.7799577613325293,0.6631109118461609,-0.7151108384132385,-0.2211340814828873,0,0,0,-1,-1,5038.563056125,unknown,2,2022-06-30T09:52:40.624+02:00,2022-06-30T08:20:05.567+02:00,1418,1.388076,0,0,1121.329,0,0,2022-06-30T09:50:28.075+02:00
2022-06-30T09:52:44.240+02:00,5042.176673166667,0.1841583251953125,-0.18377685546875,0.586090087890625,5042.166722166667,-0.5216530615854639,1.306790650387628,0.8319184192489361,4.545591831207275,1.900934219360352,2.27951192855835,-0.5044499635696411,0.5937623381614685,0.7146487236022949,XArbitraryZVertical,0.4533817076646367,0.4545058960303506,0.05001694212655375,0.7650934137002395,0.6501253843307495,-0.7392247319221497,-0.1757388412952423,0,0,0,-1,-1,5038.563056125,unknown,2,2022-06-30T09:52:40.624+02:00,2022-06-30T08:20:05.567+02:00,1418,1.388076,0,0,1121.329,0,0,2022-06-30T09:50:28.075+02:00
2022-06-30T09:52:44.250+02:00,5042.186625166667,0.2189178466796875,-0.2244720458984375,0.636199951171875,5042.176673166667,-0.5801861217696751,1.369216354550987,0.8640315320176754,4.528139591217041,1.820818305015564,2.186737060546875,-0.4690378904342651,0.5911091566085815,0.7134211659431458,XArbitraryZVertical,0.475067190532192,0.4574962533008647,0.05248328182232973,0.7498359434493453,0.636228084564209,-0.7604666948318481,-0.1300166845321655,0,0,0,-1,-1,5038.563056125,unknown,2,2022-06-30T09:52:40.624+02:00,2022-06-30T08:20:05.567+02:00,1418,1.388076,0,0,1121.329,0,0,2022-06-30T09:50:28.075+02:00
2022-06-30T09:52:44.260+02:00,5042.196576166667,0.2441253662109375,-0.2541046142578125,0.6904144287109375,5042.186625166667,-0.6438752311448616,1.435675974254502,0.89248392524205,4.482582569122314,1.685503125190735,2.064907789230347,-0.4198414087295532,0.5751870274543762,0.6858916878700256,XArbitraryZVertical,0.496114646814634,0.4600070364080939,0.05430199580023327,0.7343808185060148,0.6217606663703918,-0.7786327600479126,-0.08452756702899933,0,0,0,-1,-1,5038.563056125,unknown,2,2022-06-30T09:52:40.624+02:00,2022-06-30T08:20:05.567+02:00,1418,1.388076,0,0,1121.329,0,0,2022-06-30T09:50:28.075+02:00
2022-06-30T09:52:44.270+02:00,5042.206528166667,0.2432403564453125,-0.2770538330078125,0.727996826171875,5042.196576166667,-0.7111346370959428,1.504499854372294,0.9167603637567172,4.309029102325439,1.523401021957397,1.932681798934937,-0.3727596998214722,0.5516910552978516,0.7114474773406982,XArbitraryZVertical,0.5161917116957598,0.4619455339577318,0.05549436483814006,0.7190778607120331,0.6070581674575806,-0.793634831905365,-0.04030488058924675,0,0,0,-1,-1,5038.563056125,unknown,2,2022-06-30T09:52:40.624+02:00,2022-06-30T08:20:05.567+02:00,1418,1.388076,0,0,1121.329,0,0,2022-06-30T09:50:28.075+02:00
2022-06-30T09:52:44.280+02:00,5042.216479166667,0.2449951171875,-0.2943878173828125,0.783477783203125,5042.206528166667,-0.7787455316889229,1.573095897366926,0.9367574598244998,3.963995695114136,1.410483360290527,1.813772082328796,-0.3461101651191711,0.5394821763038635,0.7006640434265137,XArbitraryZVertical,0.5347724085095231,0.4633568897581296,0.05642246117791425,0.7043687770708269,0.592401921749115,-0.8056414723396301,0.001362272421829402,0,0,0,-1,-1,5038.563056125,unknown,2,2022-06-30T09:52:40.624+02:00,2022-06-30T08:20:05.567+02:00,1418,1.388076,0,0,1121.329,0,0,2022-06-30T09:50:28.075+02:00
2022-06-30T09:52:44.290+02:00,5042.226431166667,0.2595672607421875,-0.3123016357421875,0.7719573974609375,5042.216479166667,-0.8429557406622253,1.638969313774685,0.9532968432553337,3.474224090576172,1.382644772529602,1.770933270454407,-0.3353593945503235,0.5292109847068787,0.7241998910903931,XArbitraryZVertical,0.5514211015337644,0.464387238555552,0.05781761689187075,0.6906058452394092,0.5776533484458923,-0.8153287768363953,0.03944147750735283,0,0,0,-1,-1,5038.563056125,unknown,2,2022-06-30T09:52:40.624+02:00,2022-06-30T08:20:05.567+02:00,1418,1.388076,0,0,1121.329,0,0,2022-06-30T09:50:28.075+02:00
2022-06-30T09:52:44.300+02:00,5042.236382166667,0.28631591796875,-0.3197784423828125,0.7390899658203125,5042.226431166667,-0.9018818205294507,1.701126590397601,0.9678874303545697,3.022040605545044,1.420881390571594,1.81468939781189,-0.3106147646903992,0.5224809646606445,0.7067477703094482,XArbitraryZVertical,0.5661621741796694,0.4650883444316304,0.06032823998755158,0.6778744248331919,0.5622318387031555,-0.8236896395683289,0.07369355112314224,0,0,0,-1,-1,5038.563056125,unknown,2,2022-06-30T09:52:40.624+02:00,2022-06-30T08:20:05.567+02:00,1418,1.388076,0,0,1121.329,0,0,2022-06-30T09:50:28.075+02:00
2022-06-30T09:52:44.310+02:00,5042.246334166667,0.3213958740234375,-0.2902069091796875,0.7149658203125,5042.236382166667,-0.9568985581975988,1.760771874125117,0.9816604198715895,2.679781436920166,1.410810708999634,1.886983871459961,-0.2750777006149292,0.5103759765625,0.6575416326522827,XArbitraryZVertical,0.5795356984293326,0.4654038563989055,0.06400901807561554,0.6659132741202001,0.5456461906433105,-0.8314211368560791,0.1049247533082962,0,0,0,-1,-1,5038.563056125,unknown,2,2022-06-30T09:52:40.624+02:00,2022-06-30T08:20:05.567+02:00,1418,1.388076,0,0,1121.329,0,0,2022-06-30T09:50:28.075+02:00
