loggingTime(txt),accelerometerTimestamp_sinceReboot(s),accelerometerAccelerationX(G),accelerometerAccelerationY(G),accelerometerAccelerationZ(G),motionTimestamp_sinceReboot(s),motionYaw(rad),motionRoll(rad),motionPitch(rad),motionRotationRateX(rad/s),motionRotationRateY(rad/s),motionRotationRateZ(rad/s),motionUserAccelerationX(G),motionUserAccelerationY(G),motionUserAccelerationZ(G),motionAttitudeReferenceFrame(txt),motionQuaternionX(R),motionQuaternionY(R),motionQuaternionZ(R),motionQuaternionW(R),motionGravityX(G),motionGravityY(G),motionGravityZ(G),motionMagneticFieldX(µT),motionMagneticFieldY(µT),motionMagneticFieldZ(µT),motionHeading(°),motionMagneticFieldCalibrationAccuracy(Z),activityTimestamp_sinceReboot(s),activity(txt),activityActivityConfidence(Z),activityActivityStartDate(txt),pedometerStartDate(txt),pedometerNumberofSteps(N),pedometerAverageActivePace(s/m),pedometerCurrentPace(s/m),pedometerCurrentCadence(steps/s),pedometerDistance(m),pedometerFloorAscended(N),pedometerFloorDescended(N),pedometerEndDate(txt)
2022-06-30T09:54:16.795+02:00,5126.194935500001,-0.0785980224609375,-0.3521881103515625,-0.831146240234375,5126.184984500001,-0.4051112951995949,-0.03177287099947148,0.289518576367826,0.3143509030342102,-0.01766243018209934,0.04167236015200615,0.1147042065858841,-0.060487300157547,0.1152922511100769,XArbitraryZVertical,0.1381248596692196,-0.04441468917282083,-0.2012888664734026,0.9687267972700535,-0.03044540621340275,-0.285490870475769,-0.9578977227210999,0,0,0,-1,-1,5124.348565666667,unknown,2,2022-06-30T09:54:14.934+02:00,2022-06-30T08:20:05.567+02:00,1418,1.388076,0,0,1121.329,0,0,2022-06-30T09:50:28.075+02:00
2022-06-30T09:54:16.797+02:00,5126.2048875,-0.0495147705078125,-0.3177642822265625,-0.850677490234375,5126.194935500001,-0.4051859930968398,-0.03160541134098514,0.2914435341823225,0.07292003184556961,0.06425158679485321,-0.06757896393537521,-0.02178038842976093,-0.07992896437644958,0.1251833438873291,XArbitraryZVertical,0.1390732475517812,-0.04452817513276176,-0.2013001916615909,0.9685835660234364,-0.03026757389307022,-0.2873351871967316,-0.9573517441749573,0,0,0,-1,-1,5124.348565666667,unknown,2,2022-06-30T09:54:14.934+02:00,2022-06-30T08:20:05.567+02:00,1418,1.388076,0,0,1121.329,0,0,2022-06-30T09:50:28.075+02:00
2022-06-30T09:54:16.801+02:00,5126.2148395,0.002288818359375,-0.2947540283203125,-0.8861236572265625,5126.2048875,-0.4062849699655444,-0.03058540875578319,0.2910297176011515,-0.1445747315883636,0.0697890967130661,-0.1247280091047287,-0.0446343719959259,-0.04658815264701843,0.1209226846694946,XArbitraryZVertical,0.1389511043052836,-0.04406981791953064,-0.2017644463580453,0.9685254047944637,-0.0292946919798851,-0.2869387865066528,-0.9575008749961853,0,0,0,-1,-1,5124.348565666667,unknown,2,2022-06-30T09:54:14.934+02:00,2022-06-30T08:20:05.567+02:00,1418,1.388076,0,0,1121.329,0,0,2022-06-30T09:50:28.075+02:00
2022-06-30T09:54:16.811+02:00,5126.2247905,0.001251220703125,-0.2919921875,-0.9189453125,5126.2148395,-0.407465130651216,-0.02992330037367833,0.2888012520493796,-0.3050455152988434,0.001839704113081098,-0.09280569106340408,0.01160496287047863,-0.01907578110694885,0.0894741415977478,XArbitraryZVertical,0.1379119287912543,-0.04361050401331009,-0.2023063031168499,0.9685817959887839,-0.02867977507412434,-0.2848033308982849,-0.9581568241119385,0,0,0,-1,-1,5124.348565666667,unknown,2,2022-06-30T09:54:14.934+02:00,2022-06-30T08:20:05.567+02:00,1418,1.388076,0,0,1121.329,0,0,2022-06-30T09:50:28.075+02:00
2022-06-30T09:54:16.821+02:00,5126.234742500001,-0.01611328125,-0.2826080322265625,-0.9528961181640625,5126.2247905,-0.4086183315114288,-0.02999913987570615,0.2850702425311936,-0.4407505989074707,-0.0672440230846405,-0.1098427325487137,0.0351315438747406,-0.01041671633720398,0.05791938304901123,XArbitraryZVertical,0.1360705286023043,-0.0433561008097824,-0.202896985510727,0.968730033084919,-0.02878411300480366,-0.2812248468399048,-0.9592100977897644,0,0,0,-1,-1,5124.348565666667,unknown,2,2022-06-30T09:54:14.934+02:00,2022-06-30T08:20:05.567+02:00,1418,1.388076,0,0,1121.329,0,0,2022-06-30T09:50:28.075+02:00
2022-06-30T09:54:16.831+02:00,5126.244693500001,-0.0306243896484375,-0.24774169921875,-0.97119140625,5126.234742500001,-0.4099701693410026,-0.03048788938438455,0.2803885899635836,-0.4948711693286896,-0.09432967007160187,-0.1243116483092308,0.0229906253516674,-0.01401224732398987,0.02326089143753052,XArbitraryZVertical,0.1337217321605667,-0.04321801334775552,-0.2036175052384956,0.9689120529702765,-0.02929273620247841,-0.2767290771007538,-0.9605014324188232,0,0,0,-1,-1,5124.348565666667,unknown,2,2022-06-30T09:54:14.934+02:00,2022-06-30T08:20:05.567+02:00,1418,1.388076,0,0,1121.329,0,0,2022-06-30T09:50:28.075+02:00
2022-06-30T09:54:16.844+02:00,5126.2546455,-0.0376739501953125,-0.20770263671875,-0.984893798828125,5126.244693500001,-0.4114564042705171,-0.03108994478033516,0.275397368622155,-0.5118219256401062,-0.09396188706159592,-0.1292177140712738,0.005682379007339478,0.006532847881317139,-0.002213239669799805,XArbitraryZVertical,0.1312078129860416,-0.04310942098298765,-0.2044106830155983,0.9690935887097455,-0.02991356886923313,-0.2719293534755707,-0.9618521928787231,0,0,0,-1,-1,5124.348565666667,unknown,2,2022-06-30T09:54:14.934+02:00,2022-06-30T08:20:05.567+02:00,1418,1.388076,0,0,1121.329,0,0,2022-06-30T09:50:28.075+02:00
2022-06-30T09:54:16.851+02:00,5126.2645965,-0.041168212890625,-0.1890411376953125,-0.99896240234375,5126.2546455,-0.4128166218662934,-0.03167831460572167,0.2703261633262124,-0.5068719983100891,-0.0898497998714447,-0.09957174956798553,-0.004145428538322449,0.04055920243263245,-0.01475059986114502,XArbitraryZVertical,0.1286585956263455,-0.04297427120017452,-0.205140025445383,0.969287290240982,-0.03052277490496635,-0.2670457661151886,-0.9632003307342529,0,0,0,-1,-1,5124.348565666667,unknown,2,2022-06-30T09:54:14.934+02:00,2022-06-30T08:20:05.567+02:00,1418,1.388076,0,0,1121.329,0,0,2022-06-30T09:50:28.075+02:00
2022-06-30T09:54:16.861+02:00,5126.2745485,-0.0482177734375,-0.1856689453125,-1.008499145507812,5126.2645965,-0.4137975623854725,-0.03225034907435941,0.2657880484990659,-0.3867682814598083,-0.06802013516426086,-0.06076549738645554,-0.008255399763584137,0.06732633709907532,-0.02694880962371826,XArbitraryZVertical,0.126377224763104,-0.04285747686838486,-0.2056789903184431,0.9694783287164508,-0.03111251071095467,-0.262669712305069,-0.9643840789794922,0,0,0,-1,-1,5124.348565666667,unknown,2,2022-06-30T09:54:14.934+02:00,2022-06-30T08:20:05.567+02:00,1418,1.388076,0,0,1121.329,0,0,2022-06-30T09:50:28.075+02:00
2022-06-30T09:54:16.871+02:00,5126.2845005,-0.05108642578125,-0.1906585693359375,-0.995880126953125,5126.2745485,-0.4143638637667368,-0.03267022171356431,0.2628486084503439,-0.2002906650304794,-0.03487293049693108,-0.02892853878438473,-0.01370003074407578,0.0730949342250824,-0.03946959972381592,XArbitraryZVertical,0.1248956304522834,-0.0428002150798654,-0.2059965471545446,0.9696054932180058,-0.03154250979423523,-0.2598323822021484,-0.9651384353637695,0,0,0,-1,-1,5124.348565666667,unknown,2,2022-06-30T09:54:14.934+02:00,2022-06-30T08:20:05.567+02:00,1418,1.388076,0,0,1121.329,0,0,2022-06-30T09:50:28.075+02:00
2022-06-30T09:54:16.881+02:00,5126.2944515,-0.045928955078125,-0.2213134765625,-0.992095947265625,5126.2845005,-0.414411651953806,-0.03277283979418507,0.2615890901177855,-0.05584986507892609,0.01622540876269341,0.02230588719248772,-0.01896138489246368,0.07349589467048645,-0.0397263765335083,XArbitraryZVertical,0.1242728513617682,-0.04272584767012927,-0.2060330627105487,0.9696809491111911,-0.03165224939584732,-0.2586159110069275,-0.9654614925384521,0,0,0,-1,-1,5124.348565666667,unknown,2,2022-06-30T09:54:14.934+02:00,2022-06-30T08:20:05.567+02:00,1418,1.388076,0,0,1121.329,0,0,2022-06-30T09:50:28.075+02:00
2022-06-30T09:54:16.891+02:00,5126.3044035,-0.0299224853515625,-0.23876953125,-0.9831390380859375,5126.2944515,-0.4140163481393356,-0.03257445362346674,0.2616420655210062,0.06846556067466736,0.0455726720392704,0.04940588027238846,-0.02012993022799492,0.05401581525802612,-0.02589404582977295,XArbitraryZVertical,0.1243274161166485,-0.042610432529982,-0.2058287719430609,0.9697224545520314,-0.03146026656031609,-0.2586670815944672,-0.9654541015625,0,0,0,-1,-1,5124.348565666667,unknown,2,2022-06-30T09:54:14.934+02:00,2022-06-30T08:20:05.567+02:00,1418,1.388076,0,0,1121.329,0,0,2022-06-30T09:50:28.075+02:00
2022-06-30T09:54:16.901+02:00,5126.3143545,-0.0218505859375,-0.249298095703125,-0.97021484375,5126.3044035,-0.4133476647774224,-0.03225513513518137,0.2626430220255495,0.1313403844833374,0.05922456830739975,0.07552749663591385,-0.006347466260194778,0.02594512701034546,-0.02631115913391113,XArbitraryZVertical,0.124860246532872,-0.04251480219999981,-0.205479102168721,0.9697323245164345,-0.03114361315965652,-0.2596338391304016,-0.9652048349380493,0,0,0,-1,-1,5124.348565666667,unknown,2,2022-06-30T09:54:14.934+02:00,2022-06-30T08:20:05.567+02:00,1418,1.388076,0,0,1121.329,0,0,2022-06-30T09:50:28.075+02:00
2022-06-30T09:54:16.911+02:00,5126.324306500001,-0.0230865478515625,-0.27459716796875,-0.9715118408203125,5126.3143545,-0.4123820454289716,-0.03193863905202399,0.2639479071104496,0.137641966342926,0.06111567467451096,0.1017668172717094,0.004642970860004425,0.01660016179084778,-0.009825646877288818,XArbitraryZVertical,0.1255464979809231,-0.04243210666200196,-0.2049837000115054,0.969752163125203,-0.03082728385925293,-0.2608937621116638,-0.9648751616477966,0,0,0,-1,-1,5124.348565666667,unknown,2,2022-06-30T09:54:14.934+02:00,2022-06-30T08:20:05.567+02:00,1418,1.388076,0,0,1121.329,0,0,2022-06-30T09:50:28.075+02:00
2022-06-30T09:54:16.921+02:00,5126.3342585,-0.0268096923828125,-0.2838897705078125,-0.97418212890625,5126.324306500001,-0.4112392524546875,-0.03168345152102928,0.2652187877475538,0.1333097964525223,0.06020034849643707,0.1056635603308678,0.01019981503486633,0.002430707216262817,-0.005709648132324219,XArbitraryZVertical,0.1262136148641945,-0.04236390058858536,-0.204406179420787,0.9697904874517631,-0.03057052940130234,-0.2621204257011414,-0.9645508527755737,0,0,0,-1,-1,5124.348565666667,unknown,2,2022-06-30T09:54:14.934+02:00,2022-06-30T08:20:05.567+02:00,1418,1.388076,0,0,1121.329,0,0,2022-06-30T09:50:28.075+02:00
2022-06-30T09:54:16.931+02:00,5126.3442095,-0.0281219482421875,-0.2791595458984375,-0.9700164794921875,5126.3342585,-0.4102275817305535,-0.03134836204465361,0.2666553223022961,0.1623232811689377,0.06425131857395172,0.08079659193754196,0.004707295447587967,-0.01827797293663025,-0.009326934814453125,XArbitraryZVertical,0.1269664149081225,-0.04228107765040322,-0.2038859812139588,0.9698053217613722,-0.03023548424243927,-0.2635064423084259,-0.9641836881637573,0,0,0,-1,-1,5124.348565666667,unknown,2,2022-06-30T09:54:14.934+02:00,2022-06-30T08:20:05.567+02:00,1418,1.388076,0,0,1121.329,0,0,2022-06-30T09:50:28.075+02:00
2022-06-30T09:54:16.940+02:00,5126.3541615,-0.02410888671875,-0.2814178466796875,-0.966552734375,5126.3442095,-0.4094713413746583,-0.03093226286853771,0.2679775992704388,0.09864550083875656,0.06530752778053284,0.05729339644312859,0.002876231446862221,-0.0171094536781311,-0.009327828884124756,XArbitraryZVertical,0.1276664832995953,-0.04216314224193169,-0.203484841550771,0.9698028587352656,-0.02982348389923573,-0.2647817730903625,-0.9638471007347107,0,0,0,-1,-1,5124.348565666667,unknown,2,2022-06-30T09:54:14.934+02:00,2022-06-30T08:20:05.567+02:00,1418,1.388076,0,0,1121.329,0,0,2022-06-30T09:50:28.075+02:00
2022-06-30T09:54:16.950+02:00,5126.3641125,-0.0216522216796875,-0.2878570556640625,-0.9692535400390625,5126.3541615,-0.4089817264166782,-0.03046250590721235,0.268413807859624,0.002201786264777184,0.06236677244305611,0.03262267261743546,0.002191051840782166,-0.01339298486709595,-0.003631174564361572,XArbitraryZVertical,0.1279362458159094,-0.04194754221272304,-0.2032147311836187,0.9698332843378041,-0.02936718612909317,-0.2652023732662201,-0.9637454152107239,0,0,0,-1,-1,5124.348565666667,unknown,2,2022-06-30T09:54:14.934+02:00,2022-06-30T08:20:05.567+02:00,1418,1.388076,0,0,1121.329,0,0,2022-06-30T09:50:28.075+02:00
2022-06-30T09:54:16.960+02:00,5126.374064500001,-0.020477294921875,-0.2686004638671875,-0.96527099609375,5126.3641125,-0.4087627028401705,-0.03002019486000252,0.2681112257866332,-0.05223988369107246,0.04580190777778625,0.01099540758877993,0.006833095103502274,-0.0210394561290741,-0.004468858242034912,XArbitraryZVertical,0.1278388927768582,-0.0416889078629703,-0.2030821160523662,0.9698850942025906,-0.02894331514835358,-0.2649106085300446,-0.963838517665863,0,0,0,-1,-1,5124.348565666667,unknown,2,2022-06-30T09:54:14.934+02:00,2022-06-30T08:20:05.567+02:00,1418,1.388076,0,0,1121.329,0,0,2022-06-30T09:50:28.075+02:00
2022-06-30T09:54:16.970+02:00,5126.3840165,-0.026397705078125,-0.2517547607421875,-0.971649169921875,5126.374064500001,-0.4086275527600645,-0.0298565164353323,0.2667143141963647,-0.08333422243595123,0.03750839829444885,0.0111108897253871,0.00821223109960556,-0.01843470335006714,-0.004537701606750488,XArbitraryZVertical,0.1271802992221239,-0.04146182603198133,-0.2030148932239019,0.9699954293031853,-0.02879657410085201,-0.2635633647441864,-0.96421217918396,0,0,0,-1,-1,5124.348565666667,unknown,2,2022-06-30T09:54:14.934+02:00,2022-06-30T08:20:05.567+02:00,1418,1.388076,0,0,1121.329,0,0,2022-06-30T09:50:28.075+02:00
2022-06-30T09:54:16.980+02:00,5126.3939675,-0.035400390625,-0.2404632568359375,-0.9717559814453125,5126.3840165,-0.4085428294870405,-0.02963470633847127,0.2654641045052965,-0.07964733988046646,0.03095356002449989,0.007873550988733768,0.005917645990848541,0.004803657531738281,-0.002264857292175293,XArbitraryZVertical,0.1265976877359026,-0.04122439554755266,-0.2029675322047609,0.9700916360928332,-0.02859244123101234,-0.2623571455478668,-0.9645471572875977,0,0,0,-1,-1,5124.348565666667,unknown,2,2022-06-30T09:54:14.934+02:00,2022-06-30T08:20:05.567+02:00,1418,1.388076,0,0,1121.329,0,0,2022-06-30T09:50:28.075+02:00
2022-06-30T09:54:16.990+02:00,5126.4039195,-0.034271240234375,-0.23614501953125,-0.9669036865234375,5126.3939675,-0.4084549351218332,-0.02925981595660631,0.2645149654033935,-0.05634361505508423,0.04617386683821678,0.01519311591982841,-0.002767976373434067,0.01559114456176758,-0.00838392972946167,XArbitraryZVertical,0.1261767583327582,-0.04094249021568934,-0.2029071309460582,0.9701710952791229,-0.02823811396956444,-0.2614411413669586,-0.9648062586784363,0,0,0,-1,-1,5124.348565666667,unknown,2,2022-06-30T09:54:14.934+02:00,2022-06-30T08:20:05.567+02:00,1418,1.388076,0,0,1121.329,0,0,2022-06-30T09:50:28.075+02:00
2022-06-30T09:54:17.000+02:00,5126.4138705,-0.0276641845703125,-0.2485504150390625,-0.9575042724609375,5126.4039195,-0.4084216859386284,-0.02860930615255369,0.264043632712177,-0.03330301120877266,0.06475713849067688,-0.001449776929803193,-0.01033482700586319,0.02603095769882202,-0.004489004611968994,XArbitraryZVertical,0.1260145959345571,-0.04057789833765418,-0.2028529700203978,0.9702188441470746,-0.02761401236057281,-0.2609861791133881,-0.964947521686554,0,0,0,-1,-1,5124.348565666667,unknown,2,2022-06-30T09:54:14.934+02:00,2022-06-30T08:20:05.567+02:00,1418,1.388076,0,0,1121.329,0,0,2022-06-30T09:50:28.075+02:00
2022-06-30T09:54:17.010+02:00,5126.4238225,-0.0192718505859375,-0.2581329345703125,-0.9494476318359375,5126.4138705,-0.4084462166187123,-0.02785316066051511,0.2639594939004924,-0.03444357588887215,0.07763428241014481,0.002328149974346161,-0.004761982709169388,0.01877808570861816,0.003213465213775635,XArbitraryZVertical,0.1260499344468284,-0.04020424410193259,-0.2028177603732019,0.9702372059909067,-0.02688497677445412,-0.2609049379825592,-0.9649900794029236,0,0,0,-1,-1,5124.348565666667,unknown,2,2022-06-30T09:54:14.934+02:00,2022-06-30T08:20:05.567+02:00,1418,1.388076,0,0,1121.329,0,0,2022-06-30T09:50:28.075+02:00
2022-06-30T09:54:17.020+02:00,5126.4337735,-0.016021728515625,-0.27056884765625,-0.94366455078125,5126.4238225,-0.408352677451462,-0.02711694995672203,0.2637484969524083,-0.06440120935440063,0.07341423630714417,0.01759259030222893,0.004645641893148422,0.007008254528045654,0.01064270734786987,XArbitraryZVertical,0.1260240153251897,-0.03982017896573323,-0.2027274035196261,0.9702752429365409,-0.02617602422833443,-0.2607012391090393,-0.9650645852088928,0,0,0,-1,-1,5124.348565666667,unknown,2,2022-06-30T09:54:14.934+02:00,2022-06-30T08:20:05.567+02:00,1418,1.388076,0,0,1121.329,0,0,2022-06-30T09:50:28.075+02:00
2022-06-30T09:54:17.030+02:00,5126.4437255,-0.015045166015625,-0.2666473388671875,-0.93634033203125,5126.4337735,-0.4081881890667814,-0.02648069446907114,0.2633405287402257,-0.08371870964765549,0.06727843731641769,0.01832016557455063,0.008535765111446381,-0.004646629095077515,0.0202564001083374,XArbitraryZVertical,0.1258936813023645,-0.03946050396341128,-0.2026103158186963,0.9703312831885533,-0.02556480653584003,-0.2603073716163635,-0.9651873111724854,0,0,0,-1,-1,5124.348565666667,unknown,2,2022-06-30T09:54:14.934+02:00,2022-06-30T08:20:05.567+02:00,1418,1.388076,0,0,1121.329,0,0,2022-06-30T09:50:28.075+02:00
2022-06-30T09:54:17.040+02:00,5126.453677500001,-0.0144805908203125,-0.2522735595703125,-0.92901611328125,5126.4437255,-0.4080833181035863,-0.02578230048357733,0.2633051778268339,-0.08728708326816559,0.06050762161612511,0.01249822974205017,0.009509867057204247,-0.01026543974876404,0.02368593215942383,XArbitraryZVertical,0.1259493126984116,-0.03911153928176583,-0.2025157109760773,0.970357936058308,-0.0248909555375576,-0.2602732181549072,-0.9652141332626343,0,0,0,-1,-1,5124.348565666667,unknown,2,2022-06-30T09:54:14.934+02:00,2022-06-30T08:20:05.567+02:00,1418,1.388076,0,0,1121.329,0,0,2022-06-30T09:50:28.075+02:00
2022-06-30T09:54:17.050+02:00,5126.463628500001,-0.0145263671875,-0.2511444091796875,-0.92724609375,5126.453677500001,-0.4080914909276777,-0.02508060039986662,0.2631748967118923,-0.09308618307113647,0.05110495164990425,0.001563856145367026,0.008589278906583786,0.0008239448070526123,0.03425031900405884,XArbitraryZVertical,0.1259569478601554,-0.03875862467168941,-0.2024764187186403,0.9703792785456902,-0.02421450987458229,-0.2601474523544312,-0.9652652144432068,0,0,0,-1,-1,5124.348565666667,unknown,2,2022-06-30T09:54:14.934+02:00,2022-06-30T08:20:05.567+02:00,1418,1.388076,0,0,1121.329,0,0,2022-06-30T09:50:28.075+02:00
2022-06-30T09:54:17.060+02:00,5126.4735805,-0.017974853515625,-0.2536163330078125,-0.9222564697265625,5126.463628500001,-0.4081063908995301,-0.02455883650433809,0.2622467089566263,-0.07781322300434113,0.04323025047779083,-0.003064983990043402,0.01157055050134659,0.01050195097923279,0.03645694255828857,XArbitraryZVertical,0.1255588086707564,-0.03841390950818329,-0.2024575608589861,0.9704485411583779,-0.02371678501367569,-0.2592510879039764,-0.9655187129974365,0,0,0,-1,-1,5124.348565666667,unknown,2,2022-06-30T09:54:14.934+02:00,2022-06-30T08:20:05.567+02:00,1418,1.388076,0,0,1121.329,0,0,2022-06-30T09:50:28.075+02:00
2022-06-30T09:54:17.070+02:00,5126.4835315,-0.02020263671875,-0.2541656494140625,-0.91363525390625,5126.4735805,-0.4081669178913053,-0.02438009064124098,0.2609519809783813,-0.08085048943758011,0.04107487201690674,-0.02102231420576572,0.006614875048398972,0.004444748163223267,0.04067164659500122,XArbitraryZVertical,0.1249470628615269,-0.03820191235805324,-0.2024851512189136,0.9705301372534744,-0.02355236373841763,-0.2580004334449768,-0.9658576846122742,0,0,0,-1,-1,5124.348565666667,unknown,2,2022-06-30T09:54:14.934+02:00,2022-06-30T08:20:05.567+02:00,1418,1.388076,0,0,1121.329,0,0,2022-06-30T09:50:28.075+02:00
2022-06-30T09:54:17.080+02:00,5126.4934835,-0.01629638671875,-0.239776611328125,-0.9080810546875,5126.4835315,-0.4084134197857597,-0.02439485963026853,0.2592297536134414,-0.1102834790945053,0.03856803849339485,-0.04564296826720238,0.004427414387464523,0.002933025360107422,0.04927748441696167,XArbitraryZVertical,0.1241045513550307,-0.03805268170457956,-0.2026181529020198,0.9706162526936196,-0.02357743307948112,-0.256336122751236,-0.9663001298904419,0,0,0,-1,-1,5124.348565666667,unknown,2,2022-06-30T09:54:14.934+02:00,2022-06-30T08:20:05.567+02:00,1418,1.388076,0,0,1121.329,0,0,2022-06-30T09:50:28.075+02:00
2022-06-30T09:54:17.090+02:00,5126.503435500001,-0.0201263427734375,-0.2162017822265625,-0.902374267578125,5126.4934835,-0.4089767306191395,-0.02409330127929349,0.2577262876102913,-0.1322874426841736,0.02802499383687973,-0.06660317629575729,0.003641735762357712,0.006255507469177246,0.05595541000366211,XArbitraryZVertical,0.1233943064559802,-0.03779107234749429,-0.2028836962635167,0.9706615255944546,-0.02329529449343681,-0.2548826038837433,-0.9666913747787476,0,0,0,-1,-1,5124.348565666667,unknown,2,2022-06-30T09:54:14.934+02:00,2022-06-30T08:20:05.567+02:00,1418,1.388076,0,0,1121.329,0,0,2022-06-30T09:50:28.075+02:00
2022-06-30T09:54:17.100+02:00,5126.513386500001,-0.027862548828125,-0.21978759765625,-0.89410400390625,5126.503435500001,-0.4097518045134709,-0.02363620254548125,0.2563928635947383,-0.1494352668523788,0.02174952067434788,-0.07858847081661224,0.00625964067876339,0.02623668313026428,0.06147760152816772,XArbitraryZVertical,0.1227785544657227,-0.03748353594210997,-0.2032413704558911,0.9706767484630929,-0.0228614304214716,-0.2535929977893829,-0.9670408368110657,0,0,0,-1,-1,5124.348565666667,unknown,2,2022-06-30T09:54:14.934+02:00,2022-06-30T08:20:05.567+02:00,1418,1.388076,0,0,1121.329,0,0,2022-06-30T09:50:28.075+02:00
2022-06-30T09:54:17.110+02:00,5126.5233385,-0.03179931640625,-0.2360992431640625,-0.88665771484375,5126.513386500001,-0.4107429203616761,-0.02313544325362097,0.2550486006538328,-0.1662051975727081,0.01830026693642139,-0.1034766435623169,-0.001769855618476868,0.03944721817970276,0.0701296329498291,XArbitraryZVertical,0.1221581691990238,-0.0371663878037792,-0.20370154760533,0.9706708013521498,-0.02238503843545914,-0.2522924244403839,-0.9673920869827271,0,0,0,-1,-1,5124.348565666667,unknown,2,2022-06-30T09:54:14.934+02:00,2022-06-30T08:20:05.567+02:00,1418,1.388076,0,0,1121.329,0,0,2022-06-30T09:50:28.075+02:00
2022-06-30T09:54:17.119+02:00,5126.5332895,-0.0285797119140625,-0.2427520751953125,-0.874237060546875,5126.5233385,-0.4120577920309632,-0.02253170809391611,0.253446197363316,-0.2033403068780899,0.02424870245158672,-0.1432514786720276,-0.009257059544324875,0.02253073453903198,0.07658839225769043,XArbitraryZVertical,0.1214172691058383,-0.03679226035446057,-0.2043147879208814,0.9706491628157086,-0.02181006595492363,-0.2507415413856506,-0.9678083658218384,0,0,0,-1,-1,5124.348565666667,unknown,2,2022-06-30T09:54:14.934+02:00,2022-06-30T08:20:05.567+02:00,1418,1.388076,0,0,1121.329,0,0,2022-06-30T09:50:28.075+02:00
2022-06-30T09:54:17.130+02:00,5126.5432415,-0.0318603515625,-0.2488250732421875,-0.8502655029296875,5126.5332895,-0.4137674112274737,-0.02192066669889901,0.2513885622080651,-0.2420152127742767,0.003594182431697845,-0.1740013062953949,-0.00916578620672226,0.006988495588302612,0.08715558052062988,XArbitraryZVertical,0.1204493451032942,-0.03639128790341919,-0.2051229937502827,0.9706143916376225,-0.02122995443642139,-0.2487491220235825,-0.9683352708816528,0,0,0,-1,-1,5124.348565666667,unknown,2,2022-06-30T09:54:14.934+02:00,2022-06-30T08:20:05.567+02:00,1418,1.388076,0,0,1121.329,0,0,2022-06-30T09:50:28.075+02:00
2022-06-30T09:54:17.140+02:00,5126.5531925,-0.0576324462890625,-0.3171844482421875,-0.8184814453125,5126.5432415,-0.4155032209483873,-0.02156555211272638,0.2487596395005339,-0.3105231821537018,-0.01149448938667774,-0.1482642590999603,-0.007466202601790428,0.002564519643783569,0.1057730913162231,XArbitraryZVertical,0.119177847997323,-0.03605625229574383,-0.2059639997251872,0.9706056644097757,-0.02090011350810528,-0.2462019622325897,-0.9689931869506836,0,0,0,-1,-1,5124.348565666667,unknown,2,2022-06-30T09:54:14.934+02:00,2022-06-30T08:20:05.567+02:00,1418,1.388076,0,0,1121.329,0,0,2022-06-30T09:50:28.075+02:00
2022-06-30T09:54:17.150+02:00,5126.5631445,-0.14471435546875,-0.4127655029296875,-0.78985595703125,5126.5531925,-0.4165924473237501,-0.02177864949144409,0.2449720867995172,-0.5001653432846069,-0.1431024670600891,0.09218180924654007,-0.02568744122982025,-0.03129009902477264,0.1335188746452332,XArbitraryZVertical,0.1172970305410989,-0.03583842374246676,-0.2065334596443524,0.9707218363434152,-0.02112675830721855,-0.2425292432308197,-0.9699140191078186,0,0,0,-1,-1,5124.348565666667,unknown,2,2022-06-30T09:54:14.934+02:00,2022-06-30T08:20:05.567+02:00,1418,1.388076,0,0,1121.329,0,0,2022-06-30T09:50:28.075+02:00
2022-06-30T09:54:17.159+02:00,5126.5730965,-0.1448211669921875,-0.3703460693359375,-0.7667083740234375,5126.5631445,-0.4138571064207384,-0.02218236483349642,0.2394282399766446,-0.6347106099128723,0.1032801419496536,0.3255415558815002,-0.0669381320476532,-0.1415152549743652,0.1715217232704163,XArbitraryZVertical,0.1146109851107,-0.0353122987116063,-0.2052682339503386,0.9713302297289063,-0.02154781669378281,-0.2371472120285034,-0.9712347388267517,0,0,0,-1,-1,5124.348565666667,unknown,2,2022-06-30T09:54:14.934+02:00,2022-06-30T08:20:05.567+02:00,1418,1.388076,0,0,1121.329,0,0,2022-06-30T09:50:28.075+02:00
2022-06-30T09:54:17.169+02:00,5126.5830475,-0.0278167724609375,-0.3386383056640625,-0.702606201171875,5126.5730965,-0.4131543490451378,-0.02077903290850991,0.2323424511858185,-0.821272075176239,0.2047715187072754,-0.1635463386774063,-0.156325176358223,-0.1691262423992157,0.1874125599861145,XArbitraryZVertical,0.1113229727855825,-0.03387305909162291,-0.2048961741722002,0.9718422718196523,-0.0202192384749651,-0.230257660150528,-0.9729196429252625,0,0,0,-1,-1,5124.348565666667,unknown,2,2022-06-30T09:54:14.934+02:00,2022-06-30T08:20:05.567+02:00,1418,1.388076,0,0,1121.329,0,0,2022-06-30T09:50:28.075+02:00
2022-06-30T09:54:17.179+02:00,5126.592999500001,-0.017730712890625,-0.3714447021484375,-0.65130615234375,5126.5830475,-0.4165536227715709,-0.01810564753404704,0.2227044172810965,-1.140549898147583,0.1777894496917725,-0.4238157272338867,-0.06947037577629089,-0.1244539618492126,0.2412877678871155,XArbitraryZVertical,0.1068560096711188,-0.03177848136040164,-0.2064694485810648,0.9720814268276811,-0.01765754073858261,-0.2208680510520935,-0.9751438498497009,0,0,0,-1,-1,5124.348565666667,unknown,2,2022-06-30T09:54:14.934+02:00,2022-06-30T08:20:05.567+02:00,1418,1.388076,0,0,1121.329,0,0,2022-06-30T09:50:28.075+02:00
2022-06-30T09:54:17.190+02:00,5126.602950500001,-0.044158935546875,-0.4048309326171875,-0.621337890625,5126.592999500001,-0.4214807209886886,-0.01570872245166318,0.2095333338983973,-1.511132955551147,0.09513482451438904,-0.4857500195503235,0.004316914826631546,-0.1431169211864471,0.3039047122001648,XArbitraryZVertical,0.1006243938355878,-0.02951316136764211,-0.2088337506751896,0.9723128133515986,-0.0153645109385252,-0.2080034613609314,-0.978007435798645,0,0,0,-1,-1,5124.348565666667,unknown,2,2022-06-30T09:54:14.934+02:00,2022-06-30T08:20:05.567+02:00,1418,1.388076,0,0,1121.329,0,0,2022-06-30T09:50:28.075+02:00
2022-06-30T09:54:17.199+02:00,5126.6129025,-0.1033935546875,-0.3950347900390625,-0.59423828125,5126.602950500001,-0.4267656399488577,-0.01417594255684179,0.192749191535923,-1.880372524261475,0.01417952217161655,-0.5229405760765076,-0.01495689898729324,-0.2002118825912476,0.3474869132041931,XArbitraryZVertical,0.09254670795854991,-0.027271899463514,-0.2114457772691925,0.9726161179391964,-0.01391295716166496,-0.1915578991174698,-0.9813827276229858,0,0,0,-1,-1,5124.348565666667,unknown,2,2022-06-30T09:54:14.934+02:00,2022-06-30T08:20:05.567+02:00,1418,1.388076,0,0,1121.329,0,0,2022-06-30T09:50:28.075+02:00
2022-06-30T09:54:17.209+02:00,5126.6228545,-0.1562957763671875,-0.4099578857421875,-0.5746002197265625,5126.6129025,-0.4328766034159882,-0.01317462805907788,0.1719881230701804,-2.31377124786377,-0.02318071946501732,-0.637926459312439,-0.0623682476580143,-0.2318892925977707,0.3786394596099854,XArbitraryZVertical,0.08247299209687982,-0.02485407919200099,-0.2145067610539214,0.9729169337621506,-0.01297987997531891,-0.1711414754390717,-0.9851609468460083,0,0,0,-1,-1,5124.348565666667,unknown,2,2022-06-30T09:54:14.934+02:00,2022-06-30T08:20:05.567+02:00,1418,1.388076,0,0,1121.329,0,0,2022-06-30T09:50:28.075+02:00
2022-06-30T09:54:17.219+02:00,5126.6328055,-0.1611785888671875,-0.4022064208984375,-0.561279296875,5126.6228545,-0.4403818509586957,-0.01206652903135168,0.1468058505927442,-2.749541044235229,0.01897419057786465,-0.7853060364723206,-0.1184501349925995,-0.2508770227432251,0.4083608984947205,XArbitraryZVertical,0.07025085217501616,-0.02188938941262731,-0.21825560209622,0.9731136705074583,-0.01193644385784864,-0.1462790966033936,-0.9891713261604309,0,0,0,-1,-1,5124.348565666667,unknown,2,2022-06-30T09:54:14.934+02:00,2022-06-30T08:20:05.567+02:00,1418,1.388076,0,0,1121.329,0,0,2022-06-30T09:50:28.075+02:00
2022-06-30T09:54:17.229+02:00,5126.642757500001,-0.1591644287109375,-0.337646484375,-0.5391082763671875,5126.6328055,-0.4489181868604057,-0.01040919023868716,0.1177705543491647,-3.097901105880737,0.09376382827758789,-0.8440567851066589,-0.1555873900651932,-0.2979987263679504,0.4222032427787781,XArbitraryZVertical,0.05621775022442926,-0.01816409767761066,-0.2224888782192362,0.9731435253791122,-0.01033690012991428,-0.1174985021352768,-0.9930192828178406,0,0,0,-1,-1,5124.348565666667,unknown,2,2022-06-30T09:54:14.934+02:00,2022-06-30T08:20:05.567+02:00,1418,1.388076,0,0,1121.329,0,0,2022-06-30T09:50:28.075+02:00
2022-06-30T09:54:17.239+02:00,5126.652708500001,-0.1696319580078125,-0.2781219482421875,-0.5437469482421875,5126.642757500001,-0.4579621701686192,-0.008489789735670591,0.08527881835162797,-3.446321725845337,0.1121188625693321,-0.9024660587310791,-0.1488442420959473,-0.287078320980072,0.4478071331977844,XArbitraryZVertical,0.04055083696615383,-0.01380582610300493,-0.2269531907805727,0.9729631316915371,-0.008458836004137993,-0.08517549186944962,-0.9963300824165344,0,0,0,-1,-1,5124.348565666667,unknown,2,2022-06-30T09:54:14.934+02:00,2022-06-30T08:20:05.567+02:00,1418,1.388076,0,0,1121.329,0,0,2022-06-30T09:50:28.075+02:00
2022-06-30T09:54:17.249+02:00,5126.6626605,-0.180755615234375,-0.2359771728515625,-0.604736328125,5126.652708500001,-0.4677876126469735,-0.006781431930337086,0.04942340097280368,-3.750972270965576,0.09341175854206085,-1.024442791938782,-0.1554280370473862,-0.2546284794807434,0.4640727639198303,XArbitraryZVertical,0.02325063331575145,-0.009024119495482834,-0.2317764538653276,0.9724493333125611,-0.006773099303245544,-0.04940328374505043,-0.998755931854248,0,0,0,-1,-1,5124.348565666667,unknown,2,2022-06-30T09:54:14.934+02:00,2022-06-30T08:20:05.567+02:00,1418,1.388076,0,0,1121.329,0,0,2022-06-30T09:50:28.075+02:00
2022-06-30T09:54:17.259+02:00,5126.6726115,-0.1970367431640625,-0.1690826416015625,-0.69281005859375,5126.6626605,-0.4791364574963227,-0.005791104567757443,0.01133706012894099,-3.89490795135498,0.0465284064412117,-1.208133578300476,-0.1691973060369492,-0.247132197022438,0.4320326447486877,XArbitraryZVertical,0.004819533210761395,-0.004157841722411207,-0.237294342130555,0.9714169642490739,-0.005790700204670429,-0.01133681740611792,-0.9999189972877502,0,0,0,-1,-1,5124.348565666667,unknown,2,2022-06-30T09:54:14.934+02:00,2022-06-30T08:20:05.567+02:00,1418,1.388076,0,0,1121.329,0,0,2022-06-30T09:50:28.075+02:00
2022-06-30T09:54:17.269+02:00,5126.6825635,-0.2396697998046875,-0.0731658935546875,-0.7741851806640625,5126.6726115,-0.4923125407610727,-0.005911552668017695,-0.02749295910936925,-3.912008285522461,-0.02919970452785492,-1.389016509056091,-0.1814993619918823,-0.2352993339300156,0.3546003699302673,XArbitraryZVertical,-0.01405181827526366,0.0004831898883952564,-0.2436144024243519,0.9697702884552681,-0.005909284111112356,0.02748949639499187,-0.9996046423912048,0,0,0,-1,-1,5124.348565666667,unknown,2,2022-06-30T09:54:14.934+02:00,2022-06-30T08:20:05.567+02:00,1418,1.388076,0,0,1121.329,0,0,2022-06-30T09:50:28.075+02:00
2022-06-30T09:54:17.279+02:00,5126.6925155,-0.3019256591796875,-0.015869140625,-0.835479736328125,5126.6825635,-0.5073049008025543,-0.007232875113554538,-0.06658530547520439,-3.962189912796021,-0.0711229220032692,-1.567022800445557,-0.2052010148763657,-0.1858754903078079,0.2563638687133789,XArbitraryZVertical,-0.03312821083738311,0.004854128726627395,-0.2506839869351357,0.9674897608764368,-0.007216784171760082,0.06653611361980438,-0.9977579116821289,0,0,0,-1,-1,5124.348565666667,unknown,2,2022-06-30T09:54:14.934+02:00,2022-06-30T08:20:05.567+02:00,1418,1.388076,0,0,1121.329,0,0,2022-06-30T09:50:28.075+02:00
2022-06-30T09:54:17.289+02:00,5126.7024665,-0.360809326171875,0.005523681640625,-0.92498779296875,5126.6925155,-0.5239982119499828,-0.009349554622465072,-0.1062773608827939,-4.041804313659668,-0.03446432575583458,-1.704426169395447,-0.2618979811668396,-0.1446672677993774,0.1916715502738953,XArbitraryZVertical,-0.05250967066416914,0.00924806763584044,-0.2584036889083962,0.9645646031574086,-0.009296667762100697,0.1060774102807045,-0.994314432144165,0,0,0,-1,-1,5124.348565666667,unknown,2,2022-06-30T09:54:14.934+02:00,2022-06-30T08:20:05.567+02:00,1418,1.388076,0,0,1121.329,0,0,2022-06-30T09:50:28.075+02:00
2022-06-30T09:54:17.299+02:00,5126.7124185,-0.4077911376953125,-0.000762939453125,-1.010696411132812,5126.7024665,-0.5420360428740378,-0.01161907514138889,-0.1467254471400048,-4.125158786773682,0.06302467733621597,-1.796689033508301,-0.3208579123020172,-0.1491448879241943,0.1085883378982544,XArbitraryZVertical,-0.07217141104664035,0.01403977258635258,-0.2665775441447875,0.9610050275109608,-0.01149397064000368,0.1461995542049408,-0.9891883730888367,0,0,0,-1,-1,5124.348565666667,unknown,2,2022-06-30T09:54:14.934+02:00,2022-06-30T08:20:05.567+02:00,1418,1.388076,0,0,1121.329,0,0,2022-06-30T09:50:28.075+02:00
2022-06-30T09:54:17.309+02:00,5126.7223695,-0.442657470703125,0.0044097900390625,-1.083663940429688,5126.7124185,-0.5609998113715012,-0.01364638581077905,-0.1879700203961102,-4.198031902313232,0.183094322681427,-1.84986937046051,-0.3734811842441559,-0.1815401464700699,0.01716041564941406,XArbitraryZVertical,-0.09205736629699304,0.01945200979832207,-0.2749925574459344,0.9568313210203928,-0.01340559683740139,0.1868650615215302,-0.9822941422462463,0,0,0,-1,-1,5124.348565666667,unknown,2,2022-06-30T09:54:14.934+02:00,2022-06-30T08:20:05.567+02:00,1418,1.388076,0,0,1121.329,0,0,2022-06-30T09:50:28.075+02:00
2022-06-30T09:54:17.319+02:00,5126.732321500001,-0.4592437744140625,0.0434112548828125,-1.103912353515625,5126.7223695,-0.5806558496094509,-0.01507083338680156,-0.229702268201175,-4.235136985778809,0.3585750758647919,-1.886754870414734,-0.4109086394309998,-0.2312890738248825,-0.08332222700119019,XArbitraryZVertical,-0.1119426332166094,0.02563243082375819,-0.2835449883138262,0.952057858861428,-0.01467443071305752,0.2276876270771027,-0.9736236333847046,0,0,0,-1,-1,5124.348565666667,unknown,2,2022-06-30T09:54:14.934+02:00,2022-06-30T08:20:05.567+02:00,1418,1.388076,0,0,1121.329,0,0,2022-06-30T09:50:28.075+02:00
2022-06-30T09:54:17.329+02:00,5126.7422735,-0.4583587646484375,0.1018524169921875,-1.127822875976562,5126.732321500001,-0.6006912357776925,-0.0155499171742666,-0.271657387953993,-4.245645523071289,0.5570132732391357,-1.874143600463867,-0.4388327598571777,-0.2489196062088013,-0.1324311494827271,XArbitraryZVertical,-0.1316247375584531,0.03270188134814664,-0.2921108922895224,0.9467189261963058,-0.01497905887663364,0.2683283984661102,-0.9632110595703125,0,0,0,-1,-1,5124.348565666667,unknown,2,2022-06-30T09:54:14.934+02:00,2022-06-30T08:20:05.567+02:00,1418,1.388076,0,0,1121.329,0,0,2022-06-30T09:50:28.075+02:00
2022-06-30T09:54:17.345+02:00,5126.7522245,-0.4437103271484375,0.1780548095703125,-1.139785766601562,5126.7422735,-0.620653720744839,-0.01486330602409824,-0.3134443692707628,-4.206340312957764,0.7588329315185547,-1.83125364780426,-0.4470431804656982,-0.239550769329071,-0.1633299589157104,XArbitraryZVertical,-0.1508634491575856,0.04067136211740132,-0.3005144732045672,0.9408917287349549,-0.01413860358297825,0.30833700299263,-0.9511721134185791,0,0,0,-1,-1,5124.348565666667,unknown,2,2022-06-30T09:54:14.934+02:00,2022-06-30T08:20:05.567+02:00,1418,1.388076,0,0,1121.329,0,0,2022-06-30T09:50:28.075+02:00
2022-06-30T09:54:17.349+02:00,5126.7621765,-0.42474365234375,0.270233154296875,-1.171371459960938,5126.7522245,-0.6401807221746505,-0.01281010062957236,-0.3546568473114171,-4.105727672576904,0.9545313715934753,-1.757702469825745,-0.440960019826889,-0.2074832022190094,-0.1949865221977234,XArbitraryZVertical,-0.1694209104011139,0.04951934674973128,-0.3086392718189596,0.9346584133862189,-0.0120125450193882,0.3472685813903809,-0.9376887679100037,0,0,0,-1,-1,5124.348565666667,unknown,2,2022-06-30T09:54:14.934+02:00,2022-06-30T08:20:05.567+02:00,1418,1.388076,0,0,1121.329,0,0,2022-06-30T09:50:28.075+02:00
2022-06-30T09:54:17.359+02:00,5126.7721275,-0.4018707275390625,0.3545684814453125,-1.217758178710938,5126.7621765,-0.6591796446846356,-0.00932629602010822,-0.394626285645945,-3.956222772598267,1.141519904136658,-1.710232496261597,-0.4249387681484222,-0.1613037884235382,-0.2304339408874512,XArbitraryZVertical,-0.1869616938494748,0.05912057950926027,-0.3165066349380606,0.9281021860207497,-0.008609355427324772,0.3844632208347321,-0.9231001734733582,0,0,0,-1,-1,5124.348565666667,unknown,2,2022-06-30T09:54:14.934+02:00,2022-06-30T08:20:05.567+02:00,1418,1.388076,0,0,1121.329,0,0,2022-06-30T09:50:28.075+02:00
2022-06-30T09:54:17.368+02:00,5126.782079500001,-0.375762939453125,0.4349517822265625,-1.283218383789062,5126.7721275,-0.678066200385595,-0.004558355249563286,-0.4330522996741616,-3.802296876907349,1.357173442840576,-1.702544689178467,-0.4105201661586761,-0.1050532162189484,-0.2906999588012695,XArbitraryZVertical,-0.2033486468292382,0.06935044681212192,-0.3243469934117438,0.9212160496277395,-0.004137555137276649,0.4196432828903198,-0.9076796770095825,0,0,0,-1,-1,5124.348565666667,unknown,2,2022-06-30T09:54:14.934+02:00,2022-06-30T08:20:05.567+02:00,1418,1.388076,0,0,1121.329,0,0,2022-06-30T09:50:28.075+02:00
2022-06-30T09:54:17.378+02:00,5126.792030500001,-0.3529205322265625,0.54486083984375,-1.313430786132812,5126.782079500001,-0.6969508667454487,0.001629636754614582,-0.4694857034891487,-3.527751922607422,1.570189118385315,-1.697533488273621,-0.3885383903980255,-0.05840033292770386,-0.3553468585014343,XArbitraryZVertical,-0.2183420734342232,0.08016719379887739,-0.3322783100476119,0.9140520867404179,0.001453311182558537,0.4524276852607727,-0.8917999267578125,0,0,0,-1,-1,5124.348565666667,unknown,2,2022-06-30T09:54:14.934+02:00,2022-06-30T08:20:05.567+02:00,1418,1.388076,0,0,1121.329,0,0,2022-06-30T09:50:28.075+02:00
2022-06-30T09:54:17.388+02:00,5126.8019825,-0.3188629150390625,0.6743927001953125,-1.302520751953125,5126.792030500001,-0.7159847878455198,0.009117183753342835,-0.5032860615552527,-3.250386238098145,1.730919241905212,-1.715845108032227,-0.3743654489517212,0.001854300498962402,-0.4279434680938721,XArbitraryZVertical,-0.2316603757217132,0.091380895404063,-0.3404183722808188,0.9066964141308803,0.007986564189195633,0.4823067486286163,-0.8759660124778748,0,0,0,-1,-1,5124.348565666667,unknown,2,2022-06-30T09:54:14.934+02:00,2022-06-30T08:20:05.567+02:00,1418,1.388076,0,0,1121.329,0,0,2022-06-30T09:50:28.075+02:00
2022-06-30T09:54:17.398+02:00,5126.8119345,-0.282135009765625,0.8093719482421875,-1.324691772460938,5126.8019825,-0.735317223128793,0.01752769110245431,-0.53467802133331,-3.002503395080566,1.889960765838623,-1.72395658493042,-0.351826936006546,0.1005735397338867,-0.4446312189102173,XArbitraryZVertical,-0.2434645468700403,0.1028334441824924,-0.348810543249383,0.8991560607677784,0.01508062705397606,0.5095640420913696,-0.860300600528717,0,0,0,-1,-1,5124.348565666667,unknown,2,2022-06-30T09:54:14.934+02:00,2022-06-30T08:20:05.567+02:00,1418,1.388076,0,0,1121.329,0,0,2022-06-30T09:50:28.075+02:00
2022-06-30T09:54:17.408+02:00,5126.8218855,-0.2428436279296875,0.88653564453125,-1.308990478515625,5126.8119345,-0.7546052362623096,0.02695228720379081,-0.563799788650361,-2.783387184143066,2.032952070236206,-1.703188538551331,-0.3235594928264618,0.2096927165985107,-0.4694533944129944,XArbitraryZVertical,-0.2538221204620238,0.1145099233985927,-0.357325249880632,0.8915045918519305,0.02277814038097858,0.5344017744064331,-0.8449236154556274,0,0,0,-1,-1,5124.348565666667,unknown,2,2022-06-30T09:54:14.934+02:00,2022-06-30T08:20:05.567+02:00,1418,1.388076,0,0,1121.329,0,0,2022-06-30T09:50:28.075+02:00
2022-06-30T09:54:17.418+02:00,5126.8318375,-0.1914520263671875,0.9048004150390625,-1.281997680664062,5126.8218855,-0.7737275042272058,0.03770420399510929,-0.5911668995891971,-2.610251188278198,2.227147102355957,-1.682133316993713,-0.2947105765342712,0.2987637519836426,-0.4933279752731323,XArbitraryZVertical,-0.2629185090730754,0.1265838310710327,-0.3659451137012215,0.883704994704034,0.03129804134368896,0.5573302507400513,-0.829700767993927,0,0,0,-1,-1,5124.348565666667,unknown,2,2022-06-30T09:54:14.934+02:00,2022-06-30T08:20:05.567+02:00,1418,1.388076,0,0,1121.329,0,0,2022-06-30T09:50:28.075+02:00
2022-06-30T09:54:17.428+02:00,5126.8417885,-0.12774658203125,0.907989501953125,-1.221176147460938,5126.8318375,-0.7923625082152618,0.05049810052121139,-0.6170081737767091,-2.446582794189453,2.484564542770386,-1.610195755958557,-0.2587903141975403,0.3229676485061646,-0.4806843400001526,XArbitraryZVertical,-0.2707427778030856,0.1393255774760512,-0.3746341922206686,0.8757488091350084,0.0411694124341011,0.5785976052284241,-0.8145734667778015,0,0,0,-1,-1,5124.348565666667,unknown,2,2022-06-30T09:54:14.934+02:00,2022-06-30T08:20:05.567+02:00,1418,1.388076,0,0,1121.329,0,0,2022-06-30T09:50:28.075+02:00
2022-06-30T09:54:17.438+02:00,5126.8517405,-0.0607147216796875,0.937744140625,-1.140716552734375,5126.8417885,-0.8097165079224559,0.06600542836701861,-0.6415176995124821,-2.315526485443115,2.702305316925049,-1.475866436958313,-0.2157167792320251,0.3058844804763794,-0.4589945077896118,XArbitraryZVertical,-0.2773065029226988,0.1529024963340475,-0.383157590478989,0.8677052002443854,0.05284439772367477,0.5984120965003967,-0.7994438409805298,0,0,0,-1,-1,5124.348565666667,unknown,2,2022-06-30T09:54:14.934+02:00,2022-06-30T08:20:05.567+02:00,1418,1.388076,0,0,1121.329,0,0,2022-06-30T09:50:28.075+02:00
2022-06-30T09:54:17.448+02:00,5126.8616915,0.004241943359375,0.9996185302734375,-1.030838012695312,5126.8517405,-0.8251396344183364,0.08463696174487863,-0.6653492547773685,-2.287344455718994,2.934826135635376,-1.33005702495575,-0.159644216299057,0.3006192445755005,-0.3966875672340393,XArbitraryZVertical,-0.2828696654973823,0.167457903399127,-0.3912981962746451,0.8595513017911001,0.06650453805923462,0.6173339486122131,-0.7838851809501648,0,0,0,-1,-1,5124.348565666667,unknown,2,2022-06-30T09:54:14.934+02:00,2022-06-30T08:20:05.567+02:00,1418,1.388076,0,0,1121.329,0,0,2022-06-30T09:50:28.075+02:00
2022-06-30T09:54:17.458+02:00,5126.871643500001,0.08880615234375,1.064041137695312,-0.93914794921875,5126.8616915,-0.8385582261236294,0.106421785764987,-0.6895128431679723,-2.356974601745605,3.138526916503906,-1.235523104667664,-0.1084294989705086,0.3331833481788635,-0.3263761401176453,XArbitraryZVertical,-0.2878786921430804,0.1831130050462397,-0.3990231489364222,0.8511028195971984,0.08195546269416809,0.6361613869667053,-0.7671909928321838,0,0,0,-1,-1,5124.348565666667,unknown,2,2022-06-30T09:54:14.934+02:00,2022-06-30T08:20:05.567+02:00,1418,1.388076,0,0,1121.329,0,0,2022-06-30T09:50:28.075+02:00
2022-06-30T09:54:17.468+02:00,5126.8815955,0.192047119140625,1.132293701171875,-0.8175048828125,5126.871643500001,-0.8503097265346873,0.1314562401090993,-0.714454673463046,-2.429022550582886,3.399816513061523,-1.131582498550415,-0.06003673374652863,0.3753269910812378,-0.236266553401947,XArbitraryZVertical,-0.2924793949545395,0.1999736291830171,-0.4065111815788265,0.8421490928619649,0.09902293235063553,0.6552055478096008,-0.7489327192306519,0,0,0,-1,-1,5124.348565666667,unknown,2,2022-06-30T09:54:14.934+02:00,2022-06-30T08:20:05.567+02:00,1418,1.388076,0,0,1121.329,0,0,2022-06-30T09:50:28.075+02:00
2022-06-30T09:54:17.478+02:00,5126.8915465,0.2671051025390625,1.135894775390625,-0.7111968994140625,5126.8815955,-0.8594276938636598,0.1600839900655484,-0.7405918779118188,-2.570302724838257,3.574088573455811,-0.9752182364463806,0.02790449559688568,0.4273256063461304,-0.1528986692428589,XArbitraryZVertical,-0.2968836977209685,0.2180456383842113,-0.4134343802098024,0.8326993933868148,0.1176490858197212,0.6747248768806458,-0.7286323308944702,0,0,0,-1,-1,5124.348565666667,unknown,2,2022-06-30T09:54:14.934+02:00,2022-06-30T08:20:05.567+02:00,1418,1.388076,0,0,1121.329,0,0,2022-06-30T09:50:28.075+02:00
2022-06-30T09:54:17.488+02:00,5126.9014985,0.3323516845703125,1.1295166015625,-0.656097412109375,5126.8915465,-0.8652853290320437,0.1925140125547791,-0.7676099634362743,-2.624494075775146,3.727764129638672,-0.8272799253463745,0.09493130445480347,0.4467871189117432,-0.05374598503112793,XArbitraryZVertical,-0.3010121629867591,0.2371750658077993,-0.4196403429875508,0.8228255004907282,0.1376736909151077,0.694417417049408,-0.7062793374061584,0,0,0,-1,-1,5124.348565666667,unknown,2,2022-06-30T09:54:14.934+02:00,2022-06-30T08:20:05.567+02:00,1418,1.388076,0,0,1121.329,0,0,2022-06-30T09:50:28.075+02:00
2022-06-30T09:54:17.501+02:00,5126.9114495,0.392852783203125,1.1343994140625,-0.5529022216796875,5126.9014985,-0.8681332607823562,0.2286127168666041,-0.7938986239908242,-2.452493906021118,3.918721675872803,-0.6499296426773071,0.1360406875610352,0.4176908731460571,0.01010012626647949,XArbitraryZVertical,-0.3042262562333475,0.2569658189072418,-0.4253377346368,0.8127131806729263,0.158881202340126,0.7130919098854065,-0.6828299164772034,0,0,0,-1,-1,5124.348565666667,unknown,2,2022-06-30T09:54:14.934+02:00,2022-06-30T08:20:05.567+02:00,1418,1.388076,0,0,1121.329,0,0,2022-06-30T09:50:28.075+02:00
2022-06-30T09:54:17.508+02:00,5126.921401500001,0.4294281005859375,1.124801635742188,-0.4597015380859375,5126.9114495,-0.8672387427004996,0.2690193961797007,-0.8183479379327019,-2.343069314956665,4.081148147583008,-0.4333478212356567,0.1881662607192993,0.4012380838394165,0.04895251989364624,XArbitraryZVertical,-0.3060759744528156,0.277298017121266,-0.4304077575314423,0.8026035466267089,0.1816457957029343,0.7300177812576294,-0.6588466167449951,0,0,0,-1,-1,5124.348565666667,unknown,2,2022-06-30T09:54:14.934+02:00,2022-06-30T08:20:05.567+02:00,1418,1.388076,0,0,1121.329,0,0,2022-06-30T09:50:28.075+02:00
2022-06-30T09:54:17.517+02:00,5126.9313535,0.464874267578125,1.115020751953125,-0.3524627685546875,5126.921401500001,-0.8623469026502992,0.3138238572547809,-0.8409111468423813,-2.187628746032715,4.194454669952393,-0.2253285795450211,0.2051301151514053,0.3890566229820251,0.1247729659080505,XArbitraryZVertical,-0.3066405694648944,0.2980979225812074,-0.4347961423376042,0.7925032795393366,0.2058348953723907,0.745250940322876,-0.6342183947563171,0,0,0,-1,-1,5124.348565666667,unknown,2,2022-06-30T09:54:14.934+02:00,2022-06-30T08:20:05.567+02:00,1418,1.388076,0,0,1121.329,0,0,2022-06-30T09:50:28.075+02:00
2022-06-30T09:54:17.528+02:00,5126.9413045,0.485809326171875,1.1119384765625,-0.271820068359375,5126.9313535,-0.8536774001069487,0.3626297641423804,-0.8609065634939363,-1.988517642021179,4.27595043182373,-0.02859211526811123,0.2179597020149231,0.3577005863189697,0.2042133808135986,XArbitraryZVertical,-0.3057743652831554,0.3190917564457427,-0.4385564555293738,0.7825283645861191,0.2311980575323105,0.7584336996078491,-0.6093649864196777,0,0,0,-1,-1,5124.348565666667,unknown,2,2022-06-30T09:54:14.934+02:00,2022-06-30T08:20:05.567+02:00,1418,1.388076,0,0,1121.329,0,0,2022-06-30T09:50:28.075+02:00
2022-06-30T09:54:17.537+02:00,5126.9512565,0.4954833984375,1.093734741210938,-0.1909332275390625,5126.9413045,-0.8421318889844146,0.414368833186011,-0.8778701647520755,-1.73244035243988,4.339110851287842,0.1215337365865707,0.2184008359909058,0.3443739414215088,0.2761672735214233,XArbitraryZVertical,-0.303452601760302,0.3399280872316403,-0.4418589043295474,0.7727394620737043,0.2571852207183838,0.7693800926208496,-0.5847308039665222,0,0,0,-1,-1,5124.348565666667,unknown,2,2022-06-30T09:54:14.934+02:00,2022-06-30T08:20:05.567+02:00,1418,1.388076,0,0,1121.329,0,0,2022-06-30T09:50:28.075+02:00
2022-06-30T09:54:17.548+02:00,5126.9612075,0.541168212890625,1.055419921875,-0.0998077392578125,5126.9512565,-0.8296695679098892,0.46706357808855,-0.891286082992086,-1.377727150917053,4.328348636627197,0.173772007226944,0.2067933678627014,0.3278473019599915,0.3301330804824829,XArbitraryZVertical,-0.299610836493612,0.3601118620892308,-0.4450917877919193,0.7631815342719579,0.2829528152942657,0.7778806090354919,-0.5611056089401245,0,0,0,-1,-1,5124.348565666667,unknown,2,2022-06-30T09:54:14.934+02:00,2022-06-30T08:20:05.567+02:00,1418,1.388076,0,0,1121.329,0,0,2022-06-30T09:50:28.075+02:00
2022-06-30T09:54:17.557+02:00,5126.9711595,0.5526580810546875,1.000839233398438,-0.0288543701171875,5126.9612075,-0.8173324257951957,0.5194647769547023,-0.900907805645777,-1.074663162231445,4.2825026512146,0.293056309223175,0.2101936936378479,0.2911821603775024,0.392737090587616,XArbitraryZVertical,-0.2942442985023529,0.3793729820711487,-0.4483529887765898,0.7539736017443104,0.3082238137722015,0.7838909029960632,-0.5389928817749023,0,0,0,-1,-1,5124.348565666667,unknown,2,2022-06-30T09:54:14.934+02:00,2022-06-30T08:20:05.567+02:00,1418,1.388076,0,0,1121.329,0,0,2022-06-30T09:50:28.075+02:00
2022-06-30T09:54:17.568+02:00,5126.9811105,0.5640411376953125,0.92108154296875,0.02093505859375,5126.9711595,-0.8048629799989004,0.5715409190703475,-0.9072010853983916,-0.8078274726867676,4.208635807037354,0.370060533285141,0.2201428413391113,0.245252251625061,0.4590985774993896,XArbitraryZVertical,-0.287603585375385,0.3978124724805776,-0.4514329401201679,0.7451428653836257,0.3331867754459381,0.7877828478813171,-0.5180588364601135,0,0,0,-1,-1,5124.348565666667,unknown,2,2022-06-30T09:54:14.934+02:00,2022-06-30T08:20:05.567+02:00,1418,1.388076,0,0,1121.329,0,0,2022-06-30T09:50:28.075+02:00
2022-06-30T09:54:17.577+02:00,5126.9910625,0.53643798828125,0.84075927734375,0.0829010009765625,5126.9811105,-0.7929946494817218,0.6224879867822612,-0.9104422816668021,-0.5803272128105164,4.15685510635376,0.4825250208377838,0.2019855380058289,0.1721845865249634,0.4929248094558716,XArbitraryZVertical,-0.2798423657842294,0.4153519389037895,-0.4543935105638532,0.7366801994474778,0.3576459884643555,0.7897751331329346,-0.4983420372009277,0,0,0,-1,-1,5124.348565666667,unknown,2,2022-06-30T09:54:14.934+02:00,2022-06-30T08:20:05.567+02:00,1418,1.388076,0,0,1121.329,0,0,2022-06-30T09:50:28.075+02:00
2022-06-30T09:54:17.587+02:00,5127.001014500001,0.52471923828125,0.7479248046875,0.148223876953125,5126.9910625,-0.7811664412614248,0.6730081756966553,-0.9116986988984274,-0.5134462118148804,4.134949684143066,0.5264082551002502,0.1724324226379395,0.09086328744888306,0.5316033959388733,XArbitraryZVertical,-0.2713644250958959,0.4323502122368895,-0.4570881391625254,0.7283579290738721,0.3817364871501923,0.7905451655387878,-0.4788692891597748,0,0,0,-1,-1,5124.348565666667,unknown,2,2022-06-30T09:54:14.934+02:00,2022-06-30T08:20:05.567+02:00,1418,1.388076,0,0,1121.329,0,0,2022-06-30T09:50:28.075+02:00
2022-06-30T09:54:17.597+02:00,5127.010965500001,0.5111846923828125,0.664306640625,0.2275390625,5127.001014500001,-0.7691416811167964,0.7236830582211159,-0.9120455326083147,-0.5176215171813965,4.137283325195312,0.5697903037071228,0.1247236728668213,0.00462186336517334,0.5693997740745544,XArbitraryZVertical,-0.2625470884159976,0.4491242782816212,-0.4595204597037388,0.7198593149079682,0.4053210616111755,0.7907575368881226,-0.4587128162384033,0,0,0,-1,-1,5124.348565666667,unknown,2,2022-06-30T09:54:14.934+02:00,2022-06-30T08:20:05.567+02:00,1418,1.388076,0,0,1121.329,0,0,2022-06-30T09:50:28.075+02:00
2022-06-30T09:54:17.607+02:00,5127.0209175,0.5003204345703125,0.5900726318359375,0.2759857177734375,5127.010965500001,-0.7558078216386457,0.7752217952801627,-0.9123156581250886,-0.6535069942474365,4.105738639831543,0.6018336415290833,0.09132811427116394,-0.08743190765380859,0.6279730796813965,XArbitraryZVertical,-0.2538436599368835,0.4658627420185008,-0.4614242963373455,0.7110716714838786,0.428264319896698,0.7909228205680847,-0.4370706081390381,0,0,0,-1,-1,5124.348565666667,unknown,2,2022-06-30T09:54:14.934+02:00,2022-06-30T08:20:05.567+02:00,1418,1.388076,0,0,1121.329,0,0,2022-06-30T09:50:28.075+02:00
2022-06-30T09:54:17.617+02:00,5127.0308685,0.4861602783203125,0.51715087890625,0.3607025146484375,5127.0209175,-0.7403231394407437,0.8279063630599708,-0.9130614997463528,-0.8282585740089417,4.022202491760254,0.6218627095222473,0.05714899301528931,-0.1637089848518372,0.6658468246459961,XArbitraryZVertical,-0.2456550078475579,0.4825944030770751,-0.4625989575190718,0.7019675413442771,0.4502516984939575,0.7913790345191956,-0.4135125279426575,0,0,0,-1,-1,5124.348565666667,unknown,2,2022-06-30T09:54:14.934+02:00,2022-06-30T08:20:05.567+02:00,1418,1.388076,0,0,1121.329,0,0,2022-06-30T09:50:28.075+02:00
2022-06-30T09:54:17.627+02:00,5127.0408205,0.4773406982421875,0.466644287109375,0.484283447265625,5127.0408205,-0.7000212212743765,0.937698728076536,-0.9163113923347451,-1.341715812683105,3.81026029586792,0.7068977952003479,-0.009221792221069336,-0.3048058748245239,0.7779802083969116,XArbitraryZVertical,-0.231676619507716,0.515988169737406,-0.4620940994826871,0.6830456245928527,0.4907741248607635,0.7933616042137146,-0.3601643145084381,0,0,0,-1,-1,5124.348565666667,unknown,2,2022-06-30T09:54:14.934+02:00,2022-06-30T08:20:05.567+02:00,1418,1.388076,0,0,1121.329,0,0,2022-06-30T09:50:28.075+02:00
2022-06-30T09:54:17.637+02:00,5127.0507715,0.474395751953125,0.4491424560546875,0.62518310546875,5127.0408205,-0.7000212212743765,0.937698728076536,-0.9163113923347451,-1.341715812683105,3.81026029586792,0.7068977952003479,-0.009221792221069336,-0.3048058748245239,0.7779802083969116,XArbitraryZVertical,-0.231676619507716,0.515988169737406,-0.4620940994826871,0.6830456245928527,0.4907741248607635,0.7933616042137146,-0.3601643145084381,0,0,0,-1,-1,5124.348565666667,unknown,2,2022-06-30T09:54:14.934+02:00,2022-06-30T08:20:05.567+02:00,1418,1.388076,0,0,1121.329,0,0,2022-06-30T09:50:28.075+02:00
2022-06-30T09:54:17.647+02:00,5127.060723500001,0.4857635498046875,0.44219970703125,0.75537109375,5127.0507715,-0.6729863482946911,0.996330615085995,-0.9190258924746858,-1.700015068054199,3.665263891220093,0.7233785390853882,-0.03524202108383179,-0.3402383923530579,0.884256899356842,XArbitraryZVertical,-0.2263584826073276,0.532873452822217,-0.4599937102573723,0.6732114296214559,0.5092260241508484,0.7950111031532288,-0.329615443944931,0,0,0,-1,-1,5124.348565666667,unknown,2,2022-06-30T09:54:14.934+02:00,2022-06-30T08:20:05.567+02:00,1418,1.388076,0,0,1121.329,0,0,2022-06-30T09:50:28.075+02:00
2022-06-30T09:54:17.657+02:00,5127.0706755,0.5120391845703125,0.4404754638671875,0.859588623046875,5127.060723500001,-0.6403684776945116,1.057829458366457,-0.922576289658551,-2.057639360427856,3.470144987106323,0.7218594551086426,-0.04760408401489258,-0.3503062725067139,0.9898961186408997,XArbitraryZVertical,-0.2225331211894258,0.5498408426401453,-0.4565143732304174,0.6631355577966099,0.5260589122772217,0.797159731388092,-0.2963081300258636,0,0,0,-1,-1,5124.348565666667,unknown,2,2022-06-30T09:54:14.934+02:00,2022-06-30T08:20:05.567+02:00,1418,1.388076,0,0,1121.329,0,0,2022-06-30T09:50:28.075+02:00
2022-06-30T09:54:17.667+02:00,5127.0806265,0.5370025634765625,0.4634857177734375,0.9601287841796875,5127.0706755,-0.6026477726618016,1.121110288864621,-0.9265058686281793,-2.353260040283203,3.193383455276489,0.6976871490478516,-0.04499262571334839,-0.3592645525932312,1.070730447769165,XArbitraryZVertical,-0.2202634557042991,0.5665173992279655,-0.4517440283180311,0.653046226386696,0.5409187078475952,0.7995261549949646,-0.2610840797424316,0,0,0,-1,-1,5124.348565666667,unknown,2,2022-06-30T09:54:14.934+02:00,2022-06-30T08:20:05.567+02:00,1418,1.388076,0,0,1121.329,0,0,2022-06-30T09:50:28.075+02:00
2022-06-30T09:54:17.677+02:00,5127.0905785,0.5322723388671875,0.5178680419921875,1.074142456054688,5127.0806265,-0.5611651444904708,1.184360042311064,-0.9301537252249561,-2.510168552398682,2.838606119155884,0.666123628616333,-0.02619898319244385,-0.3551176786422729,1.132467031478882,XArbitraryZVertical,-0.2194234854379269,0.5824240077010753,-0.4459054516512984,0.6432760663670064,0.5536345839500427,0.8017118573188782,-0.2252712249755859,0,0,0,-1,-1,5124.348565666667,unknown,2,2022-06-30T09:54:14.934+02:00,2022-06-30T08:20:05.567+02:00,1418,1.388076,0,0,1121.329,0,0,2022-06-30T09:50:28.075+02:00
2022-06-30T09:54:17.687+02:00,5127.1005295,0.486419677734375,0.552978515625,1.08294677734375,5127.0905785,-0.5172075516755702,1.245421554662768,-0.9334440320250214,-2.668756723403931,2.340479850769043,0.536628246307373,-0.02478420734405518,-0.3147980570793152,1.213964819908142,XArbitraryZVertical,-0.2201497900875946,0.5970116633866629,-0.4392218397744768,0.6341887031068075,0.5638468861579895,0.8036741614341736,-0.190222293138504,0,0,0,-1,-1,5124.348565666667,unknown,2,2022-06-30T09:54:14.934+02:00,2022-06-30T08:20:05.567+02:00,1418,1.388076,0,0,1121.329,0,0,2022-06-30T09:50:28.075+02:00
2022-06-30T09:54:17.697+02:00,5127.110482375,0.4330291748046875,0.573394775390625,1.058395385742188,5127.100530375001,-0.4724991499713294,1.301498916102907,-0.9376367383501027,-2.646816730499268,1.688936352729797,0.2307756394147873,-0.05852800607681274,-0.2653754353523254,1.249982595443726,XArbitraryZVertical,-0.2230159738612441,0.6095509824645813,-0.4322399088015737,0.6260033669317187,0.5703691244125366,0.8061619997024536,-0.1574229449033737,0,0,0,-1,-1,5124.348565666667,unknown,2,2022-06-30T09:54:14.934+02:00,2022-06-30T08:20:05.567+02:00,1418,1.388076,0,0,1121.329,0,0,2022-06-30T09:50:28.075+02:00
2022-06-30T09:54:17.707+02:00,5127.120433375,0.3421783447265625,0.6090087890625,1.067001342773438,5127.110482375,-0.4293695860915476,1.35004468913891,-0.9429652131564756,-2.578496694564819,1.073280096054077,-0.0061181983910501,-0.1100475788116455,-0.2466509938240051,1.196640372276306,XArbitraryZVertical,-0.2278501470996695,0.6194964458823016,-0.4254974482065751,0.6190803136020588,0.5731368064880371,0.8093034029006958,-0.1286169290542603,0,0,0,-1,-1,5124.348565666667,unknown,2,2022-06-30T09:54:14.934+02:00,2022-06-30T08:20:05.567+02:00,1418,1.388076,0,0,1121.329,0,0,2022-06-30T09:50:28.075+02:00
2022-06-30T09:54:17.717+02:00,5127.130385375001,0.2364501953125,0.6470489501953125,1.150634765625,5127.120433375,-0.3863390259555457,1.392935508749289,-0.9489215919471515,-2.656025409698486,0.5592687726020813,-0.1511472910642624,-0.1831716895103455,-0.2264537811279297,1.158549904823303,XArbitraryZVertical,-0.2343960522420475,0.6273148513564342,-0.418625624622459,0.6134224413721301,0.5733696222305298,0.8127877116203308,-0.1030691340565681,0,0,0,-1,-1,5124.348565666667,unknown,2,2022-06-30T09:54:14.934+02:00,2022-06-30T08:20:05.567+02:00,1418,1.388076,0,0,1121.329,0,0,2022-06-30T09:50:28.075+02:00
2022-06-30T09:54:17.727+02:00,5127.140337375,0.19708251953125,0.6445770263671875,1.315841674804688,5127.130385375001,-0.3401116846716599,1.433203763705759,-0.9557073669384258,-2.894149780273438,-0.04787607863545418,-0.3619921803474426,-0.2827591300010681,-0.1804460883140564,1.17480206489563,XArbitraryZVertical,-0.2430547318600906,0.6335234287986916,-0.4110179077587524,0.6087994395641306,0.5715777277946472,0.8167220950126648,-0.0791449248790741,0,0,0,-1,-1,5124.348565666667,unknown,2,2022-06-30T09:54:14.934+02:00,2022-06-30T08:20:05.567+02:00,1418,1.388076,0,0,1121.329,0,0,2022-06-30T09:50:28.075+02:00
2022-06-30T09:54:17.737+02:00,5127.150288375,0.254852294921875,0.6789093017578125,1.5391845703125,5127.140337375,-0.2892614439255513,1.471044092373247,-0.96447304372428,-3.124480962753296,-0.7489409446716309,-0.6823387742042542,-0.3662877678871155,-0.1754018664360046,1.28471565246582,XArbitraryZVertical,-0.2546028808059394,0.6378107626060933,-0.4026035176625189,0.6052151300502371,0.5670174360275269,0.8217487335205078,-0.0567496083676815,0,0,0,-1,-1,5124.348565666667,unknown,2,2022-06-30T09:54:14.934+02:00,2022-06-30T08:20:05.567+02:00,1418,1.388076,0,0,1121.329,0,0,2022-06-30T09:50:28.075+02:00
2022-06-30T09:54:17.746+02:00,5127.160240375,0.2354278564453125,0.7067108154296875,1.789688110351562,5127.150288375,-0.2339417715772597,1.505263543702168,-0.9750909616976556,-3.338648319244385,-1.538465857505798,-0.9054260849952698,-0.3374457359313965,-0.172052264213562,1.457214593887329,XArbitraryZVertical,-0.2691083181650901,0.6396943599141246,-0.3932890646842158,0.6030719131355169,0.5598886609077454,0.827752947807312,-0.03674367815256119,0,0,0,-1,-1,5124.348565666667,unknown,2,2022-06-30T09:54:14.934+02:00,2022-06-30T08:20:05.567+02:00,1418,1.388076,0,0,1121.329,0,0,2022-06-30T09:50:28.075+02:00
2022-06-30T09:54:17.756+02:00,5127.170191375,0.126953125,0.6786346435546875,2.076187133789062,5127.160240375,-0.1727958956514569,1.536412705088815,-0.9869622976691382,-3.641249895095825,-2.408543348312378,-1.134614229202271,-0.2899300456047058,-0.1340533494949341,1.678785085678101,XArbitraryZVertical,-0.2865857185567603,0.6390570393633701,-0.3825696899275714,0.6025904960927225,0.5509013533592224,0.834355354309082,-0.01894945278763771,0,0,0,-1,-1,5124.348565666667,unknown,2,2022-06-30T09:54:14.934+02:00,2022-06-30T08:20:05.567+02:00,1418,1.388076,0,0,1121.329,0,0,2022-06-30T09:50:28.075+02:00
2022-06-30T09:54:17.766+02:00,5127.180143375001,-0.0068206787109375,0.6589508056640625,2.258209228515625,5127.170191375,-0.1029009665451796,1.566537853691893,-1.000523414547492,-4.095794200897217,-3.308295249938965,-1.428324580192566,-0.3557900786399841,-0.1429927945137024,1.935800909996033,XArbitraryZVertical,-0.307598416198226,0.635793774727307,-0.3699731233656126,0.6035474091521754,0.5398570895195007,0.8417536616325378,-0.00229898071847856,0,0,0,-1,-1,5124.348565666667,unknown,2,2022-06-30T09:54:14.934+02:00,2022-06-30T08:20:05.567+02:00,1418,1.388076,0,0,1121.329,0,0,2022-06-30T09:50:28.075+02:00
2022-06-30T09:54:17.776+02:00,5127.190094375001,-0.218292236328125,0.6974639892578125,2.163055419921875,5127.180143375001,-0.02194026972910974,1.597136749145755,-1.015896112202513,-4.558558940887451,-4.310958385467529,-1.74123477935791,-0.4611697793006897,-0.1911090016365051,2.177239894866943,XArbitraryZVertical,-0.3324804962388583,0.6295988874267984,-0.3550926663560524,0.6057815819348065,0.5266760587692261,0.8499529957771301,0.01387607865035534,0,0,0,-1,-1,5124.348565666667,unknown,2,2022-06-30T09:54:14.934+02:00,2022-06-30T08:20:05.567+02:00,1418,1.388076,0,0,1121.329,0,0,2022-06-30T09:50:28.075+02:00
2022-06-30T09:54:17.786+02:00,5127.200046375,-0.376251220703125,0.7525634765625,1.877822875976562,5127.190094375001,0.0704237843301866,1.627676044499429,-1.033495616389901,-4.878118515014648,-5.445499897003174,-2.202968835830688,-0.6134843826293945,-0.1820762157440186,2.224641799926758,XArbitraryZVertical,-0.3613138759596441,0.6196777365589493,-0.3379010529272262,0.6093231770061374,0.5109913349151611,0.8590933680534363,0.02909642830491066,0,0,0,-1,-1,5124.348565666667,unknown,2,2022-06-30T09:54:14.934+02:00,2022-06-30T08:20:05.567+02:00,1418,1.388076,0,0,1121.329,0,0,2022-06-30T09:50:28.075+02:00
2022-06-30T09:54:17.796+02:00,5127.209998375,-0.3338623046875,0.849761962890625,1.76861572265625,5127.200046375,0.1688305146320261,1.651240555497205,-1.055244747198989,-4.708460330963135,-6.958912372589111,-2.818796634674072,-0.8140369057655334,-0.1507827043533325,1.97586989402771,XArbitraryZVertical,-0.393736545289622,0.6039704086095949,-0.3193257849993312,0.6149978632316264,0.491420567035675,0.8700209259986877,0.03961744159460068,0,0,0,-1,-1,5124.348565666667,unknown,2,2022-06-30T09:54:14.934+02:00,2022-06-30T08:20:05.567+02:00,1418,1.388076,0,0,1121.329,0,0,2022-06-30T09:50:28.075+02:00
2022-06-30T09:54:17.807+02:00,5127.219949375,-0.336273193359375,0.948486328125,1.7164306640625,5127.209998375,0.2683047195841076,1.660285446448896,-1.081799416135651,-4.38952112197876,-8.759122848510742,-3.289456844329834,-0.8335379958152771,-0.07839155197143555,1.757610082626343,XArbitraryZVertical,-0.4289425191205092,0.5805158292084636,-0.2992343106050117,0.6240742788185064,0.4678613543510437,0.8828045129776001,0.04198062419891357,0,0,0,-1,-1,5124.348565666667,unknown,2,2022-06-30T09:54:14.934+02:00,2022-06-30T08:20:05.567+02:00,1418,1.388076,0,0,1121.329,0,0,2022-06-30T09:50:28.075+02:00
2022-06-30T09:54:17.817+02:00,5127.229901375001,-0.4073486328125,1.227264404296875,1.973892211914062,5127.219949375,0.3591258386828414,1.644388908861817,-1.113881971642695,-3.308089017868042,-10.62665748596191,-3.803385972976685,-0.7623594999313354,-0.01352214813232422,1.696671962738037,XArbitraryZVertical,-0.4650581421199393,0.5476678866060136,-0.2778542794355661,0.6376346418593754,0.4399872422218323,0.8974180817604065,0.03243837878108025,0,0,0,-1,-1,5124.348565666667,unknown,2,2022-06-30T09:54:14.934+02:00,2022-06-30T08:20:05.567+02:00,1418,1.388076,0,0,1121.329,0,0,2022-06-30T09:50:28.075+02:00
2022-06-30T09:54:17.826+02:00,5127.239852375001,-0.701873779296875,1.603805541992188,2.114715576171875,5127.229901375001,0.4305448342165448,1.594233047359686,-1.152840588893599,-2.507829189300537,-12.44063472747803,-4.278394222259521,-0.7708483934402466,0.1495561003684998,1.791268944740295,XArbitraryZVertical,-0.5001749309315898,0.5045602137778447,-0.2557334525554357,0.6556253717720025,0.4057820439338684,0.9139205813407898,0.00951194204390049,0,0,0,-1,-1,5124.348565666667,unknown,2,2022-06-30T09:54:14.934+02:00,2022-06-30T08:20:05.567+02:00,1418,1.388076,0,0,1121.329,0,0,2022-06-30T09:50:28.075+02:00
2022-06-30T09:54:17.838+02:00,5127.249804375,-1.209396362304688,1.766082763671875,1.83782958984375,5127.239852375001,0.4900208290081107,1.520501006457649,-1.196773171221891,-2.201467990875244,-13.20634269714355,-4.401340007781982,-0.8596829175949097,0.4824345707893372,2.148388147354126,XArbitraryZVertical,-0.5341285775850672,0.4533458931773025,-0.2313489991366755,0.675027289439484,0.3649014830589294,0.9308649897575378,-0.01836832799017429,0,0,0,-1,-1,5124.348565666667,unknown,2,2022-06-30T09:54:14.934+02:00,2022-06-30T08:20:05.567+02:00,1418,1.388076,0,0,1121.329,0,0,2022-06-30T09:50:28.075+02:00
2022-06-30T09:54:17.848+02:00,5127.259755375,-1.777755737304688,1.53216552734375,1.388671875,5127.249804375,0.5325017681348749,1.429961949175828,-1.240921093023736,-1.527451157569885,-12.85230731964111,-4.129146575927734,-1.275353670120239,0.7867358922958374,2.023267269134521,XArbitraryZVertical,-0.5639041852287442,0.3990958445465645,-0.2060943381268713,0.6930077825300398,0.3207181394100189,0.9460827708244324,-0.04546915367245674,0,0,0,-1,-1,5124.348565666667,unknown,2,2022-06-30T09:54:14.934+02:00,2022-06-30T08:20:05.567+02:00,1418,1.388076,0,0,1121.329,0,0,2022-06-30T09:50:28.075+02:00
2022-06-30T09:54:17.857+02:00,5127.269707375001,-13.62701416015625,6.135101318359375,-10.24238586425781,5127.259755375,0.5407243306007585,1.313292881655999,-1.282780469112881,-0.6750779747962952,-12.14856052398682,-4.009270668029785,-1.746898889541626,0.7106242775917053,1.74868381023407,XArbitraryZVertical,-0.5873140202617698,0.3448087363486736,-0.1824796896819504,0.7091335705269671,0.2746851444244385,0.9588093757629395,-0.07233835756778717,0,0,0,-1,-1,5124.348565666667,unknown,2,2022-06-30T09:54:14.934+02:00,2022-06-30T08:20:05.567+02:00,1418,1.388076,0,0,1121.329,0,0,2022-06-30T09:50:28.075+02:00
2022-06-30T09:54:17.866+02:00,5127.279659375,1.291091918945312,7.972122192382812,-15.05091857910156,5127.269707375001,0.6984509918768699,1.489471556057859,-1.276064210839844,-5.875382900238037,7.361107349395752,9.221014976501465,-2.658572435379028,0.6896806359291077,0.907340407371521,XArbitraryZVertical,-0.597792424217105,0.3617257128047306,-0.1772356358885376,0.693098963397784,0.289523184299469,0.9568799734115601,-0.02359745278954506,0,0,0,-1,-1,5124.348565666667,unknown,2,2022-06-30T09:54:14.934+02:00,2022-06-30T08:20:05.567+02:00,1418,1.388076,0,0,1121.329,0,0,2022-06-30T09:50:28.075+02:00
2022-06-30T09:54:17.876+02:00,5127.289610375,3.398162841796875,-1.427459716796875,1.359481811523438,5127.279659375,0.8124955761782553,1.638399892855906,-1.252391416983823,0.1201875507831573,7.262748241424561,-2.767097949981689,-14.92683887481689,11.68670845031738,-23.19920349121094,XArbitraryZVertical,-0.6015290727902916,0.3856636161731253,-0.1747044771435358,0.6774249893813179,0.3123366832733154,0.9497359991073608,0.02114730142056942,0,0,0,-1,-1,5124.348565666667,unknown,2,2022-06-30T09:54:14.934+02:00,2022-06-30T08:20:05.567+02:00,1418,1.388076,0,0,1121.329,0,0,2022-06-30T09:50:28.075+02:00
2022-06-30T09:54:17.886+02:00,5127.299562375,2.096832275390625,0.7203216552734375,-0.816558837890625,5127.289610375,0.8220100933869923,1.644001505314363,-1.302798987274834,1.744195699691772,-8.763445854187012,-2.527600765228271,6.516684532165527,-0.06153196096420288,-3.14146876335144,XArbitraryZVertical,-0.6111033651949269,0.3691022109331719,-0.1908426018153057,0.6737176803468502,0.2640922665596008,0.9643031358718872,0.0193675309419632,0,0,0,-1,-1,5124.348565666667,unknown,2,2022-06-30T09:54:14.934+02:00,2022-06-30T08:20:05.567+02:00,1418,1.388076,0,0,1121.329,0,0,2022-06-30T09:50:28.075+02:00
2022-06-30T09:54:17.896+02:00,5127.309513375,0.0842132568359375,1.189193725585938,-0.2242584228515625,5127.299562375,0.7041949268311856,1.422011362205935,-1.305689097528466,3.491060256958008,-7.170206546783447,0.5565317869186401,2.615546226501465,-1.455314040184021,0.5938932299613953,XArbitraryZVertical,-0.6108083082098685,0.3278616581009724,-0.164526367576678,0.7016772890307159,0.2591180205345154,0.9650644063949585,-0.03883988782763481,0,0,0,-1,-1,5124.348565666667,unknown,2,2022-06-30T09:54:14.934+02:00,2022-06-30T08:20:05.567+02:00,1418,1.388076,0,0,1121.329,0,0,2022-06-30T09:50:28.075+02:00
2022-06-30T09:54:17.906+02:00,5127.319465375001,-0.00146484375,0.36358642578125,0.343902587890625,5127.309513375,0.6505174014135283,1.319771766186224,-1.298147616826495,-0.4026899039745331,-2.83778715133667,-0.1474303901195526,0.9790852069854736,0.3366521596908569,-1.046743392944336,XArbitraryZVertical,-0.6085717607881366,0.3101545568237261,-0.1499881226800125,0.7148064360298828,0.2608438730239868,0.9630610346794128,-0.06688912212848663,0,0,0,-1,-1,5124.348565666667,unknown,2,2022-06-30T09:54:14.934+02:00,2022-06-30T08:20:05.567+02:00,1418,1.388076,0,0,1121.329,0,0,2022-06-30T09:50:28.075+02:00
2022-06-30T09:54:17.916+02:00,5127.329416375001,-0.5017852783203125,0.28466796875,-0.464996337890625,5127.319465375001,0.7106882984905386,1.37065137990806,-1.301388210908186,-2.410817623138428,2.096528768539429,-0.3794745206832886,-0.2947989702224731,-0.2476657032966614,0.4906596541404724,XArbitraryZVertical,-0.6148801390274923,0.3089732624640414,-0.1451168846092749,0.7109142673474768,0.2608480155467987,0.9639285802841187,-0.05291587486863136,0,0,0,-1,-1,5124.348565666667,unknown,2,2022-06-30T09:54:14.934+02:00,2022-06-30T08:20:05.567+02:00,1418,1.388076,0,0,1121.329,0,0,2022-06-30T09:50:28.075+02:00
2022-06-30T09:54:17.926+02:00,5127.339368375,-0.53472900390625,0.3805999755859375,-0.6006317138671875,5127.329416375001,0.7938145217601934,1.473596397599644,-1.309647544751931,-1.776478886604309,2.727978229522705,-1.088141679763794,-0.5894919633865356,-0.7040699124336243,-0.01042038574814796,XArbitraryZVertical,-0.622005945441005,0.3171439327178994,-0.1503189824265677,0.6999519143584899,0.2569724023342133,0.9660940170288086,-0.02505666017532349,0,0,0,-1,-1,5124.348565666667,unknown,2,2022-06-30T09:54:14.934+02:00,2022-06-30T08:20:05.567+02:00,1418,1.388076,0,0,1121.329,0,0,2022-06-30T09:50:28.075+02:00
2022-06-30T09:54:17.936+02:00,5127.349320375,-0.380096435546875,0.7028350830078125,-0.170654296875,5127.339368375,0.8172484132530615,1.516199462998749,-1.321242755322475,0.3562110662460327,1.364785671234131,-1.530369758605957,-0.9398255944252014,-0.6528453826904297,-0.7234464287757874,XArbitraryZVertical,-0.6245994754500549,0.3211493604294385,-0.1593198558542407,0.6937980800366255,0.2466034293174744,0.9690227508544922,-0.01347716711461544,0,0,0,-1,-1,5124.348565666667,unknown,2,2022-06-30T09:54:14.934+02:00,2022-06-30T08:20:05.567+02:00,1418,1.388076,0,0,1121.329,0,0,2022-06-30T09:50:28.075+02:00
2022-06-30T09:54:17.946+02:00,5127.359271375,-0.18731689453125,1.222518920898438,-0.0423126220703125,5127.349320375,0.769804526752447,1.470015860113223,-1.336292709369759,1.561535835266113,-1.397641897201538,-1.977602005004883,-0.7915751934051514,-0.4691051244735718,-0.3035269379615784,XArbitraryZVertical,-0.6236044848052568,0.3153229958549457,-0.1664176201129726,0.6956967250754686,0.231180801987648,0.9726297855377197,-0.02337770909070969,0,0,0,-1,-1,5124.348565666667,unknown,2,2022-06-30T09:54:14.934+02:00,2022-06-30T08:20:05.567+02:00,1418,1.388076,0,0,1121.329,0,0,2022-06-30T09:50:28.075+02:00
2022-06-30T09:54:17.955+02:00,5127.369223375001,-0.0993804931640625,1.384841918945312,-0.16827392578125,5127.359271375,0.6905602452564756,1.36747343218527,-1.354294213688298,1.235706567764282,-3.484923839569092,-2.279925584793091,-0.5801105499267578,-0.0180671215057373,-0.03778541088104248,XArbitraryZVertical,-0.623692867629113,0.2988627930755749,-0.1679522614763284,0.7024815431645285,0.2103899419307709,0.9766548275947571,-0.04337647557258606,0,0,0,-1,-1,5124.348565666667,unknown,2,2022-06-30T09:54:14.934+02:00,2022-06-30T08:20:05.567+02:00,1418,1.388076,0,0,1121.329,0,0,2022-06-30T09:50:28.075+02:00
2022-06-30T09:54:17.965+02:00,5127.379174375001,-0.0330352783203125,1.034027099609375,-0.267333984375,5127.369223375001,0.6293961003463184,1.27216999864544,-1.374822909247898,0.3115178048610687,-3.493377447128296,-2.424658536911011,-0.3669661581516266,0.4107124805450439,-0.03102963790297508,XArbitraryZVertical,-0.6274888059820271,0.2785919917287311,-0.165990802504746,0.7078781039729009,0.1861035972833633,0.9808585643768311,-0.05728860199451447,0,0,0,-1,-1,5124.348565666667,unknown,2,2022-06-30T09:54:14.934+02:00,2022-06-30T08:20:05.567+02:00,1418,1.388076,0,0,1121.329,0,0,2022-06-30T09:50:28.075+02:00
2022-06-30T09:54:17.975+02:00,5127.389126375,0.1092987060546875,0.8019561767578125,-0.2696075439453125,5127.379174375001,0.5584793154720911,1.174755063460601,-1.395709861457084,0.8889052867889404,-2.001072883605957,-2.435244798660278,-0.2782035171985626,0.242842972278595,-0.1628278493881226,XArbitraryZVertical,-0.6311965822736814,0.2607518298677529,-0.1665148463152968,0.7112470222168863,0.1607107222080231,0.9847114682197571,-0.06719871610403061,0,0,0,-1,-1,5124.348565666667,unknown,2,2022-06-30T09:54:14.934+02:00,2022-06-30T08:20:05.567+02:00,1418,1.388076,0,0,1121.329,0,0,2022-06-30T09:50:28.075+02:00
2022-06-30T09:54:17.985+02:00,5127.399078375,0.23394775390625,0.7730712890625,-0.264404296875,5127.389126375,0.4187851867544609,1.026768527559811,-1.410156732965193,1.988406658172607,-0.1987966448068619,-2.250536918640137,-0.1222551017999649,-0.0995977520942688,-0.1928780078887939,XArbitraryZVertical,-0.6299617339194824,0.2485043364549755,-0.1734492937278132,0.7150588128702052,0.1368575990200043,0.9871251583099365,-0.08278761804103851,0,0,0,-1,-1,5124.348565666667,unknown,2,2022-06-30T09:54:14.934+02:00,2022-06-30T08:20:05.567+02:00,1418,1.388076,0,0,1121.329,0,0,2022-06-30T09:50:28.075+02:00
2022-06-30T09:54:17.995+02:00,5127.409029375001,0.2869110107421875,0.8971710205078125,-0.2250213623046875,5127.399078375,0.2145859673695246,0.8297663260967117,-1.41243820666955,2.890393733978271,0.9131940007209778,-2.007882118225098,0.05273783951997757,-0.2225034832954407,-0.1617357730865479,XArbitraryZVertical,-0.6233318564639719,0.2413107438538726,-0.1855190905531905,0.7202840871633081,0.1163446605205536,0.9874875545501709,-0.1064530462026596,0,0,0,-1,-1,5124.348565666667,unknown,2,2022-06-30T09:54:14.934+02:00,2022-06-30T08:20:05.567+02:00,1418,1.388076,0,0,1121.329,0,0,2022-06-30T09:50:28.075+02:00
2022-06-30T09:54:18.005+02:00,5127.418981375,0.249847412109375,1.000442504882812,-0.1669464111328125,5127.409029375001,0.001305455059365308,0.6291586602230206,-1.40318179420952,3.001733541488647,0.8791174292564392,-1.938672304153442,0.1722117215394974,-0.1633080244064331,-0.1172350496053696,XArbitraryZVertical,-0.6139142646611364,0.2359367193594268,-0.1992337581346118,0.726463346823085,0.09817386418581009,0.9859855175018311,-0.1348862797021866,0,0,0,-1,-1,5124.348565666667,unknown,2,2022-06-30T09:54:14.934+02:00,2022-06-30T08:20:05.567+02:00,1418,1.388076,0,0,1121.329,0,0,2022-06-30T09:50:28.075+02:00
2022-06-30T09:54:18.016+02:00,5127.428932375,0.13763427734375,0.902435302734375,-0.262939453125,5127.418981375,-0.1797879416688837,0.4556940996741912,-1.390538161109165,2.389387130737305,-0.003892823122441769,-2.136776685714722,0.2039058804512024,-0.01495587825775146,-0.02640432119369507,XArbitraryZVertical,-0.6059450083717886,0.2287707078440124,-0.2112663506624854,0.7320254505636724,0.07890038192272186,0.9837974309921265,-0.1609892249107361,0,0,0,-1,-1,5124.348565666667,unknown,2,2022-06-30T09:54:14.934+02:00,2022-06-30T08:20:05.567+02:00,1418,1.388076,0,0,1121.329,0,0,2022-06-30T09:50:28.075+02:00
2022-06-30T09:54:18.025+02:00,5127.438884375,-0.0022430419921875,0.7411041259765625,-0.4277191162109375,5127.428932375,-0.3385292630693774,0.2942808753472886,-1.378994030141959,1.998543977737427,-1.081294536590576,-2.462018728256226,0.1501367390155792,-0.006808757781982422,-0.01097166538238525,XArbitraryZVertical,-0.6012262281530272,0.2175088136629866,-0.2205045650423375,0.7366103194303298,0.05529221892356873,0.9816622734069824,-0.1824338734149933,0,0,0,-1,-1,5124.348565666667,unknown,2,2022-06-30T09:54:14.934+02:00,2022-06-30T08:20:05.567+02:00,1418,1.388076,0,0,1121.329,0,0,2022-06-30T09:50:28.075+02:00
2022-06-30T09:54:18.035+02:00,5127.448835375,-0.1214599609375,0.6503143310546875,-0.4873809814453125,5127.438884375,-0.4888649806756984,0.1326873834352026,-1.364930437782074,2.062013149261475,-1.703243851661682,-2.712763786315918,0.04845651984214783,-0.1632105112075806,-0.1479220390319824,XArbitraryZVertical,-0.5981633736366972,0.202216053718501,-0.2279580216302362,0.7411777843034949,0.02704381383955479,0.9788843393325806,-0.2026184946298599,0,0,0,-1,-1,5124.348565666667,unknown,2,2022-06-30T09:54:14.934+02:00,2022-06-30T08:20:05.567+02:00,1418,1.388076,0,0,1121.329,0,0,2022-06-30T09:50:28.075+02:00
2022-06-30T09:54:18.048+02:00,5127.458787375001,-0.1818389892578125,0.638519287109375,-0.4234466552734375,5127.448835375,-0.6234575178394695,-0.01589215393743949,-1.345286802114843,2.202637672424316,-1.665246486663818,-2.781507253646851,-0.05807700753211975,-0.2898812294006348,-0.2524235844612122,XArbitraryZVertical,-0.5949149675473382,0.1851723735983333,-0.2351775980370197,0.7459751079286262,-0.003553383518010378,0.9746803045272827,-0.2235747426748276,0,0,0,-1,-1,5124.348565666667,unknown,2,2022-06-30T09:54:14.934+02:00,2022-06-30T08:20:05.567+02:00,1418,1.388076,0,0,1121.329,0,0,2022-06-30T09:50:28.075+02:00
2022-06-30T09:54:18.059+02:00,5127.468739375,-0.1889801025390625,0.67242431640625,-0.3366546630859375,5127.458787375001,-0.7337292297176069,-0.1375067025888764,-1.321303776486112,2.155504703521729,-1.182355761528015,-2.752549886703491,-0.1212147772312164,-0.3328989744186401,-0.2236193418502808,XArbitraryZVertical,-0.5909021682790476,0.168949029849427,-0.2431993139097403,0.7504298624514397,-0.0338452085852623,0.9690378308296204,-0.2445816993713379,0,0,0,-1,-1,5124.348565666667,unknown,2,2022-06-30T09:54:14.934+02:00,2022-06-30T08:20:05.567+02:00,1418,1.388076,0,0,1121.329,0,0,2022-06-30T09:50:28.075+02:00
2022-06-30T09:54:18.065+02:00,5127.478690375,-0.1710357666015625,0.6695556640625,-0.3076171875,5127.468739375,-0.8233325565307141,-0.2330977245559632,-1.296838531086344,1.782648086547852,-0.6385024785995483,-2.711200952529907,-0.1258610486984253,-0.3072665333747864,-0.1119411289691925,XArbitraryZVertical,-0.5868037784367799,0.1550735644965021,-0.2524006692900081,0.7535963228557704,-0.06249359622597694,0.9627076983451843,-0.2632270157337189,0,0,0,-1,-1,5124.348565666667,unknown,2,2022-06-30T09:54:14.934+02:00,2022-06-30T08:20:05.567+02:00,1418,1.388076,0,0,1121.329,0,0,2022-06-30T09:50:28.075+02:00
2022-06-30T09:54:18.075+02:00,5127.488642375,-0.1894989013671875,0.6449127197265625,-0.4087982177734375,5127.478690375,-0.9014180236910123,-0.3127681449056717,-1.274460930384588,1.386004090309143,-0.3461771905422211,-2.732763290405273,-0.08621949702501297,-0.2781447768211365,-0.0327124297618866,XArbitraryZVertical,-0.5835510830448686,0.1433286933050085,-0.2624310240090075,0.7550198007121243,-0.08985181152820587,0.9564130306243896,-0.2778500318527222,0,0,0,-1,-1,5124.348565666667,unknown,2,2022-06-30T09:54:14.934+02:00,2022-06-30T08:20:05.567+02:00,1418,1.388076,0,0,1121.329,0,0,2022-06-30T09:50:28.075+02:00
2022-06-30T09:54:18.085+02:00,5127.498593375,-0.27593994140625,0.70831298828125,-0.6239013671875,5127.488642375,-0.9725051526639572,-0.3840754848760803,-1.252412577434672,1.357593774795532,-0.385313868522644,-2.822121858596802,-0.05415405333042145,-0.2969716787338257,-0.04818332195281982,XArbitraryZVertical,-0.5808865712107109,0.1321271332771864,-0.2727929184123535,0.7554451655104572,-0.1172938793897629,0.9497426152229309,-0.2902264297008514,0,0,0,-1,-1,5124.348565666667,unknown,2,2022-06-30T09:54:14.934+02:00,2022-06-30T08:20:05.567+02:00,1418,1.388076,0,0,1121.329,0,0,2022-06-30T09:50:28.075+02:00
2022-06-30T09:54:18.095+02:00,5127.508545375001,-0.433563232421875,0.8778076171875,-0.8605804443359375,5127.498593375,-1.035763501273402,-0.448917383776698,-1.227477050367858,1.561168193817139,-0.6191223859786987,-2.963260412216187,-0.07514987885951996,-0.2818679213523865,-0.2086860835552216,XArbitraryZVertical,-0.5779301042315685,0.1198577638137834,-0.2831644760821318,0.7559422930991195,-0.1460874378681183,0.9416425228118896,-0.3032618165016174,0,0,0,-1,-1,5124.348565666667,unknown,2,2022-06-30T09:54:14.934+02:00,2022-06-30T08:20:05.567+02:00,1418,1.388076,0,0,1121.329,0,0,2022-06-30T09:50:28.075+02:00
2022-06-30T09:54:18.105+02:00,5127.518496375001,-0.6487884521484375,1.0546875,-1.123977661132812,5127.508545375001,-1.091759186086884,-0.5088056561354755,-1.199026260720735,1.679569721221924,-0.8449409604072571,-3.150229215621948,-0.1693393439054489,-0.1461482048034668,-0.420162558555603,XArbitraryZVertical,-0.5745913218602412,0.1059253041668494,-0.2934720085661554,0.7566365393587313,-0.1769590228796005,0.9316858053207397,-0.3172492980957031,0,0,0,-1,-1,5124.348565666667,unknown,2,2022-06-30T09:54:14.934+02:00,2022-06-30T08:20:05.567+02:00,1418,1.388076,0,0,1121.329,0,0,2022-06-30T09:50:28.075+02:00
2022-06-30T09:54:18.115+02:00,5127.528448375,-0.8789825439453125,1.11578369140625,-1.34112548828125,5127.518496375001,-1.143199685079769,-0.565336060561661,-1.168098326388891,1.667661309242249,-0.9025707244873047,-3.368963241577148,-0.3250619173049927,0.05242025852203369,-0.6634137034416199,XArbitraryZVertical,-0.5712258411943478,0.09076465837546735,-0.3040444485768706,0.7569808198078001,-0.2099418789148331,0.9200069904327393,-0.3309256434440613,0,0,0,-1,-1,5124.348565666667,unknown,2,2022-06-30T09:54:14.934+02:00,2022-06-30T08:20:05.567+02:00,1418,1.388076,0,0,1121.329,0,0,2022-06-30T09:50:28.075+02:00
2022-06-30T09:54:18.125+02:00,5127.538399375,-1.083663940429688,1.07373046875,-1.348602294921875,5127.528448375,-1.190514388631702,-0.6169014979143738,-1.134215396355799,1.857990264892578,-0.7539761066436768,-3.631709575653076,-0.519250750541687,0.1992201805114746,-0.8960030078887939,XArbitraryZVertical,-0.5673853144259707,0.07498240764640436,-0.3155912297805143,0.7568711124858087,-0.2446196228265762,0.9062026739120483,-0.3449030816555023,0,0,0,-1,-1,5124.348565666667,unknown,2,2022-06-30T09:54:14.934+02:00,2022-06-30T08:20:05.567+02:00,1418,1.388076,0,0,1121.329,0,0,2022-06-30T09:50:28.075+02:00
2022-06-30T09:54:18.135+02:00,5127.548351375,-1.18890380859375,0.982147216796875,-1.301040649414062,5127.538399375,-1.232732468369761,-0.6608777567736304,-1.096126224050286,2.05827784538269,-0.4319054186344147,-3.903068542480469,-0.7099244594573975,0.213766872882843,-1.011849641799927,XArbitraryZVertical,-0.5622451953087095,0.05892599007673706,-0.3287677561401596,0.7565183517382289,-0.2805390059947968,0.889443576335907,-0.3608161509037018,0,0,0,-1,-1,5124.348565666667,unknown,2,2022-06-30T09:54:14.934+02:00,2022-06-30T08:20:05.567+02:00,1418,1.388076,0,0,1121.329,0,0,2022-06-30T09:50:28.075+02:00
2022-06-30T09:54:18.145+02:00,5127.558303375,-1.267822265625,0.919525146484375,-1.191513061523438,5127.548351375,-1.269302265322455,-0.6957355060082616,-1.054838554858451,2.182835102081299,-0.1781654506921768,-3.969234943389893,-0.8366077542304993,0.1593387722969055,-0.9483717083930969,XArbitraryZVertical,-0.555673207402442,0.04332313526115594,-0.3434750809204954,0.7558936990055666,-0.3162244260311127,0.8698205947875977,-0.3787007927894592,0,0,0,-1,-1,5124.348565666667,unknown,2,2022-06-30T09:54:14.934+02:00,2022-06-30T08:20:05.567+02:00,1418,1.388076,0,0,1121.329,0,0,2022-06-30T09:50:28.075+02:00
2022-06-30T09:54:18.155+02:00,5127.568254375,-1.385421752929688,0.8736114501953125,-1.090591430664062,5127.558303375,-1.300857222496642,-0.7223988854205418,-1.013875312015883,1.859641313552856,0.2428784519433975,-3.8315269947052,-0.8785867691040039,0.09529650211334229,-0.8574954271316528,XArbitraryZVertical,-0.5485220168258648,0.02914393136262161,-0.3586716165940624,0.754737621720695,-0.3494865000247955,0.8488866090774536,-0.3965484499931335,0,0,0,-1,-1,5124.348565666667,unknown,2,2022-06-30T09:54:14.934+02:00,2022-06-30T08:20:05.567+02:00,1418,1.388076,0,0,1121.329,0,0,2022-06-30T09:50:28.075+02:00
2022-06-30T09:54:18.165+02:00,5127.578206375,-1.520263671875,0.92877197265625,-1.038116455078125,5127.568254375,-1.332614732102367,-0.7447665765782653,-0.9772114634013357,1.312010884284973,0.6340426802635193,-3.696788311004639,-0.9436053037643433,0.06821471452713013,-0.7230278253555298,XArbitraryZVertical,-0.5422748133050939,0.01769470239322419,-0.3741046044900839,0.7521108361546761,-0.3791182637214661,0.8289408683776855,-0.4112498462200165,0,0,0,-1,-1,5124.348565666667,unknown,2,2022-06-30T09:54:14.934+02:00,2022-06-30T08:20:05.567+02:00,1418,1.388076,0,0,1121.329,0,0,2022-06-30T09:50:28.075+02:00
2022-06-30T09:54:18.174+02:00,5127.588157375,-1.673736572265625,1.213180541992188,-1.136871337890625,5127.578206375,-1.365596776342043,-0.7631947877384891,-0.944188324711402,0.9624398946762085,1.139940500259399,-3.589799880981445,-1.050791263580322,0.06505483388900757,-0.6238410472869873,XArbitraryZVertical,-0.5366969325691215,0.008982368669566089,-0.3901450630280203,0.7481059901067081,-0.405339777469635,0.8100212216377258,-0.4237514436244965,0,0,0,-1,-1,5124.348565666667,unknown,2,2022-06-30T09:54:14.934+02:00,2022-06-30T08:20:05.567+02:00,1418,1.388076,0,0,1121.329,0,0,2022-06-30T09:50:28.075+02:00
2022-06-30T09:54:18.184+02:00,5127.598109375001,-1.856842041015625,1.588760375976562,-1.251800537109375,5127.588157375,-1.39723589705438,-0.774007695080016,-0.9142142889026635,0.7116689682006836,1.816084504127502,-3.314998388290405,-1.164595246315002,0.2539828419685364,-0.6438680291175842,XArbitraryZVertical,-0.5307821347708578,0.003539640172220775,-0.4068956729922114,0.7434337394019389,-0.4266829192638397,0.792083203792572,-0.436515599489212,0,0,0,-1,-1,5124.348565666667,unknown,2,2022-06-30T09:54:14.934+02:00,2022-06-30T08:20:05.567+02:00,1418,1.388076,0,0,1121.329,0,0,2022-06-30T09:50:28.075+02:00
2022-06-30T09:54:18.194+02:00,5127.608060375001,-1.969711303710938,1.901168823242188,-1.373138427734375,5127.598109375001,-1.427061697869601,-0.7758387753653753,-0.8874465231742967,0.5620128512382507,2.499441623687744,-3.121537446975708,-1.324319958686829,0.6273239850997925,-0.7415962219238281,XArbitraryZVertical,-0.5240624187788199,0.00181294550670911,-0.4244267377760852,0.7383882855132619,-0.442174881696701,0.7754620313644409,-0.4507105946540833,0,0,0,-1,-1,5124.348565666667,unknown,2,2022-06-30T09:54:14.934+02:00,2022-06-30T08:20:05.567+02:00,1418,1.388076,0,0,1121.329,0,0,2022-06-30T09:50:28.075+02:00
2022-06-30T09:54:18.204+02:00,5127.618012375,-1.9605712890625,2.081787109375,-1.45330810546875,5127.608060375001,-1.45437687179732,-0.7694561707592993,-0.8611112933347328,0.8134956359863281,2.965909957885742,-3.081233978271484,-1.475229978561401,1.001991748809814,-0.8477321267127991,XArbitraryZVertical,-0.5157300450711255,0.002394102793130029,-0.4429209566418393,0.7333743252199877,-0.4533437490463257,0.7585671544075012,-0.4680335819721222,0,0,0,-1,-1,5124.348565666667,unknown,2,2022-06-30T09:54:14.934+02:00,2022-06-30T08:20:05.567+02:00,1418,1.388076,0,0,1121.329,0,0,2022-06-30T09:50:28.075+02:00
2022-06-30T09:54:18.214+02:00,5127.627964375,-1.924102783203125,2.110748291015625,-1.3785400390625,5127.618012375,-1.475655848328283,-0.7544617352788456,-0.8326043873214377,1.400257587432861,3.23153018951416,-2.876387596130371,-1.518437385559082,1.269743204116821,-0.9263018369674683,XArbitraryZVertical,-0.5047940751605038,0.003620549119775064,-0.461756153660957,0.7293497674861218,-0.4609022438526154,0.7396864891052246,-0.4903396666049957,0,0,0,-1,-1,5124.348565666667,unknown,2,2022-06-30T09:54:14.934+02:00,2022-06-30T08:20:05.567+02:00,1418,1.388076,0,0,1121.329,0,0,2022-06-30T09:50:28.075+02:00
2022-06-30T09:54:18.224+02:00,5127.637915375,-1.976425170898438,2.083953857421875,-1.222335815429688,5127.627964375,-1.487688780403204,-0.7303895576092866,-0.8020276915546471,1.979819059371948,3.377233028411865,-2.471080541610718,-1.47414493560791,1.394773006439209,-0.9233058094978333,XArbitraryZVertical,-0.490942445891615,0.004932101516186935,-0.479706649425451,0.727208865026169,-0.4638433754444122,0.7187673449516296,-0.5179023742675781,0,0,0,-1,-1,5124.348565666667,unknown,2,2022-06-30T09:54:14.934+02:00,2022-06-30T08:20:05.567+02:00,1418,1.388076,0,0,1121.329,0,0,2022-06-30T09:50:28.075+02:00
2022-06-30T09:54:18.234+02:00,5127.647867375001,-2.091964721679688,2.138641357421875,-1.11187744140625,5127.637915375,-1.491536156647065,-0.6987443815057782,-0.7709656633095726,2.343039035797119,3.554826021194458,-2.02771520614624,-1.477703332901001,1.39800500869751,-0.7527264952659607,XArbitraryZVertical,-0.4747398416873698,0.006724735125012396,-0.4962132852142792,0.7268763936766317,-0.4613683223724365,0.6968281865119934,-0.549153745174408,0,0,0,-1,-1,5124.348565666667,unknown,2,2022-06-30T09:54:14.934+02:00,2022-06-30T08:20:05.567+02:00,1418,1.388076,0,0,1121.329,0,0,2022-06-30T09:50:28.075+02:00
2022-06-30T09:54:18.244+02:00,5127.657818375001,-2.159500122070312,2.30523681640625,-1.038253784179688,5127.647867375001,-1.489937129326437,-0.6606563421281159,-0.7403745502805256,2.571799039840698,3.898867607116699,-1.649163126945496,-1.579399108886719,1.41579794883728,-0.5734388828277588,XArbitraryZVertical,-0.456575794493939,0.009730961538809287,-0.5115909282681815,0.7278177278032946,-0.4529953300952911,0.6745644807815552,-0.5828877091407776,0,0,0,-1,-1,5124.348565666667,unknown,2,2022-06-30T09:54:14.934+02:00,2022-06-30T08:20:05.567+02:00,1418,1.388076,0,0,1121.329,0,0,2022-06-30T09:50:28.075+02:00
2022-06-30T09:54:18.254+02:00,5127.667770375,-2.127090454101562,2.507568359375,-0.9568939208984375,5127.657818375001,-1.483629694152262,-0.6159482002369815,-0.7096347975936007,2.988303422927856,4.238182544708252,-1.268978714942932,-1.695200681686401,1.56948184967041,-0.4617286920547485,XArbitraryZVertical,-0.4361262164814577,0.01412270568028863,-0.526092651068764,0.7299458787076487,-0.4382679760456085,0.6515567898750305,-0.6191889643669128,0,0,0,-1,-1,5124.348565666667,unknown,2,2022-06-30T09:54:14.934+02:00,2022-06-30T08:20:05.567+02:00,1418,1.388076,0,0,1121.329,0,0,2022-06-30T09:50:28.075+02:00
2022-06-30T09:54:18.264+02:00,5127.677721375,-2.014114379882812,2.678466796875,-0.92376708984375,5127.667770375,-1.471628720753144,-0.5651991885440905,-0.6762582630585303,3.642721176147461,4.409270763397217,-0.9050862789154053,-1.739223837852478,1.777425527572632,-0.3325217366218567,XArbitraryZVertical,-0.4127128269429363,0.0188127596817055,-0.5394998340218498,0.7336580735108479,-0.4177127480506897,0.625879168510437,-0.6586284041404724,0,0,0,-1,-1,5124.348565666667,unknown,2,2022-06-30T09:54:14.934+02:00,2022-06-30T08:20:05.567+02:00,1418,1.388076,0,0,1121.329,0,0,2022-06-30T09:50:28.075+02:00
2022-06-30T09:54:18.274+02:00,5127.687673375,-1.938735961914062,2.646499633789062,-0.8751678466796875,5127.677721375,-1.453557886794767,-0.5099310671067271,-0.6383667073030784,4.350006580352783,4.446318626403809,-0.5226872563362122,-1.68501877784729,2.006410121917725,-0.2317306995391846,XArbitraryZVertical,-0.3860429189883706,0.0228002359878595,-0.5513649327909901,0.7392210282968343,-0.3919922411441803,0.5958845615386963,-0.7009020447731018,0,0,0,-1,-1,5124.348565666667,unknown,2,2022-06-30T09:54:14.934+02:00,2022-06-30T08:20:05.567+02:00,1418,1.388076,0,0,1121.329,0,0,2022-06-30T09:50:28.075+02:00
2022-06-30T09:54:18.284+02:00,5127.697625375,-1.905593872070312,2.474151611328125,-0.8204803466796875,5127.687673375,-1.43213202243902,-0.4533384985024463,-0.595509614216058,4.883424758911133,4.453288078308105,-0.3779656887054443,-1.604981303215027,2.13641095161438,-0.1624524593353271,XArbitraryZVertical,-0.3566872586897172,0.02557408054029272,-0.561747669984994,0.7460293922308183,-0.3625784516334534,0.5609307289123535,-0.7442403435707092,0,0,0,-1,-1,5124.348565666667,unknown,2,2022-06-30T09:54:14.934+02:00,2022-06-30T08:20:05.567+02:00,1418,1.388076,0,0,1121.329,0,0,2022-06-30T09:50:28.075+02:00
2022-06-30T09:54:18.294+02:00,5127.707576375,-1.858261108398438,2.322738647460938,-0.85858154296875,5127.697625375,-1.411435737884942,-0.397211905167809,-0.5485616604744638,5.101003170013428,4.59790563583374,-0.3146615624427795,-1.591389656066895,2.038933515548706,-0.05600786209106445,XArbitraryZVertical,-0.3252908648513397,0.0276550499478308,-0.571387804137058,0.7529522119562503,-0.3300886154174805,0.5214604735374451,-0.7868421077728271,0,0,0,-1,-1,5124.348565666667,unknown,2,2022-06-30T09:54:14.934+02:00,2022-06-30T08:20:05.567+02:00,1418,1.388076,0,0,1121.329,0,0,2022-06-30T09:50:28.075+02:00
2022-06-30T09:54:18.304+02:00,5127.717528375,-1.756668090820312,2.250274658203125,-0.88397216796875,5127.707576375,-1.392804493210765,-0.3413362038841823,-0.5000904398591409,5.172983646392822,4.74722957611084,-0.1628877371549606,-1.593377470970154,1.916765451431274,0.002006828784942627,XArbitraryZVertical,-0.2926311059659005,0.0301799950339283,-0.5802424854341217,0.7594569841811688,-0.2937531769275665,0.4795049130916595,-0.8269124031066895,0,0,0,-1,-1,5124.348565666667,unknown,2,2022-06-30T09:54:14.934+02:00,2022-06-30T08:20:05.567+02:00,1418,1.388076,0,0,1121.329,0,0,2022-06-30T09:50:28.075+02:00
2022-06-30T09:54:18.314+02:00,5127.727479375,-1.65667724609375,2.23175048828125,-0.867706298828125,5127.717528375,-1.375018958802685,-0.2856604045903742,-0.4503276194076196,5.314557552337646,4.80192232131958,0.1170152798295021,-1.561975836753845,1.83449923992157,-0.02047234773635864,XArbitraryZVertical,-0.2588433877058867,0.03301353178253032,-0.5877349474478561,0.7658184848529863,-0.2536978721618652,0.4352605044841766,-0.8638204336166382,0,0,0,-1,-1,5124.348565666667,unknown,2,2022-06-30T09:54:14.934+02:00,2022-06-30T08:20:05.567+02:00,1418,1.388076,0,0,1121.329,0,0,2022-06-30T09:50:28.075+02:00
2022-06-30T09:54:18.324+02:00,5127.737431375001,-1.60113525390625,2.164016723632812,-0.8152008056640625,5127.727479375,-1.357538718755083,-0.2305780853493643,-0.3990455898149157,5.462838172912598,4.819596767425537,0.3172132670879364,-1.48723042011261,1.854914546012878,0.02238154411315918,XArbitraryZVertical,-0.2240348502588488,0.03585214358186764,-0.5935488206575824,0.7721546438113093,-0.2105844467878342,0.3885391056537628,-0.8970460295677185,0,0,0,-1,-1,5124.348565666667,unknown,2,2022-06-30T09:54:14.934+02:00,2022-06-30T08:20:05.567+02:00,1418,1.388076,0,0,1121.329,0,0,2022-06-30T09:50:28.075+02:00
2022-06-30T09:54:18.334+02:00,5127.747382375001,-1.517578125,1.998855590820312,-0.6739959716796875,5127.737431375001,-1.342178837454563,-0.1767680928197819,-0.345929373360689,5.558239936828613,4.873465061187744,0.3374602198600769,-1.464969635009766,1.867990255355835,0.07639992237091064,XArbitraryZVertical,-0.1883260481087272,0.03850711209734066,-0.5982728818685861,0.7778945679857262,-0.1654317826032639,0.3390711545944214,-0.92610102891922,0,0,0,-1,-1,5124.348565666667,unknown,2,2022-06-30T09:54:14.934+02:00,2022-06-30T08:20:05.567+02:00,1418,1.388076,0,0,1121.329,0,0,2022-06-30T09:50:28.075+02:00
2022-06-30T09:54:18.344+02:00,5127.757334375,-1.442901611328125,1.811233520507812,-0.5548553466796875,5127.747382375001,-1.329755540525978,-0.1238947586231757,-0.2917572753281136,5.542957782745361,4.978044986724854,0.3853337466716766,-1.443243980407715,1.808112859725952,0.1974078416824341,XArbitraryZVertical,-0.1519682710914494,0.04130735746879231,-0.6021568992444895,0.7826918696880811,-0.1183556169271469,0.2876356840133667,-0.9503986835479736,0,0,0,-1,-1,5124.348565666667,unknown,2,2022-06-30T09:54:14.934+02:00,2022-06-30T08:20:05.567+02:00,1418,1.388076,0,0,1121.329,0,0,2022-06-30T09:50:28.075+02:00
2022-06-30T09:54:18.353+02:00,5127.767286375,-1.346969604492188,1.7860107421875,-0.5023040771484375,5127.757334375,-1.319827564613381,-0.07128103981752475,-0.2378992642581868,5.421846389770508,5.070487499237061,0.48397296667099,-1.411360621452332,1.658838748931885,0.3652259707450867,XArbitraryZVertical,-0.1153849674858351,0.04475113896782559,-0.6049895157461191,0.7865567031563732,-0.06921477615833282,0.235661581158638,-0.9693672657012939,0,0,0,-1,-1,5124.348565666667,unknown,2,2022-06-30T09:54:14.934+02:00,2022-06-30T08:20:05.567+02:00,1418,1.388076,0,0,1121.329,0,0,2022-06-30T09:50:28.075+02:00
2022-06-30T09:54:18.364+02:00,5127.777237375,-1.271896362304688,1.851119995117188,-0.429473876953125,5127.767286375,-1.31158150086463,-0.01883784308090351,-0.1839698745910455,5.491678237915039,5.117809295654297,0.6482549905776978,-1.377858519554138,1.591647624969482,0.4620919227600098,XArbitraryZVertical,-0.07851729671737011,0.04857613426394882,-0.6064955588058271,0.7897079643360646,-0.01851886324584484,0.1829338818788528,-0.9829508066177368,0,0,0,-1,-1,5124.348565666667,unknown,2,2022-06-30T09:54:14.934+02:00,2022-06-30T08:20:05.567+02:00,1418,1.388076,0,0,1121.329,0,0,2022-06-30T09:50:28.075+02:00
2022-06-30T09:54:18.373+02:00,5127.787189375001,-1.205123901367188,1.780929565429688,-0.3934783935546875,5127.777237375,-1.304869621752496,0.0329297534339573,-0.1294568121543297,5.437670707702637,5.05587100982666,0.7313445210456848,-1.337122082710266,1.696892857551575,0.5170039534568787,XArbitraryZVertical,-0.04141601027627166,0.05232046832403618,-0.6066156071221437,0.7921899453918024,0.03264830261468887,0.1290955245494843,-0.9910945892333984,0,0,0,-1,-1,5124.348565666667,unknown,2,2022-06-30T09:54:14.934+02:00,2022-06-30T08:20:05.567+02:00,1418,1.388076,0,0,1121.329,0,0,2022-06-30T09:50:28.075+02:00
2022-06-30T09:54:18.384+02:00,5127.797140375001,-1.103469848632812,1.630889892578125,-0.3587188720703125,5127.787189375001,-1.301347063023981,0.08308287029170511,-0.07508829705525145,5.456916809082031,4.962562084197998,0.6018039584159851,-1.326436161994934,1.759347677230835,0.5976853966712952,XArbitraryZVertical,-0.004702577108393059,0.05573710918020233,-0.6060137236440759,0.7934850918750361,0.08275347948074341,0.07501775771379471,-0.9937425255775452,0,0,0,-1,-1,5124.348565666667,unknown,2,2022-06-30T09:54:14.934+02:00,2022-06-30T08:20:05.567+02:00,1418,1.388076,0,0,1121.329,0,0,2022-06-30T09:50:28.075+02:00
2022-06-30T09:54:18.393+02:00,5127.807092375,-1.0062255859375,1.448165893554688,-0.30322265625,5127.797140375001,-1.301725762777477,0.1319348672987425,-0.02016207554154807,5.492647647857666,4.868021011352539,0.5168762803077698,-1.286631107330322,1.689723491668701,0.6044653058052063,XArbitraryZVertical,0.03193437376007268,0.0585348568291902,-0.605053237576529,0.7933880290622666,0.1315256953239441,0.02016071043908596,-0.9911077618598938,0,0,0,-1,-1,5124.348565666667,unknown,2,2022-06-30T09:54:14.934+02:00,2022-06-30T08:20:05.567+02:00,1418,1.388076,0,0,1121.329,0,0,2022-06-30T09:50:28.075+02:00
2022-06-30T09:54:18.403+02:00,5127.817043375,-0.936309814453125,1.28460693359375,-0.2213134765625,5127.807092375,-1.30514405224346,0.1801293370448824,0.03404040467430226,5.372776985168457,4.810737609863281,0.5025533437728882,-1.231924533843994,1.578009247779846,0.654240608215332,XArbitraryZVertical,0.06807584088612817,0.06115871702256664,-0.6034669635293859,0.7921192020027008,0.1790530234575272,-0.03403383120894432,-0.9832505583763123,0,0,0,-1,-1,5124.348565666667,unknown,2,2022-06-30T09:54:14.934+02:00,2022-06-30T08:20:05.567+02:00,1418,1.388076,0,0,1121.329,0,0,2022-06-30T09:50:28.075+02:00
2022-06-30T09:54:18.413+02:00,5127.826995375,-0.8867645263671875,1.169708251953125,-0.1842803955078125,5127.817043375,-1.31080957218851,0.2285119677985975,0.0864738751464621,5.138282775878906,4.869712829589844,0.5279489755630493,-1.193546772003174,1.444397926330566,0.7079445719718933,XArbitraryZVertical,0.1034646030031635,0.06412878106511458,-0.6010336712920552,0.7898994087346398,0.2256819903850555,-0.08636614680290222,-0.9703651666641235,0,0,0,-1,-1,5124.348565666667,unknown,2,2022-06-30T09:54:14.934+02:00,2022-06-30T08:20:05.567+02:00,1418,1.388076,0,0,1121.329,0,0,2022-06-30T09:50:28.075+02:00
2022-06-30T09:54:18.423+02:00,5127.836947375,-0.80999755859375,1.063949584960938,-0.136474609375,5127.826995375,-1.31767270532427,0.2782143815639028,0.1352862733368961,4.688337802886963,4.964415550231934,0.6024922132492065,-1.184757709503174,1.361085057258606,0.7513913512229919,XArbitraryZVertical,0.1376212377791228,0.06840799164022995,-0.5974863011610342,0.7870138846473324,0.2721296846866608,-0.1348739713430405,-0.9527614712715149,0,0,0,-1,-1,5124.348565666667,unknown,2,2022-06-30T09:54:14.934+02:00,2022-06-30T08:20:05.567+02:00,1418,1.388076,0,0,1121.329,0,0,2022-06-30T09:50:28.075+02:00
2022-06-30T09:54:18.433+02:00,5127.846898375,-0.723602294921875,1.017684936523438,-0.059906005859375,5127.836947375,-1.324877611676343,0.3290744114437018,0.1797479337613018,4.28917932510376,5.026604652404785,0.704603910446167,-1.169019460678101,1.291955590248108,0.76874178647995,XArbitraryZVertical,0.1701486248778725,0.07417455444942077,-0.5926945265860113,0.7837479704038056,0.3179606199264526,-0.1787815690040588,-0.9310951828956604,0,0,0,-1,-1,5124.348565666667,unknown,2,2022-06-30T09:54:14.934+02:00,2022-06-30T08:20:05.567+02:00,1418,1.388076,0,0,1121.329,0,0,2022-06-30T09:50:28.075+02:00
2022-06-30T09:54:18.443+02:00,5127.856850375,-0.64892578125,1.012298583984375,0.0584564208984375,5127.846898375,-1.332069077694596,0.3805923199459739,0.2210774443450328,3.99137544631958,5.051292896270752,0.8559615612030029,-1.12781023979187,1.249660730361938,0.8031260371208191,XArbitraryZVertical,0.2013287142258167,0.0808870967330489,-0.5866099650307169,0.7802645702472654,0.3624295294284821,-0.2192809730768204,-0.9058480262756348,0,0,0,-1,-1,5124.348565666667,unknown,2,2022-06-30T09:54:14.934+02:00,2022-06-30T08:20:05.567+02:00,1418,1.388076,0,0,1121.329,0,0,2022-06-30T09:50:28.075+02:00
2022-06-30T09:54:18.453+02:00,5127.866801375,-0.5458984375,0.977508544921875,0.14093017578125,5127.856850375,-1.339029274725157,0.4323488950918905,0.260060714782869,3.758726119995117,5.024406433105469,0.983870804309845,-1.091347217559814,1.274091243743896,0.86736661195755,XArbitraryZVertical,0.231299110300499,0.08817293399849135,-0.5792354880057667,0.7766675150981542,0.4049154222011566,-0.2571392357349396,-0.8774524927139282,0,0,0,-1,-1,5124.348565666667,unknown,2,2022-06-30T09:54:14.934+02:00,2022-06-30T08:20:05.567+02:00,1418,1.388076,0,0,1121.329,0,0,2022-06-30T09:50:28.075+02:00
2022-06-30T09:54:18.463+02:00,5127.876753375001,-0.448516845703125,0.9191436767578125,0.074127197265625,5127.866801375,-1.346416488980803,0.4840868549554868,0.2977444465172862,3.678958177566528,4.969861030578613,1.084995031356812,-1.045585155487061,1.290983915328979,0.9661364555358887,XArbitraryZVertical,0.2603735668301109,0.0955373757155515,-0.570832446652722,0.7728056210990331,0.4449230134487152,-0.2933646440505981,-0.8461564183235168,0,0,0,-1,-1,5124.348565666667,unknown,2,2022-06-30T09:54:14.934+02:00,2022-06-30T08:20:05.567+02:00,1418,1.388076,0,0,1121.329,0,0,2022-06-30T09:50:28.075+02:00
2022-06-30T09:54:18.473+02:00,5127.886704375001,-0.380035400390625,0.835205078125,0.011749267578125,5127.876753375001,-1.354409609763696,0.5358297346593667,0.3350276494282159,3.625373125076294,4.924389839172363,1.239479184150696,-0.9763547778129578,1.280226230621338,0.9332549571990967,XArbitraryZVertical,0.2888597910262485,0.1026671386497955,-0.5614067997610643,0.7686624366714881,0.482168436050415,-0.3287952840328217,-0.8120389580726624,0,0,0,-1,-1,5124.348565666667,unknown,2,2022-06-30T09:54:14.934+02:00,2022-06-30T08:20:05.567+02:00,1418,1.388076,0,0,1121.329,0,0,2022-06-30T09:50:28.075+02:00
2022-06-30T09:54:18.483+02:00,5127.896656375,-0.3273468017578125,0.796661376953125,0.0741729736328125,5127.886704375001,-1.363586964536331,0.5873684135772883,0.3731813516819391,3.805695295333862,4.802617073059082,1.370898365974426,-0.9273457527160645,1.240967750549316,0.8000426292419434,XArbitraryZVertical,0.3171311158704594,0.1089637023887288,-0.5510380501903334,0.7641412749092668,0.516029953956604,-0.3645796477794647,-0.7751095294952393,0,0,0,-1,-1,5124.348565666667,unknown,2,2022-06-30T09:54:14.934+02:00,2022-06-30T08:20:05.567+02:00,1418,1.388076,0,0,1121.329,0,0,2022-06-30T09:50:28.075+02:00
2022-06-30T09:54:18.493+02:00,5127.906607375,-0.2972259521484375,0.781005859375,0.207366943359375,5127.896656375,-1.375399909843883,0.6386772152362169,0.413196679510313,4.02634334564209,4.589894771575928,1.451754570007324,-0.8979998826980591,1.211414098739624,0.7671306133270264,XArbitraryZVertical,0.3455318437729989,0.1137974731502749,-0.5400924955418178,0.7589189819419748,0.5459644198417664,-0.4015390276908875,-0.73531574010849,0,0,0,-1,-1,5124.348565666667,unknown,2,2022-06-30T09:54:14.934+02:00,2022-06-30T08:20:05.567+02:00,1418,1.388076,0,0,1121.329,0,0,2022-06-30T09:50:28.075+02:00
2022-06-30T09:54:18.503+02:00,5127.916559375,-0.2806243896484375,0.7294921875,0.32257080078125,5127.906607375,-1.390123482117926,0.6891951942486102,0.4540836379861077,4.07115364074707,4.329229831695557,1.484890341758728,-0.8817620873451233,1.228036880493164,0.8310326337814331,XArbitraryZVertical,0.3735113408249829,0.1171064878428821,-0.5289122682627615,0.7530120934318427,0.5714746713638306,-0.4386389851570129,-0.693550705909729,0,0,0,-1,-1,5124.348565666667,unknown,2,2022-06-30T09:54:14.934+02:00,2022-06-30T08:20:05.567+02:00,1418,1.388076,0,0,1121.329,0,0,2022-06-30T09:50:28.075+02:00
2022-06-30T09:54:18.513+02:00,5127.926511375001,-0.2499237060546875,0.6325225830078125,0.44622802734375,5127.916559375,-1.407213503224896,0.7387254199008436,0.4941223459995756,4.02367115020752,4.066441535949707,1.465856671333313,-0.8820343613624573,1.235977530479431,0.9172964692115784,XArbitraryZVertical,0.4003787188301364,0.1193749622914147,-0.5176964677395497,0.7466170463995944,0.5928040742874146,-0.4742591679096222,-0.650892972946167,0,0,0,-1,-1,5124.348565666667,unknown,2,2022-06-30T09:54:14.934+02:00,2022-06-30T08:20:05.567+02:00,1418,1.388076,0,0,1121.329,0,0,2022-06-30T09:50:28.075+02:00
2022-06-30T09:54:18.523+02:00,5127.936462375001,-0.198486328125,0.5567779541015625,0.47137451171875,5127.926511375001,-1.427159857493006,0.7881066688755761,0.5334114389441624,4.106239318847656,3.913610219955444,1.478588223457336,-0.878159761428833,1.191288948059082,0.9955283403396606,XArbitraryZVertical,0.4264001832733151,0.1207133394513082,-0.5065118409480306,0.7396329830416455,0.610520601272583,-0.508473813533783,-0.607222318649292,0,0,0,-1,-1,5124.348565666667,unknown,2,2022-06-30T09:54:14.934+02:00,2022-06-30T08:20:05.567+02:00,1418,1.388076,0,0,1121.329,0,0,2022-06-30T09:50:28.075+02:00
2022-06-30T09:54:18.533+02:00,5127.946414375,-0.155029296875,0.5065155029296875,0.4387664794921875,5127.936462375001,-1.450093452326981,0.8384914911291429,0.5727991211662783,4.166334629058838,3.805387735366821,1.577874541282654,-0.8504055738449097,1.131006002426147,1.034618735313416,XArbitraryZVertical,0.4520925091220649,0.1211488586628268,-0.4949917600867538,0.732064649021715,0.6249417066574097,-0.5419865250587463,-0.5618706345558167,0,0,0,-1,-1,5124.348565666667,unknown,2,2022-06-30T09:54:14.934+02:00,2022-06-30T08:20:05.567+02:00,1418,1.388076,0,0,1121.329,0,0,2022-06-30T09:50:28.075+02:00
2022-06-30T09:54:18.543+02:00,5127.956365375,-0.12786865234375,0.456817626953125,0.3857269287109375,5127.946414375,-1.474958456520729,0.8897039782669165,0.6118206656461849,4.08425235748291,3.70681619644165,1.680663108825684,-0.8099572658538818,1.106935977935791,0.9756632447242737,XArbitraryZVertical,0.4771409785717778,0.1209249471302893,-0.4828766814110678,0.7242539628393179,0.6359612345695496,-0.5743588209152222,-0.51542729139328,0,0,0,-1,-1,5124.348565666667,unknown,2,2022-06-30T09:54:14.934+02:00,2022-06-30T08:20:05.567+02:00,1418,1.388076,0,0,1121.329,0,0,2022-06-30T09:50:28.075+02:00
2022-06-30T09:54:18.553+02:00,5127.966317375,-0.1085052490234375,0.4403228759765625,0.36273193359375,5127.956365375,-1.502132313924359,0.9418016513098947,0.6500157095033039,4.125293731689453,3.540362596511841,1.698503613471985,-0.7835832238197327,1.08440089225769,0.8788025975227356,XArbitraryZVertical,0.5014013222647099,0.1200778143551034,-0.4704119041270667,0.7161638257025535,0.6437211036682129,-0.6051989197731018,-0.4683560729026794,0,0,0,-1,-1,5124.348565666667,unknown,2,2022-06-30T09:54:14.934+02:00,2022-06-30T08:20:05.567+02:00,1418,1.388076,0,0,1121.329,0,0,2022-06-30T09:50:28.075+02:00
2022-06-30T09:54:18.563+02:00,5127.976268375,-0.0900726318359375,0.470733642578125,0.4507293701171875,5127.966317375,-1.534132550512729,0.9956581535628327,0.6874178735163906,4.31007719039917,3.297006368637085,1.622176647186279,-0.7666153907775879,1.077444911003113,0.7874020934104919,XArbitraryZVertical,0.5251890457345896,0.1181955531578681,-0.4582697430691965,0.7072448533030167,0.6485428810119629,-0.6345435976982117,-0.420412540435791,0,0,0,-1,-1,5124.348565666667,unknown,2,2022-06-30T09:54:14.934+02:00,2022-06-30T08:20:05.567+02:00,1418,1.388076,0,0,1121.329,0,0,2022-06-30T09:50:28.075+02:00
2022-06-30T09:54:18.573+02:00,5127.986220375,-0.06103515625,0.5052947998046875,0.596405029296875,5127.976268375,-1.572407293757962,1.051819860518148,0.723558257972519,4.45723819732666,3.019298076629639,1.530881881713867,-0.7513886094093323,1.113394975662231,0.7611432671546936,XArbitraryZVertical,0.5485355721066553,0.1150958745609995,-0.4468919326032567,0.6972441581651274,0.6507720947265625,-0.6620556116104126,-0.3717233240604401,0,0,0,-1,-1,5124.348565666667,unknown,2,2022-06-30T09:54:14.934+02:00,2022-06-30T08:20:05.567+02:00,1418,1.388076,0,0,1121.329,0,0,2022-06-30T09:50:28.075+02:00
2022-06-30T09:54:18.582+02:00,5127.996172375,-0.0232696533203125,0.501495361328125,0.72381591796875,5127.986220375,-1.615343131247994,1.109790289442211,0.7574966535644366,4.34821081161499,2.839129447937012,1.476382970809937,-0.7264696359634399,1.177582979202271,0.848188042640686,XArbitraryZVertical,0.5709860434493766,0.1112223722828202,-0.4360648068607816,0.6866236979764152,0.6507096886634827,-0.6871047616004944,-0.3232090473175049,0,0,0,-1,-1,5124.348565666667,unknown,2,2022-06-30T09:54:14.934+02:00,2022-06-30T08:20:05.567+02:00,1418,1.388076,0,0,1121.329,0,0,2022-06-30T09:50:28.075+02:00
2022-06-30T09:54:18.592+02:00,5128.006123375,0.050201416015625,0.462371826171875,0.7957611083984375,5127.996172375,-1.659684297196765,1.168543282575405,0.7881758448798989,4.019956111907959,2.781253576278687,1.438318133354187,-0.6943584680557251,1.218360543251038,0.9393875002861023,XArbitraryZVertical,0.5919630412209862,0.1074766097122057,-0.4252972391249121,0.6761293554236639,0.6488566994667053,-0.7090681791305542,-0.2760570645332336,0,0,0,-1,-1,5124.348565666667,unknown,2,2022-06-30T09:54:14.934+02:00,2022-06-30T08:20:05.567+02:00,1418,1.388076,0,0,1121.329,0,0,2022-06-30T09:50:28.075+02:00
2022-06-30T09:54:18.602+02:00,5128.016075375001,0.14215087890625,0.4249114990234375,0.8278350830078125,5128.006123375,-1.702942228016102,1.227291632555285,0.8152650997068268,3.613395214080811,2.800341129302979,1.403049468994141,-0.6357766389846802,1.21202278137207,1.001100540161133,XArbitraryZVertical,0.6112383459116444,0.1045162873871133,-0.4141986904808869,0.666260895379934,0.6456184983253479,-0.7279074192047119,-0.2309280633926392,0,0,0,-1,-1,5124.348565666667,unknown,2,2022-06-30T09:54:14.934+02:00,2022-06-30T08:20:05.567+02:00,1418,1.388076,0,0,1121.329,0,0,2022-06-30T09:50:28.075+02:00
2022-06-30T09:54:18.612+02:00,5128.026026375001,0.2642059326171875,0.4361724853515625,0.86712646484375,5128.016075375001,-1.744899129445611,1.286005870977484,0.8389551131069046,3.323106527328491,2.813667774200439,1.330614924430847,-0.5474216938018799,1.184832572937012,0.9959896206855774,XArbitraryZVertical,0.6289925701227255,0.1024457772000726,-0.4027979463942189,0.6569832674077943,0.6413241624832153,-0.743945300579071,-0.1877464205026627,0,0,0,-1,-1,5124.348565666667,unknown,2,2022-06-30T09:54:14.934+02:00,2022-06-30T08:20:05.567+02:00,1418,1.388076,0,0,1121.329,0,0,2022-06-30T09:50:28.075+02:00
2022-06-30T09:54:18.623+02:00,5128.035978375,0.3927001953125,0.5121002197265625,0.948089599609375,5128.026026375001,-1.786786705258574,1.345237341455876,0.8596400077838976,3.140043020248413,2.783105850219727,1.26642107963562,-0.4364544153213501,1.179986000061035,0.9978933334350586,XArbitraryZVertical,0.6456070380807282,0.101004128911991,-0.391323795401281,0.6479624835143967,0.636176586151123,-0.757607638835907,-0.1459794342517853,0,0,0,-1,-1,5124.348565666667,unknown,2,2022-06-30T09:54:14.934+02:00,2022-06-30T08:20:05.567+02:00,1418,1.388076,0,0,1121.329,0,0,2022-06-30T09:50:28.075+02:00
2022-06-30T09:54:18.632+02:00,5128.045929375,0.5052337646484375,0.5859832763671875,1.0787353515625,5128.035978375,-1.828981113546769,1.404660891486929,0.8779707964013858,2.967501163482666,2.715845584869385,1.250724673271179,-0.300696074962616,1.23656153678894,0.9949234127998352,XArbitraryZVertical,0.6612353685934977,0.09977483959122925,-0.3798787818103634,0.6391438758073525,0.6299195289611816,-0.7694444060325623,-0.1056255400180817,0,0,0,-1,-1,5124.348565666667,unknown,2,2022-06-30T09:54:14.934+02:00,2022-06-30T08:20:05.567+02:00,1418,1.388076,0,0,1121.329,0,0,2022-06-30T09:50:28.075+02:00
2022-06-30T09:54:18.642+02:00,5128.055881375,0.60546875,0.5761871337890625,1.0821533203125,5128.045929375,-1.871306756761077,1.463888598623676,0.8945873769192908,2.898315906524658,2.623358964920044,1.288532495498657,-0.1714164614677429,1.335584282875061,1.093132257461548,XArbitraryZVertical,0.6759498954826031,0.09849780214585743,-0.3684000908571564,0.6306119103466453,0.6222677826881409,-0.7799509167671204,-0.06677984446287155,0,0,0,-1,-1,5124.348565666667,unknown,2,2022-06-30T09:54:14.934+02:00,2022-06-30T08:20:05.567+02:00,1418,1.388076,0,0,1121.329,0,0,2022-06-30T09:50:28.075+02:00
2022-06-30T09:54:18.652+02:00,5128.065833375001,0.71527099609375,0.50518798828125,1.001678466796875,5128.055881375,-1.917302554788379,1.524997493541408,0.910289334754133,3.179462671279907,2.442179679870605,1.357830047607422,-0.05753064155578613,1.381706833839417,1.122342586517334,XArbitraryZVertical,0.6904146507209508,0.09635003312787535,-0.3570813725735158,0.6217212278691195,0.6128741502761841,-0.7896812558174133,-0.02808856219053268,0,0,0,-1,-1,5124.348565666667,unknown,2,2022-06-30T09:54:14.934+02:00,2022-06-30T08:20:05.567+02:00,1418,1.388076,0,0,1121.329,0,0,2022-06-30T09:50:28.075+02:00
2022-06-30T09:54:18.662+02:00,5128.075784375001,0.82586669921875,0.416534423828125,0.9708404541015625,5128.065833375001,-1.973821503609125,1.592577371522415,0.9255107271359467,3.903620719909668,2.206191539764404,1.521585583686829,0.0548740029335022,1.342064380645752,1.032907009124756,XArbitraryZVertical,0.7057379781408039,0.09210451903405451,-0.346229165509076,0.6112088342534708,0.6012843251228333,-0.7989280223846436,0.01309867203235626,0,0,0,-1,-1,5124.348565666667,unknown,2,2022-06-30T09:54:14.934+02:00,2022-06-30T08:20:05.567+02:00,1418,1.388076,0,0,1121.329,0,0,2022-06-30T09:50:28.075+02:00
2022-06-30T09:54:18.673+02:00,5128.085736375,0.8623046875,0.2532501220703125,1.062026977539062,5128.075784375001,-2.040653735693395,1.664619445649149,0.9430931742388113,4.425365924835205,1.891257405281067,1.846893668174744,0.1914488077163696,1.272436738014221,0.9134554862976074,XArbitraryZVertical,0.7214276616650449,0.08397800527915349,-0.3353983759630229,0.5999982885000932,0.5847046375274658,-0.8093785643577576,0.05502035096287727,0,0,0,-1,-1,5124.348565666667,unknown,2,2022-06-30T09:54:14.934+02:00,2022-06-30T08:20:05.567+02:00,1418,1.388076,0,0,1121.329,0,0,2022-06-30T09:50:28.075+02:00
2022-06-30T09:54:18.682+02:00,5128.095687375,0.822540283203125,0.0397491455078125,1.148361206054688,5128.085736375,-2.120198283919454,1.746643894080435,0.9577457387858523,4.535764217376709,1.729842066764832,2.134352684020996,0.2930654287338257,1.167688846588135,0.9068517684936523,XArbitraryZVertical,0.7381099643612291,0.07430794442706634,-0.3246768731714213,0.5867342320346349,0.56649249792099,-0.8178966045379639,0.1006559804081917,0,0,0,-1,-1,5124.348565666667,unknown,2,2022-06-30T09:54:14.934+02:00,2022-06-30T08:20:05.567+02:00,1418,1.388076,0,0,1121.329,0,0,2022-06-30T09:50:28.075+02:00
2022-06-30T09:54:18.692+02:00,5128.10563875,0.8940582275390625,-0.132843017578125,1.13970947265625,5128.095687375,-2.203618137138895,1.831347342751243,0.9699235415554127,4.340429306030273,1.500603079795837,2.266822099685669,0.2602527141571045,0.9645669460296631,0.9711616039276123,XArbitraryZVertical,0.754162392795385,0.0637300490753136,-0.3137248992572529,0.5733711357911627,0.5462809801101685,-0.8248425126075745,0.145644873380661,0,0,0,-1,-1,5124.348565666667,unknown,2,2022-06-30T09:54:14.934+02:00,2022-06-30T08:20:05.567+02:00,1418,1.388076,0,0,1121.329,0,0,2022-06-30T09:50:28.075+02:00
2022-06-30T09:54:18.702+02:00,5128.11558975,0.851654052734375,-0.2271270751953125,1.102005004882812,5128.10563875,-2.287483704325913,1.914003945200288,0.979983897004166,4.195857524871826,1.183333277702332,2.363232135772705,0.3671888113021851,0.7838268876075745,0.9688178300857544,XArbitraryZVertical,0.7687762096928419,0.05202961534742981,-0.3032145424581265,0.5606577452628586,0.5245498418807983,-0.830488383769989,0.1874478757381439,0,0,0,-1,-1,5124.348565666667,unknown,2,2022-06-30T09:54:14.934+02:00,2022-06-30T08:20:05.567+02:00,1418,1.388076,0,0,1121.329,0,0,2022-06-30T09:50:28.075+02:00
2022-06-30T09:54:18.712+02:00,5128.125541750001,0.7932891845703125,-0.1561126708984375,1.1246337890625,5128.11558975,-2.373873332599017,1.99623024816374,0.9863226728480085,4.309170246124268,0.9609005451202393,2.361725330352783,0.360567033290863,0.6362943053245544,0.8833792209625244,XArbitraryZVertical,0.7825021792181648,0.03937791405226432,-0.2935734037647649,0.5476810529349095,0.5025767087936401,-0.8340026140213013,0.2277205586433411,0,0,0,-1,-1,5124.348565666667,unknown,2,2022-06-30T09:54:14.934+02:00,2022-06-30T08:20:05.567+02:00,1418,1.388076,0,0,1121.329,0,0,2022-06-30T09:50:28.075+02:00
