loggingTime(txt),accelerometerTimestamp_sinceReboot(s),accelerometerAccelerationX(G),accelerometerAccelerationY(G),accelerometerAccelerationZ(G),motionTimestamp_sinceReboot(s),motionYaw(rad),motionRoll(rad),motionPitch(rad),motionRotationRateX(rad/s),motionRotationRateY(rad/s),motionRotationRateZ(rad/s),motionUserAccelerationX(G),motionUserAccelerationY(G),motionUserAccelerationZ(G),motionAttitudeReferenceFrame(txt),motionQuaternionX(R),motionQuaternionY(R),motionQuaternionZ(R),motionQuaternionW(R),motionGravityX(G),motionGravityY(G),motionGravityZ(G),motionMagneticFieldX(µT),motionMagneticFieldY(µT),motionMagneticFieldZ(µT),motionHeading(°),motionMagneticFieldCalibrationAccuracy(Z),activityTimestamp_sinceReboot(s),activity(txt),activityActivityConfidence(Z),activityActivityStartDate(txt),pedometerStartDate(txt),pedometerNumberofSteps(N),pedometerAverageActivePace(s/m),pedometerCurrentPace(s/m),pedometerCurrentCadence(steps/s),pedometerDistance(m),pedometerFloorAscended(N),pedometerFloorDescended(N),pedometerEndDate(txt)
2022-06-30T09:54:58.481+02:00,5167.881702625,-0.0541839599609375,-0.3221435546875,-0.8871612548828125,5167.871750625,-0.3426821537310671,-0.1663939986599147,0.2922778375857939,-0.08864849060773849,0.4518403708934784,0.1239525824785233,0.2079191505908966,-0.225782185792923,0.06661778688430786,XArbitraryZVertical,0.1289726676527582,-0.10575415941154,-0.180026939814901,0.9694186158337872,-0.1586029976606369,-0.2881342172622681,-0.9443641901016235,0,0,0,-1,-1,5165.107295166667,unknown,2,2022-06-30T09:54:55.693+02:00,2022-06-30T08:20:05.567+02:00,1419,1.400763,0,0,1122.37,0,0,2022-06-30T09:54:50.603+02:00
2022-06-30T09:54:58.483+02:00,5167.891653625,0.00250244140625,-0.2156524658203125,-0.941070556640625,5167.881702625,-0.3421597924979586,-0.1622087002559589,0.2899051629191125,-0.3282227218151093,0.4189175665378571,0.03974210098385811,0.08426329493522644,-0.1227235794067383,0.06619060039520264,XArbitraryZVertical,0.1282209815910733,-0.1035060572895452,-0.1794388959053395,0.9698698231823401,-0.1547591388225555,-0.2858613431453705,-0.9456917643547058,0,0,0,-1,-1,5165.107295166667,unknown,2,2022-06-30T09:54:55.693+02:00,2022-06-30T08:20:05.567+02:00,1419,1.400763,0,0,1122.37,0,0,2022-06-30T09:54:50.603+02:00
2022-06-30T09:54:58.488+02:00,5167.901604625,0.006805419921875,-0.17498779296875,-0.9365234375,5167.891653625,-0.3428111055729708,-0.1584181024959524,0.2875539008700957,-0.1416181027889252,0.3019048869609833,-0.09958270192146301,0.1288177371025085,0.02286487817764282,0.03341966867446899,XArbitraryZVertical,0.1273826780628216,-0.1015249006496352,-0.1794494927818817,0.9701877537646328,-0.1512789130210876,-0.2836074233055115,-0.9469326734542847,0,0,0,-1,-1,5165.107295166667,unknown,2,2022-06-30T09:54:55.693+02:00,2022-06-30T08:20:05.567+02:00,1419,1.400763,0,0,1122.37,0,0,2022-06-30T09:54:50.603+02:00
2022-06-30T09:54:58.498+02:00,5167.911556625,-0.0633697509765625,-0.2895050048828125,-0.9415740966796875,5167.901604625,-0.3452834685061411,-0.1552388501799357,0.2869985094363909,-0.1125888451933861,0.2123803347349167,-0.3096331357955933,0.1633368730545044,0.10077765583992,0.001016020774841309,XArbitraryZVertical,0.1272736116335668,-0.1000962406516131,-0.1804319689616758,0.9701683430987236,-0.1482919454574585,-0.2830747961997986,-0.9475643634796143,0,0,0,-1,-1,5165.107295166667,unknown,2,2022-06-30T09:54:55.693+02:00,2022-06-30T08:20:05.567+02:00,1419,1.400763,0,0,1122.37,0,0,2022-06-30T09:54:50.603+02:00
2022-06-30T09:54:58.508+02:00,5167.921507625,-0.12542724609375,-0.321014404296875,-0.9583282470703125,5167.911556625,-0.3475857099378358,-0.1523173721528292,0.286018699231507,-0.14943528175354,0.2968367338180542,-0.09407142549753189,0.1274068504571915,0.06228595972061157,0.01911395788192749,XArbitraryZVertical,0.126946250034706,-0.09874736183614742,-0.1813384226371355,0.9701804113620874,-0.1455650478601456,-0.2821349203586578,-0.9482672214508057,0,0,0,-1,-1,5165.107295166667,unknown,2,2022-06-30T09:54:55.693+02:00,2022-06-30T08:20:05.567+02:00,1419,1.400763,0,0,1122.37,0,0,2022-06-30T09:54:50.603+02:00
2022-06-30T09:54:58.517+02:00,5167.931459625001,-0.08245849609375,-0.29827880859375,-0.961944580078125,5167.921507625,-0.348581582527504,-0.1483693916883598,0.2845062235505591,-0.1944680064916611,0.4318515360355377,-0.07490838319063187,0.03334710001945496,-0.04498511552810669,-0.003670990467071533,XArbitraryZVertical,0.1265191582188507,-0.09677381639520044,-0.1815345884302123,0.970398366193747,-0.1418831050395966,-0.2806835472583771,-0.9492554664611816,0,0,0,-1,-1,5165.107295166667,unknown,2,2022-06-30T09:54:55.693+02:00,2022-06-30T08:20:05.567+02:00,1419,1.400763,0,0,1122.37,0,0,2022-06-30T09:54:50.603+02:00
2022-06-30T09:54:58.528+02:00,5167.941410625001,-0.042205810546875,-0.310394287109375,-0.9722747802734375,5167.931459625001,-0.3495469939411898,-0.1435170112309022,0.2822359134757721,-0.2870799601078033,0.4986041188240051,-0.03026274964213371,0.02655650675296783,-0.0245208740234375,-0.007614493370056152,XArbitraryZVertical,0.1258078178807142,-0.09429684383539998,-0.1816440542185399,0.9707142007216931,-0.1373660862445831,-0.278503805398941,-0.950560986995697,0,0,0,-1,-1,5165.107295166667,unknown,2,2022-06-30T09:54:55.693+02:00,2022-06-30T08:20:05.567+02:00,1419,1.400763,0,0,1122.37,0,0,2022-06-30T09:54:50.603+02:00
2022-06-30T09:54:58.537+02:00,5167.951362625,-0.027801513671875,-0.32879638671875,-0.9730682373046875,5167.941410625001,-0.3497826136876818,-0.1384979815320469,0.2792178697525113,-0.3147880136966705,0.5015490055084229,0.06185226142406464,0.07495415210723877,-0.0288245677947998,-0.01509630680084229,XArbitraryZVertical,0.1247820299204137,-0.09163041608078457,-0.1813769799626441,0.97115184557186,-0.1327089220285416,-0.2756038904190063,-0.9520666003227234,0,0,0,-1,-1,5165.107295166667,unknown,2,2022-06-30T09:54:55.693+02:00,2022-06-30T08:20:05.567+02:00,1419,1.400763,0,0,1122.37,0,0,2022-06-30T09:54:50.603+02:00
2022-06-30T09:54:58.547+02:00,5167.961313625,-0.0140838623046875,-0.36553955078125,-0.96270751953125,5167.951362625,-0.3495078932061957,-0.1338024569048671,0.2759599696866999,-0.3440905809402466,0.4583031237125397,0.07938455045223236,0.09455765783786774,-0.0454312264919281,-0.02153342962265015,XArbitraryZVertical,0.1236320153644502,-0.08906791144250878,-0.1808829948615937,0.9716292695906315,-0.1283561140298843,-0.2724707126617432,-0.9535640478134155,0,0,0,-1,-1,5165.107295166667,unknown,2,2022-06-30T09:54:55.693+02:00,2022-06-30T08:20:05.567+02:00,1419,1.400763,0,0,1122.37,0,0,2022-06-30T09:54:50.603+02:00
2022-06-30T09:54:58.558+02:00,5167.971264625,0.0085601806640625,-0.3636474609375,-0.9604644775390625,5167.961313625,-0.3491985270946069,-0.1296345060238555,0.2722106138453171,-0.3903430104255676,0.4141979813575745,0.06892631947994232,0.1033933758735657,-0.07658275961875916,-0.01121139526367188,XArbitraryZVertical,0.1221942602912866,-0.08671809933365375,-0.1804005738015749,0.9721132489520969,-0.1245118007063866,-0.2688612937927246,-0.9550970792770386,0,0,0,-1,-1,5165.107295166667,unknown,2,2022-06-30T09:54:55.693+02:00,2022-06-30T08:20:05.567+02:00,1419,1.400763,0,0,1122.37,0,0,2022-06-30T09:54:50.603+02:00
2022-06-30T09:54:58.567+02:00,5167.981216625,0.0017852783203125,-0.3275299072265625,-0.9710845947265625,5167.971264625,-0.3489949463739636,-0.1257665584142298,0.2683142694983285,-0.3853312730789185,0.3798632919788361,0.07185569405555725,0.117681473493576,-0.1079408228397369,-0.005356132984161377,XArbitraryZVertical,0.1206513560814681,-0.08450718524232871,-0.1799909577624661,0.9725764785455961,-0.1209470927715302,-0.2651064097881317,-0.9566035866737366,0,0,0,-1,-1,5165.107295166667,unknown,2,2022-06-30T09:54:55.693+02:00,2022-06-30T08:20:05.567+02:00,1419,1.400763,0,0,1122.37,0,0,2022-06-30T09:54:50.603+02:00
2022-06-30T09:54:58.578+02:00,5167.991167625,-0.0162200927734375,-0.2795562744140625,-0.9763641357421875,5167.981216625,-0.3486366318133188,-0.1222843612943616,0.2646883654674374,-0.3217834532260895,0.3567265570163727,0.08897795528173447,0.1270851492881775,-0.08615493774414062,-0.003886163234710693,XArbitraryZVertical,0.1192104898389511,-0.08249545781411939,-0.1795398986253211,0.9730102079674844,-0.1177317649126053,-0.2616085112094879,-0.9579667448997498,0,0,0,-1,-1,5165.107295166667,unknown,2,2022-06-30T09:54:55.693+02:00,2022-06-30T08:20:05.567+02:00,1419,1.400763,0,0,1122.37,0,0,2022-06-30T09:54:50.603+02:00
2022-06-30T09:54:58.587+02:00,5168.001119625001,-0.016357421875,-0.254730224609375,-0.9745025634765625,5167.991167625,-0.347945161750789,-0.1190711819909187,0.2619235767483299,-0.2255749851465225,0.3360318839550018,0.1130540296435356,0.1053693816065788,-0.04336848855018616,-0.01769089698791504,XArbitraryZVertical,0.1181775395337052,-0.08066464926210123,-0.1789627409649831,0.9733959086710793,-0.1147385239601135,-0.2589389979839325,-0.9590545892715454,0,0,0,-1,-1,5165.107295166667,unknown,2,2022-06-30T09:54:55.693+02:00,2022-06-30T08:20:05.567+02:00,1419,1.400763,0,0,1122.37,0,0,2022-06-30T09:54:50.603+02:00
2022-06-30T09:54:58.597+02:00,5168.011070625001,-0.0059967041015625,-0.277587890625,-0.9828948974609375,5168.001119625001,-0.3468838315099361,-0.1159789903730928,0.2600260947665817,-0.1280478984117508,0.3480699062347412,0.1230802983045578,0.09441852569580078,-0.004613339900970459,-0.01395523548126221,XArbitraryZVertical,0.1175698351274728,-0.07894169349239712,-0.1782307266869808,0.9737450872631443,-0.1118290573358536,-0.2571057677268982,-0.9598910808563232,0,0,0,-1,-1,5165.107295166667,unknown,2,2022-06-30T09:54:55.693+02:00,2022-06-30T08:20:05.567+02:00,1419,1.400763,0,0,1122.37,0,0,2022-06-30T09:54:50.603+02:00
2022-06-30T09:54:58.607+02:00,5168.021022625,0.0158843994140625,-0.2834930419921875,-0.9698333740234375,5168.011070625001,-0.345842847168756,-0.1128896891980175,0.259307267795203,-0.001138882245868444,0.3314160108566284,0.09659992903470993,0.09512023627758026,-0.008191972970962524,-0.02061784267425537,XArbitraryZVertical,0.1175343253679919,-0.07731752302704623,-0.1775301897358338,0.9740075974366132,-0.1088839247822762,-0.2564110457897186,-0.9604153633117676,0,0,0,-1,-1,5165.107295166667,unknown,2,2022-06-30T09:54:55.693+02:00,2022-06-30T08:20:05.567+02:00,1419,1.400763,0,0,1122.37,0,0,2022-06-30T09:54:50.603+02:00
2022-06-30T09:54:58.618+02:00,5168.030973625,0.0201263427734375,-0.293670654296875,-0.9717559814453125,5168.021022625,-0.344763583161222,-0.1101186539646747,0.2595439726731185,0.06019771471619606,0.2901497781276703,0.105907142162323,0.1118304803967476,-0.02757075428962708,-0.01642811298370361,XArbitraryZVertical,0.1179367524314534,-0.07592364944038708,-0.1768452315922679,0.9741931563443148,-0.1062154918909073,-0.256639838218689,-0.9606530666351318,0,0,0,-1,-1,5165.107295166667,unknown,2,2022-06-30T09:54:55.693+02:00,2022-06-30T08:20:05.567+02:00,1419,1.400763,0,0,1122.37,0,0,2022-06-30T09:54:50.603+02:00
2022-06-30T09:54:58.627+02:00,5168.040924625,0.014129638671875,-0.323486328125,-0.974884033203125,5168.030973625,-0.343647590017188,-0.107758760715749,0.2603562285612588,0.1146586239337921,0.2479787915945053,0.08580490201711655,0.1246926635503769,-0.02799120545387268,-0.007568120956420898,XArbitraryZVertical,0.1185837201774284,-0.07477411993914047,-0.1761746476482704,0.9743250695461143,-0.1039257124066353,-0.2574248015880585,-0.9606934785842896,0,0,0,-1,-1,5165.107295166667,unknown,2,2022-06-30T09:54:55.693+02:00,2022-06-30T08:20:05.567+02:00,1419,1.400763,0,0,1122.37,0,0,2022-06-30T09:54:50.603+02:00
2022-06-30T09:54:58.637+02:00,5168.050876625,0.0147247314453125,-0.3545379638671875,-0.967681884765625,5168.040924625,-0.3428868291284145,-0.1058147876280089,0.2616414797239452,0.1448162496089935,0.1964711248874664,0.02864946983754635,0.1189751774072647,-0.04753196239471436,-0.0138164758682251,XArbitraryZVertical,0.1194106750769696,-0.07388607177435087,-0.1757076054238836,0.9743761382599277,-0.1020229235291481,-0.2586665153503418,-0.9605638980865479,0,0,0,-1,-1,5165.107295166667,unknown,2,2022-06-30T09:54:55.693+02:00,2022-06-30T08:20:05.567+02:00,1419,1.400763,0,0,1122.37,0,0,2022-06-30T09:54:50.603+02:00
2022-06-30T09:54:58.647+02:00,5168.060827625,0.0179290771484375,-0.342926025390625,-0.9664764404296875,5168.050876625,-0.3427922532914416,-0.1040772395847585,0.2628352337121221,0.07822132110595703,0.1624519228935242,-0.02866112440824509,0.1124978587031364,-0.08011618256568909,-0.01208686828613281,XArbitraryZVertical,0.1201497221563549,-0.07313067228780511,-0.1755747603369294,0.9743661977198677,-0.1003215909004211,-0.2598194479942322,-0.9604318737983704,0,0,0,-1,-1,5165.107295166667,unknown,2,2022-06-30T09:54:55.693+02:00,2022-06-30T08:20:05.567+02:00,1419,1.400763,0,0,1122.37,0,0,2022-06-30T09:54:50.603+02:00
2022-06-30T09:54:58.657+02:00,5168.070779625,-0.003570556640625,-0.2980804443359375,-0.971954345703125,5168.060827625,-0.3429284567333668,-0.1026923488173078,0.2633651387836388,0.03106312826275826,0.1216243281960487,-0.005460996646434069,0.1158227249979973,-0.09762516617774963,-0.003678381443023682,XArbitraryZVertical,0.1205251080163683,-0.07250714866501981,-0.1755652385471021,0.9743681656995336,-0.09897727519273758,-0.2603311240673065,-0.9604328274726868,0,0,0,-1,-1,5165.107295166667,unknown,2,2022-06-30T09:54:55.693+02:00,2022-06-30T08:20:05.567+02:00,1419,1.400763,0,0,1122.37,0,0,2022-06-30T09:54:50.603+02:00
2022-06-30T09:54:58.667+02:00,5168.080730625,-0.0229644775390625,-0.2819976806640625,-0.9577789306640625,5168.070779625,-0.3427270444443752,-0.1017037759492421,0.26373490218976,0.04749569669365883,0.1005622744560242,0.02824953012168407,0.1092024296522141,-0.05941110849380493,-0.01226752996444702,XArbitraryZVertical,0.1207997011939505,-0.07204337771007056,-0.1754125639439974,0.974396016509234,-0.09801799058914185,-0.2606881260871887,-0.9604343771934509,0,0,0,-1,-1,5165.107295166667,unknown,2,2022-06-30T09:54:55.693+02:00,2022-06-30T08:20:05.567+02:00,1419,1.400763,0,0,1122.37,0,0,2022-06-30T09:54:50.603+02:00
2022-06-30T09:54:58.677+02:00,5168.090682625,-0.0124359130859375,-0.3086700439453125,-0.95025634765625,5168.080730625,-0.3423557753027047,-0.1007940164693321,0.2643086135501204,0.06479080021381378,0.1095195487141609,0.02097244188189507,0.07900142669677734,-0.02501329779624939,-0.003981173038482666,XArbitraryZVertical,0.1211729430034941,-0.07162420098370026,-0.1751843998157952,0.9744216099313016,-0.09712912142276764,-0.2612419426441193,-0.9603741765022278,0,0,0,-1,-1,5165.107295166667,unknown,2,2022-06-30T09:54:55.693+02:00,2022-06-30T08:20:05.567+02:00,1419,1.400763,0,0,1122.37,0,0,2022-06-30T09:54:50.603+02:00
2022-06-30T09:54:58.687+02:00,5168.100633625,-0.0036163330078125,-0.3184967041015625,-0.9428863525390625,5168.090682625,-0.3421315896997754,-0.09979864687024884,0.2649011967103839,0.04609234631061554,0.1098170503973961,0.0150899849832058,0.07598532736301422,-0.02998027205467224,0.006840348243713379,XArbitraryZVertical,0.1215574681655181,-0.0711736509883982,-0.1750226192147986,0.9744358717833173,-0.09615770727396011,-0.2618139088153839,-0.9603161811828613,0,0,0,-1,-1,5165.107295166667,unknown,2,2022-06-30T09:54:55.693+02:00,2022-06-30T08:20:05.567+02:00,1419,1.400763,0,0,1122.37,0,0,2022-06-30T09:54:50.603+02:00
2022-06-30T09:54:58.697+02:00,5168.110585625001,-0.0190277099609375,-0.3097686767578125,-0.9402008056640625,5168.100633625,-0.3418742575621003,-0.09877034183740722,0.2650957388841634,-0.005955675151199102,0.1153497695922852,0.03043538518249989,0.08900032937526703,-0.05734989047050476,0.01314413547515869,XArbitraryZVertical,0.121751539205403,-0.07067273822914522,-0.1748372234493426,0.9744813688835416,-0.09516513347625732,-0.2620016634464264,-0.9603638648986816,0,0,0,-1,-1,5165.107295166667,unknown,2,2022-06-30T09:54:55.693+02:00,2022-06-30T08:20:05.567+02:00,1419,1.400763,0,0,1122.37,0,0,2022-06-30T09:54:50.603+02:00
2022-06-30T09:54:58.707+02:00,5168.120536625001,-0.020904541015625,-0.3145751953125,-0.9365997314453125,5168.110585625001,-0.3415207401858051,-0.09774881376656873,0.2648831377554509,-0.03041434660553932,0.1179861202836037,0.04174739494919777,0.08459144085645676,-0.05078014731407166,0.01990336179733276,XArbitraryZVertical,0.1217493953289263,-0.07013625153262748,-0.1746000647148055,0.9745629320436927,-0.09418947994709015,-0.2617964744567871,-0.9605159759521484,0,0,0,-1,-1,5165.107295166667,unknown,2,2022-06-30T09:54:55.693+02:00,2022-06-30T08:20:05.567+02:00,1419,1.400763,0,0,1122.37,0,0,2022-06-30T09:54:50.603+02:00
2022-06-30T09:54:58.717+02:00,5168.130487625001,-0.0120697021484375,-0.3095855712890625,-0.9312286376953125,5168.120536625001,-0.3410512170598246,-0.09662567283691424,0.2643946235695338,-0.06945762038230896,0.1343712210655212,0.05921746417880058,0.0692732185125351,-0.05274704098701477,0.02120381593704224,XArbitraryZVertical,0.1216251592814991,-0.06952083599097209,-0.174296792801241,0.9746768672208119,-0.09312295168638229,-0.2613249719142914,-0.9607483744621277,0,0,0,-1,-1,5165.107295166667,unknown,2,2022-06-30T09:54:55.693+02:00,2022-06-30T08:20:05.567+02:00,1419,1.400763,0,0,1122.37,0,0,2022-06-30T09:54:50.603+02:00
2022-06-30T09:54:58.727+02:00,5168.140439625,-0.0196075439453125,-0.299713134765625,-0.9196624755859375,5168.130487625001,-0.3439115840031325,-0.08229236730160278,0.2734394642539811,-0.08116427063941956,0.1394035518169403,0.08016411960124969,0.06358140707015991,-0.04155537486076355,0.02636200189590454,XArbitraryZVertical,0.1271976284393071,-0.06345123796467252,-0.1748931394803316,0.9742726284077381,-0.07914562523365021,-0.2700447142124176,-0.959589421749115,0,0,0,-1,-1,5165.107295166667,unknown,2,2022-06-30T09:54:55.693+02:00,2022-06-30T08:20:05.567+02:00,1419,1.400763,0,0,1122.37,0,0,2022-06-30T09:54:50.603+02:00
2022-06-30T09:54:58.737+02:00,5168.150390625,-0.0257720947265625,-0.281646728515625,-0.916168212890625,5168.140439625,-0.346547479359342,-0.06843355597984514,0.2839654141875632,-0.08783069998025894,0.1441517025232315,0.09719450771808624,0.05027581751346588,-0.02726998925209045,0.03132885694503784,XArbitraryZVertical,0.1334668545237383,-0.0577412528408551,-0.1753416653123075,0.9737082466568833,-0.06564166396856308,-0.2801644504070282,-0.9577050805091858,0,0,0,-1,-1,5165.107295166667,unknown,2,2022-06-30T09:54:55.693+02:00,2022-06-30T08:20:05.567+02:00,1419,1.400763,0,0,1122.37,0,0,2022-06-30T09:54:50.603+02:00
2022-06-30T09:54:58.747+02:00,5168.160342625,-0.0242156982421875,-0.2970123291015625,-0.9112396240234375,5168.150390625,-0.3480377966779391,-0.05819476111525062,0.2872095981574677,-0.07305987179279327,0.1613540053367615,0.1154895573854446,0.03272321447730064,-0.005129516124725342,0.04181104898452759,XArbitraryZVertical,0.1359052092896934,-0.05312707448799682,-0.1753878644512422,0.9736254516801948,-0.05577949434518814,-0.2832772433757782,-0.9574145674705505,0,0,0,-1,-1,5165.107295166667,unknown,2,2022-06-30T09:54:55.693+02:00,2022-06-30T08:20:05.567+02:00,1419,1.400763,0,0,1122.37,0,0,2022-06-30T09:54:50.603+02:00
2022-06-30T09:54:58.757+02:00,5168.170293625,-0.0081024169921875,-0.3060760498046875,-0.9056396484375,5168.160342625,-0.3481938912510075,-0.0520495079847059,0.2867620171323354,-0.05277857556939125,0.194094106554985,0.1169590950012207,0.02272536233067513,-0.003605633974075317,0.04194188117980957,XArbitraryZVertical,0.1362213436581252,-0.05010835831100847,-0.1750453191011709,0.9738029297513636,-0.04990151524543762,-0.2828479409217834,-0.9578657746315002,0,0,0,-1,-1,5165.107295166667,unknown,2,2022-06-30T09:54:55.693+02:00,2022-06-30T08:20:05.567+02:00,1419,1.400763,0,0,1122.37,0,0,2022-06-30T09:54:50.603+02:00
2022-06-30T09:54:58.767+02:00,5168.180245625001,0.001678466796875,-0.3086090087890625,-0.9056396484375,5168.170293625,-0.3479791889745664,-0.04703163252219293,0.2873098609411671,-0.06204391270875931,0.2173635512590408,0.1112742722034454,0.02776817977428436,-0.02085670828819275,0.04912060499191284,XArbitraryZVertical,0.1369323125294652,-0.04769633802781382,-0.1745979513422132,0.9739046011184671,-0.04508716240525246,-0.2833733856678009,-0.9579492211341858,0,0,0,-1,-1,5165.107295166667,unknown,2,2022-06-30T09:54:55.693+02:00,2022-06-30T08:20:05.567+02:00,1419,1.400763,0,0,1122.37,0,0,2022-06-30T09:54:50.603+02:00
2022-06-30T09:54:58.776+02:00,5168.190196625001,0.0058135986328125,-0.31341552734375,-0.915771484375,5168.180245625001,-0.3478157402309144,-0.04169751237829782,0.2899153825124537,-0.07383692264556885,0.2151501923799515,0.1179225891828537,0.0377330370247364,-0.0207240879535675,0.0549694299697876,XArbitraryZVertical,0.1386713400773721,-0.0453066576041208,-0.1741465744890771,0.9738535060477939,-0.0399458184838295,-0.285871148109436,-0.957435131072998,0,0,0,-1,-1,5165.107295166667,unknown,2,2022-06-30T09:54:55.693+02:00,2022-06-30T08:20:05.567+02:00,1419,1.400763,0,0,1122.37,0,0,2022-06-30T09:54:50.603+02:00
2022-06-30T09:54:58.786+02:00,5168.200148625,0.002105712890625,-0.2991943359375,-0.92901611328125,5168.190196625001,-0.3472498007591635,-0.037478764335882,0.2916861767605141,-0.05676372721791267,0.2132571488618851,0.1285467594861984,0.03889300301671028,-0.02572619915008545,0.0460314154624939,XArbitraryZVertical,0.1399137564458677,-0.04336194289278113,-0.1735720908796597,0.9738668559904867,-0.03588727116584778,-0.2875675857067108,-0.9570877552032471,0,0,0,-1,-1,5165.107295166667,unknown,2,2022-06-30T09:54:55.693+02:00,2022-06-30T08:20:05.567+02:00,1419,1.400763,0,0,1122.37,0,0,2022-06-30T09:54:50.603+02:00
2022-06-30T09:54:58.796+02:00,5168.210099625,-0.0031890869140625,-0.3026580810546875,-0.9300079345703125,5168.200148625,-0.34615315449589,-0.03490637576770413,0.2935858840705487,-0.03870509937405586,0.2095252722501755,0.1305484026670456,0.03923463076353073,-0.01661360263824463,0.03530365228652954,XArbitraryZVertical,0.1410858953273661,-0.04219190270993957,-0.1728502495225495,0.9738775384457251,-0.03340602666139603,-0.2893865406513214,-0.95662921667099,0,0,0,-1,-1,5165.107295166667,unknown,2,2022-06-30T09:54:55.693+02:00,2022-06-30T08:20:05.567+02:00,1419,1.400763,0,0,1122.37,0,0,2022-06-30T09:54:50.603+02:00
2022-06-30T09:54:58.806+02:00,5168.220050625,0.0030517578125,-0.3006744384765625,-0.922637939453125,5168.210099625,-0.345215191435253,-0.03224111774399537,0.2949017042810261,-0.02132864110171795,0.1990294605493546,0.1115457490086555,0.02867694199085236,-0.008884608745574951,0.02452510595321655,XArbitraryZVertical,0.1419765895367387,-0.04093799649290266,-0.1721990724161401,0.9739170028727191,-0.03084394708275795,-0.2906458079814911,-0.9563334584236145,0,0,0,-1,-1,5165.107295166667,unknown,2,2022-06-30T09:54:55.693+02:00,2022-06-30T08:20:05.567+02:00,1419,1.400763,0,0,1122.37,0,0,2022-06-30T09:54:50.603+02:00
2022-06-30T09:54:58.819+02:00,5168.230002625,0.0073699951171875,-0.3076171875,-0.9222259521484375,5168.220050625,-0.3443461180973539,-0.03002136333631209,0.2957739490890861,-0.01856694184243679,0.1784602701663971,0.08999358862638474,0.0284385122358799,-0.01159015297889709,0.03037995100021362,XArbitraryZVertical,0.1426100413475225,-0.03986820917156928,-0.1716135365821849,0.9739721963084289,-0.02871342748403549,-0.2914802730083466,-0.9561458230018616,0,0,0,-1,-1,5165.107295166667,unknown,2,2022-06-30T09:54:55.693+02:00,2022-06-30T08:20:05.567+02:00,1419,1.400763,0,0,1122.37,0,0,2022-06-30T09:54:50.603+02:00
2022-06-30T09:54:58.835+02:00,5168.239953625,0.012420654296875,-0.317535400390625,-0.9161529541015625,5168.230002625,-0.3436426112162769,-0.02845892795344527,0.2958545290105607,-0.02306768298149109,0.1476684361696243,0.05258509516716003,0.03419182077050209,-0.009483635425567627,0.03444373607635498,XArbitraryZVertical,0.1427970872327795,-0.03906382986155118,-0.171158999995688,0.9740573576841595,-0.02721880935132504,-0.2915573716163635,-0.9561660289764404,0,0,0,-1,-1,5165.107295166667,unknown,2,2022-06-30T09:54:55.693+02:00,2022-06-30T08:20:05.567+02:00,1419,1.400763,0,0,1122.37,0,0,2022-06-30T09:54:50.603+02:00
2022-06-30T09:54:58.837+02:00,5168.249905625,0.024169921875,-0.3114166259765625,-0.9159088134765625,5168.239953625,-0.3432364101179087,-0.02730244187399573,0.2957810658925437,-0.03658935055136681,0.1187033653259277,0.02439420484006405,0.03455143421888351,-0.02150154113769531,0.03737986087799072,XArbitraryZVertical,0.1428680472358483,-0.038465428758325,-0.1708789984841,0.9741199112826684,-0.02611358277499676,-0.2914870977401733,-0.9562182426452637,0,0,0,-1,-1,5165.107295166667,unknown,2,2022-06-30T09:54:55.693+02:00,2022-06-30T08:20:05.567+02:00,1419,1.400763,0,0,1122.37,0,0,2022-06-30T09:54:50.603+02:00
2022-06-30T09:54:58.846+02:00,5168.259856625,0.016937255859375,-0.299102783203125,-0.9194183349609375,5168.249905625,-0.343162639859824,-0.02618356105302437,0.2960000217382743,-0.06484189629554749,0.07689309120178223,0.006538974121212959,0.04387108981609344,-0.02422177791595459,0.04154086112976074,XArbitraryZVertical,0.1430717401135323,-0.03793346665859101,-0.1707617572013225,0.974131426868689,-0.02504200115799904,-0.2916965186595917,-0.9561830759048462,0,0,0,-1,-1,5165.107295166667,unknown,2,2022-06-30T09:54:55.693+02:00,2022-06-30T08:20:05.567+02:00,1419,1.400763,0,0,1122.37,0,0,2022-06-30T09:54:50.603+02:00
2022-06-30T09:54:58.856+02:00,5168.269808625,0.0070648193359375,-0.2723388671875,-0.9272613525390625,5168.259856625,-0.3433485139747315,-0.02505464714898255,0.2959464125483972,-0.08443210273981094,0.04713919013738632,-0.00494723953306675,0.04619472846388817,-0.0146448016166687,0.03979885578155518,XArbitraryZVertical,0.1431385071534474,-0.03739243455945642,-0.1707718610466092,0.974140724265106,-0.02396292798221111,-0.2916452586650848,-0.9562263488769531,0,0,0,-1,-1,5165.107295166667,unknown,2,2022-06-30T09:54:55.693+02:00,2022-06-30T08:20:05.567+02:00,1419,1.400763,0,0,1122.37,0,0,2022-06-30T09:54:50.603+02:00
2022-06-30T09:54:58.866+02:00,5168.279759625,0.002838134765625,-0.268096923828125,-0.9327392578125,5168.269808625,-0.3436132454356285,-0.02403243883848706,0.2958652880690835,-0.08189651370048523,0.03570115566253662,-0.00955517403781414,0.03371269255876541,0.004061222076416016,0.03270542621612549,XArbitraryZVertical,0.1431813373606455,-0.03690670570215027,-0.1708281578130051,0.9741431624638321,-0.02298602275550365,-0.2915676534175873,-0.9562739729881287,0,0,0,-1,-1,5165.107295166667,unknown,2,2022-06-30T09:54:55.693+02:00,2022-06-30T08:20:05.567+02:00,1419,1.400763,0,0,1122.37,0,0,2022-06-30T09:54:50.603+02:00
2022-06-30T09:54:58.876+02:00,5168.289711625001,0.00225830078125,-0.2849884033203125,-0.9345703125,5168.279759625,-0.3439280489967692,-0.02306404861177174,0.2954784517140112,-0.09548662602901459,0.04064211994409561,-0.020596107468009,0.02691460028290749,0.02718967199325562,0.02678215503692627,XArbitraryZVertical,0.1430697762163041,-0.03642517085965949,-0.1709148546718364,0.9741624061271023,-0.02206256426870823,-0.2911975979804993,-0.9564085006713867,0,0,0,-1,-1,5165.107295166667,unknown,2,2022-06-30T09:54:55.693+02:00,2022-06-30T08:20:05.567+02:00,1419,1.400763,0,0,1122.37,0,0,2022-06-30T09:54:50.603+02:00
2022-06-30T09:54:58.886+02:00,5168.299662625001,0.00860595703125,-0.2703399658203125,-0.938140869140625,5168.289711625001,-0.3443061177325049,-0.02207217838261064,0.2947753415099486,-0.1046140044927597,0.06566155701875687,-0.01839384064078331,0.0212707631289959,0.009671270847320557,0.02015680074691772,XArbitraryZVertical,0.1428050494191815,-0.03591010041417727,-0.1710330991277835,0.9741996472388866,-0.02111843414604664,-0.2905248999595642,-0.9566343426704407,0,0,0,-1,-1,5165.107295166667,unknown,2,2022-06-30T09:54:55.693+02:00,2022-06-30T08:20:05.567+02:00,1419,1.400763,0,0,1122.37,0,0,2022-06-30T09:54:50.603+02:00
2022-06-30T09:54:58.896+02:00,5168.309613625001,0.00848388671875,-0.2709197998046875,-0.9478912353515625,5168.299662625001,-0.3445001420657218,-0.0209709586979716,0.2941472859257592,-0.09878221899271011,0.07324278354644775,0.004367665387690067,0.02499710768461227,0.01378518342971802,0.02428323030471802,XArbitraryZVertical,0.1425896664243949,-0.03533478956008777,-0.1710536378345756,0.9742486403196202,-0.02006877958774567,-0.2899238765239716,-0.9568392634391785,0,0,0,-1,-1,5165.107295166667,unknown,2,2022-06-30T09:54:55.693+02:00,2022-06-30T08:20:05.567+02:00,1419,1.400763,0,0,1122.37,0,0,2022-06-30T09:54:50.603+02:00
2022-06-30T09:54:58.906+02:00,5168.319565625,0.0070648193359375,-0.277496337890625,-0.957122802734375,5168.309613625001,-0.3445625796618101,-0.01971252827795476,0.2935659921751029,-0.1029139161109924,0.07664342969655991,0.01636071130633354,0.02686331421136856,0.01942387223243713,0.01286411285400391,XArbitraryZVertical,0.1424128708028941,-0.03467735485409791,-0.1709988074643787,0.9743077141929739,-0.01886796578764915,-0.2893674969673157,-0.9570320844650269,0,0,0,-1,-1,5165.107295166667,unknown,2,2022-06-30T09:54:55.693+02:00,2022-06-30T08:20:05.567+02:00,1419,1.400763,0,0,1122.37,0,0,2022-06-30T09:54:50.603+02:00
2022-06-30T09:54:58.916+02:00,5168.329516625,0.00604248046875,-0.27789306640625,-0.9698638916015625,5168.319565625,-0.3444647135719889,-0.01843395433646163,0.2932305300918434,-0.1031006053090096,0.07906397432088852,0.03615519031882286,0.02602292038500309,0.01620364189147949,0.006285905838012695,XArbitraryZVertical,0.1423603211149432,-0.03401929938204176,-0.1708627504013196,0.9743624450993886,-0.01764610409736633,-0.2890463769435883,-0.9571524262428284,0,0,0,-1,-1,5165.107295166667,unknown,2,2022-06-30T09:54:55.693+02:00,2022-06-30T08:20:05.567+02:00,1419,1.400763,0,0,1122.37,0,0,2022-06-30T09:54:50.603+02:00
2022-06-30T09:54:58.926+02:00,5168.339468625,0.0048980712890625,-0.2717132568359375,-0.9752197265625,5168.329516625,-0.3443951005307007,-0.01685383180795024,0.2931213656910491,-0.1039458215236664,0.07795926183462143,0.0308432150632143,0.02258840575814247,0.01034653186798096,-0.005206823348999023,XArbitraryZVertical,0.142443220773405,-0.03323533902016886,-0.1707172296184295,0.9744028718505139,-0.01613419502973557,-0.2889418601989746,-0.9572106599807739,0,0,0,-1,-1,5165.107295166667,unknown,2,2022-06-30T09:54:55.693+02:00,2022-06-30T08:20:05.567+02:00,1419,1.400763,0,0,1122.37,0,0,2022-06-30T09:54:50.603+02:00
2022-06-30T09:54:58.936+02:00,5168.349419625,0.0117034912109375,-0.25274658203125,-0.981781005859375,5168.339468625,-0.3444838537676119,-0.01501374805140008,0.2929396377355604,-0.09534354507923126,0.07227767258882523,0.01688904874026775,0.01962237432599068,0.01256817579269409,-0.0161278247833252,XArbitraryZVertical,0.1425102182509907,-0.03232985434815752,-0.1706309553729855,0.9744386434912035,-0.01437360979616642,-0.2887678742408752,-0.9572912454605103,0,0,0,-1,-1,5165.107295166667,unknown,2,2022-06-30T09:54:55.693+02:00,2022-06-30T08:20:05.567+02:00,1419,1.400763,0,0,1122.37,0,0,2022-06-30T09:54:50.603+02:00
2022-06-30T09:54:58.946+02:00,5168.359371625001,0.005279541015625,-0.253692626953125,-0.9934844970703125,5168.349419625,-0.3446014093235188,-0.01347211729874175,0.2923097201340676,-0.08665332198143005,0.06603187322616577,0.009964131750166416,0.02146017551422119,0.02690339088439941,-0.01874798536300659,XArbitraryZVertical,0.142332810735466,-0.03153399523807295,-0.1705841270295752,0.9744989086761159,-0.01290025096386671,-0.2881647348403931,-0.9574939608573914,0,0,0,-1,-1,5165.107295166667,unknown,2,2022-06-30T09:54:55.693+02:00,2022-06-30T08:20:05.567+02:00,1419,1.400763,0,0,1122.37,0,0,2022-06-30T09:54:50.603+02:00
2022-06-30T09:54:58.955+02:00,5168.369322625001,0.010467529296875,-0.2563629150390625,-0.988372802734375,5168.359371625001,-0.3449136178960377,-0.01199619056436117,0.2908683279315085,-0.07846809178590775,0.06560816615819931,-0.02289261668920517,0.02075384557247162,0.0369822084903717,-0.03111779689788818,XArbitraryZVertical,0.1417512860364375,-0.03071534503823532,-0.1706449338720929,0.9745990981792552,-0.01149201765656471,-0.2867842018604279,-0.9579262733459473,0,0,0,-1,-1,5165.107295166667,unknown,2,2022-06-30T09:54:55.693+02:00,2022-06-30T08:20:05.567+02:00,1419,1.400763,0,0,1122.37,0,0,2022-06-30T09:54:50.603+02:00
2022-06-30T09:54:58.966+02:00,5168.379274625,0.0224456787109375,-0.2503509521484375,-0.9859161376953125,5168.369322625001,-0.3454130512395454,-0.01064563241538751,0.2900713802110029,-0.08770006895065308,0.0749354213476181,-0.03733527287840843,0.01587671414017677,0.02746006846427917,-0.03319424390792847,XArbitraryZVertical,0.1414705134427609,-0.03002518245766336,-0.1708003862932485,0.9746341898070059,-0.01020070165395737,-0.2860206365585327,-0.958169162273407,0,0,0,-1,-1,5165.107295166667,unknown,2,2022-06-30T09:54:55.693+02:00,2022-06-30T08:20:05.567+02:00,1419,1.400763,0,0,1122.37,0,0,2022-06-30T09:54:50.603+02:00
2022-06-30T09:54:58.975+02:00,5168.389225625,0.0255126953125,-0.2724151611328125,-0.980987548828125,5168.379274625,-0.3459515664095286,-0.009172295457612166,0.2890221546743693,-0.1071358174085617,0.07158383727073669,-0.02877028100192547,0.0248437225818634,0.03106269240379333,-0.02737230062484741,XArbitraryZVertical,0.1410769618948911,-0.02925630616201003,-0.1709692215603228,0.9746850753455213,-0.008791733533143997,-0.2850150763988495,-0.9584827423095703,0,0,0,-1,-1,5165.107295166667,unknown,2,2022-06-30T09:54:55.693+02:00,2022-06-30T08:20:05.567+02:00,1419,1.400763,0,0,1122.37,0,0,2022-06-30T09:54:50.603+02:00
2022-06-30T09:54:58.985+02:00,5168.399176625,0.02301025390625,-0.2675628662109375,-0.9753875732421875,5168.389225625,-0.3464347175560378,-0.007737896255135939,0.2875220351197045,-0.1214796751737595,0.07333599030971527,-0.02278852090239525,0.03230700641870499,0.02635911107063293,-0.02545404434204102,XArbitraryZVertical,0.1404614003174935,-0.02846384130927552,-0.1711191955390785,0.9747711295588108,-0.007420178037136793,-0.2835768461227417,-0.9589208364486694,0,0,0,-1,-1,5165.107295166667,unknown,2,2022-06-30T09:54:55.693+02:00,2022-06-30T08:20:05.567+02:00,1419,1.400763,0,0,1122.37,0,0,2022-06-30T09:54:50.603+02:00
2022-06-30T09:54:58.995+02:00,5168.409128625,0.0225982666015625,-0.256561279296875,-0.9827117919921875,5168.399176625,-0.3467625983258602,-0.006224195775897546,0.2856950335328365,-0.1831816583871841,0.09302101284265518,-0.006983459461480379,0.03003471717238426,0.005899369716644287,-0.01674872636795044,XArbitraryZVertical,0.1396956726681664,-0.0275935474695471,-0.1711923725957336,0.9748933715666818,-0.005971865728497505,-0.2818243801593781,-0.95944744348526,0,0,0,-1,-1,5165.107295166667,unknown,2,2022-06-30T09:54:55.693+02:00,2022-06-30T08:20:05.567+02:00,1419,1.400763,0,0,1122.37,0,0,2022-06-30T09:54:50.603+02:00
2022-06-30T09:54:59.005+02:00,5168.419079625,0.018157958984375,-0.2609405517578125,-0.98675537109375,5168.409128625,-0.3469082191596956,-0.004769420537543983,0.2836708500526092,-0.1886441856622696,0.09278280287981033,0.01114035025238991,0.02578825131058693,0.02031403779983521,-0.01844614744186401,XArbitraryZVertical,0.1388313292424779,-0.02672203112235244,-0.1711841324331115,0.9750425034896173,-0.004578791093081236,-0.2798816561698914,-0.9600235819816589,0,0,0,-1,-1,5165.107295166667,unknown,2,2022-06-30T09:54:55.693+02:00,2022-06-30T08:20:05.567+02:00,1419,1.400763,0,0,1122.37,0,0,2022-06-30T09:54:50.603+02:00
2022-06-30T09:54:59.015+02:00,5168.429031625,0.01739501953125,-0.2574462890625,-0.9859466552734375,5168.419079625,-0.3469354128197301,-0.00335867629569701,0.2816398635543652,-0.1606793999671936,0.1044450551271439,0.009056959301233292,0.02513770759105682,0.02045410871505737,-0.02500003576278687,XArbitraryZVertical,0.1379613668261519,-0.02586285610411926,-0.1711224426477036,0.9751999854492805,-0.003226341679692268,-0.277931272983551,-0.9605955481529236,0,0,0,-1,-1,5165.107295166667,unknown,2,2022-06-30T09:54:55.693+02:00,2022-06-30T08:20:05.567+02:00,1419,1.400763,0,0,1122.37,0,0,2022-06-30T09:54:50.603+02:00
2022-06-30T09:54:59.025+02:00,5168.438982625,0.023529052734375,-0.2590179443359375,-0.9921112060546875,5168.429031625,-0.3470311967709821,-0.001658232846333637,0.278885287741819,-0.173255056142807,0.1050323694944382,0.00759671488776803,0.01807339489459991,0.0166168212890625,-0.02359312772750854,XArbitraryZVertical,0.1367622726830318,-0.02480502846787785,-0.1710838841023212,0.9754031223138642,-0.001594162778928876,-0.2752841711044312,-0.9613615870475769,0,0,0,-1,-1,5165.107295166667,unknown,2,2022-06-30T09:54:55.693+02:00,2022-06-30T08:20:05.567+02:00,1419,1.400763,0,0,1122.37,0,0,2022-06-30T09:54:50.603+02:00
2022-06-30T09:54:59.035+02:00,5168.448934625,0.029022216796875,-0.262481689453125,-0.9904022216796875,5168.438982625,-0.3471283157685309,-7.167975772070663e-05,0.2754562944257493,-0.164100706577301,0.08501232415437698,0.002676258562132716,0.01998144015669823,0.01455464959144592,-0.02672761678695679,XArbitraryZVertical,0.1352242369793026,-0.02374467072698951,-0.1710635538904121,0.9756474441946593,-6.897751882206649e-05,-0.2719860672950745,-0.9623011946678162,0,0,0,-1,-1,5165.107295166667,unknown,2,2022-06-30T09:54:55.693+02:00,2022-06-30T08:20:05.567+02:00,1419,1.400763,0,0,1122.37,0,0,2022-06-30T09:54:50.603+02:00
2022-06-30T09:54:59.045+02:00,5168.458885625,0.032867431640625,-0.256439208984375,-0.99188232421875,5168.448934625,-0.3472224428576847,0.0009593807243472888,0.2728987647466277,-0.1430568695068359,0.06092914193868637,-0.005340422503650188,0.02464959770441055,0.007423490285873413,-0.030201256275177,XArbitraryZVertical,0.1340635980369919,-0.02302915271779136,-0.1710705157075262,0.9758235754988072,0.0009238774073310196,-0.2695240676403046,-0.9629932045936584,0,0,0,-1,-1,5165.107295166667,unknown,2,2022-06-30T09:54:55.693+02:00,2022-06-30T08:20:05.567+02:00,1419,1.400763,0,0,1122.37,0,0,2022-06-30T09:54:50.603+02:00
2022-06-30T09:54:59.055+02:00,5168.468836625,0.01885986328125,-0.2570648193359375,-0.99371337890625,5168.458885625,-0.3474703377127039,0.002020587880045044,0.2708007608509341,-0.1185198351740837,0.03218245133757591,-0.01768390648066998,0.03243084251880646,0.009797066450119019,-0.02641981840133667,XArbitraryZVertical,0.1331279035543279,-0.0223482001216649,-0.1711459139448731,0.9759542811294016,0.001946950331330299,-0.2675031125545502,-0.9635550379753113,0,0,0,-1,-1,5165.107295166667,unknown,2,2022-06-30T09:54:55.693+02:00,2022-06-30T08:20:05.567+02:00,1419,1.400763,0,0,1122.37,0,0,2022-06-30T09:54:50.603+02:00
2022-06-30T09:54:59.065+02:00,5168.478788625001,0.014495849609375,-0.2329559326171875,-0.9864654541015625,5168.468836625,-0.3480961245130623,0.003008371882201536,0.2693684538702472,-0.08014062792062759,0.008942427113652229,-0.06959803402423859,0.0238790363073349,0.006310969591140747,-0.03133487701416016,XArbitraryZVertical,0.132506686259908,-0.02178483445252549,-0.1714032622986862,0.976006349829764,0.002899883082136512,-0.2661227285861969,-0.9639347791671753,0,0,0,-1,-1,5165.107295166667,unknown,2,2022-06-30T09:54:55.693+02:00,2022-06-30T08:20:05.567+02:00,1419,1.400763,0,0,1122.37,0,0,2022-06-30T09:54:50.603+02:00
2022-06-30T09:54:59.075+02:00,5168.488739625001,0.0148773193359375,-0.220123291015625,-0.9808807373046875,5168.478788625001,-0.349129522636697,0.003760554316642032,0.2687984470783217,-0.06450174748897552,-0.0111279534175992,-0.1027131155133247,0.009969819337129593,0.01897558569908142,-0.0265166163444519,XArbitraryZVertical,0.1322819373615415,-0.0214371415529913,-0.1718648661468787,0.9759633284409611,0.003625506768003106,-0.2655732333660126,-0.9640838503837585,0,0,0,-1,-1,5165.107295166667,unknown,2,2022-06-30T09:54:55.693+02:00,2022-06-30T08:20:05.567+02:00,1419,1.400763,0,0,1122.37,0,0,2022-06-30T09:54:50.603+02:00
2022-06-30T09:54:59.085+02:00,5168.498691625,0.0122833251953125,-0.2122650146484375,-0.9779052734375,5168.488739625001,-0.3501689909521556,0.004261924284483696,0.2679418301219193,-0.05859212204813957,-0.01628563739359379,-0.07704506814479828,0.01258302479982376,0.03958824276924133,-0.0176854133605957,XArbitraryZVertical,0.131896037453812,-0.02118719520594795,-0.1723497918864299,0.975935503888565,0.004109837114810944,-0.2647472620010376,-0.9643090963363647,0,0,0,-1,-1,5165.107295166667,unknown,2,2022-06-30T09:54:55.693+02:00,2022-06-30T08:20:05.567+02:00,1419,1.400763,0,0,1122.37,0,0,2022-06-30T09:54:50.603+02:00
2022-06-30T09:54:59.095+02:00,5168.508642625,0.0027618408203125,-0.2064208984375,-0.97332763671875,5168.498691625,-0.3509158353275451,0.004660154829303063,0.2670694628867833,-0.05641871690750122,-0.01567790284752846,-0.04294329136610031,0.01019903272390366,0.04797846078872681,-0.01496940851211548,XArbitraryZVertical,0.1314968725381148,-0.02096653950180104,-0.1726990897529801,0.9759324289322013,0.004494928754866123,-0.263905942440033,-0.9645379781723022,0,0,0,-1,-1,5165.107295166667,unknown,2,2022-06-30T09:54:55.693+02:00,2022-06-30T08:20:05.567+02:00,1419,1.400763,0,0,1122.37,0,0,2022-06-30T09:54:50.603+02:00
2022-06-30T09:54:59.105+02:00,5168.518594625,0.008697509765625,-0.20208740234375,-0.9705810546875,5168.508642625,-0.3514311575267872,0.005036043121873319,0.2661643525820724,-0.06141713634133339,0.001114646205678582,-0.04503709822893143,0.0009546577930450439,0.05191183090209961,-0.0107043981552124,XArbitraryZVertical,0.1310823601580598,-0.02073844658867203,-0.172937450642584,0.9759508824390346,0.004858687985688448,-0.2630327939987183,-0.9647746682167053,0,0,0,-1,-1,5165.107295166667,unknown,2,2022-06-30T09:54:55.693+02:00,2022-06-30T08:20:05.567+02:00,1419,1.400763,0,0,1122.37,0,0,2022-06-30T09:54:50.603+02:00
2022-06-30T09:54:59.115+02:00,5168.528545625,0.0169525146484375,-0.2369842529296875,-0.959747314453125,5168.518594625,-0.3520465487048545,0.005651476519659504,0.2652042743989729,-0.06261609494686127,0.007482264190912247,-0.05304229632019997,-0.001181662548333406,0.06267368793487549,-0.006976425647735596,XArbitraryZVertical,0.1306608558672057,-0.02039498258412842,-0.1732098603668182,0.975966292698594,0.005453865975141525,-0.2621064186096191,-0.9650235772132874,0,0,0,-1,-1,5165.107295166667,unknown,2,2022-06-30T09:54:55.693+02:00,2022-06-30T08:20:05.567+02:00,1419,1.400763,0,0,1122.37,0,0,2022-06-30T09:54:50.603+02:00
2022-06-30T09:54:59.125+02:00,5168.538497625001,-0.033416748046875,-0.3477783203125,-0.8324127197265625,5168.528545625,-0.3527998572899719,0.00653462522722302,0.264030396980558,-0.1650010496377945,-0.0312873087823391,-0.08261603862047195,0.005013637244701385,0.04649549722671509,-0.004935145378112793,XArbitraryZVertical,0.130157066643502,-0.01991091223082641,-0.1735351994288828,0.9759858103793075,0.006308129522949457,-0.2609733939170837,-0.9653254151344299,0,0,0,-1,-1,5165.107295166667,unknown,2,2022-06-30T09:54:55.693+02:00,2022-06-30T08:20:05.567+02:00,1419,1.400763,0,0,1122.37,0,0,2022-06-30T09:54:50.603+02:00
2022-06-30T09:54:59.135+02:00,5168.548448625001,-0.0656585693359375,-0.5152130126953125,-0.9719696044921875,5168.538497625001,-0.3550389356732541,0.006036322109254292,0.2590310078819036,-0.6680727005004883,-0.177895650267601,-0.3167009651660919,0.002908125054091215,-0.02036085724830627,0.08513617515563965,XArbitraryZVertical,0.1276519630939461,-0.019861120678076,-0.1747250845932228,0.9761053768908962,0.005834906827658415,-0.2561440169811249,-0.9666210412979126,0,0,0,-1,-1,5165.107295166667,unknown,2,2022-06-30T09:54:55.693+02:00,2022-06-30T08:20:05.567+02:00,1419,1.400763,0,0,1122.37,0,0,2022-06-30T09:54:50.603+02:00
2022-06-30T09:54:59.145+02:00,5168.558399625001,-0.126678466796875,-0.4757232666015625,-0.8010101318359375,5168.548448625001,-0.3564192531192205,0.00577238510864088,0.2561099761640017,-0.02185801044106483,0.09364165365695953,0.02439283952116966,-0.06217917799949646,-0.1921003460884094,0.05620336532592773,XArbitraryZVertical,0.1261897014063498,-0.0198207270274419,-0.1754529232809416,0.9761657428261833,0.005584074649959803,-0.2533193230628967,-0.9673665761947632,0,0,0,-1,-1,5165.107295166667,unknown,2,2022-06-30T09:54:55.693+02:00,2022-06-30T08:20:05.567+02:00,1419,1.400763,0,0,1122.37,0,0,2022-06-30T09:54:50.603+02:00
2022-06-30T09:54:59.155+02:00,5168.568351625,-0.181549072265625,-0.4457550048828125,-0.7490997314453125,5168.558399625001,-0.356398882749798,0.007404866773054395,0.2542696993023422,-0.4212831556797028,0.2365194410085678,-0.05242231115698814,-0.1023207753896713,-0.2655667960643768,0.06672829389572144,XArbitraryZVertical,0.1254349351537326,-0.01886044247383539,-0.1753639916032585,0.9762980743748932,0.007166714407503605,-0.2515386641025543,-0.9678207039833069,0,0,0,-1,-1,5165.107295166667,unknown,2,2022-06-30T09:54:55.693+02:00,2022-06-30T08:20:05.567+02:00,1419,1.400763,0,0,1122.37,0,0,2022-06-30T09:54:50.603+02:00
2022-06-30T09:54:59.165+02:00,5168.578302625,-0.0843353271484375,-0.4931793212890625,-0.755126953125,5168.568351625,-0.3586006315815226,0.01088886399003888,0.2469372483193199,-1.003674387931824,0.3577241599559784,-0.3874351978302002,-0.1629328727722168,-0.1988787055015564,0.2151679396629333,XArbitraryZVertical,0.1221425903415801,-0.01664696020004961,-0.1763211222992041,0.9765833657574152,0.0105583481490612,-0.2444352656602859,-0.9696081280708313,0,0,0,-1,-1,5165.107295166667,unknown,2,2022-06-30T09:54:55.693+02:00,2022-06-30T08:20:05.567+02:00,1419,1.400763,0,0,1122.37,0,0,2022-06-30T09:54:50.603+02:00
2022-06-30T09:54:59.175+02:00,5168.588254625,-0.056671142578125,-0.4827423095703125,-0.7281341552734375,5168.578302625,-0.3625447496284854,0.0156551748748319,0.2355377016829003,-1.238475441932678,0.4051643908023834,-0.3761969208717346,-0.1629734039306641,-0.2371239960193634,0.2244367003440857,XArbitraryZVertical,0.1169694742842275,-0.01353589931619832,-0.1781223662929239,0.9769377138410603,0.01522229798138142,-0.2333658784627914,-0.9722698330879211,0,0,0,-1,-1,5165.107295166667,unknown,2,2022-06-30T09:54:55.693+02:00,2022-06-30T08:20:05.567+02:00,1419,1.400763,0,0,1122.37,0,0,2022-06-30T09:54:50.603+02:00
2022-06-30T09:54:59.184+02:00,5168.598205625,-0.0975341796875,-0.4617919921875,-0.69580078125,5168.588254625,-0.3659593968757925,0.02033879031946274,0.2223667751380058,-1.409915208816528,0.3846516609191895,-0.3552160561084747,-0.07069443911314011,-0.2739837169647217,0.2252833843231201,XArbitraryZVertical,0.1109354909547806,-0.01025055060073734,-0.1797179692900681,0.9773892979711432,0.01983664557337761,-0.2205387353897095,-0.9751765131950378,0,0,0,-1,-1,5165.107295166667,unknown,2,2022-06-30T09:54:55.693+02:00,2022-06-30T08:20:05.567+02:00,1419,1.400763,0,0,1122.37,0,0,2022-06-30T09:54:50.603+02:00
2022-06-30T09:54:59.194+02:00,5168.608157625,-0.1357574462890625,-0.4642486572265625,-0.6892242431640625,5168.598205625,-0.3697442483959995,0.02473808696035556,0.2069883941299549,-1.665989398956299,0.3549875020980835,-0.4680893421173096,-0.09987615048885345,-0.2641981840133667,0.2717509269714355,XArbitraryZVertical,0.1038028072854133,-0.006896081034536267,-0.1815672220208296,0.9778604070069307,0.02420756593346596,-0.205513522028923,-0.9783548712730408,0,0,0,-1,-1,5165.107295166667,unknown,2,2022-06-30T09:54:55.693+02:00,2022-06-30T08:20:05.567+02:00,1419,1.400763,0,0,1122.37,0,0,2022-06-30T09:54:50.603+02:00
2022-06-30T09:54:59.204+02:00,5168.618108625,-0.1681976318359375,-0.458465576171875,-0.70037841796875,5168.608157625,-0.3747435733628257,0.02929791578971142,0.1888242142138137,-1.966565728187561,0.3864664137363434,-0.6183912754058838,-0.1447706073522568,-0.2740576863288879,0.2904131412506104,XArbitraryZVertical,0.0953284693504506,-0.003230885170760148,-0.1840710771857514,0.9782739317982672,0.02877304702997208,-0.1877041310071945,-0.9818040728569031,0,0,0,-1,-1,5165.107295166667,unknown,2,2022-06-30T09:54:55.693+02:00,2022-06-30T08:20:05.567+02:00,1419,1.400763,0,0,1122.37,0,0,2022-06-30T09:54:50.603+02:00
2022-06-30T09:54:59.214+02:00,5168.628060625,-0.1934814453125,-0.4287567138671875,-0.6961669921875,5168.618108625,-0.3808832222462936,0.03437985189609426,0.1676291725206833,-2.252533435821533,0.4395863711833954,-0.7234838604927063,-0.1860216557979584,-0.2972664833068848,0.2934907078742981,XArbitraryZVertical,0.08543315158241518,0.0009744994771841398,-0.1871871828276884,0.9786016836678556,0.03389127552509308,-0.1668452173471451,-0.9854004383087158,0,0,0,-1,-1,5165.107295166667,unknown,2,2022-06-30T09:54:55.693+02:00,2022-06-30T08:20:05.567+02:00,1419,1.400763,0,0,1122.37,0,0,2022-06-30T09:54:50.603+02:00
2022-06-30T09:54:59.224+02:00,5168.638011625,-0.2088470458984375,-0.38385009765625,-0.7127838134765625,5168.628060625,-0.3875612254000361,0.04021262874412081,0.1435668441152354,-2.522203683853149,0.5604085922241211,-0.7749895453453064,-0.2208797484636307,-0.3042528629302979,0.2902424931526184,XArbitraryZVertical,0.07422680227631329,0.005869171546289409,-0.1906203759250388,0.9788360033820529,0.03978819400072098,-0.143074169754982,-0.9889118671417236,0,0,0,-1,-1,5165.107295166667,unknown,2,2022-06-30T09:54:55.693+02:00,2022-06-30T08:20:05.567+02:00,1419,1.400763,0,0,1122.37,0,0,2022-06-30T09:54:50.603+02:00
2022-06-30T09:54:59.234+02:00,5168.647962625,-0.221527099609375,-0.3345794677734375,-0.7636871337890625,5168.638011625,-0.3942269835157631,0.04734716044247018,0.1170447075000443,-2.736410617828369,0.7182658910751343,-0.7780719399452209,-0.2492916584014893,-0.2905866205692291,0.2931773066520691,XArbitraryZVertical,0.06196815127586652,0.01172201652880274,-0.1940917788517474,0.9789540308839433,0.04700564965605736,-0.1167776510119438,-0.9920451045036316,0,0,0,-1,-1,5165.107295166667,unknown,2,2022-06-30T09:54:55.693+02:00,2022-06-30T08:20:05.567+02:00,1419,1.400763,0,0,1122.37,0,0,2022-06-30T09:54:50.603+02:00
2022-06-30T09:54:59.244+02:00,5168.657914625001,-0.233489990234375,-0.3038482666015625,-0.803924560546875,5168.647962625,-0.4006434653238842,0.05582760507198629,0.08830068376184667,-2.979066610336304,0.8538776636123657,-0.8121048212051392,-0.2685025930404663,-0.2706553339958191,0.2543941140174866,XArbitraryZVertical,0.04878482835833394,0.01854642852684532,-0.1975060792776089,0.9789113703056619,0.0555812194943428,-0.08818598091602325,-0.9945521354675293,0,0,0,-1,-1,5165.107295166667,unknown,2,2022-06-30T09:54:55.693+02:00,2022-06-30T08:20:05.567+02:00,1419,1.400763,0,0,1122.37,0,0,2022-06-30T09:54:50.603+02:00
2022-06-30T09:54:59.254+02:00,5168.667865625001,-0.2365264892578125,-0.293914794921875,-0.8460845947265625,5168.657914625001,-0.4071885914436324,0.06537790461399991,0.05670046995051144,-3.28716778755188,1.001044154167175,-0.8787901401519775,-0.2950697243213654,-0.2594313621520996,0.2159560918807983,XArbitraryZVertical,0.03435171239844245,0.02626691288847966,-0.2010941466937399,0.9786169821066913,0.06522635370492935,-0.05667009204626083,-0.9962600469589233,0,0,0,-1,-1,5165.107295166667,unknown,2,2022-06-30T09:54:55.693+02:00,2022-06-30T08:20:05.567+02:00,1419,1.400763,0,0,1122.37,0,0,2022-06-30T09:54:50.603+02:00
2022-06-30T09:54:59.264+02:00,5168.677817625,-0.2439727783203125,-0.2505645751953125,-0.951202392578125,5168.667865625001,-0.4136117090210513,0.07652882489360326,0.02194436339763907,-3.567731618881226,1.237675309181213,-0.8933568596839905,-0.3126267790794373,-0.2743834555149078,0.1760017275810242,XArbitraryZVertical,0.01858493663992018,0.03518639726506707,-0.2047614263342941,0.978002688167676,0.07643573731184006,-0.02194260247051716,-0.9968330264091492,0,0,0,-1,-1,5165.107295166667,unknown,2,2022-06-30T09:54:55.693+02:00,2022-06-30T08:20:05.567+02:00,1419,1.400763,0,0,1122.37,0,0,2022-06-30T09:54:50.603+02:00
2022-06-30T09:54:59.274+02:00,5168.687768625,-0.252532958984375,-0.162872314453125,-1.019256591796875,5168.677817625,-0.4191490793294594,0.09012735654216769,-0.01519395320660286,-3.784184455871582,1.454056620597839,-0.8251580595970154,-0.3286579251289368,-0.2952535450458527,0.1006999611854553,XArbitraryZVertical,0.001948638962682996,0.04564036056866811,-0.2081613128798176,0.9770270981999996,0.08999500423669815,0.01519336830824614,-0.9958263039588928,0,0,0,-1,-1,5165.107295166667,unknown,2,2022-06-30T09:54:55.693+02:00,2022-06-30T08:20:05.567+02:00,1419,1.400763,0,0,1122.37,0,0,2022-06-30T09:54:50.603+02:00
2022-06-30T09:54:59.284+02:00,5168.697720625,-0.2669830322265625,-0.0774993896484375,-1.07269287109375,5168.687768625,-0.4228455772359061,0.1058738133205026,-0.05527634204821997,-4.186972141265869,1.729461193084717,-0.7252638339996338,-0.3512882590293884,-0.2684596180915833,0.00412750244140625,XArbitraryZVertical,-0.01588202544102448,0.05750528996486089,-0.2109068673118649,0.9756839927371832,0.1055147275328636,0.0552481971681118,-0.9928818345069885,0,0,0,-1,-1,5165.107295166667,unknown,2,2022-06-30T09:54:55.693+02:00,2022-06-30T08:20:05.567+02:00,1419,1.400763,0,0,1122.37,0,0,2022-06-30T09:54:50.603+02:00
2022-06-30T09:54:59.294+02:00,5168.707671625,-0.2271270751953125,0.0267333984375,-1.115280151367188,5168.697720625,-0.4251378667839026,0.1240449972842606,-0.09909842425160394,-4.465603828430176,2.003683567047119,-0.755067765712738,-0.3901033401489258,-0.2181230783462524,-0.04958540201187134,XArbitraryZVertical,-0.03526050515925747,0.07094239584752998,-0.2133084601355903,0.9737676449310878,0.123120091855526,0.0989363044500351,-0.9874477386474609,0,0,0,-1,-1,5165.107295166667,unknown,2,2022-06-30T09:54:55.693+02:00,2022-06-30T08:20:05.567+02:00,1419,1.400763,0,0,1122.37,0,0,2022-06-30T09:54:50.603+02:00
2022-06-30T09:54:59.304+02:00,5168.717623625001,-0.1568450927734375,0.1675872802734375,-1.155426025390625,5168.707671625,-0.426873744022817,0.1450544472211237,-0.1447425904508022,-4.552776336669922,2.289743900299072,-0.8116552829742432,-0.3961477875709534,-0.1736875474452972,-0.1226863265037537,XArbitraryZVertical,-0.05517251391944793,0.08591002045627412,-0.2158309574526422,0.9710780341992983,0.1430348008871078,0.1442377120256424,-0.9791509509086609,0,0,0,-1,-1,5165.107295166667,unknown,2,2022-06-30T09:54:55.693+02:00,2022-06-30T08:20:05.567+02:00,1419,1.400763,0,0,1122.37,0,0,2022-06-30T09:54:50.603+02:00
2022-06-30T09:54:59.317+02:00,5168.727574625001,-0.08074951171875,0.308197021484375,-1.17767333984375,5168.717623625001,-0.4278858557981444,0.1689817863041459,-0.1905265418669999,-4.477982521057129,2.518233299255371,-0.8156684041023254,-0.3569081425666809,-0.09397834539413452,-0.1689372658729553,XArbitraryZVertical,-0.074783011893792,0.1022156720934006,-0.218442126012245,0.9675962093742474,0.1651354730129242,0.1893759369850159,-0.9679189324378967,0,0,0,-1,-1,5165.107295166667,unknown,2,2022-06-30T09:54:55.693+02:00,2022-06-30T08:20:05.567+02:00,1419,1.400763,0,0,1122.37,0,0,2022-06-30T09:54:50.603+02:00
2022-06-30T09:54:59.326+02:00,5168.737525625001,-0.0350494384765625,0.42108154296875,-1.15020751953125,5168.727574625001,-0.4277403905940707,0.1957275589778986,-0.2351832431101384,-4.356381893157959,2.821998119354248,-0.799638032913208,-0.30362868309021,0.004588335752487183,-0.2157131433486938,XArbitraryZVertical,-0.09350468814721197,0.1196035801387063,-0.2209711756433515,0.9633918057794125,0.1891265362501144,0.2330211848020554,-0.9539037346839905,0,0,0,-1,-1,5165.107295166667,unknown,2,2022-06-30T09:54:55.693+02:00,2022-06-30T08:20:05.567+02:00,1419,1.400763,0,0,1122.37,0,0,2022-06-30T09:54:50.603+02:00
2022-06-30T09:54:59.334+02:00,5168.747477625,0.0482025146484375,0.4890899658203125,-1.150909423828125,5168.737525625001,-0.4271618488566435,0.2250173646005523,-0.2788633601314355,-4.230243682861328,3.045456886291504,-0.9351593852043152,-0.2719075679779053,0.0956624448299408,-0.2257241010665894,XArbitraryZVertical,-0.111397512155949,0.1379277714749026,-0.223825643356198,0.9583676863464008,0.2145037949085236,0.2752631008625031,-0.9371330738067627,0,0,0,-1,-1,5165.107295166667,unknown,2,2022-06-30T09:54:55.693+02:00,2022-06-30T08:20:05.567+02:00,1419,1.400763,0,0,1122.37,0,0,2022-06-30T09:54:50.603+02:00
2022-06-30T09:54:59.344+02:00,5168.757428625,0.15985107421875,0.5572662353515625,-1.118423461914062,5168.747477625,-0.4272865062662311,0.2563651423885954,-0.3206672574333523,-3.900966644287109,3.268877983093262,-1.068234205245972,-0.2413275241851807,0.1428228616714478,-0.2327171564102173,XArbitraryZVertical,-0.1279824709092891,0.1568943320791757,-0.2275292567106282,0.9524889294520766,0.240640714764595,0.3151998817920685,-0.918009340763092,0,0,0,-1,-1,5165.107295166667,unknown,2,2022-06-30T09:54:55.693+02:00,2022-06-30T08:20:05.567+02:00,1419,1.400763,0,0,1122.37,0,0,2022-06-30T09:54:50.603+02:00
2022-06-30T09:54:59.354+02:00,5168.767380625,0.279327392578125,0.617889404296875,-1.048095703125,5168.757428625,-0.4278050929179694,0.2896776142574076,-0.3592418852477143,-3.543341636657715,3.439022064208984,-1.099477052688599,-0.1627947986125946,0.1711401045322418,-0.2443966269493103,XArbitraryZVertical,-0.1426116226285835,0.17630165091547,-0.2318713622661321,0.9459467679199109,0.2674088478088379,0.3515646159648895,-0.8971592783927917,0,0,0,-1,-1,5165.107295166667,unknown,2,2022-06-30T09:54:55.693+02:00,2022-06-30T08:20:05.567+02:00,1419,1.400763,0,0,1122.37,0,0,2022-06-30T09:54:50.603+02:00
2022-06-30T09:54:59.364+02:00,5168.777331625,0.37255859375,0.6253814697265625,-0.9898834228515625,5168.767380625,-0.4276950133107865,0.3248918811112207,-0.3947294414902053,-3.262076616287231,3.62211012840271,-1.031049013137817,-0.07471954822540283,0.207726389169693,-0.2063223123550415,XArbitraryZVertical,-0.155439890324352,0.1960459271145502,-0.2363527429166576,0.938904628408281,0.2946595549583435,0.3845584392547607,-0.8748088479042053,0,0,0,-1,-1,5165.107295166667,unknown,2,2022-06-30T09:54:55.693+02:00,2022-06-30T08:20:05.567+02:00,1419,1.400763,0,0,1122.37,0,0,2022-06-30T09:54:50.603+02:00
2022-06-30T09:54:59.374+02:00,5168.787283625,0.4231414794921875,0.6108245849609375,-0.93487548828125,5168.777331625,-0.4263810658320344,0.3622389146067945,-0.4275840291141245,-3.055189847946167,3.80369758605957,-0.9691615104675293,0.01081731915473938,0.2115620970726013,-0.1708255410194397,XArbitraryZVertical,-0.1667276197341601,0.2162005602025857,-0.2407328530826428,0.9314005629745866,0.3224650025367737,0.4146735668182373,-0.8509184122085571,0,0,0,-1,-1,5165.107295166667,unknown,2,2022-06-30T09:54:55.693+02:00,2022-06-30T08:20:05.567+02:00,1419,1.400763,0,0,1122.37,0,0,2022-06-30T09:54:50.603+02:00
2022-06-30T09:54:59.384+02:00,5168.797234625,0.4404144287109375,0.59197998046875,-0.8587493896484375,5168.787283625,-0.4242390660440006,0.401931288885846,-0.4587648851643312,-2.890397548675537,3.964331150054932,-0.9997037053108215,0.05293959379196167,0.1775504946708679,-0.1326315402984619,XArbitraryZVertical,-0.1768816399813768,0.2369368801034958,-0.2452623133809576,0.923266163310862,0.3507468104362488,0.4428410530090332,-0.8251476287841797,0,0,0,-1,-1,5165.107295166667,unknown,2,2022-06-30T09:54:55.693+02:00,2022-06-30T08:20:05.567+02:00,1419,1.400763,0,0,1122.37,0,0,2022-06-30T09:54:50.603+02:00
2022-06-30T09:54:59.393+02:00,5168.807185625,0.4579315185546875,0.651519775390625,-0.7304534912109375,5168.797234625,-0.4217545570770338,0.4435321995504684,-0.4882867006581485,-2.703727006912231,4.163046360015869,-1.01879346370697,0.05430522561073303,0.126955509185791,-0.1087770462036133,XArbitraryZVertical,-0.1859070817419981,0.2580603526947945,-0.2501267011002777,0.9144835292821879,0.3789832293987274,0.4691134989261627,-0.7976868152618408,0,0,0,-1,-1,5165.107295166667,unknown,2,2022-06-30T09:54:55.693+02:00,2022-06-30T08:20:05.567+02:00,1419,1.400763,0,0,1122.37,0,0,2022-06-30T09:54:50.603+02:00
2022-06-30T09:54:59.403+02:00,5168.817137625,0.484283447265625,0.7261962890625,-0.6542205810546875,5168.807185625,-0.418800695429474,0.4871507037787426,-0.5161340509899605,-2.54220724105835,4.325137615203857,-1.016135215759277,0.03778475522994995,0.1195610761642456,-0.02454864978790283,XArbitraryZVertical,-0.1937948544568331,0.2795795303191653,-0.2552628352768606,0.9050523096297394,0.4071309566497803,0.4935214817523956,-0.7685576677322388,0,0,0,-1,-1,5165.107295166667,unknown,2,2022-06-30T09:54:55.693+02:00,2022-06-30T08:20:05.567+02:00,1419,1.400763,0,0,1122.37,0,0,2022-06-30T09:54:50.603+02:00
2022-06-30T09:54:59.413+02:00,5168.827088625,0.5212249755859375,0.752960205078125,-0.6212310791015625,5168.817137625,-0.4153652863599869,0.532149232566945,-0.5428317688827592,-2.404664754867554,4.32979679107666,-1.100139021873474,0.0429675281047821,0.1781237721443176,0.05460292100906372,XArbitraryZVertical,-0.200870457869125,0.3012110405862894,-0.2606343730214055,0.8949819255401331,0.4344493746757507,0.5165627598762512,-0.7378459572792053,0,0,0,-1,-1,5165.107295166667,unknown,2,2022-06-30T09:54:55.693+02:00,2022-06-30T08:20:05.567+02:00,1419,1.400763,0,0,1122.37,0,0,2022-06-30T09:54:50.603+02:00
2022-06-30T09:54:59.423+02:00,5168.837040625001,0.485015869140625,0.772125244140625,-0.54864501953125,5168.827088625,-0.412534144880165,0.5767338153483991,-0.5680575152245368,-2.163383483886719,4.309824466705322,-1.134073615074158,0.03587907552719116,0.2030471563339233,0.06395983695983887,XArbitraryZVertical,-0.2070487900946126,0.3222284432799237,-0.2664871139223206,0.8844683321729228,0.4596500396728516,0.5379956364631653,-0.706599235534668,0,0,0,-1,-1,5165.107295166667,unknown,2,2022-06-30T09:54:55.693+02:00,2022-06-30T08:20:05.567+02:00,1419,1.400763,0,0,1122.37,0,0,2022-06-30T09:54:50.603+02:00
2022-06-30T09:54:59.433+02:00,5168.846991625001,0.452239990234375,0.758087158203125,-0.4313507080078125,5168.837040625001,-0.4111527648887334,0.6199854466377908,-0.5917209950453365,-1.87569260597229,4.276768684387207,-1.381649851799011,0.04383835196495056,0.2066748142242432,0.08891755342483521,XArbitraryZVertical,-0.2122541832137712,0.3423337969510989,-0.2730242314705013,0.8736209431162275,0.4822388887405396,0.557790219783783,-0.6755114793777466,0,0,0,-1,-1,5165.107295166667,unknown,2,2022-06-30T09:54:55.693+02:00,2022-06-30T08:20:05.567+02:00,1419,1.400763,0,0,1122.37,0,0,2022-06-30T09:54:50.603+02:00
2022-06-30T09:54:59.443+02:00,5168.856943625,0.3661956787109375,0.77398681640625,-0.337493896484375,5168.846991625001,-0.414349149456401,0.660547892260153,-0.6148192909330109,-1.514105677604675,4.273122787475586,-1.75881016254425,-0.05435663461685181,0.1920028924942017,0.1498129963874817,XArbitraryZVertical,-0.2165355289884063,0.3613669788533085,-0.2814892573043047,0.8621427422534255,0.5011950135231018,0.576810896396637,-0.6450525522232056,0,0,0,-1,-1,5165.107295166667,unknown,2,2022-06-30T09:54:55.693+02:00,2022-06-30T08:20:05.567+02:00,1419,1.400763,0,0,1122.37,0,0,2022-06-30T09:54:50.603+02:00
2022-06-30T09:54:59.459+02:00,5168.866894625,0.4906463623046875,0.839385986328125,-0.183868408203125,5168.856943625,-0.4259506563430455,0.6945308647839024,-0.6377486367116818,-0.8756650686264038,4.20423698425293,-2.572842836380005,-0.08088624477386475,0.1658878326416016,0.2362364530563354,XArbitraryZVertical,-0.2198155017732298,0.3781780288556654,-0.2930138004870522,0.8501797062892086,0.5142205953598022,0.5953881144523621,-0.6173250675201416,0,0,0,-1,-1,5165.107295166667,unknown,2,2022-06-30T09:54:55.693+02:00,2022-06-30T08:20:05.567+02:00,1419,1.400763,0,0,1122.37,0,0,2022-06-30T09:54:50.603+02:00
2022-06-30T09:54:59.463+02:00,5168.876846625,0.6931304931640625,0.94195556640625,-0.02288818359375,5168.866894625,-0.4461436175725206,0.7249286898404728,-0.6600830991903502,-0.472592294216156,4.30099630355835,-2.687764167785645,-0.1379774212837219,0.1834938526153564,0.3255910873413086,XArbitraryZVertical,-0.2213084307135494,0.3941682327257706,-0.3077540033372674,0.8372224979341828,0.5237959027290344,0.6131824851036072,-0.5913079380989075,0,0,0,-1,-1,5165.107295166667,unknown,2,2022-06-30T09:54:55.693+02:00,2022-06-30T08:20:05.567+02:00,1419,1.400763,0,0,1122.37,0,0,2022-06-30T09:54:50.603+02:00
2022-06-30T09:54:59.473+02:00,5168.886797625,0.8589630126953125,0.9648895263671875,-0.02154541015625,5168.876846625,-0.4647917641599726,0.7582763557805199,-0.6794470737204735,-0.4332624673843384,4.723666191101074,-2.020135879516602,0.05626374483108521,0.2668241262435913,0.4730209112167358,XArbitraryZVertical,-0.2208698431794508,0.4108804117658843,-0.3217440185291598,0.8239385528101089,0.5349532961845398,0.6283630132675171,-0.5647876262664795,0,0,0,-1,-1,5165.107295166667,unknown,2,2022-06-30T09:54:55.693+02:00,2022-06-30T08:20:05.567+02:00,1419,1.400763,0,0,1122.37,0,0,2022-06-30T09:54:50.603+02:00
2022-06-30T09:54:59.484+02:00,5168.896748625,0.87725830078125,0.862945556640625,-0.019500732421875,5168.886797625,-0.4750244157429951,0.8005879543980081,-0.6929412974751356,-0.4030461013317108,5.079989433288574,-1.008244156837463,0.2316620945930481,0.3299315571784973,0.5302075743675232,XArbitraryZVertical,-0.2177158756561912,0.4298247491048642,-0.3324249135630816,0.8107676536994304,0.5522276163101196,0.6388028860092163,-0.5357009768486023,0,0,0,-1,-1,5165.107295166667,unknown,2,2022-06-30T09:54:55.693+02:00,2022-06-30T08:20:05.567+02:00,1419,1.400763,0,0,1122.37,0,0,2022-06-30T09:54:50.603+02:00
2022-06-30T09:54:59.493+02:00,5168.906700625001,0.774139404296875,0.7833404541015625,-0.0563201904296875,5168.896748625,-0.4770107350884042,0.8504002885783934,-0.7008885846274306,-0.4770833253860474,5.162314891815186,-0.4564011991024017,0.314289391040802,0.2759553790092468,0.4828277826309204,XArbitraryZVertical,-0.2123610563729535,0.4503500859950471,-0.3397428561353125,0.7979113888897351,0.5743826031684875,0.6448970437049866,-0.5041751861572266,0,0,0,-1,-1,5165.107295166667,unknown,2,2022-06-30T09:54:55.693+02:00,2022-06-30T08:20:05.567+02:00,1419,1.400763,0,0,1122.37,0,0,2022-06-30T09:54:50.603+02:00
2022-06-30T09:54:59.503+02:00,5168.916651625001,0.649871826171875,0.6817779541015625,-0.0331573486328125,5168.906700625001,-0.4759739941506403,0.9008924901003196,-0.7075330573266395,-0.4772100150585175,4.811339378356934,-0.5274048447608948,0.2391907572746277,0.1724417209625244,0.4350217580795288,XArbitraryZVertical,-0.2068067268820555,0.4704199932803431,-0.3456639132818211,0.7851449697717967,0.5957245230674744,0.6499609351158142,-0.4718720018863678,0,0,0,-1,-1,5165.107295166667,unknown,2,2022-06-30T09:54:55.693+02:00,2022-06-30T08:20:05.567+02:00,1419,1.400763,0,0,1122.37,0,0,2022-06-30T09:54:50.603+02:00
2022-06-30T09:54:59.513+02:00,5168.926603625,0.585235595703125,0.6501312255859375,0.04486083984375,5168.926603625,-0.4796061422588601,0.9850652221822312,-0.7258940000084793,-0.4765277206897736,3.923926830291748,-1.038408398628235,-0.01523458957672119,-0.00717318058013916,0.4169279038906097,XArbitraryZVertical,-0.198886489488812,0.5037058631093485,-0.3587222408814337,0.7602913222533386,0.623236358165741,0.6638043522834778,-0.4134491384029388,0,0,0,-1,-1,5165.107295166667,unknown,2,2022-06-30T09:54:55.693+02:00,2022-06-30T08:20:05.567+02:00,1419,1.400763,0,0,1122.37,0,0,2022-06-30T09:54:50.603+02:00
2022-06-30T09:54:59.523+02:00,5168.936554625,0.581634521484375,0.6456756591796875,0.090301513671875,5168.926603625,-0.4796061422588601,0.9850652221822312,-0.7258940000084793,-0.4765277206897736,3.923926830291748,-1.038408398628235,-0.01523458957672119,-0.00717318058013916,0.4169279038906097,XArbitraryZVertical,-0.198886489488812,0.5037058631093485,-0.3587222408814337,0.7602913222533386,0.623236358165741,0.6638043522834778,-0.4134491384029388,0,0,0,-1,-1,5165.107295166667,unknown,2,2022-06-30T09:54:55.693+02:00,2022-06-30T08:20:05.567+02:00,1419,1.400763,0,0,1122.37,0,0,2022-06-30T09:54:50.603+02:00
2022-06-30T09:54:59.533+02:00,5168.946506625,0.5619354248046875,0.62628173828125,0.1015167236328125,5168.936554625,-0.4800987127870628,1.02236668513059,-0.7381454088594855,-0.7876003384590149,3.598539590835571,-1.064816355705261,-0.054909348487854,-0.02412903308868408,0.460372269153595,XArbitraryZVertical,-0.1971350130159038,0.5179890490635671,-0.3648173189494301,0.7481533564124095,0.6312339305877686,0.6729171872138977,-0.3856502771377563,0,0,0,-1,-1,5165.107295166667,unknown,2,2022-06-30T09:54:55.693+02:00,2022-06-30T08:20:05.567+02:00,1419,1.400763,0,0,1122.37,0,0,2022-06-30T09:54:50.603+02:00
2022-06-30T09:54:59.543+02:00,5168.956457625,0.50457763671875,0.5891876220703125,0.1366424560546875,5168.946506625,-0.4758101694225684,1.06084418253072,-0.7516894350495136,-1.122475504875183,3.551770925521851,-0.9629655480384827,-0.053131103515625,-0.04342412948608398,0.4550195932388306,XArbitraryZVertical,-0.1968028008502128,0.5319476517940747,-0.3695589253467679,0.7360208319326679,0.6375886201858521,0.6828739047050476,-0.3566007018089294,0,0,0,-1,-1,5165.107295166667,unknown,2,2022-06-30T09:54:55.693+02:00,2022-06-30T08:20:05.567+02:00,1419,1.400763,0,0,1122.37,0,0,2022-06-30T09:54:50.603+02:00
2022-06-30T09:54:59.553+02:00,5168.966409625,0.4761962890625,0.575531005859375,0.202911376953125,5168.956457625,-0.4668956089053909,1.101871732360097,-0.7657377124383896,-1.366794109344482,3.497154951095581,-0.9139641523361206,-0.1152397990226746,-0.0871121883392334,0.434805154800415,XArbitraryZVertical,-0.1973403258639448,0.5460458765622255,-0.3730932769401105,0.7236658059219547,0.6430567502975464,0.6930689811706543,-0.3257814049720764,0,0,0,-1,-1,5165.107295166667,unknown,2,2022-06-30T09:54:55.693+02:00,2022-06-30T08:20:05.567+02:00,1419,1.400763,0,0,1122.37,0,0,2022-06-30T09:54:50.603+02:00
2022-06-30T09:54:59.563+02:00,5168.976360625,0.4917144775390625,0.59368896484375,0.258331298828125,5168.966409625,-0.4537211011248002,1.145490348976256,-0.7804393085483727,-1.625719308853149,3.41465425491333,-0.9309929013252258,-0.1606956720352173,-0.1238647699356079,0.4617434442043304,XArbitraryZVertical,-0.1987661271734405,0.5602628636671446,-0.3756839322029467,0.7109565255426727,0.6472985744476318,0.7035916447639465,-0.2931950986385345,0,0,0,-1,-1,5165.107295166667,unknown,2,2022-06-30T09:54:55.693+02:00,2022-06-30T08:20:05.567+02:00,1419,1.400763,0,0,1122.37,0,0,2022-06-30T09:54:50.603+02:00
2022-06-30T09:54:59.573+02:00,5168.986311625,0.517425537109375,0.6384429931640625,0.2938079833984375,5168.976360625,-0.436178552923571,1.190871062173741,-0.7957875220445558,-1.879431486129761,3.178601980209351,-0.9245669841766357,-0.17112797498703,-0.1349626183509827,0.4942032396793365,XArbitraryZVertical,-0.2013234155127383,0.5742146644446898,-0.3773118413945571,0.6981276561700623,0.6498268842697144,0.7144148945808411,-0.259492814540863,0,0,0,-1,-1,5165.107295166667,unknown,2,2022-06-30T09:54:55.693+02:00,2022-06-30T08:20:05.567+02:00,1419,1.400763,0,0,1122.37,0,0,2022-06-30T09:54:50.603+02:00
2022-06-30T09:54:59.583+02:00,5168.996263625,0.5042877197265625,0.6702117919921875,0.3012847900390625,5168.986311625,-0.4137419258392128,1.236513395734347,-0.8115549272321493,-2.175442695617676,2.749756813049316,-0.9485515952110291,-0.1439498066902161,-0.1104447841644287,0.5031163096427917,XArbitraryZVertical,-0.2054211430918896,0.5872628350006721,-0.3777007956589183,0.685759834445469,0.6502670645713806,0.7253584265708923,-0.2258490324020386,0,0,0,-1,-1,5165.107295166667,unknown,2,2022-06-30T09:54:55.693+02:00,2022-06-30T08:20:05.567+02:00,1419,1.400763,0,0,1122.37,0,0,2022-06-30T09:54:50.603+02:00
2022-06-30T09:54:59.592+02:00,5169.006214625,0.4562530517578125,0.682220458984375,0.3477325439453125,5168.996263625,-0.3862545540777325,1.281884248138112,-0.8278246009159452,-2.37883996963501,2.324104309082031,-1.012749552726746,-0.1298266053199768,-0.07743453979492188,0.4947219789028168,XArbitraryZVertical,-0.2113059201400794,0.5991511001790676,-0.3768677720910238,0.674046475720659,0.6484425663948059,0.7364615201950073,-0.1927355378866196,0,0,0,-1,-1,5165.107295166667,unknown,2,2022-06-30T09:54:55.693+02:00,2022-06-30T08:20:05.567+02:00,1419,1.400763,0,0,1122.37,0,0,2022-06-30T09:54:50.603+02:00
2022-06-30T09:54:59.602+02:00,5169.016166625001,0.433807373046875,0.7324981689453125,0.4080810546875,5169.006214625,-0.356604586929917,1.325241295477145,-0.8443567224016439,-2.344989061355591,2.00445556640625,-1.130208730697632,-0.1650699377059937,-0.07417386770248413,0.4801002740859985,XArbitraryZVertical,-0.218388556158109,0.6095680260038377,-0.3756246819198364,0.6630530631365812,0.644287645816803,0.74754399061203,-0.1614665240049362,0,0,0,-1,-1,5165.107295166667,unknown,2,2022-06-30T09:54:55.693+02:00,2022-06-30T08:20:05.567+02:00,1419,1.400763,0,0,1122.37,0,0,2022-06-30T09:54:50.603+02:00
2022-06-30T09:54:59.612+02:00,5169.026117625001,0.425140380859375,0.7388916015625,0.5222930908203125,5169.016166625001,-0.327059094835449,1.365925665223223,-0.8606698079238022,-2.180323362350464,1.692976713180542,-1.189942359924316,-0.1937615871429443,-0.04976832866668701,0.5086205005645752,XArbitraryZVertical,-0.2259124670339715,0.6185863731719411,-0.3745366599329772,0.6527148686048946,0.6382960677146912,0.7582793831825256,-0.1326289176940918,0,0,0,-1,-1,5165.107295166667,unknown,2,2022-06-30T09:54:55.693+02:00,2022-06-30T08:20:05.567+02:00,1419,1.400763,0,0,1122.37,0,0,2022-06-30T09:54:50.603+02:00
2022-06-30T09:54:59.622+02:00,5169.036069625,0.42913818359375,0.7459869384765625,0.62921142578125,5169.026117625001,-0.2990199916647456,1.402507709075885,-0.8765918357656645,-2.024461030960083,1.36819314956665,-1.26822555065155,-0.2053055763244629,-0.03025138378143311,0.5663416981697083,XArbitraryZVertical,-0.2336189472961322,0.6259732998296664,-0.373804572158028,0.6433115368066277,0.6307360529899597,0.768562912940979,-0.1071592271327972,0,0,0,-1,-1,5165.107295166667,unknown,2,2022-06-30T09:54:55.693+02:00,2022-06-30T08:20:05.567+02:00,1419,1.400763,0,0,1122.37,0,0,2022-06-30T09:54:50.603+02:00
2022-06-30T09:54:59.632+02:00,5169.046020625,0.407501220703125,0.6985931396484375,0.70672607421875,5169.036069625,-0.2703213169627466,1.436491244228921,-0.8923703168511561,-2.10100793838501,0.9967535138130188,-1.314558386802673,-0.1930226683616638,-0.03613001108169556,0.6644612550735474,XArbitraryZVertical,-0.2419672970941881,0.6320091728742472,-0.3729110743850251,0.6347862571651176,0.6219168901443481,0.7785614728927612,-0.08403246849775314,0,0,0,-1,-1,5165.107295166667,unknown,2,2022-06-30T09:54:55.693+02:00,2022-06-30T08:20:05.567+02:00,1419,1.400763,0,0,1122.37,0,0,2022-06-30T09:54:50.603+02:00
2022-06-30T09:54:59.642+02:00,5169.055972625,0.3801727294921875,0.649505615234375,0.8007354736328125,5169.046020625,-0.2385170579287086,1.469279665725803,-0.9084712316926287,-2.217032432556152,0.5896719694137573,-1.433202385902405,-0.1916349530220032,-0.05776035785675049,0.7326695919036865,XArbitraryZVertical,-0.2516255539277502,0.6368078448617939,-0.3713669570452919,0.6270940179835486,0.6117859482765198,0.7885645627975464,-0.06232069805264473,0,0,0,-1,-1,5165.107295166667,unknown,2,2022-06-30T09:54:55.693+02:00,2022-06-30T08:20:05.567+02:00,1419,1.400763,0,0,1122.37,0,0,2022-06-30T09:54:50.603+02:00
2022-06-30T09:54:59.652+02:00,5169.065923625,0.3321380615234375,0.6837921142578125,0.9685516357421875,5169.055972625,-0.2039916966962178,1.500160225288135,-0.9251550068660251,-2.290108919143677,0.1104513108730316,-1.529283404350281,-0.2046869397163391,-0.132637619972229,0.7880113124847412,XArbitraryZVertical,-0.2626842964797432,0.6401276280714211,-0.369296091858113,0.6203659369660181,0.6002101898193359,0.7987140417098999,-0.04246716201305389,0,0,0,-1,-1,5165.107295166667,unknown,2,2022-06-30T09:54:55.693+02:00,2022-06-30T08:20:05.567+02:00,1419,1.400763,0,0,1122.37,0,0,2022-06-30T09:54:50.603+02:00
2022-06-30T09:54:59.662+02:00,5169.075874625,0.246307373046875,0.71942138671875,1.193130493164062,5169.065923625,-0.1665152124894641,1.528492754790626,-0.9421096847358456,-2.381137609481812,-0.4771100878715515,-1.620289325714111,-0.2278460264205933,-0.1489038467407227,0.9016555547714233,XArbitraryZVertical,-0.2752046576980936,0.6417375605675245,-0.3664531798993349,0.6149369573147103,0.5875570178031921,0.8088005781173706,-0.02487059868872166,0,0,0,-1,-1,5165.107295166667,unknown,2,2022-06-30T09:54:55.693+02:00,2022-06-30T08:20:05.567+02:00,1419,1.400763,0,0,1122.37,0,0,2022-06-30T09:54:50.603+02:00
2022-06-30T09:54:59.672+02:00,5169.085826625001,0.1400909423828125,0.7496795654296875,1.419342041015625,5169.075874625,-0.1267236879431055,1.5525416437804,-0.959861883010567,-2.364350318908691,-1.2106112241745,-1.80414092540741,-0.2807822823524475,-0.1138207912445068,1.084872484207153,XArbitraryZVertical,-0.2894378075813637,0.6410852517456542,-0.3629174424471925,0.6111680963207825,0.5735376477241516,0.8191123604774475,-0.01047091092914343,0,0,0,-1,-1,5165.107295166667,unknown,2,2022-06-30T09:54:55.693+02:00,2022-06-30T08:20:05.567+02:00,1419,1.400763,0,0,1122.37,0,0,2022-06-30T09:54:50.603+02:00
2022-06-30T09:54:59.682+02:00,5169.095777625001,0.014007568359375,0.780731201171875,1.646835327148438,5169.085826625001,-0.08607433084695655,1.569439682945394,-0.9794687410370144,-2.297264337539673,-2.144629955291748,-2.09674859046936,-0.3592512011528015,-0.09259170293807983,1.314430952072144,XArbitraryZVertical,-0.3057060255695013,0.6373112946348996,-0.3589483271406821,0.6095360456811291,0.5574631094932556,0.8302013278007507,-0.0007562793325632811,0,0,0,-1,-1,5165.107295166667,unknown,2,2022-06-30T09:54:55.693+02:00,2022-06-30T08:20:05.567+02:00,1419,1.400763,0,0,1122.37,0,0,2022-06-30T09:54:50.603+02:00
2022-06-30T09:54:59.692+02:00,5169.105729625,-0.0417938232421875,0.797698974609375,1.987640380859375,5169.095777625001,-0.04606745714706732,1.576068304442983,-1.002002974200778,-2.089641094207764,-3.28281044960022,-2.427056789398193,-0.465198278427124,-0.076529860496521,1.519056558609009,XArbitraryZVertical,-0.3243180989592671,0.6294740264678048,-0.3546766591920359,0.6105610810379641,0.5386085510253906,0.8425515294075012,0.002839558525010943,0,0,0,-1,-1,5165.107295166667,unknown,2,2022-06-30T09:54:55.693+02:00,2022-06-30T08:20:05.567+02:00,1419,1.400763,0,0,1122.37,0,0,2022-06-30T09:54:50.603+02:00
2022-06-30T09:54:59.702+02:00,5169.115680625,-0.1162872314453125,0.7777099609375,2.16192626953125,5169.105729625,-0.007658094026073941,1.568744048860782,-1.027270495900787,-2.026678562164307,-4.785574913024902,-2.638630867004395,-0.5389452576637268,-0.06420367956161499,1.810356736183167,XArbitraryZVertical,-0.3454325889136818,0.6165595283303268,-0.349435883278479,0.6151627903018698,0.5171558856964111,0.8558905720710754,-0.001061349059455097,0,0,0,-1,-1,5165.107295166667,unknown,2,2022-06-30T09:54:55.693+02:00,2022-06-30T08:20:05.567+02:00,1419,1.400763,0,0,1122.37,0,0,2022-06-30T09:54:50.603+02:00
2022-06-30T09:54:59.712+02:00,5169.125632625,-0.182586669921875,0.7695465087890625,2.196731567382812,5169.115680625,0.03037928799024671,1.545695784416404,-1.054580079973747,-1.865599036216736,-6.441531658172607,-2.7805495262146,-0.5649707317352295,-0.0795624852180481,2.132382869720459,XArbitraryZVertical,-0.3693714972059807,0.5978048333183386,-0.3418801282785934,0.6239488592029392,0.4934377372264862,0.8696930408477783,-0.01238815672695637,0,0,0,-1,-1,5165.107295166667,unknown,2,2022-06-30T09:54:55.693+02:00,2022-06-30T08:20:05.567+02:00,1419,1.400763,0,0,1122.37,0,0,2022-06-30T09:54:50.603+02:00
2022-06-30T09:54:59.722+02:00,5169.135583625,-0.288330078125,0.8308563232421875,2.218597412109375,5169.125632625,0.06443184543665439,1.502158305540429,-1.083577031770581,-1.753469228744507,-8.314962387084961,-2.888845443725586,-0.6241725087165833,-0.117509663105011,2.194797992706299,XArbitraryZVertical,-0.3955675438518401,0.5722515010112312,-0.3315520544675052,0.6372815510348349,0.4670681953430176,0.8836381435394287,-0.03210907429456711,0,0,0,-1,-1,5165.107295166667,unknown,2,2022-06-30T09:54:55.693+02:00,2022-06-30T08:20:05.567+02:00,1419,1.400763,0,0,1122.37,0,0,2022-06-30T09:54:50.603+02:00
2022-06-30T09:54:59.732+02:00,5169.145535000001,-0.411041259765625,0.9188079833984375,2.133987426757812,5169.135583625,0.09483168895651096,1.436505406265893,-1.114798208474566,-1.63528048992157,-10.26427364349365,-3.062400817871094,-0.6609880924224854,-0.1119791269302368,2.290922403335571,XArbitraryZVertical,-0.4243219172517939,0.538954172409975,-0.3174284190546712,0.6547660880209657,0.4363941550254822,0.8978219628334045,-0.05895861983299255,0,0,0,-1,-1,5165.107295166667,unknown,2,2022-06-30T09:54:55.693+02:00,2022-06-30T08:20:05.567+02:00,1419,1.400763,0,0,1122.37,0,0,2022-06-30T09:54:50.603+02:00
2022-06-30T09:54:59.742+02:00,5169.155486000001,-0.538177490234375,1.004348754882812,2.048355102539062,5169.145535000001,0.1158701351343177,1.344120494898715,-1.148360101020456,-1.310051798820496,-12.02893733978271,-3.201514482498169,-0.7523097395896912,-0.01750057935714722,2.27042293548584,XArbitraryZVertical,-0.4545901704247968,0.4972705023288474,-0.2995503207035393,0.6755290788820757,0.3994961082935333,0.9120928645133972,-0.09213964641094208,0,0,0,-1,-1,5165.107295166667,unknown,2,2022-06-30T09:54:55.693+02:00,2022-06-30T08:20:05.567+02:00,1419,1.400763,0,0,1122.37,0,0,2022-06-30T09:54:50.603+02:00
2022-06-30T09:54:59.752+02:00,5169.165437000001,-0.8149871826171875,1.122802734375,1.989990234375,5169.155486000001,0.1173960263043814,1.219277164221106,-1.181527760135109,-0.7025591731071472,-13.29378128051758,-3.123189687728882,-0.8236969709396362,0.02317732572555542,2.21511697769165,XArbitraryZVertical,-0.4837657494048737,0.4479208484762996,-0.2784256849821214,0.6984388184011789,0.3563050031661987,0.9251868724822998,-0.1306752264499664,0,0,0,-1,-1,5165.107295166667,unknown,2,2022-06-30T09:54:55.693+02:00,2022-06-30T08:20:05.567+02:00,1419,1.400763,0,0,1122.37,0,0,2022-06-30T09:54:50.603+02:00
2022-06-30T09:54:59.762+02:00,5169.175389,-1.341110229492188,1.125595092773438,1.888504028320312,5169.165437000001,0.09808288804110364,1.065743064774123,-1.210476350332503,-0.5361365079879761,-13.85270690917969,-2.711769819259644,-0.9534367322921753,0.1319649219512939,2.193176746368408,XArbitraryZVertical,-0.5099635708485853,0.3932429538239221,-0.2539636680437727,0.7216644995938281,0.3085545301437378,0.9357840418815613,-0.1705942749977112,0,0,0,-1,-1,5165.107295166667,unknown,2,2022-06-30T09:54:55.693+02:00,2022-06-30T08:20:05.567+02:00,1419,1.400763,0,0,1122.37,0,0,2022-06-30T09:54:50.603+02:00
2022-06-30T09:54:59.772+02:00,5169.18534,-4.061996459960938,1.491622924804688,0.5923004150390625,5169.175389,0.07476907513636812,0.9061329207322878,-1.234890810770894,-0.7913744449615479,-13.71404838562012,-2.244357824325562,-1.304972171783447,0.2086281776428223,2.15886116027832,XArbitraryZVertical,-0.5335187802637482,0.3371981477114027,-0.2258453503107466,0.742057241877573,0.2594551742076874,0.944112241268158,-0.2033102363348007,0,0,0,-1,-1,5165.107295166667,unknown,2,2022-06-30T09:54:55.693+02:00,2022-06-30T08:20:05.567+02:00,1419,1.400763,0,0,1122.37,0,0,2022-06-30T09:54:50.603+02:00
2022-06-30T09:54:59.782+02:00,5169.195292,-12.46945190429688,7.1697998046875,-20.788818359375,5169.18534,0.1360664813658561,0.9182975680746337,-1.244772551939719,-6.526965141296387,22.21089363098145,8.251808166503906,-1.960507869720459,0.1219972372055054,1.926825284957886,XArbitraryZVertical,-0.5458667075427888,0.3237238520372022,-0.2082554064076161,0.7442190864325023,0.254483550786972,0.9473233222961426,-0.1944648176431656,0,0,0,-1,-1,5165.107295166667,unknown,2,2022-06-30T09:54:55.693+02:00,2022-06-30T08:20:05.567+02:00,1419,1.400763,0,0,1122.37,0,0,2022-06-30T09:54:50.603+02:00
2022-06-30T09:54:59.792+02:00,5169.205243,9.72247314453125,2.786376953125,-9.375320434570312,5169.195292,0.4418386714151731,1.32202929027494,-1.243343627879999,-6.575936317443848,-1.634677410125732,-4.81400203704834,-16.38460731506348,1.813541650772095,-6.78648853302002,XArbitraryZVertical,-0.5579088991507536,0.3861907429724791,-0.2082433439818447,0.7044352637286544,0.3117311298847198,0.9468647241592407,-0.07918874174356461,0,0,0,-1,-1,5165.107295166667,unknown,2,2022-06-30T09:54:55.693+02:00,2022-06-30T08:20:05.567+02:00,1419,1.400763,0,0,1122.37,0,0,2022-06-30T09:54:50.603+02:00
2022-06-30T09:54:59.802+02:00,5169.215195000001,1.292129516601562,1.166336059570312,-2.211105346679688,5169.205243,0.452546741161412,1.340119136249082,-1.314428841216715,-1.56810188293457,-2.564371109008789,-7.319976806640625,5.21074390411377,5.895414352416992,-20.40191078186035,XArbitraryZVertical,-0.5769241789539696,0.3717135341396056,-0.2305142698231337,0.6898193300690307,0.246851846575737,0.9673174619674683,-0.05797507986426353,0,0,0,-1,-1,5165.107295166667,unknown,2,2022-06-30T09:54:55.693+02:00,2022-06-30T08:20:05.567+02:00,1419,1.400763,0,0,1122.37,0,0,2022-06-30T09:54:50.603+02:00
2022-06-30T09:54:59.811+02:00,5169.225146000001,-0.059356689453125,0.9315338134765625,0.9326171875,5169.215195000001,0.4606731197026182,1.293013993029735,-1.331538743878345,0.0964062511920929,-5.219871997833252,0.9435424208641052,3.959007740020752,-0.2337211966514587,-2.593919515609741,XArbitraryZVertical,-0.5881550634189658,0.3486841433568158,-0.2189407882991171,0.6961019891983372,0.2278971821069717,0.9715141654014587,-0.0649859756231308,0,0,0,-1,-1,5165.107295166667,unknown,2,2022-06-30T09:54:55.693+02:00,2022-06-30T08:20:05.567+02:00,1419,1.400763,0,0,1122.37,0,0,2022-06-30T09:54:50.603+02:00
2022-06-30T09:54:59.826+02:00,5169.235098,0.03082275390625,0.63726806640625,2.460800170898438,5169.225146000001,0.4305555858618881,1.249135634952853,-1.322224026212337,2.331135988235474,0.8115435242652893,0.4489535093307495,-0.7215617895126343,0.5193675756454468,-1.030285596847534,XArbitraryZVertical,-0.5851802604982888,0.3444928006302542,-0.2139637013820081,0.7022167344258906,0.2334025502204895,0.9692646265029907,-0.07777754962444305,0,0,0,-1,-1,5165.107295166667,unknown,2,2022-06-30T09:54:55.693+02:00,2022-06-30T08:20:05.567+02:00,1419,1.400763,0,0,1122.37,0,0,2022-06-30T09:54:50.603+02:00
2022-06-30T09:54:59.831+02:00,5169.245049,-1.01544189453125,1.02191162109375,2.4686279296875,5169.235098,0.3066936519652322,1.14125740771257,-1.316206341946297,2.819300651550293,-0.5843557715415955,-1.569686889648438,0.09474518895149231,-0.4799737930297852,1.761895298957825,XArbitraryZVertical,-0.5739499862202856,0.3437151096947776,-0.2247959230614651,0.708454697799081,0.228969931602478,0.9677666425704956,-0.1048826724290848,0,0,0,-1,-1,5165.107295166667,unknown,2,2022-06-30T09:54:55.693+02:00,2022-06-30T08:20:05.567+02:00,1419,1.400763,0,0,1122.37,0,0,2022-06-30T09:54:50.603+02:00
2022-06-30T09:54:59.841+02:00,5169.255,-1.387832641601562,0.4253997802734375,-2.094833374023438,5169.245049,0.2301266687762581,1.060451988944171,-1.330222733153063,-0.5840200185775757,0.4344169497489929,-1.639988541603088,-0.7153617143630981,0.02431249618530273,3.592992544174194,XArbitraryZVertical,-0.5745738149347797,0.334174465980708,-0.2321109714984367,0.7101527508260007,0.2079000622034073,0.971201479434967,-0.1163847148418427,0,0,0,-1,-1,5165.107295166667,unknown,2,2022-06-30T09:54:55.693+02:00,2022-06-30T08:20:05.567+02:00,1419,1.400763,0,0,1122.37,0,0,2022-06-30T09:54:50.603+02:00
2022-06-30T09:54:59.851+02:00,5169.264952,-0.5303192138671875,0.504791259765625,0.7722320556640625,5169.255,0.2042124818964611,1.034530583282592,-1.334108139393723,1.324276566505432,-1.842393159866333,0.3716223537921906,-1.501632452011108,-0.2555823922157288,-0.5527569055557251,XArbitraryZVertical,-0.5745353236014681,0.3316724083051049,-0.2347403011340485,0.7104925298405157,0.2015683501958847,0.9721198678016663,-0.1198051497340202,0,0,0,-1,-1,5165.107295166667,unknown,2,2022-06-30T09:54:55.693+02:00,2022-06-30T08:20:05.567+02:00,1419,1.400763,0,0,1122.37,0,0,2022-06-30T09:54:50.603+02:00
2022-06-30T09:54:59.861+02:00,5169.274903,-0.0594329833984375,0.6466522216796875,-0.3700408935546875,5169.264952,0.167793537429312,0.9871012997618012,-1.330357329901628,0.7751395702362061,-1.610612273216248,-0.7265151143074036,-0.9813107252120972,-0.5512201189994812,-0.3792933821678162,XArbitraryZVertical,-0.5728651873946928,0.3258952075829823,-0.233309004744665,0.7149718428558476,0.1987025737762451,0.9712335467338562,-0.1312355846166611,0,0,0,-1,-1,5165.107295166667,unknown,2,2022-06-30T09:54:55.693+02:00,2022-06-30T08:20:05.567+02:00,1419,1.400763,0,0,1122.37,0,0,2022-06-30T09:54:50.603+02:00
2022-06-30T09:54:59.871+02:00,5169.284855,0.1202239990234375,1.029144287109375,-0.183441162109375,5169.274903,0.09254180784887668,0.8887519808762409,-1.329903264014256,1.971170425415039,-2.956633806228638,-1.172795414924622,-0.4120359420776367,-0.4239146113395691,0.5322868824005127,XArbitraryZVertical,-0.5721471417594154,0.31217384605348,-0.2321054055462519,0.7220265291739489,0.1851987093687057,0.9711253046989441,-0.1503902822732925,0,0,0,-1,-1,5165.107295166667,unknown,2,2022-06-30T09:54:55.693+02:00,2022-06-30T08:20:05.567+02:00,1419,1.400763,0,0,1122.37,0,0,2022-06-30T09:54:50.603+02:00
2022-06-30T09:54:59.881+02:00,5169.294806,0.113128662109375,0.9557647705078125,-0.5252227783203125,5169.284855,0.007530313103322195,0.7760066922885083,-1.330650891043378,0.7917040586471558,-3.105204582214355,-1.53268301486969,-0.02789182960987091,-0.1232352256774902,-0.2673811912536621,XArbitraryZVertical,-0.5725445377668785,0.2954932262297392,-0.2308120601850702,0.72911060923062,0.1665941178798676,0.971303403377533,-0.1697530150413513,0,0,0,-1,-1,5165.107295166667,unknown,2,2022-06-30T09:54:55.693+02:00,2022-06-30T08:20:05.567+02:00,1419,1.400763,0,0,1122.37,0,0,2022-06-30T09:54:50.603+02:00
2022-06-30T09:54:59.891+02:00,5169.304758,0.03338623046875,0.7146148681640625,-0.589752197265625,5169.294806,-0.05988801348647216,0.6803846134506774,-1.337866090814649,0.4661230444908142,-2.973410844802856,-1.688591122627258,0.02528859674930573,0.08587414026260376,-0.05238102376461029,XArbitraryZVertical,-0.5765099543326422,0.2791430273064563,-0.2289725488136654,0.732998624474001,0.1452130079269409,0.9729942083358765,-0.1794308871030807,0,0,0,-1,-1,5165.107295166667,unknown,2,2022-06-30T09:54:55.693+02:00,2022-06-30T08:20:05.567+02:00,1419,1.400763,0,0,1122.37,0,0,2022-06-30T09:54:50.603+02:00
2022-06-30T09:54:59.901+02:00,5169.314709,-0.0768585205078125,0.5477752685546875,-0.3686981201171875,5169.304758,-0.1416403125855087,0.5703467038576682,-1.342034799176306,1.045388102531433,-3.10791540145874,-1.787424206733704,-0.01280499249696732,-0.150919497013092,-0.4900472164154053,XArbitraryZVertical,-0.5795847189672407,0.2619985960854796,-0.2276649906141442,0.7372970234392472,0.1224392727017403,0.9739480018615723,-0.1908765733242035,0,0,0,-1,-1,5165.107295166667,unknown,2,2022-06-30T09:54:55.693+02:00,2022-06-30T08:20:05.567+02:00,1419,1.400763,0,0,1122.37,0,0,2022-06-30T09:54:50.603+02:00
2022-06-30T09:54:59.911+02:00,5169.324661000001,-0.195648193359375,0.498443603515625,-0.4875335693359375,5169.314709,-0.2407698281851206,0.4415278722146367,-1.339305336075599,1.637645244598389,-3.282132625579834,-1.849636793136597,-0.1047844886779785,-0.3459755778312683,-0.2261214852333069,XArbitraryZVertical,-0.580647459104897,0.2431770744957459,-0.2268103159624029,0.7431490905269456,0.09803997725248337,0.9733253717422485,-0.2074268758296967,0,0,0,-1,-1,5165.107295166667,unknown,2,2022-06-30T09:54:55.693+02:00,2022-06-30T08:20:05.567+02:00,1419,1.400763,0,0,1122.37,0,0,2022-06-30T09:54:50.603+02:00
2022-06-30T09:54:59.921+02:00,5169.334612000001,-0.3959197998046875,0.6470489501953125,-0.481842041015625,5169.324661000001,-0.3394659067847133,0.3139680931620554,-1.32842072179943,2.041198253631592,-2.942351102828979,-1.616158485412598,-0.1921197772026062,-0.4724948406219482,-0.1809030771255493,XArbitraryZVertical,-0.5793135733268884,0.2241813549853056,-0.2263609309962764,0.7502661654551981,0.07412344962358475,0.970770537853241,-0.2282770127058029,0,0,0,-1,-1,5165.107295166667,unknown,2,2022-06-30T09:54:55.693+02:00,2022-06-30T08:20:05.567+02:00,1419,1.400763,0,0,1122.37,0,0,2022-06-30T09:54:50.603+02:00
2022-06-30T09:54:59.931+02:00,5169.344563000001,-0.486602783203125,0.8878326416015625,-0.398193359375,5169.334612000001,-0.4179138726526641,0.2125594049434913,-1.312965300678987,1.92791473865509,-2.100197553634644,-1.36674976348877,-0.3429768085479736,-0.4152637720108032,-0.2675850987434387,XArbitraryZVertical,-0.5762580715132681,0.2080956142647449,-0.2267305602123134,0.7571104668820006,0.05379210412502289,0.9669452905654907,-0.2492457032203674,0,0,0,-1,-1,5165.107295166667,unknown,2,2022-06-30T09:54:55.693+02:00,2022-06-30T08:20:05.567+02:00,1419,1.400763,0,0,1122.37,0,0,2022-06-30T09:54:50.603+02:00
2022-06-30T09:54:59.941+02:00,5169.354515,-0.5128326416015625,1.110366821289062,-0.4918365478515625,5169.344563000001,-0.4813955823032068,0.134988945750605,-1.298187871504217,1.551865935325623,-1.141925454139709,-1.450157284736633,-0.4955855011940002,-0.1982861757278442,-0.1550800502300262,XArbitraryZVertical,-0.5728950303609261,0.1959429898398928,-0.229060794943009,0.7621868763458099,0.0362347699701786,0.963071882724762,-0.2667952477931976,0,0,0,-1,-1,5165.107295166667,unknown,2,2022-06-30T09:54:55.693+02:00,2022-06-30T08:20:05.567+02:00,1419,1.400763,0,0,1122.37,0,0,2022-06-30T09:54:50.603+02:00
2022-06-30T09:54:59.951+02:00,5169.364466,-0.430999755859375,1.125946044921875,-0.80975341796875,5169.354515,-0.5457038757825464,0.06600070361821486,-1.287587893354518,0.887887179851532,-0.2864674925804138,-1.883108139038086,-0.5249758362770081,0.04986107349395752,-0.1421001851558685,XArbitraryZVertical,-0.5706032301468491,0.1870759420246683,-0.2344902053826969,0.7644794371373841,0.01842968538403511,0.9601638317108154,-0.2788290977478027,0,0,0,-1,-1,5165.107295166667,unknown,2,2022-06-30T09:54:55.693+02:00,2022-06-30T08:20:05.567+02:00,1419,1.400763,0,0,1122.37,0,0,2022-06-30T09:54:50.603+02:00
2022-06-30T09:54:59.961+02:00,5169.374418,-0.23101806640625,0.9800567626953125,-1.106857299804688,5169.364466,-0.6221669235704547,-0.007300930868890733,-1.281853378198138,0.46123868227005,0.2830506861209869,-2.385476350784302,-0.4932659268379211,0.1937522292137146,-0.340770810842514,XArbitraryZVertical,-0.5701307763832392,0.1802364114201468,-0.2432646054664076,0.7637329568503259,-0.00208030198700726,0.9585456252098083,-0.284931480884552,0,0,0,-1,-1,5165.107295166667,unknown,2,2022-06-30T09:54:55.693+02:00,2022-06-30T08:20:05.567+02:00,1419,1.400763,0,0,1122.37,0,0,2022-06-30T09:54:50.603+02:00
2022-06-30T09:54:59.971+02:00,5169.384369,-0.005615234375,0.89849853515625,-1.251907348632812,5169.374418,-0.7089379896290785,-0.08645982132064149,-1.275844876252223,0.5542408227920532,0.4661464691162109,-2.632212400436401,-0.3180683255195618,0.09773379564285278,-0.6912276744842529,XArbitraryZVertical,-0.5700326432750403,0.1739511081983942,-0.2544343190889612,0.7616212888512854,-0.02510200068354607,0.9568162560462952,-0.2896075844764709,0,0,0,-1,-1,5165.107295166667,unknown,2,2022-06-30T09:54:55.693+02:00,2022-06-30T08:20:05.567+02:00,1419,1.400763,0,0,1122.37,0,0,2022-06-30T09:54:50.603+02:00
2022-06-30T09:54:59.981+02:00,5169.394321000001,0.1122589111328125,0.924041748046875,-1.221038818359375,5169.394321000001,-0.8708244915387819,-0.2371136826827492,-1.252643347456037,0.8212931752204895,-0.2228357791900635,-2.523782253265381,0.1436388492584229,-0.04606741666793823,-0.9495717287063599,XArbitraryZVertical,-0.5681651031278868,0.158613753534743,-0.276463484583244,0.7586817482996897,-0.07347908616065979,0.9498147964477539,-0.3040601909160614,0,0,0,-1,-1,5165.107295166667,unknown,2,2022-06-30T09:54:55.693+02:00,2022-06-30T08:20:05.567+02:00,1419,1.400763,0,0,1122.37,0,0,2022-06-30T09:54:50.603+02:00
2022-06-30T09:54:59.990+02:00,5169.404272000001,0.086700439453125,0.9429473876953125,-0.9971771240234375,5169.394321000001,-0.8708244915387819,-0.2371136826827492,-1.252643347456037,0.8212931752204895,-0.2228357791900635,-2.523782253265381,0.1436388492584229,-0.04606741666793823,-0.9495717287063599,XArbitraryZVertical,-0.5681651031278868,0.158613753534743,-0.276463484583244,0.7586817482996897,-0.07347908616065979,0.9498147964477539,-0.3040601909160614,0,0,0,-1,-1,5165.107295166667,unknown,2,2022-06-30T09:54:55.693+02:00,2022-06-30T08:20:05.567+02:00,1419,1.400763,0,0,1122.37,0,0,2022-06-30T09:54:50.603+02:00
2022-06-30T09:55:00.000+02:00,5169.414224,-0.01763916015625,0.8644561767578125,-0.724273681640625,5169.404272000001,-0.9405486286328358,-0.3080363708649626,-1.238338758490679,0.760438859462738,-0.7475119233131409,-2.569607973098755,0.2105075418949127,-0.001685380935668945,-0.8240504264831543,XArbitraryZVertical,-0.5678433623198635,0.1484963402215546,-0.2852760538105164,0.7577073950236585,-0.09895067662000656,0.9452431201934814,-0.3110055029392242,0,0,0,-1,-1,5165.107295166667,unknown,2,2022-06-30T09:54:55.693+02:00,2022-06-30T08:20:05.567+02:00,1419,1.400763,0,0,1122.37,0,0,2022-06-30T09:54:50.603+02:00
2022-06-30T09:55:00.010+02:00,5169.424175,-0.1917572021484375,0.7647857666015625,-0.7354888916015625,5169.414224,-1.006283520898899,-0.3792949075364031,-1.221663270456314,0.8851360678672791,-1.073850631713867,-2.684642553329468,0.168348640203476,-0.02702617645263672,-0.5248966217041016,XArbitraryZVertical,-0.5679214198802626,0.1363087337648719,-0.2931844695472266,0.7569202315462169,-0.1266618072986603,0.9396696090698242,-0.317770391702652,0,0,0,-1,-1,5165.107295166667,unknown,2,2022-06-30T09:54:55.693+02:00,2022-06-30T08:20:05.567+02:00,1419,1.400763,0,0,1122.37,0,0,2022-06-30T09:54:50.603+02:00
2022-06-30T09:55:00.025+02:00,5169.434126,-0.4438323974609375,0.72052001953125,-1.027114868164062,5169.424175,-1.066015337726387,-0.4457442499283936,-1.202469416424646,0.9618297219276428,-0.9559815526008606,-2.679430961608887,0.05906935036182404,-0.1194241046905518,-0.3628856241703033,XArbitraryZVertical,-0.5677608404620923,0.1233312522472375,-0.3009709121809989,0.7562099701848013,-0.1552303582429886,0.9329310655593872,-0.324874073266983,0,0,0,-1,-1,5165.107295166667,unknown,2,2022-06-30T09:54:55.693+02:00,2022-06-30T08:20:05.567+02:00,1419,1.400763,0,0,1122.37,0,0,2022-06-30T09:54:50.603+02:00
2022-06-30T09:55:00.030+02:00,5169.444078,-0.7237091064453125,0.925537109375,-1.321075439453125,5169.434126,-1.114716105152655,-0.4979739454192738,-1.180925124790318,1.300774812698364,-0.4100987315177917,-2.463592290878296,-0.1285198777914047,-0.1985787749290466,-0.525754451751709,XArbitraryZVertical,-0.5661893440134423,0.1116880052155263,-0.3094061507539474,0.7557931963770235,-0.1815388649702072,0.9249579906463623,-0.3339108228683472,0,0,0,-1,-1,5165.107295166667,unknown,2,2022-06-30T09:54:55.693+02:00,2022-06-30T08:20:05.567+02:00,1419,1.400763,0,0,1122.37,0,0,2022-06-30T09:54:50.603+02:00
2022-06-30T09:55:00.041+02:00,5169.454029,-0.92718505859375,1.408615112304688,-1.506912231445312,5169.444078,-1.147062991329811,-0.5282373636522119,-1.156946296526695,1.59866726398468,0.2909044921398163,-2.106124639511108,-0.3844307065010071,-0.1347721219062805,-0.8399468660354614,XArbitraryZVertical,-0.5619395954369399,0.1027697168975556,-0.3186710671498715,0.7563801409562075,-0.202681839466095,0.9155793786048889,-0.347324550151825,0,0,0,-1,-1,5165.107295166667,unknown,2,2022-06-30T09:54:55.693+02:00,2022-06-30T08:20:05.567+02:00,1419,1.400763,0,0,1122.37,0,0,2022-06-30T09:54:50.603+02:00
2022-06-30T09:55:00.050+02:00,5169.463981,-1.008941650390625,1.886093139648438,-1.610122680664062,5169.454029,-1.170110378583353,-0.5447031295505064,-1.133309042636421,1.476885676383972,0.5322098135948181,-2.003598928451538,-0.6176303625106812,0.2379032969474792,-1.066358685493469,XArbitraryZVertical,-0.5563689975206568,0.09631846589249712,-0.3283721632306246,0.7571975330214346,-0.2195279747247696,0.9058190584182739,-0.362352579832077,0,0,0,-1,-1,5165.107295166667,unknown,2,2022-06-30T09:54:55.693+02:00,2022-06-30T08:20:05.567+02:00,1419,1.400763,0,0,1122.37,0,0,2022-06-30T09:54:50.603+02:00
2022-06-30T09:55:00.060+02:00,5169.473932,-0.97052001953125,2.111846923828125,-1.638214111328125,5169.463981,-1.195553234073998,-0.5634494596004497,-1.108904767265882,1.614519834518433,0.1996636390686035,-2.504672765731812,-0.7558155059814453,0.7786321043968201,-1.184159517288208,XArbitraryZVertical,-0.5510514836834102,0.08924832827490357,-0.3386422459257117,0.7574288943691627,-0.2380200922489166,0.8952111601829529,-0.3767539858818054,0,0,0,-1,-1,5165.107295166667,unknown,2,2022-06-30T09:54:55.693+02:00,2022-06-30T08:20:05.567+02:00,1419,1.400763,0,0,1122.37,0,0,2022-06-30T09:54:50.603+02:00
2022-06-30T09:55:00.070+02:00,5169.483884,-0.9625396728515625,2.157867431640625,-1.544052124023438,5169.473932,-1.222356470440198,-0.5871952893172229,-1.077244210525597,2.417290449142456,-0.1119333952665329,-2.958982706069946,-0.7315437793731689,1.145665764808655,-1.250587463378906,XArbitraryZVertical,-0.5446722651451288,0.07830176253120798,-0.3499345652096733,0.7581206573402597,-0.262474924325943,0.8806555867195129,-0.3944019079208374,0,0,0,-1,-1,5165.107295166667,unknown,2,2022-06-30T09:54:55.693+02:00,2022-06-30T08:20:05.567+02:00,1419,1.400763,0,0,1122.37,0,0,2022-06-30T09:54:50.603+02:00
2022-06-30T09:55:00.080+02:00,5169.493835,-1.0679931640625,2.019256591796875,-1.368560791015625,5169.483884,-1.239672586421002,-0.6028987708433539,-1.037476396818659,3.181845664978027,0.0663720890879631,-2.853060483932495,-0.6680987477302551,1.292287707328796,-1.18878173828125,XArbitraryZVertical,-0.5351410782054657,0.0651361107677063,-0.3619156097142232,0.760525089618212,-0.2882765233516693,0.8611239790916443,-0.4187626242637634,0,0,0,-1,-1,5165.107295166667,unknown,2,2022-06-30T09:54:55.693+02:00,2022-06-30T08:20:05.567+02:00,1419,1.400763,0,0,1122.37,0,0,2022-06-30T09:54:50.603+02:00
2022-06-30T09:55:00.090+02:00,5169.503787000001,-1.240234375,1.847793579101562,-1.274795532226562,5169.493835,-1.245848279319094,-0.6052460590277892,-0.9945086940566407,3.516229867935181,0.5478593707084656,-2.599032640457153,-0.6882080435752869,1.275003433227539,-1.006106376647949,XArbitraryZVertical,-0.5226292655940804,0.05291407613070588,-0.3739972871451047,0.7643199091486753,-0.3100372850894928,0.8384913206100464,-0.4481174945831299,0,0,0,-1,-1,5165.107295166667,unknown,2,2022-06-30T09:54:55.693+02:00,2022-06-30T08:20:05.567+02:00,1419,1.400763,0,0,1122.37,0,0,2022-06-30T09:54:50.603+02:00
2022-06-30T09:55:00.100+02:00,5169.513738000001,-1.411346435546875,1.850906372070312,-1.345458984375,5169.503787000001,-1.247618915133419,-0.5981276068975778,-0.9515088533521657,3.458883047103882,1.184420943260193,-2.456437826156616,-0.8266056776046753,1.103615283966064,-0.821449339389801,XArbitraryZVertical,-0.5082344202330906,0.04308321622981535,-0.3866871605875523,0.7683194691393673,-0.3268521130084991,0.8142922520637512,-0.4796832203865051,0,0,0,-1,-1,5165.107295166667,unknown,2,2022-06-30T09:54:55.693+02:00,2022-06-30T08:20:05.567+02:00,1419,1.400763,0,0,1122.37,0,0,2022-06-30T09:54:50.603+02:00
2022-06-30T09:55:00.110+02:00,5169.523689000001,-1.53436279296875,2.044845581054688,-1.42205810546875,5169.513738000001,-1.248835178570769,-0.5844437502162536,-0.9099614690609786,3.419298887252808,1.766366958618164,-2.297573328018188,-0.9926873445510864,1.03025221824646,-0.7883312106132507,XArbitraryZVertical,-0.4926947320545821,0.03607473347578926,-0.4001800431234961,0.7718849671235821,-0.3386421203613281,0.7894800901412964,-0.5119010210037231,0,0,0,-1,-1,5165.107295166667,unknown,2,2022-06-30T09:54:55.693+02:00,2022-06-30T08:20:05.567+02:00,1419,1.400763,0,0,1122.37,0,0,2022-06-30T09:54:50.603+02:00
2022-06-30T09:55:00.120+02:00,5169.533641,-1.608932495117188,2.30633544921875,-1.470947265625,5169.523689000001,-1.247793960266222,-0.5635735792517065,-0.8686659653809004,3.636280298233032,2.255747079849243,-2.089830636978149,-1.133131980895996,1.168385982513428,-0.8372582197189331,XArbitraryZVertical,-0.4754263325138487,0.03140869930437327,-0.4140884116407648,0.7755734474281232,-0.3450175523757935,0.7634680271148682,-0.5459665656089783,0,0,0,-1,-1,5165.107295166667,unknown,2,2022-06-30T09:54:55.693+02:00,2022-06-30T08:20:05.567+02:00,1419,1.400763,0,0,1122.37,0,0,2022-06-30T09:54:50.603+02:00
2022-06-30T09:55:00.130+02:00,5169.543592,-1.672332763671875,2.482498168945312,-1.447860717773438,5169.533641,-1.243424696608054,-0.5353040617396816,-0.8265648506576393,3.871893167495728,2.745834827423096,-1.828140258789062,-1.231738924980164,1.439211010932922,-0.8718212842941284,XArbitraryZVertical,-0.4559087029320318,0.02870325052436589,-0.4280599848753358,0.7798000917937197,-0.3455469608306885,0.735608696937561,-0.5826467275619507,0,0,0,-1,-1,5165.107295166667,unknown,2,2022-06-30T09:54:55.693+02:00,2022-06-30T08:20:05.567+02:00,1419,1.400763,0,0,1122.37,0,0,2022-06-30T09:54:50.603+02:00
2022-06-30T09:55:00.140+02:00,5169.553544,-1.733642578125,2.56158447265625,-1.345748901367188,5169.543592,-1.236669643775881,-0.501360490861731,-0.783897943850794,4.029878616333008,3.088155746459961,-1.602498769760132,-1.300892233848572,1.70231032371521,-0.8494774103164673,XArbitraryZVertical,-0.4344262425652967,0.0277062955783805,-0.4417626038107623,0.7844438170492725,-0.3403584659099579,0.7060451507568359,-0.6210123896598816,0,0,0,-1,-1,5165.107295166667,unknown,2,2022-06-30T09:54:55.693+02:00,2022-06-30T08:20:05.567+02:00,1419,1.400763,0,0,1122.37,0,0,2022-06-30T09:54:50.603+02:00
2022-06-30T09:55:00.150+02:00,5169.563495,-1.814529418945312,2.569015502929688,-1.193649291992188,5169.553544,-1.228858685786938,-0.4641082806622233,-0.7405961420224326,4.204427242279053,3.304054737091064,-1.424230456352234,-1.370855450630188,1.858535766601562,-0.739999532699585,XArbitraryZVertical,-0.4113715640417532,0.0278586856140446,-0.4550073590057643,0.7892818400143733,-0.330377459526062,0.6747280359268188,-0.6599946618080139,0,0,0,-1,-1,5165.107295166667,unknown,2,2022-06-30T09:54:55.693+02:00,2022-06-30T08:20:05.567+02:00,1419,1.400763,0,0,1122.37,0,0,2022-06-30T09:54:50.603+02:00
2022-06-30T09:55:00.160+02:00,5169.573447000001,-1.900802612304688,2.483352661132812,-1.021255493164062,5169.563495,-1.220609926299905,-0.4245524070062712,-0.696576602874095,4.309591293334961,3.557186365127563,-1.244629144668579,-1.455361485481262,1.935308456420898,-0.5795714259147644,XArbitraryZVertical,-0.3868975175878149,0.02892353737936406,-0.4676905558167154,0.7941909683124765,-0.3159550130367279,0.6415955424308777,-0.6989474892616272,0,0,0,-1,-1,5165.107295166667,unknown,2,2022-06-30T09:54:55.693+02:00,2022-06-30T08:20:05.567+02:00,1419,1.400763,0,0,1122.37,0,0,2022-06-30T09:54:50.603+02:00
2022-06-30T09:55:00.170+02:00,5169.583398000001,-1.933914184570312,2.3843994140625,-0.866790771484375,5169.573447000001,-1.212417060004569,-0.3819178262741458,-0.6525851428389707,4.298023223876953,3.986223936080933,-1.032988548278809,-1.562494993209839,1.924602389335632,-0.3640761375427246,XArbitraryZVertical,-0.3610647445774315,0.03155532536885294,-0.4798865600194614,0.7989653201239004,-0.2961170077323914,0.6072423458099365,-0.7372730374336243,0,0,0,-1,-1,5165.107295166667,unknown,2,2022-06-30T09:54:55.693+02:00,2022-06-30T08:20:05.567+02:00,1419,1.400763,0,0,1122.37,0,0,2022-06-30T09:54:50.603+02:00
2022-06-30T09:55:00.180+02:00,5169.593349000001,-1.924819946289062,2.298980712890625,-0.75848388671875,5169.583398000001,-1.204561289169545,-0.3356422393934976,-0.6101244059390679,4.129162788391113,4.377415180206299,-0.7576706409454346,-1.656656622886658,1.861982107162476,-0.1681580543518066,XArbitraryZVertical,-0.3342867390014707,0.03647735269449245,-0.4914326280238894,0.8033778183317565,-0.2699486315250397,0.5729694366455078,-0.7738435864448547,0,0,0,-1,-1,5165.107295166667,unknown,2,2022-06-30T09:54:55.693+02:00,2022-06-30T08:20:05.567+02:00,1419,1.400763,0,0,1122.37,0,0,2022-06-30T09:54:50.603+02:00
2022-06-30T09:55:00.190+02:00,5169.603301,-1.915679931640625,2.265289306640625,-0.680694580078125,5169.593349000001,-1.196853647659098,-0.286547467176494,-0.5700147724317369,3.930183887481689,4.613317966461182,-0.4866727292537689,-1.693579316139221,1.79363751411438,0.0001156330108642578,XArbitraryZVertical,-0.3071159599963778,0.0435568236926725,-0.5019092282106009,0.8073845170401323,-0.2379544526338577,0.5396444797515869,-0.8075651526451111,0,0,0,-1,-1,5165.107295166667,unknown,2,2022-06-30T09:54:55.693+02:00,2022-06-30T08:20:05.567+02:00,1419,1.400763,0,0,1122.37,0,0,2022-06-30T09:54:50.603+02:00
2022-06-30T09:55:00.200+02:00,5169.613252,-1.866104125976562,2.198593139648438,-0.593780517578125,5169.603301,-1.18955812217194,-0.2362902325817753,-0.532364851141778,3.702071905136108,4.71656322479248,-0.2701829671859741,-1.717336177825928,1.776210308074951,0.1252499222755432,XArbitraryZVertical,-0.2800782424859423,0.05217575450292264,-0.5111425157205006,0.8109052654758331,-0.2017006129026413,0.5075723528862,-0.8376677632331848,0,0,0,-1,-1,5165.107295166667,unknown,2,2022-06-30T09:54:55.693+02:00,2022-06-30T08:20:05.567+02:00,1419,1.400763,0,0,1122.37,0,0,2022-06-30T09:54:50.603+02:00
2022-06-30T09:55:00.209+02:00,5169.623204,-1.772903442382812,2.13201904296875,-0.4626617431640625,5169.613252,-1.182542476055397,-0.1859429423274677,-0.4966584610756996,3.593734502792358,4.703240871429443,-0.009567092172801495,-1.740539312362671,1.759364366531372,0.2185624837875366,XArbitraryZVertical,-0.2533391128511251,0.06170048243436296,-0.5190400209453379,0.8140084393951682,-0.1625368446111679,0.4764903783798218,-0.8640246987342834,0,0,0,-1,-1,5165.107295166667,unknown,2,2022-06-30T09:54:55.693+02:00,2022-06-30T08:20:05.567+02:00,1419,1.400763,0,0,1122.37,0,0,2022-06-30T09:54:50.603+02:00
2022-06-30T09:55:00.219+02:00,5169.633155,-1.69757080078125,2.0849609375,-0.2861785888671875,5169.623204,-1.174721775213216,-0.1360224684860848,-0.4611579045210326,3.665501594543457,4.612692356109619,0.2328754514455795,-1.694754600524902,1.716482758522034,0.3502021431922913,XArbitraryZVertical,-0.2264630209265477,0.07128479355566647,-0.5253240281247882,0.81710939176283,-0.1214379817247391,0.4449853599071503,-0.8872659802436829,0,0,0,-1,-1,5165.107295166667,unknown,2,2022-06-30T09:54:55.693+02:00,2022-06-30T08:20:05.567+02:00,1419,1.400763,0,0,1122.37,0,0,2022-06-30T09:54:50.603+02:00
2022-06-30T09:55:00.229+02:00,5169.643107,-1.594070434570312,1.982025146484375,-0.2494964599609375,5169.633155,-1.167088539296767,-0.08698686618304247,-0.4251204625879355,3.688272953033447,4.606394290924072,0.3297609686851501,-1.654361009597778,1.700331568717957,0.5436376333236694,XArbitraryZVertical,-0.1993029789030739,0.08065978167552092,-0.5304206315291253,0.8200160929940192,-0.079144187271595,0.4124305248260498,-0.9075446724891663,0,0,0,-1,-1,5165.107295166667,unknown,2,2022-06-30T09:54:55.693+02:00,2022-06-30T08:20:05.567+02:00,1419,1.400763,0,0,1122.37,0,0,2022-06-30T09:54:50.603+02:00
2022-06-30T09:55:00.239+02:00,5169.653058,-1.42938232421875,1.82452392578125,-0.2397308349609375,5169.643107,-1.160566467441053,-0.03835028333932595,-0.3883623940749134,3.767849445343018,4.651849746704102,0.4162949323654175,-1.617483615875244,1.664264559745789,0.6721794605255127,XArbitraryZVertical,-0.1716616289505437,0.0900407189860043,-0.5347636670177625,0.8224676098335674,-0.0354856550693512,0.378673255443573,-0.9248499274253845,0,0,0,-1,-1,5165.107295166667,unknown,2,2022-06-30T09:54:55.693+02:00,2022-06-30T08:20:05.567+02:00,1419,1.400763,0,0,1122.37,0,0,2022-06-30T09:54:50.603+02:00
2022-06-30T09:55:00.249+02:00,5169.66301,-1.27734375,1.710983276367188,-0.22613525390625,5169.653058,-1.155006583090325,0.009744670840705873,-0.3501837464494574,3.920740604400635,4.60712194442749,0.5218152403831482,-1.525998711585999,1.561500787734985,0.6916148066520691,XArbitraryZVertical,-0.1433274950353027,0.09911952498144912,-0.5382915115815753,0.8245452491489995,0.009153119288384914,0.3430704176425934,-0.9392650723457336,0,0,0,-1,-1,5165.107295166667,unknown,2,2022-06-30T09:54:55.693+02:00,2022-06-30T08:20:05.567+02:00,1419,1.400763,0,0,1122.37,0,0,2022-06-30T09:54:50.603+02:00
2022-06-30T09:55:00.259+02:00,5169.672961,-1.198318481445312,1.6087646484375,-0.193756103515625,5169.66301,-1.150170802062037,0.05656066274498294,-0.3101415998843351,4.084811210632324,4.460922241210938,0.6623064279556274,-1.398651480674744,1.453885078430176,0.7153701186180115,XArbitraryZVertical,-0.1143590381100893,0.1074162167408845,-0.5408298338673062,0.8263697278427642,0.05383345857262611,0.3051934838294983,-0.9507675170898438,0,0,0,-1,-1,5165.107295166667,unknown,2,2022-06-30T09:54:55.693+02:00,2022-06-30T08:20:05.567+02:00,1419,1.400763,0,0,1122.37,0,0,2022-06-30T09:54:50.603+02:00
2022-06-30T09:55:00.269+02:00,5169.682912,-1.126724243164062,1.5155029296875,-0.09747314453125,5169.672961,-1.146614478560275,0.1012252651431406,-0.2680419508510127,4.31611156463623,4.321929931640625,0.6778219938278198,-1.32876718044281,1.396822690963745,0.7457931041717529,XArbitraryZVertical,-0.08491690574551963,0.1145055238895308,-0.5425402124978864,0.8278452449030748,0.09744403511285782,0.2648438215255737,-0.9593552350997925,0,0,0,-1,-1,5165.107295166667,unknown,2,2022-06-30T09:54:55.693+02:00,2022-06-30T08:20:05.567+02:00,1419,1.400763,0,0,1122.37,0,0,2022-06-30T09:54:50.603+02:00
2022-06-30T09:55:00.279+02:00,5169.692864000001,-1.03399658203125,1.432052612304688,-0.0358734130859375,5169.682912,-1.145650514642814,0.1438202877250098,-0.2231747506196007,4.606915950775146,4.206181526184082,0.6098297834396362,-1.30468738079071,1.338502526283264,0.8184943795204163,XArbitraryZVertical,-0.05463855624659748,0.1202036190810055,-0.5439690109583708,0.8286516682246199,0.1397704929113388,0.2213267534971237,-0.9651314616203308,0,0,0,-1,-1,5165.107295166667,unknown,2,2022-06-30T09:54:55.693+02:00,2022-06-30T08:20:05.567+02:00,1419,1.400763,0,0,1122.37,0,0,2022-06-30T09:54:50.603+02:00
2022-06-30T09:55:00.289+02:00,5169.702815000001,-0.9257659912109375,1.349411010742188,0.0302734375,5169.692864000001,-1.147543929364907,0.1849474302796767,-0.1753864647899815,4.924498558044434,4.147758483886719,0.6181820034980774,-1.267148494720459,1.297083735466003,0.8990495800971985,XArbitraryZVertical,-0.02331038810682817,0.1245923925026329,-0.5452000211177594,0.8286678131024943,0.1810737699270248,0.1744886934757233,-0.9678667187690735,0,0,0,-1,-1,5165.107295166667,unknown,2,2022-06-30T09:54:55.693+02:00,2022-06-30T08:20:05.567+02:00,1419,1.400763,0,0,1122.37,0,0,2022-06-30T09:54:50.603+02:00
2022-06-30T09:55:00.299+02:00,5169.712767,-0.839599609375,1.222183227539062,0.0207672119140625,5169.702815000001,-1.151273129560026,0.22526738501466,-0.1252713055866398,5.046792030334473,4.065425872802734,0.6943828463554382,-1.198102712631226,1.26787793636322,0.9711397886276245,XArbitraryZVertical,0.008890123730529218,0.1279564741421114,-0.5457603571094434,0.8280663423345263,0.22161665558815,0.124943919479847,-0.967096209526062,0,0,0,-1,-1,5165.107295166667,unknown,2,2022-06-30T09:54:55.693+02:00,2022-06-30T08:20:05.567+02:00,1419,1.400763,0,0,1122.37,0,0,2022-06-30T09:54:50.603+02:00
2022-06-30T09:55:00.309+02:00,5169.722718,-0.73199462890625,1.041244506835938,-0.0181732177734375,5169.712767,-1.156555794451464,0.2651696429921108,-0.07519731495862393,4.949371337890625,4.074441432952881,0.728762686252594,-1.145182371139526,1.21715521812439,0.995462954044342,XArbitraryZVertical,0.0410037412459246,0.1309895874224616,-0.5455639404013056,0.8267529106870498,0.2613323628902435,0.07512646913528442,-0.962320864200592,0,0,0,-1,-1,5165.107295166667,unknown,2,2022-06-30T09:54:55.693+02:00,2022-06-30T08:20:05.567+02:00,1419,1.400763,0,0,1122.37,0,0,2022-06-30T09:54:50.603+02:00
2022-06-30T09:55:00.319+02:00,5169.73267,-0.6394805908203125,0.8639678955078125,-0.001495361328125,5169.722718,-1.162815367930922,0.3055738599723861,-0.0266110616777663,4.769749164581299,4.11034107208252,0.828169047832489,-1.088163733482361,1.110156178474426,0.9563275575637817,XArbitraryZVertical,0.07258777823871213,0.1343971904827331,-0.544447279725186,0.8247700329364583,0.3007339835166931,0.02660792134702206,-0.9533368349075317,0,0,0,-1,-1,5165.107295166667,unknown,2,2022-06-30T09:54:55.693+02:00,2022-06-30T08:20:05.567+02:00,1419,1.400763,0,0,1122.37,0,0,2022-06-30T09:54:50.603+02:00
2022-06-30T09:55:00.329+02:00,5169.742621,-0.576019287109375,0.7576141357421875,0.0566864013671875,5169.73267,-1.16887615006753,0.3460403625375252,0.02031540549922034,4.556106090545654,4.015618801116943,1.038272500038147,-1.019159197807312,0.9668315052986145,0.9150621294975281,XArbitraryZVertical,0.1033252046794093,0.1380558292341564,-0.5420065914191778,0.8224921861924247,0.3391055762767792,-0.02031400799751282,-0.9405289888381958,0,0,0,-1,-1,5165.107295166667,unknown,2,2022-06-30T09:54:55.693+02:00,2022-06-30T08:20:05.567+02:00,1419,1.400763,0,0,1122.37,0,0,2022-06-30T09:54:50.603+02:00
2022-06-30T09:55:00.339+02:00,5169.752573000001,-0.481781005859375,0.7455291748046875,0.0645294189453125,5169.742621,-1.173979399555604,0.3855567806669458,0.06559259656072076,4.298534870147705,3.881786584854126,1.246994256973267,-0.9879524707794189,0.8625574707984924,0.9586390256881714,XArbitraryZVertical,0.1328504477308038,0.1416066459698426,-0.5380743580681112,0.8202282586007945,0.3752663731575012,-0.06554557383060455,-0.9245966076850891,0,0,0,-1,-1,5165.107295166667,unknown,2,2022-06-30T09:54:55.693+02:00,2022-06-30T08:20:05.567+02:00,1419,1.400763,0,0,1122.37,0,0,2022-06-30T09:54:50.603+02:00
2022-06-30T09:55:00.349+02:00,5169.762524000001,-0.4111328125,0.774993896484375,0.094207763671875,5169.752573000001,-1.178182608132276,0.4241307059791873,0.1083401571991671,3.920915842056274,3.823709964752197,1.34395968914032,-0.9377412796020508,0.851368248462677,0.964982807636261,XArbitraryZVertical,0.1607810086746453,0.145336973676095,-0.5328872082825991,0.8179596893641211,0.4091158509254456,-0.1081283390522003,-0.9060532450675964,0,0,0,-1,-1,5165.107295166667,unknown,2,2022-06-30T09:54:55.693+02:00,2022-06-30T08:20:05.567+02:00,1419,1.400763,0,0,1122.37,0,0,2022-06-30T09:54:50.603+02:00
2022-06-30T09:55:00.359+02:00,5169.772475000001,-0.3358001708984375,0.7899169921875,0.065338134765625,5169.762524000001,-1.182464022017443,0.4627396405131671,0.1477883899534328,3.612924814224243,3.818809509277344,1.270329833030701,-0.8863134980201721,0.9056276679039001,0.9663468599319458,XArbitraryZVertical,0.187127442564247,0.149813532398392,-0.5269956177821427,0.8153618161896322,0.4415351450443268,-0.1472509950399399,-0.8850784301757812,0,0,0,-1,-1,5165.107295166667,unknown,2,2022-06-30T09:54:55.693+02:00,2022-06-30T08:20:05.567+02:00,1419,1.400763,0,0,1122.37,0,0,2022-06-30T09:54:50.603+02:00
2022-06-30T09:55:00.369+02:00,5169.782427,-0.256805419921875,0.78009033203125,0.029998779296875,5169.772475000001,-1.188131026987118,0.5010817428597969,0.1847853828436142,3.549857378005981,3.685649871826172,1.192702174186707,-0.8490732908248901,0.9706003665924072,0.9517470598220825,XArbitraryZVertical,0.2122492799005021,0.1545451735288015,-0.5209908388900216,0.8121789946196138,0.4721965491771698,-0.183735579252243,-0.8621320724487305,0,0,0,-1,-1,5165.107295166667,unknown,2,2022-06-30T09:54:55.693+02:00,2022-06-30T08:20:05.567+02:00,1419,1.400763,0,0,1122.37,0,0,2022-06-30T09:54:50.603+02:00
2022-06-30T09:55:00.379+02:00,5169.792378,-0.1858367919921875,0.7913055419921875,0.15606689453125,5169.782427,-1.196002098396534,0.5380449395942734,0.2225869475698564,3.853786706924438,3.415262937545776,1.239865064620972,-0.7962632775306702,1.005268454551697,0.8709138631820679,XArbitraryZVertical,0.2371998662313524,0.1580268778779176,-0.5149867775531808,0.8084258159061761,0.4998156130313873,-0.2207534909248352,-0.8375274538993835,0,0,0,-1,-1,5165.107295166667,unknown,2,2022-06-30T09:54:55.693+02:00,2022-06-30T08:20:05.567+02:00,1419,1.400763,0,0,1122.37,0,0,2022-06-30T09:54:50.603+02:00
2022-06-30T09:55:00.389+02:00,5169.80233,-0.1566925048828125,0.83209228515625,0.278594970703125,5169.792378,-1.207193046719257,0.5731983324501196,0.264224503417638,4.405038833618164,3.12674355506897,1.317341208457947,-0.7430900931358337,1.041586399078369,0.8892449140548706,XArbitraryZVertical,0.2630877947858077,0.1589917412718984,-0.5090520256320835,0.8039728710787712,0.5235008597373962,-0.2611607611179352,-0.811012864112854,0,0,0,-1,-1,5165.107295166667,unknown,2,2022-06-30T09:54:55.693+02:00,2022-06-30T08:20:05.567+02:00,1419,1.400763,0,0,1122.37,0,0,2022-06-30T09:54:50.603+02:00
2022-06-30T09:55:00.399+02:00,5169.812281,-0.160308837890625,0.8259735107421875,0.3330841064453125,5169.80233,-1.222417323524847,0.6076664310002069,0.3098727721940023,4.820428848266602,2.961799144744873,1.342010021209717,-0.7069222331047058,1.115377068519592,1.009710311889648,XArbitraryZVertical,0.2902204906458008,0.157580071909432,-0.5032039035763358,0.7985778058847676,0.5437600612640381,-0.304937481880188,-0.7818811535835266,0,0,0,-1,-1,5165.107295166667,unknown,2,2022-06-30T09:54:55.693+02:00,2022-06-30T08:20:05.567+02:00,1419,1.400763,0,0,1122.37,0,0,2022-06-30T09:54:50.603+02:00
