loggingTime(txt),accelerometerTimestamp_sinceReboot(s),accelerometerAccelerationX(G),accelerometerAccelerationY(G),accelerometerAccelerationZ(G),motionTimestamp_sinceReboot(s),motionYaw(rad),motionRoll(rad),motionPitch(rad),motionRotationRateX(rad/s),motionRotationRateY(rad/s),motionRotationRateZ(rad/s),motionUserAccelerationX(G),motionUserAccelerationY(G),motionUserAccelerationZ(G),motionAttitudeReferenceFrame(txt),motionQuaternionX(R),motionQuaternionY(R),motionQuaternionZ(R),motionQuaternionW(R),motionGravityX(G),motionGravityY(G),motionGravityZ(G),motionMagneticFieldX(µT),motionMagneticFieldY(µT),motionMagneticFieldZ(µT),motionHeading(°),motionMagneticFieldCalibrationAccuracy(Z),activityTimestamp_sinceReboot(s),activity(txt),activityActivityConfidence(Z),activityActivityStartDate(txt),pedometerStartDate(txt),pedometerNumberofSteps(N),pedometerAverageActivePace(s/m),pedometerCurrentPace(s/m),pedometerCurrentCadence(steps/s),pedometerDistance(m),pedometerFloorAscended(N),pedometerFloorDescended(N),pedometerEndDate(txt)
2022-06-30T09:58:09.116+02:00,5336.209824500001,-0.0585174560546875,-0.027069091796875,-0.9528045654296875,5336.1998725,-2.69100670315635,-0.01787523283170187,0.01797637882221097,0.1604530066251755,-0.09741416573524475,0.1514684706926346,0.01620861887931824,0.02549805864691734,0.02136141061782837,XArbitraryZVertical,-0.006703501574117606,-0.0107570626333829,-0.9746683374490293,0.2232956920247524,-0.01787139289081097,-0.01797541044652462,-0.9996786713600159,0,0,0,-1,-1,5333.888265250001,unknown,2,2022-06-30T09:58:06.776+02:00,2022-06-30T08:20:05.567+02:00,1483,1.408551,0,0,1171.106,0,0,2022-06-30T09:57:51.488+02:00
2022-06-30T09:58:09.119+02:00,5336.219775500001,-0.066070556640625,-0.02490234375,-0.92950439453125,5336.209824500001,-2.689273419507694,-0.01835978016324116,0.01947222160779826,0.07988905906677246,0.01921173371374607,0.1684544384479523,0.04171691089868546,0.01147545129060745,0.02375084161758423,XArbitraryZVertical,-0.006762505809734033,-0.01154596906627081,-0.9744675539406866,0.224129447026143,-0.01835526898503304,-0.01947099156677723,-0.9996418952941895,0,0,0,-1,-1,5333.888265250001,unknown,2,2022-06-30T09:58:06.776+02:00,2022-06-30T08:20:05.567+02:00,1483,1.408551,0,0,1171.106,0,0,2022-06-30T09:57:51.488+02:00
2022-06-30T09:58:09.119+02:00,5336.2297275,-0.0078277587890625,-0.0480194091796875,-0.988311767578125,5336.219775500001,-2.688122635686021,-0.01800500422574505,0.01857560848201089,-0.2004563212394714,0.05959510803222656,0.06847724318504333,-0.06196995452046394,0.004948506131768227,0.07470816373825073,XArbitraryZVertical,-0.00668383212835018,-0.0110732144771495,-0.974342858555539,0.2246970449207667,-0.01800092495977879,-0.0185745395720005,-0.9996654391288757,0,0,0,-1,-1,5333.888265250001,unknown,2,2022-06-30T09:58:06.776+02:00,2022-06-30T08:20:05.567+02:00,1483,1.408551,0,0,1171.106,0,0,2022-06-30T09:57:51.488+02:00
2022-06-30T09:58:09.128+02:00,5336.2396785,0.0283050537109375,-0.0177459716796875,-1.014907836914062,5336.2297275,-2.68798737358575,-0.01742776523223306,0.01611182388196943,-0.2493747919797897,0.05957451835274696,-0.04024021327495575,-0.017105583101511,-0.03306788578629494,0.03975743055343628,XArbitraryZVertical,-0.006678949774769946,-0.009808562704373896,-0.9743375618448272,0.2247790020732,-0.01742462068796158,-0.01611112616956234,-0.9997183680534363,0,0,0,-1,-1,5333.888265250001,unknown,2,2022-06-30T09:58:06.776+02:00,2022-06-30T08:20:05.567+02:00,1483,1.408551,0,0,1171.106,0,0,2022-06-30T09:57:51.488+02:00
2022-06-30T09:58:09.138+02:00,5336.2496305,0.0370635986328125,-0.0247650146484375,-1.017929077148438,5336.2396785,-2.689072510994038,-0.01689176517858652,0.01410377795625916,-0.1273146569728851,0.0488654151558876,-0.1743767112493515,0.03193488344550133,-0.01418642047792673,-0.003003954887390137,XArbitraryZVertical,-0.006648400303716506,-0.008766482732571782,-0.9744666133516693,0.2242629024159427,-0.01688928157091141,-0.01410331018269062,-0.9997578859329224,0,0,0,-1,-1,5333.888265250001,unknown,2,2022-06-30T09:58:06.776+02:00,2022-06-30T08:20:05.567+02:00,1483,1.408551,0,0,1171.106,0,0,2022-06-30T09:57:51.488+02:00
2022-06-30T09:58:09.149+02:00,5336.259582500001,0.0169830322265625,-0.0211181640625,-0.9937286376953125,5336.2496305,-2.691313101893024,-0.01652249878956392,0.01368664495345837,-0.01747790724039078,0.01794061809778214,-0.2652153968811035,0.05236352980136871,-0.009385005570948124,-0.02218753099441528,XArbitraryZVertical,-0.006524822014858123,-0.008514535873423153,-0.9747194657256774,0.2231746749220201,-0.01652020029723644,-0.01368621736764908,-0.9997698664665222,0,0,0,-1,-1,5333.888265250001,unknown,2,2022-06-30T09:58:06.776+02:00,2022-06-30T08:20:05.567+02:00,1483,1.408551,0,0,1171.106,0,0,2022-06-30T09:57:51.488+02:00
2022-06-30T09:58:09.158+02:00,5336.269533500001,-0.000396728515625,-0.033233642578125,-0.994384765625,5336.259582500001,-2.694060010914021,-0.01645206146695997,0.01378026434865921,-0.01846221275627613,0.007001684978604317,-0.2859939336776733,0.0460522398352623,-0.007597668096423149,-0.002808988094329834,XArbitraryZVertical,-0.006491782174542248,-0.00854339315946559,-0.97502504297473,0.2218355661152718,-0.01644975692033768,-0.01377982832491398,-0.9997697472572327,0,0,0,-1,-1,5333.888265250001,unknown,2,2022-06-30T09:58:06.776+02:00,2022-06-30T08:20:05.567+02:00,1483,1.408551,0,0,1171.106,0,0,2022-06-30T09:57:51.488+02:00
2022-06-30T09:58:09.168+02:00,5336.2794855,-0.00128173828125,-0.036224365234375,-0.9867401123046875,5336.269533500001,-2.696949241451876,-0.01660350627862631,0.01369656625514474,-0.04208951070904732,0.01042084489017725,-0.2965420484542847,0.02285772375762463,-0.01463936641812325,0.006131291389465332,XArbitraryZVertical,-0.006587201296937469,-0.008509880777354401,-0.975344262661794,0.2204265993146388,-0.01660118624567986,-0.01369613781571388,-0.9997683763504028,0,0,0,-1,-1,5333.888265250001,unknown,2,2022-06-30T09:58:06.776+02:00,2022-06-30T08:20:05.567+02:00,1483,1.408551,0,0,1171.106,0,0,2022-06-30T09:57:51.488+02:00
2022-06-30T09:58:09.178+02:00,5336.2894365,-0.0035858154296875,-0.0248870849609375,-0.9835205078125,5336.2794855,-2.699753903464913,-0.01627041714811767,0.01262414361804268,-0.1383630484342575,0.01805745810270309,-0.25953209400177,0.01475821621716022,-0.02523317933082581,0.007585227489471436,XArbitraryZVertical,-0.006554159414827281,-0.007941007759389791,-0.9756559172452445,0.2190650190520474,-0.01626840233802795,-0.01262380834668875,-0.9997879862785339,0,0,0,-1,-1,5333.888265250001,unknown,2,2022-06-30T09:58:06.776+02:00,2022-06-30T08:20:05.567+02:00,1483,1.408551,0,0,1171.106,0,0,2022-06-30T09:57:51.488+02:00
2022-06-30T09:58:09.188+02:00,5336.299388500001,-0.0087432861328125,-0.010406494140625,-0.984130859375,5336.2894365,-2.702098044849518,-0.01555099962854903,0.01081455557052519,-0.2180378437042236,0.02245042845606804,-0.2038941532373428,0.01284909155219793,-0.02328897826373577,0.01622378826141357,XArbitraryZVertical,-0.006409678417720097,-0.006971946453697507,-0.9759179441460635,0.2179321915840439,-0.01554946321994066,-0.01081434451043606,-0.9998205900192261,0,0,0,-1,-1,5333.888265250001,unknown,2,2022-06-30T09:58:06.776+02:00,2022-06-30T08:20:05.567+02:00,1483,1.408551,0,0,1171.106,0,0,2022-06-30T09:57:51.488+02:00
2022-06-30T09:58:09.199+02:00,5336.309339500001,-0.002166748046875,-0.008544921875,-0.9754791259765625,5336.299388500001,-2.704021186836724,-0.01617325098459776,0.008674429228305259,-0.2210469543933868,0.02308159694075584,-0.1856517642736435,0.009077034890651703,-0.00681327935308218,0.01562446355819702,XArbitraryZVertical,-0.006952358399627961,-0.005988792535199948,-0.9761283142807875,0.2170011460418073,-0.01617193780839443,-0.008674320764839649,-0.9998316168785095,0,0,0,-1,-1,5333.888265250001,unknown,2,2022-06-30T09:58:06.776+02:00,2022-06-30T08:20:05.567+02:00,1483,1.408551,0,0,1171.106,0,0,2022-06-30T09:57:51.488+02:00
2022-06-30T09:58:09.208+02:00,5336.319290500001,-0.0135955810546875,0.02154541015625,-0.9537506103515625,5336.309339500001,-2.70579198664406,-0.01622216700951209,0.007054106172124916,-0.2270371913909912,0.009175780229270458,-0.152716189622879,0.01030107587575912,-0.00654146121814847,0.0162772536277771,XArbitraryZVertical,-0.007156696515690466,-0.005196954758862522,-0.9763215256598116,0.2161437138910769,-0.01622105203568935,-0.007054047659039497,-0.9998435378074646,0,0,0,-1,-1,5333.888265250001,unknown,2,2022-06-30T09:58:06.776+02:00,2022-06-30T08:20:05.567+02:00,1483,1.408551,0,0,1171.106,0,0,2022-06-30T09:57:51.488+02:00
2022-06-30T09:58:09.218+02:00,5336.3292425,-0.0453338623046875,0.0200653076171875,-0.96209716796875,5336.319290500001,-2.706695274680245,-0.01577735414580392,0.004964260532884551,-0.234247162938118,0.009315595962107182,-0.01648831367492676,0.01161128841340542,0.0127768125385046,0.03935295343399048,XArbitraryZVertical,-0.007167327626967197,-0.004125473922668124,-0.9764219159047627,0.2157126282608561,-0.0157765056937933,-0.004964240361005068,-0.9998632073402405,0,0,0,-1,-1,5333.888265250001,unknown,2,2022-06-30T09:58:06.776+02:00,2022-06-30T08:20:05.567+02:00,1483,1.408551,0,0,1171.106,0,0,2022-06-30T09:57:51.488+02:00
2022-06-30T09:58:09.228+02:00,5336.3391935,-0.05889892578125,0.0274505615234375,-0.9518585205078125,5336.3292425,-2.705650298601282,-0.01513975543259585,0.003400038233173445,-0.1097328066825867,0.0008614400867372751,0.273597776889801,-0.01325708162039518,0.02615095861256123,0.04257375001907349,XArbitraryZVertical,-0.007023061799322342,-0.003296707611780204,-0.9763116397469075,0.2162302164598615,-0.01513908989727497,-0.00340003171004355,-0.9998795986175537,0,0,0,-1,-1,5333.888265250001,unknown,2,2022-06-30T09:58:06.776+02:00,2022-06-30T08:20:05.567+02:00,1483,1.408551,0,0,1171.106,0,0,2022-06-30T09:57:51.488+02:00
2022-06-30T09:58:09.238+02:00,5336.3491455,0.0243988037109375,0.0269012451171875,-0.9447021484375,5336.3391935,-2.703110558761249,-0.01451008751540739,0.003122337895360442,-0.007872485555708408,-0.009172817692160606,0.1645463705062866,-0.05214044824242592,0.02500350773334503,0.04031038284301758,XArbitraryZVertical,-0.006741779344122774,-0.003101633917494854,-0.9760384179211198,0.2174718832998596,-0.01450950745493174,-0.00312233273871243,-0.9998898506164551,0,0,0,-1,-1,5333.888265250001,unknown,2,2022-06-30T09:58:06.776+02:00,2022-06-30T08:20:05.567+02:00,1483,1.408551,0,0,1171.106,0,0,2022-06-30T09:57:51.488+02:00
2022-06-30T09:58:09.248+02:00,5336.3590965,0.05377197265625,-0.0154571533203125,-0.96142578125,5336.3491455,-2.70277840574262,-0.01455491409124188,0.003518347698066544,0.02638495154678822,-0.04639516770839691,-0.06857508420944214,-0.004656070843338966,0.03693515807390213,0.05539935827255249,XArbitraryZVertical,-0.006720041856309366,-0.003300883533566563,-0.9760021945045305,0.2176324767319356,-0.01455430965870619,-0.003518340410664678,-0.9998878836631775,0,0,0,-1,-1,5333.888265250001,unknown,2,2022-06-30T09:58:06.776+02:00,2022-06-30T08:20:05.567+02:00,1483,1.408551,0,0,1171.106,0,0,2022-06-30T09:57:51.488+02:00
2022-06-30T09:58:09.258+02:00,5336.369048500001,0.003265380859375,-0.023681640625,-0.9651031494140625,5336.3590965,-2.703543617523882,-0.0150303905607039,0.004327179785696875,0.03996574506163597,-0.07588887959718704,-0.07145608961582184,0.06759664416313171,0.008462369441986084,0.0446164608001709,XArbitraryZVertical,-0.006865483313914652,-0.003744704086634523,-0.976083636098545,0.217255096539996,-0.01502968370914459,-0.004327166359871626,-0.9998776912689209,0,0,0,-1,-1,5333.888265250001,unknown,2,2022-06-30T09:58:06.776+02:00,2022-06-30T08:20:05.567+02:00,1483,1.408551,0,0,1171.106,0,0,2022-06-30T09:57:51.488+02:00
2022-06-30T09:58:09.268+02:00,5336.378999500001,-0.0372314453125,-0.0261993408203125,-0.974761962890625,5336.369048500001,-2.704064237252916,-0.01578104207597895,0.004713752385809864,-0.03512048348784447,-0.0948103666305542,-0.04080603644251823,0.05083008483052254,-0.01866265758872032,0.03744679689407349,XArbitraryZVertical,-0.007190878646676718,-0.004013035102074511,-0.9761373736643421,0.2169979715698588,-0.01578021235764027,-0.004713735077530146,-0.999864399433136,0,0,0,-1,-1,5333.888265250001,unknown,2,2022-06-30T09:58:06.776+02:00,2022-06-30T08:20:05.567+02:00,1483,1.408551,0,0,1171.106,0,0,2022-06-30T09:57:51.488+02:00
2022-06-30T09:58:09.278+02:00,5336.3889515,-0.019012451171875,-0.0111083984375,-0.9797821044921875,5336.378999500001,-2.704523207956907,-0.01654611160901909,0.004143894168179959,-0.1053744107484818,-0.07868466526269913,-0.05160435661673546,-0.008463505655527115,-0.01936983875930309,0.03099775314331055,XArbitraryZVertical,-0.007626999526521943,-0.003816167004911371,-0.9761844388995889,0.2167748518216097,-0.01654521375894547,-0.0041438820771873,-0.9998545050621033,0,0,0,-1,-1,5333.888265250001,unknown,2,2022-06-30T09:58:06.776+02:00,2022-06-30T08:20:05.567+02:00,1483,1.408551,0,0,1171.106,0,0,2022-06-30T09:57:51.488+02:00
2022-06-30T09:58:09.288+02:00,5336.3989035,0.006744384765625,0.0132598876953125,-0.9838714599609375,5336.3889515,-2.705001149808471,-0.01713195965097825,0.003052058962176021,-0.142010971903801,-0.07389390468597412,-0.03930374979972839,-0.01659044809639454,-0.01753197982907295,0.02136349678039551,XArbitraryZVertical,-0.008032104843702988,-0.00334483474126718,-0.9762338876244755,0.2165452200714441,-0.01713104173541069,-0.003052054205909371,-0.9998486042022705,0,0,0,-1,-1,5333.888265250001,unknown,2,2022-06-30T09:58:06.776+02:00,2022-06-30T08:20:05.567+02:00,1483,1.408551,0,0,1171.106,0,0,2022-06-30T09:57:51.488+02:00
2022-06-30T09:58:09.298+02:00,5336.4088545,0.0102081298828125,0.033294677734375,-0.979248046875,5336.3989035,-2.705280713696234,-0.01774922344125058,0.001550455496447867,-0.1313665956258774,-0.08232466876506805,-0.01311635319143534,0.01426970213651657,0.003198476508259773,0.01726686954498291,XArbitraryZVertical,-0.008496374552982543,-0.002677527166090654,-0.9762610541610253,0.2164144300158693,-0.01774827018380165,-0.001550454879179597,-0.9998412728309631,0,0,0,-1,-1,5333.888265250001,unknown,2,2022-06-30T09:58:06.776+02:00,2022-06-30T08:20:05.567+02:00,1483,1.408551,0,0,1171.106,0,0,2022-06-30T09:57:51.488+02:00
2022-06-30T09:58:09.308+02:00,5336.418806500001,0.00018310546875,0.0382843017578125,-0.9809722900390625,5336.4088545,-2.705380606188537,-0.01877117501331462,0.0001387636964017505,-0.09876684099435806,-0.09784477204084396,-0.006161508150398731,0.02986364439129829,0.02339323051273823,0.01778340339660645,XArbitraryZVertical,-0.009148087423333735,-0.002098567165268979,-0.9762661161952884,0.2163707096835512,-0.01877007260918617,-0.0001387637021252885,-0.9998238086700439,0,0,0,-1,-1,5333.888265250001,unknown,2,2022-06-30T09:58:06.776+02:00,2022-06-30T08:20:05.567+02:00,1483,1.408551,0,0,1171.106,0,0,2022-06-30T09:57:51.488+02:00
2022-06-30T09:58:09.318+02:00,5336.428757500001,0.0016937255859375,0.042572021484375,-0.9775543212890625,5336.418806500001,-2.705451846324676,-0.02032588794337278,-0.000806967282715338,-0.04316829144954681,-0.1075581237673759,-0.009039320051670074,0.02423116564750671,0.03752318397164345,0.02098757028579712,XArbitraryZVertical,-0.0100093682419864,-0.00180476808445673,-0.9762653382524499,0.2163389406458825,-0.02032448165118694,0.0008069672039709985,-0.9997931122779846,0,0,0,-1,-1,5333.888265250001,unknown,2,2022-06-30T09:58:06.776+02:00,2022-06-30T08:20:05.567+02:00,1483,1.408551,0,0,1171.106,0,0,2022-06-30T09:57:51.488+02:00
2022-06-30T09:58:09.328+02:00,5336.4387095,0.00640869140625,0.03143310546875,-0.9816741943359375,5336.428757500001,-2.705483543904566,-0.02146909611011414,-0.001392359100704876,-0.004113034345209599,-0.1251610815525055,0.004355581477284431,0.02163570560514927,0.03861625865101814,0.01838427782058716,XArbitraryZVertical,-0.01063074802696921,-0.001642511773783476,-0.9762620587287599,0.2163254406308374,-0.02146742679178715,0.001392358681187034,-0.9997685551643372,0,0,0,-1,-1,5333.888265250001,unknown,2,2022-06-30T09:58:06.776+02:00,2022-06-30T08:20:05.567+02:00,1483,1.408551,0,0,1171.106,0,0,2022-06-30T09:57:51.488+02:00
2022-06-30T09:58:09.338+02:00,5336.4486605,0.0029754638671875,0.03533935546875,-0.9865264892578125,5336.4387095,-2.705305960198521,-0.02205349461480907,-0.001154429008880705,0.06275321543216705,-0.1428972333669662,0.03614393621683121,0.02543957717716694,0.03711468726396561,0.02229338884353638,XArbitraryZVertical,-0.01089011439660945,-0.001822830100570552,-0.9762401328546498,0.2164104241656993,-0.02205169200897217,0.001154428697191179,-0.9997561573982239,0,0,0,-1,-1,5336.4360015,unknown,2,2022-06-30T09:58:09.324+02:00,2022-06-30T08:20:05.567+02:00,1483,1.408551,0,0,1171.106,0,0,2022-06-30T09:57:51.488+02:00
2022-06-30T09:58:09.348+02:00,5336.458612500001,-0.0076446533203125,0.0221710205078125,-0.997161865234375,5336.4486605,-2.704528197386626,-0.02293222407426526,-7.328786890586292e-05,0.1115517094731331,-0.1474725157022476,0.1138004809617996,0.02888157591223717,0.03151247650384903,0.01543837785720825,XArbitraryZVertical,-0.01120110801822772,-0.002449994198667785,-0.9761524921281201,0.2167831854846557,-0.0229302141815424,7.328786887228489e-05,-0.9997370839118958,0,0,0,-1,-1,5336.4360015,unknown,2,2022-06-30T09:58:09.324+02:00,2022-06-30T08:20:05.567+02:00,1483,1.408551,0,0,1171.106,0,0,2022-06-30T09:57:51.488+02:00
2022-06-30T09:58:09.358+02:00,5336.4685645,-0.009979248046875,-0.010009765625,-1.000732421875,5336.458612500001,-2.703218780320204,-0.02439625971112938,0.001358229122870639,0.1212474778294563,-0.1423632353544235,0.138261616230011,0.02306673489511013,0.03353908658027649,0.007056236267089844,XArbitraryZVertical,-0.01175833376954449,-0.003315064221321311,-0.9760034844743121,0.217411746318625,-0.02439381740987301,-0.001358228735625744,-0.9997014999389648,0,0,0,-1,-1,5336.4360015,unknown,2,2022-06-30T09:58:09.324+02:00,2022-06-30T08:20:05.567+02:00,1483,1.408551,0,0,1171.106,0,0,2022-06-30T09:57:51.488+02:00
2022-06-30T09:58:09.367+02:00,5336.4785155,-0.0003509521484375,-0.037689208984375,-1.010726928710938,5336.4685645,-2.701879681420762,-0.02584343972962196,0.002321763254119368,0.03112871013581753,-0.1294742971658707,0.1220603063702583,0.01604478619992733,0.009585015475749969,0.0008535981178283691,XArbitraryZVertical,-0.01235716280354132,-0.003950854959173051,-0.9758499484896226,0.2180566095267913,-0.02584049291908741,-0.002321761101484299,-0.9996633529663086,0,0,0,-1,-1,5336.4360015,unknown,2,2022-06-30T09:58:09.324+02:00,2022-06-30T08:20:05.567+02:00,1483,1.408551,0,0,1171.106,0,0,2022-06-30T09:57:51.488+02:00
2022-06-30T09:58:09.377+02:00,5336.4884675,0.002197265625,-0.045989990234375,-1.014968872070312,5336.4785155,-2.700853578572861,-0.02678024358982149,0.001990837771651642,-0.07927902042865753,-0.1197612136602402,0.08302023261785507,0.02047554403543472,-0.024284727871418,-0.006235182285308838,XArbitraryZVertical,-0.01284833885223511,-0.003898120168913749,-0.9757316838405092,0.2185575240692502,-0.02677698992192745,-0.001990836346521974,-0.9996394515037537,0,0,0,-1,-1,5336.4360015,unknown,2,2022-06-30T09:58:09.324+02:00,2022-06-30T08:20:05.567+02:00,1483,1.408551,0,0,1171.106,0,0,2022-06-30T09:57:51.488+02:00
2022-06-30T09:58:09.387+02:00,5336.4984185,-0.0219268798828125,-0.03497314453125,-1.008041381835938,5336.4884675,-2.700224307767345,-0.027383825014105,0.0004376541967492886,-0.1363440454006195,-0.1182299852371216,0.05652198195457458,0.03119553253054619,-0.04256154224276543,-0.01284140348434448,XArbitraryZVertical,-0.01331154011528688,-0.003210528588972641,-0.9756571503118435,0.2188738536254676,-0.02738039940595627,-0.0004376541764941067,-0.9996249675750732,0,0,0,-1,-1,5336.4360015,unknown,2,2022-06-30T09:58:09.324+02:00,2022-06-30T08:20:05.567+02:00,1483,1.408551,0,0,1171.106,0,0,2022-06-30T09:57:51.488+02:00
2022-06-30T09:58:09.397+02:00,5336.508370500001,-0.050872802734375,-0.0222625732421875,-0.9920501708984375,5336.4984185,-2.699667895071106,-0.02796439785013833,-0.001710750032006021,-0.1669126003980637,-0.1036997884511948,0.06060034409165382,0.02065218426287174,-0.0474565289914608,-0.01577329635620117,XArbitraryZVertical,-0.01382925288510579,-0.002229862910055381,-0.9755886336700711,0.2191588752944842,-0.02796071209013462,0.001710749231278896,-0.9996075630187988,0,0,0,-1,-1,5336.4360015,unknown,2,2022-06-30T09:58:09.324+02:00,2022-06-30T08:20:05.567+02:00,1483,1.408551,0,0,1171.106,0,0,2022-06-30T09:57:51.488+02:00
2022-06-30T09:58:09.407+02:00,5336.518321500001,-0.0627593994140625,-0.009521484375,-0.9781951904296875,5336.508370500001,-2.699231669332205,-0.02837283222643192,-0.00418799631383017,-0.1900171935558319,-0.07635801285505295,0.03485293686389923,-0.009381033480167389,-0.02773222699761391,0.001358747482299805,XArbitraryZVertical,-0.0142996661446801,-0.001069346711716706,-0.9755323303096334,0.2193879418969949,-0.02836877666413784,0.004187983926385641,-0.9995887279510498,0,0,0,-1,-1,5336.4360015,unknown,2,2022-06-30T09:58:09.324+02:00,2022-06-30T08:20:05.567+02:00,1483,1.408551,0,0,1171.106,0,0,2022-06-30T09:57:51.488+02:00
2022-06-30T09:58:09.417+02:00,5336.5282735,-0.0626220703125,0.025360107421875,-0.940093994140625,5336.518321500001,-2.699052743433818,-0.02856081679169015,-0.006540550429879165,-0.1692549288272858,-0.07139681279659271,0.01100353058427572,-0.03165442496538162,-0.02572073228657246,0.01019090414047241,XArbitraryZVertical,-0.01464934627371966,5.623271637738853e-05,-0.9755045648349007,0.2194907927618827,-0.02855632267892361,0.006540503818541765,-0.9995707869529724,0,0,0,-1,-1,5336.4360015,unknown,2,2022-06-30T09:58:09.324+02:00,2022-06-30T08:20:05.567+02:00,1483,1.408551,0,0,1171.106,0,0,2022-06-30T09:57:51.488+02:00
2022-06-30T09:58:09.427+02:00,5336.5382245,-0.0574798583984375,0.04046630859375,-0.927459716796875,5336.5282735,-2.699088559000521,-0.0287126206549725,-0.008575818587982438,-0.1545101404190063,-0.07976639270782471,-0.007338158786296844,-0.03478376939892769,-0.0007173670455813408,0.04047513008117676,XArbitraryZVertical,-0.01494662941341277,0.001032566221047442,-0.9755005112488302,0.2194867998735647,-0.02870761975646019,0.008575713261961937,-0.9995510578155518,0,0,0,-1,-1,5336.4360015,unknown,2,2022-06-30T09:58:09.324+02:00,2022-06-30T08:20:05.567+02:00,1483,1.408551,0,0,1171.106,0,0,2022-06-30T09:57:51.488+02:00
2022-06-30T09:58:09.437+02:00,5336.5481765,-0.0445709228515625,0.0337677001953125,-0.927398681640625,5336.5382245,-2.699341404320887,-0.02915231022723401,-0.01039615671955343,-0.1342898160219193,-0.09708359837532043,-0.03690750151872635,-0.02978240326046944,0.02595053613185883,0.06858235597610474,XArbitraryZVertical,-0.01536050445288353,0.001874147110980113,-0.9755177853644331,0.2193756654728162,-0.02914660610258579,0.01039596926420927,-0.9995210766792297,0,0,0,-1,-1,5336.4360015,unknown,2,2022-06-30T09:58:09.324+02:00,2022-06-30T08:20:05.567+02:00,1483,1.408551,0,0,1171.106,0,0,2022-06-30T09:57:51.488+02:00
2022-06-30T09:58:09.447+02:00,5336.558128500001,-0.022796630859375,0.0079193115234375,-0.9332122802734375,5336.5481765,-2.69988025978662,-0.02991303523818918,-0.01147160274168073,-0.09637404978275299,-0.1175879836082458,-0.06608645617961884,-0.02262897230684757,0.02788113616406918,0.07285112142562866,XArbitraryZVertical,-0.01584880976396494,0.002319548452009355,-0.9755662778798668,0.2191207018497946,-0.02990660630166531,0.01147135067731142,-0.9994868636131287,0,0,0,-1,-1,5336.4360015,unknown,2,2022-06-30T09:58:09.324+02:00,2022-06-30T08:20:05.567+02:00,1483,1.408551,0,0,1171.106,0,0,2022-06-30T09:57:51.488+02:00
2022-06-30T09:58:09.457+02:00,5336.568079500001,0.002349853515625,-0.0204620361328125,-0.9520721435546875,5336.558128500001,-2.700702373807849,-0.03081540756370748,-0.01161201987794096,-0.05251019448041916,-0.1313807666301727,-0.09299823641777039,-0.003675974905490875,0.01130701322108507,0.07006025314331055,XArbitraryZVertical,-0.01630340006182114,0.002295881254017573,-0.9756483729448734,0.2187216554177148,-0.03080845437943935,0.0116117587313056,-0.999457836151123,0,0,0,-1,-1,5336.4360015,unknown,2,2022-06-30T09:58:09.324+02:00,2022-06-30T08:20:05.567+02:00,1483,1.408551,0,0,1171.106,0,0,2022-06-30T09:57:51.488+02:00
2022-06-30T09:58:09.467+02:00,5336.5780315,0.01123046875,-0.0373382568359375,-0.9745941162109375,5336.568079500001,-2.701681151698204,-0.03179798214101227,-0.01123342314264872,-0.02223691157996655,-0.1555053889751434,-0.1009873524308205,0.02167447283864021,-0.01811482943594456,0.05773526430130005,XArbitraryZVertical,-0.01674036804018455,0.002011923227697297,-0.9757489374149908,0.2182426027372539,-0.03179061785340309,0.0112331872805953,-0.9994314312934875,0,0,0,-1,-1,5336.4360015,unknown,2,2022-06-30T09:58:09.324+02:00,2022-06-30T08:20:05.567+02:00,1483,1.408551,0,0,1171.106,0,0,2022-06-30T09:57:51.488+02:00
2022-06-30T09:58:09.477+02:00,5336.5879825,0.002349853515625,-0.0338134765625,-0.988037109375,5336.5780315,-2.702691754373177,-0.03312044725485346,-0.01072687640221394,-0.02645589038729668,-0.1713410764932632,-0.100300520658493,0.04322949424386024,-0.04228177666664124,0.03517591953277588,XArbitraryZVertical,-0.01732951104815049,0.00162923229130589,-0.9758500366981097,0.2177469948132495,-0.03311248868703842,0.01072667073458433,-0.9993940591812134,0,0,0,-1,-1,5336.4360015,unknown,2,2022-06-30T09:58:09.324+02:00,2022-06-30T08:20:05.567+02:00,1483,1.408551,0,0,1171.106,0,0,2022-06-30T09:57:51.488+02:00
2022-06-30T09:58:09.487+02:00,5336.597934500001,-0.0132598876953125,-0.01123046875,-1.011917114257812,5336.5879825,-2.703673674536854,-0.03495484518416722,-0.01066019462287373,-0.05066815391182899,-0.1812110990285873,-0.09495482593774796,0.04288074746727943,-0.04793713986873627,0.01623910665512085,XArbitraryZVertical,-0.01821660907035199,0.001405920915096556,-0.9759408857707464,0.2172687925454057,-0.03494574129581451,0.01065999269485474,-0.9993323683738708,0,0,0,-1,-1,5336.4360015,unknown,2,2022-06-30T09:58:09.324+02:00,2022-06-30T08:20:05.567+02:00,1483,1.408551,0,0,1171.106,0,0,2022-06-30T09:57:51.488+02:00
2022-06-30T09:58:09.497+02:00,5336.607885500001,-0.0260772705078125,0.0377349853515625,-1.011215209960938,5336.597934500001,-2.704568453943795,-0.03711786376019322,-0.01067973537152199,-0.03981204330921173,-0.1858692467212677,-0.08056283742189407,0.03117198869585991,-0.0378095880150795,-0.0003643035888671875,XArbitraryZVertical,-0.01927367839905236,0.001189100635068596,-0.9760176129176968,0.2168337007842076,-0.03710722550749779,0.01067953277379274,-0.9992542266845703,0,0,0,-1,-1,5336.4360015,unknown,2,2022-06-30T09:58:09.324+02:00,2022-06-30T08:20:05.567+02:00,1483,1.408551,0,0,1171.106,0,0,2022-06-30T09:57:51.488+02:00
2022-06-30T09:58:09.507+02:00,5336.6178375,-0.0297088623046875,0.055389404296875,-1.01617431640625,5336.607885500001,-2.705288618655616,-0.03943012954465019,-0.01092726913442591,-0.0186234675347805,-0.1966087222099304,-0.05949573591351509,0.02064968645572662,0.003050070255994797,-0.01516491174697876,XArbitraryZVertical,-0.02042850101338025,0.001066569374322789,-0.9760714606629165,0.2164856788463863,-0.0394175611436367,0.01092705130577087,-0.9991630911827087,0,0,0,-1,-1,5336.4360015,unknown,2,2022-06-30T09:58:09.324+02:00,2022-06-30T08:20:05.567+02:00,1483,1.408551,0,0,1171.106,0,0,2022-06-30T09:57:51.488+02:00
2022-06-30T09:58:09.517+02:00,5336.6277895,-0.027069091796875,0.0569915771484375,-1.023635864257812,5336.6178375,-2.705824136163701,-0.0417359758724443,-0.01122864146105429,0.03340431302785873,-0.2029872536659241,-0.04829128459095955,0.01225693896412849,0.04036163166165352,-0.01341551542282104,XArbitraryZVertical,-0.02158615037747955,0.000969841021408445,-0.9761037406633964,0.2162283326565914,-0.04172122851014137,0.01122840587049723,-0.999066174030304,0,0,0,-1,-1,5336.4360015,unknown,2,2022-06-30T09:58:09.324+02:00,2022-06-30T08:20:05.567+02:00,1483,1.408551,0,0,1171.106,0,0,2022-06-30T09:57:51.488+02:00
2022-06-30T09:58:09.527+02:00,5336.6377405,-0.0311737060546875,0.0438385009765625,-1.020462036132812,5336.6277895,-2.706216442909096,-0.04395484550991747,-0.01103190789591684,0.07725885510444641,-0.2068125605583191,-0.03437719866633415,0.01514511555433273,0.0462803989648819,-0.0215192437171936,XArbitraryZVertical,-0.02264768855301095,0.0006383723591174778,-0.9761226161671116,0.2160358376190765,-0.04393801838159561,0.01103168446570635,-0.9989733695983887,0,0,0,-1,-1,5336.4360015,unknown,2,2022-06-30T09:58:09.324+02:00,2022-06-30T08:20:05.567+02:00,1483,1.408551,0,0,1171.106,0,0,2022-06-30T09:57:51.488+02:00
2022-06-30T09:58:09.536+02:00,5336.647692500001,-0.04388427734375,0.04443359375,-1.022537231445312,5336.6377405,-2.706428747501892,-0.04594475551389043,-0.01030096298277781,0.09407618641853333,-0.2103279232978821,-0.01363224163651466,0.01958991959691048,0.04009907320141792,-0.02218067646026611,XArbitraryZVertical,-0.02354000142766321,6.916753099983896e-05,-0.9761262411084104,0.2159249726183503,-0.04592615738511086,0.01030078064650297,-0.9988917112350464,0,0,0,-1,-1,5336.4360015,unknown,2,2022-06-30T09:58:09.324+02:00,2022-06-30T08:20:05.567+02:00,1483,1.408551,0,0,1171.106,0,0,2022-06-30T09:57:51.488+02:00
2022-06-30T09:58:09.547+02:00,5336.657643500001,-0.0578460693359375,0.0529327392578125,-1.035293579101562,5336.647692500001,-2.706352882087097,-0.04757525224610562,-0.009214049488544677,0.08355104178190231,-0.2019131630659103,0.02346789091825485,0.01143816486001015,0.03300722315907478,-0.02090352773666382,XArbitraryZVertical,-0.02421853567046527,-0.0006382837669707241,-0.9761038920918905,0.2159499193718062,-0.04755529016256332,0.009213918820023537,-0.9988260865211487,0,0,0,-1,-1,5336.4360015,unknown,2,2022-06-30T09:58:09.324+02:00,2022-06-30T08:20:05.567+02:00,1483,1.408551,0,0,1171.106,0,0,2022-06-30T09:57:51.488+02:00
2022-06-30T09:58:09.558+02:00,5336.6675955,-0.06683349609375,0.0603179931640625,-1.044815063476562,5336.657643500001,-2.705863317057664,-0.04887981899765906,-0.007976538584058506,0.07393543422222137,-0.1932933181524277,0.06378628313541412,-0.002669692039489746,0.04018035531044006,-0.03081291913986206,XArbitraryZVertical,-0.02472140075493388,-0.001389184388569582,-0.9760407935575807,0.2161741434384807,-0.04885880276560783,0.007976453751325607,-0.9987738728523254,0,0,0,-1,-1,5336.4360015,unknown,2,2022-06-30T09:58:09.324+02:00,2022-06-30T08:20:05.567+02:00,1483,1.408551,0,0,1171.106,0,0,2022-06-30T09:57:51.488+02:00
2022-06-30T09:58:09.575+02:00,5336.6775465,-0.06488037109375,0.055267333984375,-1.050643920898438,5336.6675955,-2.705038714008627,-0.05013430687226904,-0.006816999322119596,0.07863430678844452,-0.1743299663066864,0.09195253998041153,-0.01278414949774742,0.05212782695889473,-0.04035741090774536,XArbitraryZVertical,-0.02520752416269746,-0.002101066293848114,-0.9759411738550899,0.2165619412434975,-0.05011214315891266,0.006816946435719728,-0.9987203478813171,0,0,0,-1,-1,5336.4360015,unknown,2,2022-06-30T09:58:09.324+02:00,2022-06-30T08:20:05.567+02:00,1483,1.408551,0,0,1171.106,0,0,2022-06-30T09:57:51.488+02:00
2022-06-30T09:58:09.578+02:00,5336.6874985,-0.0619964599609375,0.0462799072265625,-1.046539306640625,5336.6775465,-2.703995437994344,-0.05141001712937854,-0.005738111923351984,0.0870397761464119,-0.1608642190694809,0.1072643846273422,-0.01537024602293968,0.05323721095919609,-0.05040991306304932,XArbitraryZVertical,-0.02571184778052471,-0.002779090365594745,-0.9758164713517135,0.2170564488042282,-0.05138652771711349,0.005738080479204655,-0.9986623525619507,0,0,0,-1,-1,5336.4360015,unknown,2,2022-06-30T09:58:09.324+02:00,2022-06-30T08:20:05.567+02:00,1483,1.408551,0,0,1171.106,0,0,2022-06-30T09:57:51.488+02:00
2022-06-30T09:58:09.586+02:00,5336.6974495,-0.06304931640625,0.0332489013671875,-1.045318603515625,5336.6874985,-2.702815127449698,-0.05262676707048165,-0.005070322324406243,0.07048290222883224,-0.1380472928285599,0.1202358454465866,-0.009989321231842041,0.04606197401881218,-0.05147665739059448,XArbitraryZVertical,-0.02623116554518927,-0.003252447813261922,-0.9756751463060056,0.217622155830177,-0.05260180309414864,0.00507030077278614,-0.9986026883125305,0,0,0,-1,-1,5336.4360015,unknown,2,2022-06-30T09:58:09.324+02:00,2022-06-30T08:20:05.567+02:00,1483,1.408551,0,0,1171.106,0,0,2022-06-30T09:57:51.488+02:00
2022-06-30T09:58:09.596+02:00,5336.707401500001,-0.066192626953125,0.0361175537109375,-1.03411865234375,5336.6974495,-2.701498247787806,-0.05373078590740365,-0.004934894841568605,0.05303654074668884,-0.1253493428230286,0.1372505128383636,-0.007162593305110931,0.03437183797359467,-0.04720115661621094,XArbitraryZVertical,-0.02675274718718667,-0.003456260029472618,-0.9755175565247066,0.2182609398418531,-0.05370428040623665,0.004934874828904867,-0.9985446929931641,0,0,0,-1,-1,5336.4360015,unknown,2,2022-06-30T09:58:09.324+02:00,2022-06-30T08:20:05.567+02:00,1483,1.408551,0,0,1171.106,0,0,2022-06-30T09:57:51.488+02:00
2022-06-30T09:58:09.606+02:00,5336.7173535,-0.076141357421875,0.0391998291015625,-1.0296630859375,5336.707401500001,-2.700006380541798,-0.05463715355177384,-0.005211853881809982,0.02131948620080948,-0.1138898357748985,0.1590202003717422,-0.01010285690426826,0.02724368311464787,-0.04188054800033569,XArbitraryZVertical,-0.02722247857409138,-0.003440388034246271,-0.9753411407993398,0.2189906079698611,-0.05460923165082932,0.005211830139160156,-0.9984942078590393,0,0,0,-1,-1,5336.4360015,unknown,2,2022-06-30T09:58:09.324+02:00,2022-06-30T08:20:05.567+02:00,1483,1.408551,0,0,1171.106,0,0,2022-06-30T09:57:51.488+02:00
2022-06-30T09:58:09.616+02:00,5336.7273045,-0.0800628662109375,0.031646728515625,-1.029373168945312,5336.7173535,-2.698344282974279,-0.05529083260651338,-0.005761424064597071,0.009708904661238194,-0.09739608317613602,0.174282506108284,-0.01619473099708557,0.03368264809250832,-0.03215384483337402,XArbitraryZVertical,-0.02759868741168799,-0.003266883998897883,-0.9751474484498192,0.2198071814313899,-0.05526174977421761,0.005761392414569855,-0.998455286026001,0,0,0,-1,-1,5336.4360015,unknown,2,2022-06-30T09:58:09.324+02:00,2022-06-30T08:20:05.567+02:00,1483,1.408551,0,0,1171.106,0,0,2022-06-30T09:57:51.488+02:00
2022-06-30T09:58:09.626+02:00,5336.737256500001,-0.0821380615234375,0.0216522216796875,-1.025726318359375,5336.7273045,-2.696532651336271,-0.05590238515623354,-0.006254808711494132,0.01153057347983122,-0.08336132764816284,0.1882744580507278,-0.02150470763444901,0.02987811341881752,-0.03045129776000977,XArbitraryZVertical,-0.0279482350439115,-0.003118844560569157,-0.9749371932813392,0.2206959228806268,-0.05587217956781387,0.006254767999053001,-0.9984183311462402,0,0,0,-1,-1,5336.4360015,unknown,2,2022-06-30T09:58:09.324+02:00,2022-06-30T08:20:05.567+02:00,1483,1.408551,0,0,1171.106,0,0,2022-06-30T09:57:51.488+02:00
2022-06-30T09:58:09.636+02:00,5336.747207500001,-0.0796356201171875,0.0112457275390625,-1.022445678710938,5336.737256500001,-2.694608606138015,-0.05657147473015943,-0.006656098939282071,0.01552558038383722,-0.06700419634580612,0.1952897608280182,-0.02451420202851295,0.02023000456392765,-0.02878248691558838,XArbitraryZVertical,-0.02831574210114942,-0.003024296864050208,-0.9747131748343086,0.2216380863744227,-0.05654005333781242,0.006656049750745296,-0.9983781576156616,0,0,0,-1,-1,5336.4360015,unknown,2,2022-06-30T09:58:09.324+02:00,2022-06-30T08:20:05.567+02:00,1483,1.408551,0,0,1171.106,0,0,2022-06-30T09:57:51.488+02:00
2022-06-30T09:58:09.646+02:00,5336.7571595,-0.0760345458984375,0.0028839111328125,-1.013534545898438,5336.747207500001,-2.692624526842945,-0.0572319682025948,-0.007089257642093819,0.01051424443721771,-0.06273731589317322,0.2010760307312012,-0.02557920292019844,0.008932597003877163,-0.02632057666778564,XArbitraryZVertical,-0.02868271866186705,-0.002914838286759122,-0.9744813511567104,0.2226098145624459,-0.05719929188489914,0.007089198101311922,-0.9983376264572144,0,0,0,-1,-1,5336.4360015,unknown,2,2022-06-30T09:58:09.324+02:00,2022-06-30T08:20:05.567+02:00,1483,1.408551,0,0,1171.106,0,0,2022-06-30T09:57:51.488+02:00
2022-06-30T09:58:09.656+02:00,5336.7671105,-0.074188232421875,0.0045623779296875,-1.005630493164062,5336.7571595,-2.690642829680242,-0.0578278374740613,-0.007590233057757793,-0.003062283853068948,-0.05385860055685043,0.1977968811988831,-0.01871318742632866,-0.001700201537460089,-0.01996511220932007,XArbitraryZVertical,-0.02902603564060548,-0.00276581718170903,-0.9742491101998115,0.2235811702677289,-0.05779394879937172,0.007590160239487886,-0.9982996582984924,0,0,0,-1,-1,5336.4360015,unknown,2,2022-06-30T09:58:09.324+02:00,2022-06-30T08:20:05.567+02:00,1483,1.408551,0,0,1171.106,0,0,2022-06-30T09:57:51.488+02:00
2022-06-30T09:58:09.666+02:00,5336.7770625,-0.07440185546875,0.009246826171875,-0.9974822998046875,5336.7671105,-2.688730288961189,-0.05833986535578972,-0.008170109640850598,-0.01390447840094566,-0.04979927837848663,0.1851112842559814,-0.01669168472290039,-0.004736725240945816,-0.01067626476287842,XArbitraryZVertical,-0.02933777220515086,-0.002568629152432076,-0.9740244357438019,0.2245200108802921,-0.05830483138561249,0.008170018903911114,-0.9982653856277466,0,0,0,-1,-1,5336.4360015,unknown,2,2022-06-30T09:58:09.324+02:00,2022-06-30T08:20:05.567+02:00,1483,1.408551,0,0,1171.106,0,0,2022-06-30T09:57:51.488+02:00
2022-06-30T09:58:09.676+02:00,5336.787014500001,-0.07470703125,0.014434814453125,-0.9917755126953125,5336.7770625,-2.686984655217824,-0.05881587247200919,-0.008659282556979613,-0.009109457023441792,-0.05081474408507347,0.1668001860380173,-0.01542329043149948,-0.002082572318613529,-0.004085898399353027,XArbitraryZVertical,-0.02962235898876884,-0.002409676032483621,-0.9738184092085902,0.2253761779576926,-0.0587797649204731,0.008659174665808678,-0.998233437538147,0,0,0,-1,-1,5336.4360015,unknown,2,2022-06-30T09:58:09.324+02:00,2022-06-30T08:20:05.567+02:00,1483,1.408551,0,0,1171.106,0,0,2022-06-30T09:57:51.488+02:00
2022-06-30T09:58:09.686+02:00,5336.796965500001,-0.0736083984375,0.009033203125,-0.9954376220703125,5336.787014500001,-2.68540638376041,-0.05932960229653388,-0.009006876666779653,0.003531236201524734,-0.05137114971876144,0.1505313366651535,-0.01686378568410873,0.003215599805116653,0.004303514957427979,XArbitraryZVertical,-0.0299097972149766,-0.002321916400143604,-0.9736307921040376,0.2261488668589872,-0.05929239839315414,0.009006754495203495,-0.998199999332428,0,0,0,-1,-1,5336.4360015,unknown,2,2022-06-30T09:58:09.324+02:00,2022-06-30T08:20:05.567+02:00,1483,1.408551,0,0,1171.106,0,0,2022-06-30T09:57:51.488+02:00
2022-06-30T09:58:09.696+02:00,5336.8069175,-0.075531005859375,-0.003143310546875,-0.9908905029296875,5336.796965500001,-2.68397539556315,-0.05993365022608365,-0.009324039251478216,0.01257240306586027,-0.05167688056826591,0.1356921941041946,-0.01360598206520081,0.003630870021879673,0.004127323627471924,XArbitraryZVertical,-0.03023807256603422,-0.002257445247661109,-0.9734577708452289,0.2268491048416801,-0.05989517271518707,0.009323904290795326,-0.9981611371040344,0,0,0,-1,-1,5336.4360015,unknown,2,2022-06-30T09:58:09.324+02:00,2022-06-30T08:20:05.567+02:00,1483,1.408551,0,0,1171.106,0,0,2022-06-30T09:57:51.488+02:00
2022-06-30T09:58:09.706+02:00,5336.8168685,-0.075592041015625,-0.0074615478515625,-0.9901275634765625,5336.8069175,-2.682716053286696,-0.06061366265773353,-0.009540807888826587,0.01687893457710743,-0.05094820633530617,0.1162767186760902,-0.01372081413865089,-0.007724804803729057,0.005442321300506592,XArbitraryZVertical,-0.03059219956871023,-0.002248325329197067,-0.9733031588630737,0.2274643149332089,-0.06057379767298698,0.009540663100779057,-0.9981181025505066,0,0,0,-1,-1,5336.4360015,unknown,2,2022-06-30T09:58:09.324+02:00,2022-06-30T08:20:05.567+02:00,1483,1.408551,0,0,1171.106,0,0,2022-06-30T09:57:51.488+02:00
2022-06-30T09:58:09.716+02:00,5336.8268205,-0.0794830322265625,-0.0102081298828125,-0.9908294677734375,5336.8168685,-2.681615787441024,-0.06131609984145609,-0.009703864363392966,0.006055579986423254,-0.04366898536682129,0.1030107215046883,-0.01443887874484062,-0.01618863455951214,0.006923854351043701,XArbitraryZVertical,-0.03095131929390307,-0.002265886352409547,-0.9731661223670884,0.2280012623476433,-0.06127480044960976,0.009703711606562138,-0.9980737566947937,0,0,0,-1,-1,5336.4360015,unknown,2,2022-06-30T09:58:09.324+02:00,2022-06-30T08:20:05.567+02:00,1483,1.408551,0,0,1171.106,0,0,2022-06-30T09:57:51.488+02:00
2022-06-30T09:58:09.725+02:00,5336.8367715,-0.0816650390625,-0.000457763671875,-0.992584228515625,5336.8268205,-2.680678164856343,-0.06203985817083294,-0.0098217439232466,0.006674498785287142,-0.03989395499229431,0.08287615329027176,-0.01676835864782333,-0.01876317337155342,0.008495509624481201,XArbitraryZVertical,-0.03131582804032457,-0.002305715437658082,-0.9730471976393955,0.2284583675086367,-0.06199707835912704,0.009821586310863495,-0.9980279803276062,0,0,0,-1,-1,5336.4360015,unknown,2,2022-06-30T09:58:09.324+02:00,2022-06-30T08:20:05.567+02:00,1483,1.408551,0,0,1171.106,0,0,2022-06-30T09:57:51.488+02:00
2022-06-30T09:58:09.736+02:00,5336.846723500001,-0.08294677734375,0.008880615234375,-0.9919586181640625,5336.8367715,-2.679912226605703,-0.0626717514856464,-0.00966091143912713,0.01675323210656643,-0.03836290538311005,0.06976887583732605,-0.01806023716926575,-0.01733586937189102,0.005878984928131104,XArbitraryZVertical,-0.0316039658077469,-0.002468253490126903,-0.9729506754341212,0.2288279111534866,-0.06262780725955963,0.009660760872066021,-0.9979901909828186,0,0,0,-1,-1,5336.4360015,unknown,2,2022-06-30T09:58:09.324+02:00,2022-06-30T08:20:05.567+02:00,1483,1.408551,0,0,1171.106,0,0,2022-06-30T09:57:51.488+02:00
2022-06-30T09:58:09.746+02:00,5336.8566755,-0.08685302734375,0.0070648193359375,-0.9955291748046875,5336.846723500001,-2.679303108642365,-0.06330491024465591,-0.009256019442615823,0.04064684361219406,-0.03089300356805325,0.05206524580717087,-0.01814527809619904,-0.003274380229413509,0.006376981735229492,XArbitraryZVertical,-0.03186487973570606,-0.002747382355973839,-0.972873278260918,0.2291174038052952,-0.06325992941856384,0.009255887009203434,-0.9979541897773743,0,0,0,-1,-1,5336.4360015,unknown,2,2022-06-30T09:58:09.324+02:00,2022-06-30T08:20:05.567+02:00,1483,1.408551,0,0,1171.106,0,0,2022-06-30T09:57:51.488+02:00
2022-06-30T09:58:09.755+02:00,5336.8666265,-0.08587646484375,0.0005950927734375,-0.9907379150390625,5336.8566755,-2.678830127996481,-0.06392863465113904,-0.008700601364132787,0.05817284435033798,-0.02681117504835129,0.03807779029011726,-0.02194757759571075,0.0003480315208435059,0.003260016441345215,XArbitraryZVertical,-0.03210400033653308,-0.003096619178923153,-0.9728123250549615,0.2293382451321379,-0.06388267874717712,0.008700491860508919,-0.997919499874115,0,0,0,-1,-1,5336.4360015,unknown,2,2022-06-30T09:58:09.324+02:00,2022-06-30T08:20:05.567+02:00,1483,1.408551,0,0,1171.106,0,0,2022-06-30T09:57:51.488+02:00
2022-06-30T09:58:09.766+02:00,5336.876578500001,-0.083343505859375,-0.0113677978515625,-0.9887847900390625,5336.8666265,-2.678465565285661,-0.06461028742749098,-0.008293035354494563,0.05546168237924576,-0.02204006165266037,0.0280065480619669,-0.02105351537466049,-0.004127230495214462,0.005066037178039551,XArbitraryZVertical,-0.03238826099145985,-0.003378941499890104,-0.9727619167553181,0.2295083320570765,-0.06456312537193298,0.008292940445244312,-0.9978791475296021,0,0,0,-1,-1,5336.4360015,unknown,2,2022-06-30T09:58:09.324+02:00,2022-06-30T08:20:05.567+02:00,1483,1.408551,0,0,1171.106,0,0,2022-06-30T09:57:51.488+02:00
2022-06-30T09:58:09.775+02:00,5336.886529500001,-0.0845794677734375,-0.0188140869140625,-0.985626220703125,5336.876578500001,-2.67820188777691,-0.06513117385177622,-0.008024310365087807,0.03283838927745819,-0.01819046214222908,0.02002532035112381,-0.01926711946725845,-0.01374620944261551,0.007155418395996094,XArbitraryZVertical,-0.03261033772861618,-0.003573723891181489,-0.9727246763333786,0.2296315237069756,-0.06508304178714752,0.008024224080145359,-0.9978476166725159,0,0,0,-1,-1,5336.4360015,unknown,2,2022-06-30T09:58:09.324+02:00,2022-06-30T08:20:05.567+02:00,1483,1.408551,0,0,1171.106,0,0,2022-06-30T09:57:51.488+02:00
2022-06-30T09:58:09.785+02:00,5336.8964815,-0.086456298828125,-0.0212554931640625,-0.98516845703125,5336.886529500001,-2.678042022124649,-0.06561112460590941,-0.007725612111571428,-0.01195844076573849,-0.01213589962571859,0.01030867826193571,-0.01796407252550125,-0.02376246266067028,0.009445786476135254,XArbitraryZVertical,-0.03280920673999304,-0.003776735914874778,-0.9727001861700795,0.2297037967977263,-0.06556210666894913,0.007725535426288843,-0.9978185892105103,0,0,0,-1,-1,5336.4360015,unknown,2,2022-06-30T09:58:09.324+02:00,2022-06-30T08:20:05.567+02:00,1483,1.408551,0,0,1171.106,0,0,2022-06-30T09:57:51.488+02:00
2022-06-30T09:58:09.795+02:00,5336.9064325,-0.088531494140625,-0.0179595947265625,-0.9793701171875,5336.8964815,-2.677986427571845,-0.06606242811702454,-0.007592015340944306,-0.05711499974131584,-0.007502797991037369,0.005353867076337337,-0.01870387047529221,-0.02871004492044449,0.01306396722793579,XArbitraryZVertical,-0.03301326393885068,-0.003894464098876086,-0.9726870756239395,0.2297278485982846,-0.06601248681545258,0.007591942325234413,-0.9977899193763733,0,0,0,-1,-1,5336.4360015,unknown,2,2022-06-30T09:58:09.324+02:00,2022-06-30T08:20:05.567+02:00,1483,1.408551,0,0,1171.106,0,0,2022-06-30T09:57:51.488+02:00
2022-06-30T09:58:09.805+02:00,5336.9163845,-0.0920257568359375,-0.0210113525390625,-0.975189208984375,5336.9064325,-2.678064664267402,-0.06654897726116321,-0.007798436054310872,-0.09663757681846619,-0.0008157824631780386,-0.01010235399007797,-0.0223994255065918,-0.02809248492121696,0.01519691944122314,XArbitraryZVertical,-0.03327372790684847,-0.003848652854186336,-0.9726868336435918,0.2296921007765198,-0.06649784743785858,0.007798356935381889,-0.9977561235427856,0,0,0,-1,-1,5336.4360015,unknown,2,2022-06-30T09:58:09.324+02:00,2022-06-30T08:20:05.567+02:00,1483,1.408551,0,0,1171.106,0,0,2022-06-30T09:57:51.488+02:00
2022-06-30T09:58:09.815+02:00,5336.9263355,-0.098724365234375,-0.0240631103515625,-0.9671173095703125,5336.9163845,-2.678333044337104,-0.06704315969016811,-0.00835215882268788,-0.1192227751016617,-0.002495970809832215,-0.02942758239805698,-0.02268486469984055,-0.02667780593037605,0.02025586366653442,XArbitraryZVertical,-0.03357807716744893,-0.003631588127895396,-0.972706192814113,0.2295694027370078,-0.06699061393737793,0.008352061733603477,-0.9977186322212219,0,0,0,-1,-1,5336.4360015,unknown,2,2022-06-30T09:58:09.324+02:00,2022-06-30T08:20:05.567+02:00,1483,1.408551,0,0,1171.106,0,0,2022-06-30T09:57:51.488+02:00
2022-06-30T09:58:09.825+02:00,5336.936287500001,-0.1044464111328125,-0.0241546630859375,-0.958160400390625,5336.9263355,-2.678885024383388,-0.06752207458306241,-0.009459326301377573,-0.1298490613698959,0.003517785808071494,-0.06178538873791695,-0.02777717262506485,-0.03344593942165375,0.02607321739196777,XArbitraryZVertical,-0.0339387920810729,-0.003138687876533763,-0.9727548048401881,0.2293177173502507,-0.06746775656938553,0.009459185414016247,-0.9976766109466553,0,0,0,-1,-1,5336.4360015,unknown,2,2022-06-30T09:58:09.324+02:00,2022-06-30T08:20:05.567+02:00,1483,1.408551,0,0,1171.106,0,0,2022-06-30T09:57:51.488+02:00
2022-06-30T09:58:09.835+02:00,5336.9462395,-0.11383056640625,-0.0179443359375,-0.950531005859375,5336.936287500001,-2.679727171085001,-0.06806921287650174,-0.01066917496900198,-0.1281680762767792,0.002983555430546403,-0.08995098620653152,-0.03426644206047058,-0.03419796377420425,0.0357743501663208,XArbitraryZVertical,-0.03434452982296956,-0.002598477224391817,-0.9728342184085825,0.2289265241970463,-0.0680127888917923,0.01066897250711918,-0.9976273775100708,0,0,0,-1,-1,5336.4360015,unknown,2,2022-06-30T09:58:09.324+02:00,2022-06-30T08:20:05.567+02:00,1483,1.408551,0,0,1171.106,0,0,2022-06-30T09:57:51.488+02:00
2022-06-30T09:58:09.845+02:00,5336.9561905,-0.1219329833984375,-0.021270751953125,-0.9428863525390625,5336.9462395,-2.680882873320835,-0.06851703557882834,-0.01171875341108997,-0.1341073215007782,0.00201215548440814,-0.1229377612471581,-0.0394815057516098,-0.03263822197914124,0.04468899965286255,XArbitraryZVertical,-0.0346835351334298,-0.002119121461338204,-0.9729516441365685,0.2283805637274088,-0.06845873594284058,0.01171848550438881,-0.997585117816925,0,0,0,-1,-1,5336.4360015,unknown,2,2022-06-30T09:58:09.324+02:00,2022-06-30T08:20:05.567+02:00,1483,1.408551,0,0,1171.106,0,0,2022-06-30T09:57:51.488+02:00
2022-06-30T09:58:09.855+02:00,5336.9661425,-0.12677001953125,-0.030914306640625,-0.9316253662109375,5336.9561905,-2.682402843651398,-0.06885611107721706,-0.01260570766253867,-0.1394357830286026,0.00255437521263957,-0.1662013381719589,-0.05009980499744415,-0.03038179874420166,0.0483781099319458,XArbitraryZVertical,-0.034950890544304,-0.001699759371563659,-0.9731129803792264,0.2276549951097705,-0.06879624724388123,0.01260537374764681,-0.9975510835647583,0,0,0,-1,-1,5336.4360015,unknown,2,2022-06-30T09:58:09.324+02:00,2022-06-30T08:20:05.567+02:00,1483,1.408551,0,0,1171.106,0,0,2022-06-30T09:57:51.488+02:00
2022-06-30T09:58:09.865+02:00,5336.9760935,-0.132965087890625,-0.047454833984375,-0.9181365966796875,5336.9661425,-2.684387838106054,-0.06912097553417679,-0.01350514734440145,-0.163748174905777,-0.0005826106062158942,-0.2115502506494522,-0.0553143098950386,-0.03888003900647163,0.06032627820968628,XArbitraryZVertical,-0.03518321474146852,-0.001257318283680671,-0.9733274015590238,0.2267032960121698,-0.06905964761972427,0.01350473705679178,-0.9975211024284363,0,0,0,-1,-1,5336.4360015,unknown,2,2022-06-30T09:58:09.324+02:00,2022-06-30T08:20:05.567+02:00,1483,1.408551,0,0,1171.106,0,0,2022-06-30T09:57:51.488+02:00
2022-06-30T09:58:09.875+02:00,5336.986045500001,-0.1443023681640625,-0.063323974609375,-0.8882598876953125,5336.9760935,-2.686863793053807,-0.06943332750548169,-0.01470026461934046,-0.2054109275341034,-0.01051114127039909,-0.2625324726104736,-0.06010033935308456,-0.05284664407372475,0.07074010372161865,XArbitraryZVertical,-0.03547126558643379,-0.0006671318082155371,-0.9735930591052705,0.2255172561147999,-0.06937005370855331,0.01469973474740982,-0.9974827170372009,0,0,0,-1,-1,5336.4360015,unknown,2,2022-06-30T09:58:09.324+02:00,2022-06-30T08:20:05.567+02:00,1483,1.408551,0,0,1171.106,0,0,2022-06-30T09:57:51.488+02:00
2022-06-30T09:58:09.885+02:00,5336.995996500001,-0.1615753173828125,-0.089385986328125,-0.8509063720703125,5336.986045500001,-2.68996837090307,-0.06977763286395616,-0.01656581192781305,-0.2878223061561584,-0.01207119598984718,-0.3283871710300446,-0.06879214197397232,-0.0712677463889122,0.09328532218933105,XArbitraryZVertical,-0.03584839164768196,0.0002579372816456649,-0.973921390917922,0.2240356156271167,-0.06971145421266556,0.01656505465507507,-0.9974296689033508,0,0,0,-1,-1,5336.4360015,unknown,2,2022-06-30T09:58:09.324+02:00,2022-06-30T08:20:05.567+02:00,1483,1.408551,0,0,1171.106,0,0,2022-06-30T09:57:51.488+02:00
2022-06-30T09:58:09.895+02:00,5337.0059485,-0.1849822998046875,-0.13861083984375,-0.7960662841796875,5336.995996500001,-2.693911568465042,-0.07013285673307131,-0.01951715545942228,-0.4154670834541321,-0.01350024901330471,-0.4203802049160004,-0.08220499753952026,-0.09284958988428116,0.1266241669654846,XArbitraryZVertical,-0.03634776417485631,0.001727182017498296,-0.9743303879220037,0.2221625583080475,-0.07006203383207321,0.01951591670513153,-0.9973517060279846,0,0,0,-1,-1,5336.4360015,unknown,2,2022-06-30T09:58:09.324+02:00,2022-06-30T08:20:05.567+02:00,1483,1.408551,0,0,1171.106,0,0,2022-06-30T09:57:51.488+02:00
2022-06-30T09:58:09.905+02:00,5337.0159005,-0.219329833984375,-0.2015380859375,-0.71533203125,5337.0059485,-2.69913116856395,-0.0704836902513527,-0.02398226423381794,-0.6060918569564819,-0.01046252623200417,-0.5666000247001648,-0.1005081757903099,-0.1345603466033936,0.1710735559463501,XArbitraryZVertical,-0.03700287002240393,0.003960360408576563,-0.9748595470758397,0.2196907305553107,-0.07040509581565857,0.02397996559739113,-0.9972302317619324,0,0,0,-1,-1,5336.4360015,unknown,2,2022-06-30T09:58:09.324+02:00,2022-06-30T08:20:05.567+02:00,1483,1.408551,0,0,1171.106,0,0,2022-06-30T09:57:51.488+02:00
2022-06-30T09:58:09.915+02:00,5337.0258515,-0.2528228759765625,-0.257720947265625,-0.616241455078125,5337.0159005,-2.706215404056574,-0.07088860131042354,-0.03077968655833336,-0.9058061838150024,-0.01362982392311096,-0.7600898146629333,-0.1310166120529175,-0.2011238783597946,0.2371435761451721,XArbitraryZVertical,-0.03791802106576249,0.007364083108148001,-0.9755527096022207,0.2163446800625136,-0.0707956925034523,0.03077482618391514,-0.9970160126686096,0,0,0,-1,-1,5336.4360015,unknown,2,2022-06-30T09:58:09.324+02:00,2022-06-30T08:20:05.567+02:00,1483,1.408551,0,0,1171.106,0,0,2022-06-30T09:57:51.488+02:00
2022-06-30T09:58:09.925+02:00,5337.0358035,-0.28515625,-0.3040618896484375,-0.5192108154296875,5337.0258515,-2.715594689139835,-0.07146547980604688,-0.04130369756857959,-1.351992011070251,-0.02397018857300282,-0.9738225340843201,-0.1664335131645203,-0.2721268534660339,0.331237256526947,XArbitraryZVertical,-0.03927289011271322,0.01262042609847046,-0.9764131940289026,0.2119331353298403,-0.07134376466274261,0.04129195585846901,-0.9965967535972595,0,0,0,-1,-1,5336.4360015,unknown,2,2022-06-30T09:58:09.324+02:00,2022-06-30T08:20:05.567+02:00,1483,1.408551,0,0,1171.106,0,0,2022-06-30T09:57:51.488+02:00
2022-06-30T09:58:09.935+02:00,5337.0457545,-0.3066253662109375,-0.3219451904296875,-0.421600341796875,5337.0358035,-2.727650511044568,-0.07231439053753905,-0.05660620125669601,-1.901080250740051,-0.02057838626205921,-1.223365783691406,-0.1965712010860443,-0.3409386873245239,0.4279636144638062,XArbitraryZVertical,-0.04117525680068548,0.02025166689798016,-0.9774162467483488,0.2062811593223803,-0.07213565707206726,0.05657597631216049,-0.9957889318466187,0,0,0,-1,-1,5336.4360015,unknown,2,2022-06-30T09:58:09.324+02:00,2022-06-30T08:20:05.567+02:00,1483,1.408551,0,0,1171.106,0,0,2022-06-30T09:57:51.488+02:00
2022-06-30T09:58:09.945+02:00,5337.0557065,-0.326629638671875,-0.3165283203125,-0.3870391845703125,5337.0457545,-2.742759756539078,-0.07349244155749173,-0.077609461593518,-2.531158447265625,-0.01112716738134623,-1.492774248123169,-0.224355936050415,-0.395860344171524,0.5240380764007568,XArbitraryZVertical,-0.04366278112839535,0.03072828324016405,-0.9785009339056884,0.1992116281632725,-0.07320528477430344,0.07753157615661621,-0.9942986965179443,0,0,0,-1,-1,5336.4360015,unknown,2,2022-06-30T09:58:09.324+02:00,2022-06-30T08:20:05.567+02:00,1483,1.408551,0,0,1171.106,0,0,2022-06-30T09:57:51.488+02:00
2022-06-30T09:58:09.955+02:00,5337.0656575,-0.3591461181640625,-0.242645263671875,-0.36212158203125,5337.0557065,-2.761088758624001,-0.07520461639469515,-0.1042722728098578,-3.027377367019653,0.01059144455939531,-1.769854068756104,-0.2402153164148331,-0.4263794720172882,0.6056032180786133,XArbitraryZVertical,-0.04671281474255392,0.04403656284389276,-0.9795587068746713,0.1906396012660284,-0.07472566515207291,0.1040834188461304,-0.9917573928833008,0,0,0,-1,-1,5336.4360015,unknown,2,2022-06-30T09:58:09.324+02:00,2022-06-30T08:20:05.567+02:00,1483,1.408551,0,0,1171.106,0,0,2022-06-30T09:57:51.488+02:00
2022-06-30T09:58:09.964+02:00,5337.075609500001,-0.39422607421875,-0.1084442138671875,-0.309722900390625,5337.0656575,-2.782660961908996,-0.07754325023228507,-0.1337750411467199,-3.203559398651123,0.03530797734856606,-2.077041625976562,-0.2651908397674561,-0.4298240542411804,0.5915571451187134,XArbitraryZVertical,-0.04997590286346047,0.05881107890182978,-0.9805387184715136,0.1805201713630585,-0.07677344232797623,0.1333763897418976,-0.9880873560905457,0,0,0,-1,-1,5336.4360015,unknown,2,2022-06-30T09:58:09.324+02:00,2022-06-30T08:20:05.567+02:00,1483,1.408551,0,0,1171.106,0,0,2022-06-30T09:57:51.488+02:00
2022-06-30T09:58:09.974+02:00,5337.085560500001,-0.42529296875,-0.0985870361328125,-0.344390869140625,5337.075609500001,-2.807606687758993,-0.08091972047100199,-0.1643059835154465,-3.276115417480469,0.03671305999159813,-2.378343820571899,-0.2959586679935455,-0.3281488716602325,0.6638306975364685,XArbitraryZVertical,-0.05338039826952613,0.07415220008820449,-0.9814073458792946,0.1687948546114816,-0.07974281162023544,0.1635677069425583,-0.983303964138031,0,0,0,-1,-1,5336.4360015,unknown,2,2022-06-30T09:58:09.324+02:00,2022-06-30T08:20:05.567+02:00,1483,1.408551,0,0,1171.106,0,0,2022-06-30T09:57:51.488+02:00
2022-06-30T09:58:09.984+02:00,5337.0955125,-0.46435546875,-0.1670989990234375,-0.34051513671875,5337.085560500001,-2.835664617300885,-0.08570898308602737,-0.1945514754759191,-3.260973691940308,0.008148793131113052,-2.640190601348877,-0.3254800736904144,-0.2861150503158569,0.6504303216934204,XArbitraryZVertical,-0.05692575990125863,0.08940344445897136,-0.9821143583154107,0.1556209228158227,-0.08398912101984024,0.1933264881372452,-0.9775329828262329,0,0,0,-1,-1,5336.4360015,unknown,2,2022-06-30T09:58:09.324+02:00,2022-06-30T08:20:05.567+02:00,1483,1.408551,0,0,1171.106,0,0,2022-06-30T09:57:51.488+02:00
2022-06-30T09:58:09.994+02:00,5337.1054645,-0.5029754638671875,-0.305450439453125,-0.3509368896484375,5337.0955125,-2.8669077356518,-0.09239756933167903,-0.2252157524649945,-3.444571495056152,-0.03516699001193047,-2.940586805343628,-0.353468656539917,-0.3419383764266968,0.625907301902771,XArbitraryZVertical,-0.0608260118629999,0.1049102871981921,-0.9825487164594536,0.1410394548599137,-0.08993606269359589,0.2233166694641113,-0.9705880284309387,0,0,0,-1,-1,5336.4360015,unknown,2,2022-06-30T09:58:09.324+02:00,2022-06-30T08:20:05.567+02:00,1483,1.408551,0,0,1171.106,0,0,2022-06-30T09:57:51.488+02:00
2022-06-30T09:58:10.004+02:00,5337.1154155,-0.53448486328125,-0.3629608154296875,-0.3522186279296875,5337.1054645,-2.902243429294191,-0.1013335752523023,-0.258237967262487,-3.862676858901978,-0.05400589853525162,-3.275586366653442,-0.3878046274185181,-0.4942993223667145,0.6160413026809692,XArbitraryZVertical,-0.0652171823235744,0.121679337881543,-0.9825408710722818,0.1247178815555122,-0.09780591726303101,0.2553773522377014,-0.961881697177887,0,0,0,-1,-1,5336.4360015,unknown,2,2022-06-30T09:58:09.324+02:00,2022-06-30T08:20:05.567+02:00,1483,1.408551,0,0,1171.106,0,0,2022-06-30T09:57:51.488+02:00
2022-06-30T09:58:10.014+02:00,5337.125367500001,-0.619415283203125,-0.3900299072265625,-0.404022216796875,5337.1154155,-2.942200050823861,-0.1128521746629969,-0.2963689993793021,-4.612784385681152,-0.05380669236183167,-3.579840183258057,-0.4088369011878967,-0.6379812955856323,0.6020987033843994,XArbitraryZVertical,-0.07017279648988679,0.1411241578932737,-0.9817346754297032,0.1065689331617389,-0.1077032312750816,0.2920494377613068,-0.9503195285797119,0,0,0,-1,-1,5336.4360015,unknown,2,2022-06-30T09:58:09.324+02:00,2022-06-30T08:20:05.567+02:00,1483,1.408551,0,0,1171.106,0,0,2022-06-30T09:57:51.488+02:00
2022-06-30T09:58:10.024+02:00,5337.135318500001,-0.73577880859375,-0.367401123046875,-0.42034912109375,5337.125367500001,-2.987622649150121,-0.1274445944419041,-0.341515901814494,-5.421433448791504,-0.003078985027968884,-3.953444957733154,-0.4486298859119415,-0.7102971076965332,0.5613153576850891,XArbitraryZVertical,-0.07560974934014288,0.1642558869642087,-0.9797110322756386,0.08642551321667546,-0.1197596117854118,0.3349158465862274,-0.9346063137054443,0,0,0,-1,-1,5336.4360015,unknown,2,2022-06-30T09:58:09.324+02:00,2022-06-30T08:20:05.567+02:00,1483,1.408551,0,0,1171.106,0,0,2022-06-30T09:57:51.488+02:00
2022-06-30T09:58:10.034+02:00,5337.1452705,-0.8465423583984375,-0.34295654296875,-0.4437713623046875,5337.135318500001,-3.040256842016528,-0.1457869656329425,-0.3934524475813199,-6.284142017364502,0.1299472451210022,-4.406798839569092,-0.5439901351928711,-0.7731496095657349,0.4900416135787964,XArbitraryZVertical,-0.08120555019920474,0.1910731515374697,-0.9761312141910736,0.06375431344393309,-0.1341710686683655,0.383379340171814,-0.9137934446334839,0,0,0,-1,-1,5336.4360015,unknown,2,2022-06-30T09:58:09.324+02:00,2022-06-30T08:20:05.567+02:00,1483,1.408551,0,0,1171.106,0,0,2022-06-30T09:57:51.488+02:00
2022-06-30T09:58:10.044+02:00,5337.1552215,-0.9373016357421875,-0.37811279296875,-0.4550628662109375,5337.1452705,-3.101669917523518,-0.1684791418891237,-0.4524287348048548,-7.171463966369629,0.3976754546165466,-4.855242252349854,-0.639821469783783,-0.7817097306251526,0.4659382700920105,XArbitraryZVertical,-0.08644092192569537,0.2218134386819435,-0.9704965974568086,0.03825052494121371,-0.1508122831583023,0.4371511936187744,-0.8866535425186157,0,0,0,-1,-1,5336.4360015,unknown,2,2022-06-30T09:58:09.324+02:00,2022-06-30T08:20:05.567+02:00,1483,1.408551,0,0,1171.106,0,0,2022-06-30T09:57:51.488+02:00
2022-06-30T09:58:10.057+02:00,5337.1651735,-1.00958251953125,-0.369049072265625,-0.3931121826171875,5337.1552215,3.109950725527532,-0.1961785367493817,-0.5175094636787223,-7.98634147644043,0.7460225224494934,-5.275295257568359,-0.7291914224624634,-0.8565791845321655,0.3855265378952026,XArbitraryZVertical,-0.0906313791840251,0.2561128078899282,-0.9623386219157708,0.009835283823505526,-0.1693982630968094,0.4947172701358795,-0.8523843884468079,0,0,0,-1,-1,5336.4360015,unknown,2,2022-06-30T09:58:09.324+02:00,2022-06-30T08:20:05.567+02:00,1483,1.408551,0,0,1171.106,0,0,2022-06-30T09:57:51.488+02:00
2022-06-30T09:58:10.067+02:00,5337.1751255,-1.099700927734375,-0.289520263671875,-0.3335723876953125,5337.1651735,3.026917806696156,-0.2305621737661394,-0.5873655919585035,-8.721181869506836,1.118425369262695,-5.616575717926025,-0.7796539068222046,-0.9353495836257935,0.3908819556236267,XArbitraryZVertical,-0.09344126441947957,0.2933947588809873,-0.9511766008963527,-0.02124543655513051,-0.1902248859405518,0.5541700720787048,-0.8103764653205872,0,0,0,-1,-1,5336.4360015,unknown,2,2022-06-30T09:58:09.324+02:00,2022-06-30T08:20:05.567+02:00,1483,1.408551,0,0,1171.106,0,0,2022-06-30T09:57:51.488+02:00
2022-06-30T09:58:10.074+02:00,5337.1850765,-1.2186279296875,-0.0934295654296875,-0.2732391357421875,5337.1751255,2.931423323164233,-0.2731237347854609,-0.6599824995274464,-9.254785537719727,1.558485269546509,-5.819561958312988,-0.8396075367927551,-0.9531296491622925,0.3898704648017883,XArbitraryZVertical,-0.09441003647693864,0.3327563390016341,-0.9366944471784777,-0.05443808600195518,-0.21309594810009,0.6131030321121216,-0.7607199549674988,0,0,0,-1,-1,5336.4360015,unknown,2,2022-06-30T09:58:09.324+02:00,2022-06-30T08:20:05.567+02:00,1483,1.408551,0,0,1171.106,0,0,2022-06-30T09:57:51.488+02:00
2022-06-30T09:58:10.084+02:00,5337.1950285,-1.333419799804688,0.2628173828125,-0.2552337646484375,5337.1850765,2.822758492594001,-0.3248561201659075,-0.732281451839321,-9.519516944885254,2.075729370117188,-5.88999605178833,-0.9204989671707153,-0.8788643479347229,0.4093150496482849,XArbitraryZVertical,-0.0929969024378636,0.3727918968485817,-0.9189328156310379,-0.08910746966725214,-0.2373528927564621,0.668567955493927,-0.7047555446624756,0,0,0,-1,-1,5336.4360015,unknown,2,2022-06-30T09:58:09.324+02:00,2022-06-30T08:20:05.567+02:00,1483,1.408551,0,0,1171.106,0,0,2022-06-30T09:57:51.488+02:00
2022-06-30T09:58:10.094+02:00,5337.2049795,-1.454788208007812,0.691436767578125,-0.2668609619140625,5337.1950285,2.700972470614646,-0.3859991363034779,-0.8012884258850813,-9.594753265380859,2.637078046798706,-5.788831233978271,-1.01308798789978,-0.6525180339813232,0.3836478590965271,XArbitraryZVertical,-0.08869819364960965,0.4121147390511436,-0.8982179992377468,-0.1244929667425097,-0.2619513869285583,0.7182531356811523,-0.6445881724357605,0,0,0,-1,-1,5336.4360015,unknown,2,2022-06-30T09:58:09.324+02:00,2022-06-30T08:20:05.567+02:00,1483,1.408551,0,0,1171.106,0,0,2022-06-30T09:57:51.488+02:00
2022-06-30T09:58:10.104+02:00,5337.214931500001,-1.551116943359375,1.006744384765625,-0.3528289794921875,5337.2049795,2.565696241271862,-0.4568709920438734,-0.8652061583916361,-9.572541236877441,3.270665168762207,-5.640201091766357,-1.108503341674805,-0.279752790927887,0.3270752429962158,XArbitraryZVertical,-0.08116392582402659,0.4499176343480933,-0.8748459852005951,-0.1600976162577822,-0.2860733568668365,0.7612289786338806,-0.5819730758666992,0,0,0,-1,-1,5336.4360015,unknown,2,2022-06-30T09:58:09.324+02:00,2022-06-30T08:20:05.567+02:00,1483,1.408551,0,0,1171.106,0,0,2022-06-30T09:57:51.488+02:00
2022-06-30T09:58:10.114+02:00,5337.224882500001,-1.509124755859375,1.177276611328125,-0.420501708984375,5337.214931500001,2.415357339736432,-0.5380018204215301,-0.9217289666887738,-9.411972999572754,4.006093978881836,-5.581783294677734,-1.201820850372314,0.07313394546508789,0.2173753380775452,XArbitraryZVertical,-0.07023828400867731,0.4853228588980722,-0.8491359278462088,-0.1962055263093685,-0.3097297549247742,0.796647846698761,-0.5190566182136536,0,0,0,-1,-1,5336.4360015,unknown,2,2022-06-30T09:58:09.324+02:00,2022-06-30T08:20:05.567+02:00,1483,1.408551,0,0,1171.106,0,0,2022-06-30T09:57:51.488+02:00
2022-06-30T09:58:10.124+02:00,5337.2348345,-1.276336669921875,1.30487060546875,-0.3866729736328125,5337.224882500001,2.249636301123096,-0.6288014871504838,-0.9687934322280654,-9.206700325012207,4.749661922454834,-5.449105262756348,-1.222949385643005,0.280350387096405,0.05951321125030518,XArbitraryZVertical,-0.05588351746824251,0.5175776022912736,-0.8213783730162871,-0.2330835465271822,-0.3330806791782379,0.8242030143737793,-0.4579809308052063,0,0,0,-1,-1,5336.4360015,unknown,2,2022-06-30T09:58:09.324+02:00,2022-06-30T08:20:05.567+02:00,1483,1.408551,0,0,1171.106,0,0,2022-06-30T09:57:51.488+02:00
2022-06-30T09:58:10.134+02:00,5337.2447865,-1.002853393554688,1.490615844726562,-0.3665771484375,5337.2348345,2.071697185402255,-0.7273369349553288,-1.006746386218228,-9.086071968078613,5.280142307281494,-5.056828022003174,-1.055830121040344,0.3910330533981323,-0.01325401663780212,XArbitraryZVertical,-0.0382203502278729,0.5466947809474557,-0.7917727385819655,-0.2697404866198492,-0.3554551005363464,0.8450968861579895,-0.3993280529975891,0,0,0,-1,-1,5336.4360015,unknown,2,2022-06-30T09:58:09.324+02:00,2022-06-30T08:20:05.567+02:00,1483,1.408551,0,0,1171.106,0,0,2022-06-30T09:57:51.488+02:00
2022-06-30T09:58:10.144+02:00,5337.2547375,-0.8216400146484375,1.653656005859375,-0.4265594482421875,5337.2447865,1.884609419414291,-0.8331093145261884,-1.037723363095566,-9.128783226013184,5.528278350830078,-4.486986637115479,-0.7564234733581543,0.5316188335418701,-0.02478426694869995,XArbitraryZVertical,-0.0176026351898166,0.5734055408466954,-0.7603453514666813,-0.3045839811223495,-0.3760684430599213,0.8612495064735413,-0.3417924642562866,0,0,0,-1,-1,5336.4360015,unknown,2,2022-06-30T09:58:09.324+02:00,2022-06-30T08:20:05.567+02:00,1483,1.408551,0,0,1171.106,0,0,2022-06-30T09:57:51.488+02:00
2022-06-30T09:58:10.154+02:00,5337.264689500001,-0.71575927734375,1.768905639648438,-0.3873291015625,5337.2547375,1.688845575278704,-0.9474661778032837,-1.062548323114941,-9.175962448120117,5.614553928375244,-3.958265781402588,-0.5009746551513672,0.7070139050483704,-0.09278443455696106,XArbitraryZVertical,0.005382172392512624,0.5982747546796496,-0.7270684620461951,-0.3367637369726492,-0.395128071308136,0.8735984563827515,-0.2840766906738281,0,0,0,-1,-1,5336.4360015,unknown,2,2022-06-30T09:58:09.324+02:00,2022-06-30T08:20:05.567+02:00,1483,1.408551,0,0,1171.106,0,0,2022-06-30T09:57:51.488+02:00
2022-06-30T09:58:10.164+02:00,5337.274640500001,-0.6492462158203125,1.9395751953125,-0.2585906982421875,5337.264689500001,1.486599554761772,-1.069018534778474,-1.080000923669472,-9.127032279968262,5.639678478240967,-3.441533803939819,-0.3515743911266327,0.8269652724266052,-0.2113016247749329,XArbitraryZVertical,0.03004843843548667,0.6210848154105727,-0.6922993529000416,-0.3661589715198409,-0.4132265150547028,0.8819582462310791,-0.226701483130455,0,0,0,-1,-1,5336.4360015,unknown,2,2022-06-30T09:58:09.324+02:00,2022-06-30T08:20:05.567+02:00,1483,1.408551,0,0,1171.106,0,0,2022-06-30T09:57:51.488+02:00
2022-06-30T09:58:10.177+02:00,5337.2845925,-0.6466217041015625,2.087631225585938,-0.101593017578125,5337.274640500001,1.282832978272893,-1.193045352096076,-1.090532448690037,-9.076714515686035,5.67340087890625,-2.752925157546997,-0.2467228174209595,0.9580826759338379,-0.154240682721138,XArbitraryZVertical,0.05641174786047597,0.6415725073624119,-0.6566671866971017,-0.3924165907008705,-0.429439902305603,0.8868730664253235,-0.1704048663377762,0,0,0,-1,-1,5336.4360015,unknown,2,2022-06-30T09:58:09.324+02:00,2022-06-30T08:20:05.567+02:00,1483,1.408551,0,0,1171.106,0,0,2022-06-30T09:57:51.488+02:00
2022-06-30T09:58:10.183+02:00,5337.2945435,-0.6598358154296875,2.206954956054688,0.094573974609375,5337.2845925,1.080174432657847,-1.315851197298201,-1.096102915421621,-9.031944274902344,5.839556217193604,-2.006577253341675,-0.195555567741394,1.13926899433136,-0.064616858959198,XArbitraryZVertical,0.08520973272674201,0.6596249246092689,-0.620532344742264,-0.4154202230793122,-0.4422922730445862,0.8894329071044922,-0.1152685210108757,0,0,0,-1,-1,5336.4360015,unknown,2,2022-06-30T09:58:09.324+02:00,2022-06-30T08:20:05.567+02:00,1483,1.408551,0,0,1171.106,0,0,2022-06-30T09:57:51.488+02:00
2022-06-30T09:58:10.193+02:00,5337.3044955,-0.6298675537109375,2.2645263671875,0.3305511474609375,5337.2945435,0.8786992756234947,-1.436196235887218,-1.097458779358722,-9.202847480773926,5.995698928833008,-1.292062878608704,-0.2077330052852631,1.250893831253052,0.04744124412536621,XArbitraryZVertical,0.1167192407528332,0.6751220551506256,-0.5838856737175369,-0.4355049055085219,-0.4517365396022797,0.8900517821311951,-0.06117365881800652,0,0,0,-1,-1,5336.4360015,unknown,2,2022-06-30T09:58:09.324+02:00,2022-06-30T08:20:05.567+02:00,1483,1.408551,0,0,1171.106,0,0,2022-06-30T09:57:51.488+02:00
2022-06-30T09:58:10.204+02:00,5337.3144465,-0.605926513671875,2.177093505859375,0.5980072021484375,5337.3044955,0.6712166948309919,-1.560567288956982,-1.095388641712622,-9.836185455322266,6.117470741271973,-0.4915226101875305,-0.1894021034240723,1.368462324142456,0.2081887722015381,XArbitraryZVertical,0.1516388018530509,0.6889592093782172,-0.5457111342145226,-0.4522614688051226,-0.4576774537563324,0.8891062140464783,-0.004681763239204884,0,0,0,-1,-1,5336.4360015,unknown,2,2022-06-30T09:58:09.324+02:00,2022-06-30T08:20:05.567+02:00,1483,1.408551,0,0,1171.106,0,0,2022-06-30T09:57:51.488+02:00
2022-06-30T09:58:10.213+02:00,5337.324398625,-0.5283966064453125,2.097549438476562,0.93072509765625,5337.3144465,0.4497001028206933,-1.695440839214362,-1.088793172937014,-10.65400505065918,6.289417266845703,0.3516272604465485,-0.1551839113235474,1.356180429458618,0.4387235641479492,XArbitraryZVertical,0.1910626001419897,0.7016481614604803,-0.5047389565959893,-0.4652135140894463,-0.4599589407444,0.8860681056976318,0.05763011798262596,0,0,0,-1,-1,5336.4360015,unknown,2,2022-06-30T09:58:09.324+02:00,2022-06-30T08:20:05.567+02:00,1483,1.408551,0,0,1171.106,0,0,2022-06-30T09:57:51.488+02:00
2022-06-30T09:58:10.223+02:00,5337.334350625,-0.3870086669921875,2.04559326171875,1.175918579101562,5337.324398625,0.213278162373923,-1.841179785082134,-1.074288048458419,-11.8530387878418,6.348119258880615,1.182570576667786,-0.1222471594810486,1.235540628433228,0.6115800142288208,XArbitraryZVertical,0.2352001517038627,0.7129507695314345,-0.4603240965866573,-0.4737972952655802,-0.4590516984462738,0.87925124168396,0.1272358149290085,0,0,0,-1,-1,5336.4360015,unknown,2,2022-06-30T09:58:09.324+02:00,2022-06-30T08:20:05.567+02:00,1483,1.408551,0,0,1171.106,0,0,2022-06-30T09:57:51.488+02:00
2022-06-30T09:58:10.233+02:00,5337.344301625,-0.2744293212890625,2.006515502929688,1.251068115234375,5337.334350625,-0.03715082173511139,-1.997294038028391,-1.046789929420183,-13.04754638671875,6.199720859527588,2.014886140823364,-0.0003096163272857666,1.21649956703186,0.8816350698471069,XArbitraryZVertical,0.2841034933916186,0.7230348746610537,-0.4114381208458963,-0.4766806937989502,-0.455531507730484,0.8658215403556824,0.2069884538650513,0,0,0,-1,-1,5336.4360015,unknown,2,2022-06-30T09:58:09.324+02:00,2022-06-30T08:20:05.567+02:00,1483,1.408551,0,0,1171.106,0,0,2022-06-30T09:57:51.488+02:00
2022-06-30T09:58:10.243+02:00,5337.354253625001,-0.1955718994140625,2.08636474609375,1.247970581054688,5337.344301625,-0.283605031137711,-2.14821635860601,-1.00319164483835,-13.55606174468994,5.79072093963623,2.685220956802368,0.120313286781311,1.16501784324646,0.9243098497390747,XArbitraryZVertical,0.3357663808669328,0.7307482233105596,-0.3594329729912442,-0.4733665345541131,-0.4504524767398834,0.8431911468505859,0.2934640645980835,0,0,0,-1,-1,5336.4360015,unknown,2,2022-06-30T09:58:09.324+02:00,2022-06-30T08:20:05.567+02:00,1483,1.408551,0,0,1171.106,0,0,2022-06-30T09:57:51.488+02:00
2022-06-30T09:58:10.253+02:00,5337.364204625001,-0.2346649169921875,2.2054443359375,1.154296875,5337.354253625001,-0.5042692050989788,-2.276940872499679,-0.947606974228327,-12.8557767868042,5.046570777893066,3.268714666366577,0.2215916812419891,1.225622177124023,0.8925975561141968,XArbitraryZVertical,0.3866922094619274,0.7347305136409128,-0.3081846597580679,-0.4643949877252488,-0.444065123796463,0.8120211958885193,0.3787195980548859,0,0,0,-1,-1,5336.4360015,unknown,2,2022-06-30T09:58:09.324+02:00,2022-06-30T08:20:05.567+02:00,1483,1.408551,0,0,1171.106,0,0,2022-06-30T09:57:51.488+02:00
2022-06-30T09:58:10.263+02:00,5337.374156625,-0.4034423828125,2.1024169921875,0.9763946533203125,5337.364204625001,-0.6878883164531824,-2.377006755493673,-0.891065077939493,-11.08343410491943,4.192901611328125,3.840717792510986,0.2360789179801941,1.375105381011963,0.7579491138458252,XArbitraryZVertical,0.4336653587667471,0.733995375470178,-0.2628991507346165,-0.4517402069173796,-0.4351299405097961,0.7777416706085205,0.4536297023296356,0,0,0,-1,-1,5336.4360015,unknown,2,2022-06-30T09:58:09.324+02:00,2022-06-30T08:20:05.567+02:00,1483,1.408551,0,0,1171.106,0,0,2022-06-30T09:57:51.488+02:00
2022-06-30T09:58:10.273+02:00,5337.384107625,-0.6571044921875,1.700851440429688,0.86639404296875,5337.374156625,-0.836463001742545,-2.452182744140265,-0.8452320778217525,-8.612211227416992,3.469362497329712,4.436104774475098,0.1186865568161011,1.450971364974976,0.5521784424781799,XArbitraryZVertical,0.4752734519337666,0.7280954405219638,-0.2275798918946626,-0.4384058949216084,-0.4220772981643677,0.7481251358985901,0.5120156407356262,0,0,0,-1,-1,5336.4360015,unknown,2,2022-06-30T09:58:09.324+02:00,2022-06-30T08:20:05.567+02:00,1483,1.408551,0,0,1171.106,0,0,2022-06-30T09:57:51.488+02:00
2022-06-30T09:58:10.283+02:00,5337.394059625,-0.8841552734375,1.149459838867188,0.8125762939453125,5337.384107625,-0.9560004680771571,-2.508733411833643,-0.8172099712379074,-6.243772983551025,2.758761882781982,4.735621452331543,-0.1234308481216431,1.195656299591064,0.3595104813575745,XArbitraryZVertical,0.5109583974387806,0.7174913904929736,-0.2039220194756808,-0.4272510103269007,-0.4047065079212189,0.7292395830154419,0.5517447590827942,0,0,0,-1,-1,5336.4360015,unknown,2,2022-06-30T09:58:09.324+02:00,2022-06-30T08:20:05.567+02:00,1483,1.408551,0,0,1171.106,0,0,2022-06-30T09:57:51.488+02:00
2022-06-30T09:58:10.293+02:00,5337.404011625001,-1.003387451171875,0.6647491455078125,0.8887786865234375,5337.394059625,-1.055805098763345,-2.556764366959732,-0.8023839543050362,-4.204614639282227,2.09527325630188,4.863340377807617,-0.394446074962616,0.7155855298042297,0.2499615550041199,XArbitraryZVertical,0.5412872996219277,0.704807560377376,-0.1893572955013436,-0.4176100761882491,-0.3836760818958282,0.7190149426460266,0.5794912576675415,0,0,0,-1,-1,5336.4360015,unknown,2,2022-06-30T09:58:09.324+02:00,2022-06-30T08:20:05.567+02:00,1483,1.408551,0,0,1171.106,0,0,2022-06-30T09:57:51.488+02:00
2022-06-30T09:58:10.303+02:00,5337.413962625001,-0.9466400146484375,0.3932342529296875,1.131439208984375,5337.404011625001,-1.139244925654904,-2.599280034166918,-0.8003594139286632,-2.440367698669434,1.384669899940491,4.746216297149658,-0.6044785976409912,0.1661670207977295,0.2332832217216492,XArbitraryZVertical,0.5664270836166631,0.6909563016967202,-0.1830434076894182,-0.4101644077780274,-0.3594498634338379,0.7176064252853394,0.5965204834938049,0,0,0,-1,-1,5336.4360015,unknown,2,2022-06-30T09:58:09.324+02:00,2022-06-30T08:20:05.567+02:00,1483,1.408551,0,0,1171.106,0,0,2022-06-30T09:57:51.488+02:00
2022-06-30T09:58:10.313+02:00,5337.423914625,-0.8707733154296875,0.3075103759765625,1.44647216796875,5337.413962625001,-1.209301782861816,-2.639712484941718,-0.8092050332729624,-0.9431965947151184,0.6295633316040039,4.587399959564209,-0.6584405899047852,-0.2218928337097168,0.3863746523857117,XArbitraryZVertical,0.5866271845742298,0.6770195326657993,-0.1839522255543186,-0.4045672704717676,-0.3319771289825439,0.7237387895584106,0.6049737930297852,0,0,0,-1,-1,5336.4360015,unknown,2,2022-06-30T09:58:09.324+02:00,2022-06-30T08:20:05.567+02:00,1483,1.408551,0,0,1171.106,0,0,2022-06-30T09:57:51.488+02:00
2022-06-30T09:58:10.323+02:00,5337.433865625,-0.8123779296875,0.3137359619140625,1.781600952148438,5337.423914625,-1.269168022013547,-2.680695643888213,-0.8272852320720938,0.2766436636447906,-0.08530218154191971,4.37763786315918,-0.604780912399292,-0.4071630835533142,0.6785582900047302,XArbitraryZVertical,0.6024299338158755,0.6634770754406486,-0.1911451644734421,-0.4004247021344951,-0.3010420799255371,0.7360965013504028,0.6062473058700562,0,0,0,-1,-1,5336.4360015,unknown,2,2022-06-30T09:58:09.324+02:00,2022-06-30T08:20:05.567+02:00,1483,1.408551,0,0,1171.106,0,0,2022-06-30T09:57:51.488+02:00
2022-06-30T09:58:10.333+02:00,5337.443817625001,-0.7805938720703125,0.2892913818359375,2.023208618164062,5337.433865625,-1.322640237420575,-2.724651532881337,-0.8518890876064087,1.075260162353516,-0.7472737431526184,4.20983362197876,-0.5721263885498047,-0.442177414894104,1.014874696731567,XArbitraryZVertical,0.6146598684646075,0.65058884207487,-0.2032637295088713,-0.3970029816949331,-0.2666953206062317,0.752525806427002,0.6021451950073242,0,0,0,-1,-1,5336.4360015,unknown,2,2022-06-30T09:58:09.324+02:00,2022-06-30T08:20:05.567+02:00,1483,1.408551,0,0,1171.106,0,0,2022-06-30T09:57:51.488+02:00
2022-06-30T09:58:10.342+02:00,5337.453768625001,-0.7473907470703125,0.31195068359375,2.157974243164062,5337.443817625001,-1.373017207418825,-2.773567947650801,-0.8798378619645851,1.550039649009705,-1.369203329086304,3.987398862838745,-0.5660440921783447,-0.4667113423347473,1.325943827629089,XArbitraryZVertical,0.6240789406650989,0.6386136780141264,-0.218896272944503,-0.3934239904595108,-0.2292747795581818,0.7706355452537537,0.5946038961410522,0,0,0,-1,-1,5336.4360015,unknown,2,2022-06-30T09:58:09.324+02:00,2022-06-30T08:20:05.567+02:00,1483,1.408551,0,0,1171.106,0,0,2022-06-30T09:57:51.488+02:00
2022-06-30T09:58:10.353+02:00,5337.463720625,-0.741455078125,0.34375,2.2093505859375,5337.453768625001,-1.422282972788314,-2.82845325087644,-0.908232671281863,1.701001167297363,-1.933024644851685,3.761155128479004,-0.5726237297058105,-0.4958308339118958,1.515619039535522,XArbitraryZVertical,0.631195131995722,0.6278582572848963,-0.2368167538167501,-0.3889788459957667,-0.1894920021295547,0.7884178161621094,0.5852265954017639,0,0,0,-1,-1,5336.4360015,unknown,2,2022-06-30T09:58:09.324+02:00,2022-06-30T08:20:05.567+02:00,1483,1.408551,0,0,1171.106,0,0,2022-06-30T09:57:51.488+02:00
2022-06-30T09:58:10.363+02:00,5337.473671625,-0.73553466796875,0.3420562744140625,2.160140991210938,5337.463720625,-1.47227360856074,-2.890170729993758,-0.9344017130695152,1.622239112854004,-2.452985763549805,3.533605813980103,-0.5936046242713928,-0.4727466702461243,1.621071338653564,XArbitraryZVertical,0.6365919314170762,0.6185128384520703,-0.2559727279525142,-0.3829759687479096,-0.1478507667779922,0.8042436838150024,0.5756148099899292,0,0,0,-1,-1,5336.4360015,unknown,2,2022-06-30T09:58:09.324+02:00,2022-06-30T08:20:05.567+02:00,1483,1.408551,0,0,1171.106,0,0,2022-06-30T09:57:51.488+02:00
2022-06-30T09:58:10.373+02:00,5337.483623625,-0.7230224609375,0.2901611328125,2.1123046875,5337.473671625,-1.523523322570839,-2.958432604503225,-0.9565458463380113,1.388854622840881,-2.911130428314209,3.316740036010742,-0.6365420818328857,-0.4675965309143066,1.626104712486267,XArbitraryZVertical,0.640640865102044,0.6106816324385491,-0.2756112285863335,-0.3750808411710621,-0.1049743294715881,0.8172056674957275,0.5667055249214172,0,0,0,-1,-1,5336.4360015,unknown,2,2022-06-30T09:58:09.324+02:00,2022-06-30T08:20:05.567+02:00,1483,1.408551,0,0,1171.106,0,0,2022-06-30T09:57:51.488+02:00
2022-06-30T09:58:10.382+02:00,5337.493575625001,-0.7247772216796875,0.193145751953125,2.059524536132812,5337.483623625,-1.57625838441502,-3.03292406794318,-0.9727718737057719,0.9206788539886475,-3.343013048171997,3.134676456451416,-0.6653031706809998,-0.5037568807601929,1.570803642272949,XArbitraryZVertical,0.6437829587693392,0.6044736711223582,-0.2950950578861102,-0.3647930478632289,-0.06106124818325043,0.826449453830719,0.5596898198127747,0,0,0,-1,-1,5336.4360015,unknown,2,2022-06-30T09:58:09.324+02:00,2022-06-30T08:20:05.567+02:00,1483,1.408551,0,0,1171.106,0,0,2022-06-30T09:57:51.488+02:00
2022-06-30T09:58:10.392+02:00,5337.503526625001,-0.703369140625,0.1540985107421875,1.9598388671875,5337.493575625001,-1.629449102824376,-3.112205831761779,-0.9811922593930651,0.334752231836319,-3.719432592391968,2.94765043258667,-0.7062883377075195,-0.5909419059753418,1.535394787788391,XArbitraryZVertical,0.6464053604539103,0.6000468080211697,-0.3137788648350338,-0.351634524327547,-0.01633766666054726,0.8311609029769897,0.5557921528816223,0,0,0,-1,-1,5336.4360015,unknown,2,2022-06-30T09:58:09.324+02:00,2022-06-30T08:20:05.567+02:00,1483,1.408551,0,0,1171.106,0,0,2022-06-30T09:57:51.488+02:00
2022-06-30T09:58:10.402+02:00,5337.513478625,-0.652984619140625,0.171295166015625,1.83746337890625,5337.503526625001,-1.680581346081211,3.089859126059046,-0.9813945572079993,-0.2175568789243698,-4.029955863952637,2.769149541854858,-0.7482113838195801,-0.6660667657852173,1.460551142692566,XArbitraryZVertical,0.6485974168926759,0.5973954908637852,-0.3313199172675214,-0.3356591484318276,0.02874396182596684,0.8312733769416809,0.5551199913024902,0,0,0,-1,-1,5336.4360015,unknown,2,2022-06-30T09:58:09.324+02:00,2022-06-30T08:20:05.567+02:00,1483,1.408551,0,0,1171.106,0,0,2022-06-30T09:57:51.488+02:00
2022-06-30T09:58:10.412+02:00,5337.523429625,-0.6239166259765625,0.2574920654296875,1.763427734375,5337.513478625,-1.727611860836657,3.009293932232991,-0.9751053337643261,-0.5291626453399658,-4.318758010864258,2.606290102005005,-0.7542510032653809,-0.6704582571983337,1.341039299964905,XArbitraryZVertical,0.650146123745602,0.5961534707147005,-0.3480273534445111,-0.3174713722981624,0.07401394844055176,0.8277609944343567,0.5561779141426086,0,0,0,-1,-1,5336.4360015,unknown,2,2022-06-30T09:58:09.324+02:00,2022-06-30T08:20:05.567+02:00,1483,1.408551,0,0,1171.106,0,0,2022-06-30T09:57:51.488+02:00
2022-06-30T09:58:10.423+02:00,5337.533381625,-0.63824462890625,0.350982666015625,1.692291259765625,5337.523429625,-1.769898095567919,2.929992522608507,-0.9650326469017729,-0.6348153352737427,-4.611039161682129,2.478735446929932,-0.7513153553009033,-0.6176303625106812,1.235652923583984,XArbitraryZVertical,0.6506618531643775,0.5958057433238672,-0.3646212993926141,-0.2978356385509069,0.1195859760046005,0.8220674991607666,0.5566906332969666,0,0,0,-1,-1,5336.4360015,unknown,2,2022-06-30T09:58:09.324+02:00,2022-06-30T08:20:05.567+02:00,1483,1.408551,0,0,1171.106,0,0,2022-06-30T09:57:51.488+02:00
2022-06-30T09:58:10.432+02:00,5337.543332625,-0.6607666015625,0.3561553955078125,1.544479370117188,5337.533381625,-1.807985110648726,2.851447036836456,-0.952918539640165,-0.6227993965148926,-4.900428771972656,2.386299610137939,-0.793115496635437,-0.5013891458511353,1.182105302810669,XArbitraryZVertical,0.6499414887485406,0.5959216261265159,-0.3816231355847252,-0.2771593677567299,0.1657349020242691,0.8151097297668457,0.5550930500030518,0,0,0,-1,-1,5336.4360015,unknown,2,2022-06-30T09:58:09.324+02:00,2022-06-30T08:20:05.567+02:00,1483,1.408551,0,0,1171.106,0,0,2022-06-30T09:57:51.488+02:00
2022-06-30T09:58:10.442+02:00,5337.553284625001,-0.6679840087890625,0.3732757568359375,1.423736572265625,5337.543332625,-1.842636661127692,2.773346964607869,-0.940179431728437,-0.4777020514011383,-5.137399196624756,2.29219651222229,-0.8629858493804932,-0.4467021822929382,1.075557947158813,XArbitraryZVertical,0.6478568403204409,0.5961025558933349,-0.3993024642674685,-0.2559311366355337,0.2122592628002167,0.8076639175415039,0.5501134991645813,0,0,0,-1,-1,5336.4360015,unknown,2,2022-06-30T09:58:09.324+02:00,2022-06-30T08:20:05.567+02:00,1483,1.408551,0,0,1171.106,0,0,2022-06-30T09:57:51.488+02:00
2022-06-30T09:58:10.452+02:00,5337.563236625,-0.6410369873046875,0.3783721923828125,1.355880737304688,5337.553284625001,-1.874724661492378,2.695582948200496,-0.9274948259167545,-0.3598814010620117,-5.297152042388916,2.249617338180542,-0.9275608062744141,-0.4417366981506348,0.9297709465026855,XArbitraryZVertical,0.6444653936421365,0.5960243968240722,-0.4176382678639732,-0.2345157384744398,0.2587526142597198,0.8001197576522827,0.5411614775657654,0,0,0,-1,-1,5336.4360015,unknown,2,2022-06-30T09:58:09.324+02:00,2022-06-30T08:20:05.567+02:00,1483,1.408551,0,0,1171.106,0,0,2022-06-30T09:57:51.488+02:00
2022-06-30T09:58:10.462+02:00,5337.573187625,-0.6258544921875,0.4171295166015625,1.298080444335938,5337.563236625,-1.904948625839439,2.617999113334939,-0.9145785116621883,-0.2304020971059799,-5.455513477325439,2.197124004364014,-0.9600890874862671,-0.4123312830924988,0.8629879355430603,XArbitraryZVertical,0.6399763423458231,0.5955021745870192,-0.4364414221476635,-0.212899951840143,0.3050596117973328,0.7923054695129395,0.5283851027488708,0,0,0,-1,-1,5336.4360015,unknown,2,2022-06-30T09:58:09.324+02:00,2022-06-30T08:20:05.567+02:00,1483,1.408551,0,0,1171.106,0,0,2022-06-30T09:57:51.488+02:00
2022-06-30T09:58:10.472+02:00,5337.583139625001,-0.606597900390625,0.4470062255859375,1.238128662109375,5337.573187625,-1.932549047508463,2.541275808719563,-0.9013865894698349,-0.2153669446706772,-5.579919815063477,2.116706132888794,-0.9842948913574219,-0.3921439647674561,0.8149519562721252,XArbitraryZVertical,0.6343019059280125,0.5947063672947197,-0.4554855472220141,-0.1910980887892232,0.3505361974239349,0.7841880917549133,0.5120291709899902,0,0,0,-1,-1,5336.4360015,unknown,2,2022-06-30T09:58:09.324+02:00,2022-06-30T08:20:05.567+02:00,1483,1.408551,0,0,1171.106,0,0,2022-06-30T09:57:51.488+02:00
2022-06-30T09:58:10.482+02:00,5337.593090625001,-0.5984954833984375,0.4756317138671875,1.203689575195312,5337.583139625001,-1.956894160735761,2.466450496598556,-0.886923908712334,-0.3000467121601105,-5.634192943572998,2.076068639755249,-1.00910747051239,-0.3370521068572998,0.7748573422431946,XArbitraryZVertical,0.6277492971225,0.5937406559513964,-0.4742269850278877,-0.1688542415940032,0.3948800563812256,0.7751319408416748,0.4931942820549011,0,0,0,-1,-1,5336.4360015,unknown,2,2022-06-30T09:58:09.324+02:00,2022-06-30T08:20:05.567+02:00,1483,1.408551,0,0,1171.106,0,0,2022-06-30T09:57:51.488+02:00
2022-06-30T09:58:10.492+02:00,5337.603042625,-0.5633544921875,0.533233642578125,1.148971557617188,5337.593090625001,-1.977194724470723,2.394439358783047,-0.8710986186176751,-0.429609477519989,-5.682253360748291,1.96891713142395,-1.040848970413208,-0.3123696446418762,0.7496922612190247,XArbitraryZVertical,0.6203792676084412,0.5927498736848678,-0.4923562989121524,-0.1461594830510177,0.4376232624053955,0.7650368809700012,0.4724456965923309,0,0,0,-1,-1,5336.4360015,unknown,2,2022-06-30T09:58:09.324+02:00,2022-06-30T08:20:05.567+02:00,1483,1.408551,0,0,1171.106,0,0,2022-06-30T09:57:51.488+02:00
2022-06-30T09:58:10.502+02:00,5337.612993625,-0.5365142822265625,0.56011962890625,1.091110229492188,5337.603042625,-1.992591515352385,2.326134525952043,-0.8538084147993478,-0.6271350979804993,-5.695469379425049,1.910135746002197,-1.061018705368042,-0.2438092827796936,0.7257626056671143,XArbitraryZVertical,0.61226371948252,0.5919219466474985,-0.5095534480328879,-0.1229508607197072,0.4784075617790222,0.7537884116172791,0.4504769146442413,0,0,0,-1,-1,5336.4360015,unknown,2,2022-06-30T09:58:09.324+02:00,2022-06-30T08:20:05.567+02:00,1483,1.408551,0,0,1171.106,0,0,2022-06-30T09:57:51.488+02:00
2022-06-30T09:58:10.512+02:00,5337.622945625,-0.52801513671875,0.6195831298828125,1.033782958984375,5337.612993625,-2.002718814137333,2.261873367438315,-0.8349369630943395,-0.8825807571411133,-5.692852020263672,1.836668133735657,-1.066397905349731,-0.195859432220459,0.6923772692680359,XArbitraryZVertical,0.6035086979865749,0.5913421583512232,-0.5256142991353995,-0.09910247645769352,0.5172186493873596,0.7412542104721069,0.4278165996074677,0,0,0,-1,-1,5336.4360015,unknown,2,2022-06-30T09:58:09.324+02:00,2022-06-30T08:20:05.567+02:00,1483,1.408551,0,0,1171.106,0,0,2022-06-30T09:57:51.488+02:00
2022-06-30T09:58:10.522+02:00,5337.632897625001,-0.5462493896484375,0.6549224853515625,0.9939422607421875,5337.622945625,-2.006826422785598,2.202243497038377,-0.8144355174211988,-1.211604952812195,-5.682379245758057,1.763002514839172,-1.080192089080811,-0.140912652015686,0.6561446189880371,XArbitraryZVertical,0.5941639930648626,0.5912098812637508,-0.5402705251731056,-0.07448429800234382,0.553946852684021,0.7273383140563965,0.4051199555397034,0,0,0,-1,-1,5336.4360015,unknown,2,2022-06-30T09:58:09.324+02:00,2022-06-30T08:20:05.567+02:00,1483,1.408551,0,0,1171.106,0,0,2022-06-30T09:57:51.488+02:00
2022-06-30T09:58:10.532+02:00,5337.642848625001,-0.5230560302734375,0.63836669921875,0.956939697265625,5337.632897625001,-2.004412364871606,2.147668789747342,-0.7926898234639961,-1.542957544326782,-5.624209880828857,1.646149635314941,-1.127784252166748,-0.06608009338378906,0.6295989751815796,XArbitraryZVertical,0.5842042320206596,0.5917128725650836,-0.5533222662645765,-0.0491507093119053,0.5883402228355408,0.712243914604187,0.3828374147415161,0,0,0,-1,-1,5336.4360015,unknown,2,2022-06-30T09:58:09.324+02:00,2022-06-30T08:20:05.567+02:00,1483,1.408551,0,0,1171.106,0,0,2022-06-30T09:57:51.488+02:00
2022-06-30T09:58:10.541+02:00,5337.652800625,-0.467803955078125,0.640625,0.85174560546875,5337.642848625001,-1.995851961472539,2.098201876284355,-0.770567352691681,-1.814491271972656,-5.52690601348877,1.503154635429382,-1.160025358200073,-0.04665547609329224,0.6179599761962891,XArbitraryZVertical,0.5736316231161278,0.592880397975042,-0.5647019519231151,-0.02348283989632922,0.6200167536735535,0.6965424418449402,0.3611208200454712,0,0,0,-1,-1,5336.4360015,unknown,2,2022-06-30T09:58:09.324+02:00,2022-06-30T08:20:05.567+02:00,1483,1.408551,0,0,1171.106,0,0,2022-06-30T09:57:51.488+02:00
2022-06-30T09:58:10.552+02:00,5337.662751625,-0.4244537353515625,0.7009124755859375,0.7154083251953125,5337.652800625,-1.982985192991765,2.052415378310913,-0.7493499440618481,-1.861648321151733,-5.461281299591064,1.321700930595398,-1.143310308456421,-0.05054777860641479,0.5738452672958374,XArbitraryZVertical,0.5623368823489925,0.594427796866652,-0.5748296213546396,0.00197962602060413,0.6488493084907532,0.68116295337677,0.3391343355178833,0,0,0,-1,-1,5336.4360015,unknown,2,2022-06-30T09:58:09.324+02:00,2022-06-30T08:20:05.567+02:00,1483,1.408551,0,0,1171.106,0,0,2022-06-30T09:57:51.488+02:00
2022-06-30T09:58:10.568+02:00,5337.672703625,-0.3819427490234375,0.70648193359375,0.6061248779296875,5337.662751625,-1.968553429721356,2.008048232512651,-0.7303814963457621,-1.729703783988953,-5.407546043395996,1.166257381439209,-1.120271563529968,0.002493143081665039,0.4646227061748505,XArbitraryZVertical,0.5501826877184165,0.5958336618330575,-0.5844415696060482,0.02663302023630092,0.6748369932174683,0.6671538949012756,0.3154374957084656,0,0,0,-1,-1,5336.4360015,unknown,2,2022-06-30T09:58:09.324+02:00,2022-06-30T08:20:05.567+02:00,1483,1.408551,0,0,1171.106,0,0,2022-06-30T09:57:51.488+02:00
2022-06-30T09:58:10.572+02:00,5337.682654625,-0.3529205322265625,0.699371337890625,0.5626068115234375,5337.672703625,-1.955402617193046,1.963215521316658,-0.7139958591663849,-1.407471776008606,-5.356618404388428,1.056964159011841,-1.099320292472839,0.05470520257949829,0.3683309555053711,XArbitraryZVertical,0.5373959452520103,0.5964181791491626,-0.5941231941945843,0.0500867949232704,0.6983041167259216,0.6548588871955872,0.2890180945396423,0,0,0,-1,-1,5336.4360015,unknown,2,2022-06-30T09:58:09.324+02:00,2022-06-30T08:20:05.567+02:00,1483,1.408551,0,0,1171.106,0,0,2022-06-30T09:57:51.488+02:00
2022-06-30T09:58:10.582+02:00,5337.692606625001,-0.35162353515625,0.70269775390625,0.5806884765625,5337.682654625,-1.94453858816558,1.917297443283822,-0.7000046902919013,-1.183146119117737,-5.299039363861084,0.9825929999351501,-1.085623741149902,0.05925452709197998,0.3171279430389404,XArbitraryZVertical,0.524136967918328,0.5959476228709932,-0.6040716611121892,0.07227964352932979,0.7193823456764221,0.6442212462425232,0.259746253490448,0,0,0,-1,-1,5336.4360015,unknown,2,2022-06-30T09:58:09.324+02:00,2022-06-30T08:20:05.567+02:00,1483,1.408551,0,0,1171.106,0,0,2022-06-30T09:57:51.488+02:00
2022-06-30T09:58:10.591+02:00,5337.702557625001,-0.4026947021484375,0.6983795166015625,0.67041015625,5337.692606625001,-1.933367984078546,1.871878605677044,-0.6869999141399344,-1.357909679412842,-5.278804302215576,0.9742503762245178,-1.083358883857727,0.06197702884674072,0.3310523629188538,XArbitraryZVertical,0.5104828251127512,0.5950193427676108,-0.6136107187005796,0.09402860541100791,0.7383731603622437,0.6342205405235291,0.2292814701795578,0,0,0,-1,-1,5336.4360015,unknown,2,2022-06-30T09:58:09.324+02:00,2022-06-30T08:20:05.567+02:00,1483,1.408551,0,0,1171.106,0,0,2022-06-30T09:57:51.488+02:00
2022-06-30T09:58:10.601+02:00,5337.712509625,-0.4224090576171875,0.657196044921875,0.67816162109375,5337.702557625001,-1.915784606909748,1.830963632728758,-0.673297807371501,-2.09444785118103,-5.165874481201172,0.9442867636680603,-1.128705739974976,0.08440965414047241,0.4256205856800079,XArbitraryZVertical,0.4963377952938238,0.5951477829176572,-0.6211605592580914,0.1166515647303484,0.7554607391357422,0.623567521572113,0.2011041790246964,0,0,0,-1,-1,5336.4360015,unknown,2,2022-06-30T09:58:09.324+02:00,2022-06-30T08:20:05.567+02:00,1483,1.408551,0,0,1171.106,0,0,2022-06-30T09:57:51.488+02:00
2022-06-30T09:58:10.611+02:00,5337.722461625001,-0.3930511474609375,0.74896240234375,0.63629150390625,5337.712509625,-1.886781275711383,1.798637077418717,-0.6593605494655819,-2.996205806732178,-5.008224964141846,0.7540957927703857,-1.192488789558411,0.06101793050765991,0.5095525979995728,XArbitraryZVertical,0.4814300605736185,0.5979037913681363,-0.6253256218550989,0.1403709133058006,0.7699577212333679,0.6126115918159485,0.1785276979207993,0,0,0,-1,-1,5336.4360015,unknown,2,2022-06-30T09:58:09.324+02:00,2022-06-30T08:20:05.567+02:00,1483,1.408551,0,0,1171.106,0,0,2022-06-30T09:57:51.488+02:00
2022-06-30T09:58:10.621+02:00,5337.732412625001,-0.37451171875,0.89117431640625,0.5782470703125,5337.722461625001,-1.846713810091395,1.773822351804276,-0.6468739077448032,-3.725572824478149,-4.936254501342773,0.4192323386669159,-1.191677331924438,0.07760286331176758,0.494497537612915,XArbitraryZVertical,0.4650895013943052,0.6034409177380382,-0.6264083625627559,0.1648134956721642,0.7815822958946228,0.6026948094367981,0.1608983725309372,0,0,0,-1,-1,5336.4360015,unknown,2,2022-06-30T09:58:09.324+02:00,2022-06-30T08:20:05.567+02:00,1483,1.408551,0,0,1171.106,0,0,2022-06-30T09:57:51.488+02:00
2022-06-30T09:58:10.631+02:00,5337.742364625,-0.355743408203125,0.9360809326171875,0.5220947265625,5337.732412625001,-1.79967866268728,1.753134380929658,-0.6370766269222033,-4.017329692840576,-4.90127420425415,0.09463347494602203,-1.171127557754517,0.2367252111434937,0.465721607208252,XArbitraryZVertical,0.4470884734341454,0.6107304090427808,-0.6255421504700539,0.1892546656925191,0.7905125021934509,0.594848096370697,0.1457594782114029,0,0,0,-1,-1,5336.4360015,unknown,2,2022-06-30T09:58:09.324+02:00,2022-06-30T08:20:05.567+02:00,1483,1.408551,0,0,1171.106,0,0,2022-06-30T09:57:51.488+02:00
2022-06-30T09:58:10.641+02:00,5337.752315625,-0.3425140380859375,0.8952789306640625,0.4241943359375,5337.742364625,-1.750761065091903,1.73347300071141,-0.6306512364526896,-3.963386058807373,-4.897927761077881,-0.151666983962059,-1.165571689605713,0.336644172668457,0.4239580631256104,XArbitraryZVertical,0.4277476022276725,0.6184133069360038,-0.6239503402935246,0.2127978458779717,0.7969805598258972,0.5896708369255066,0.1308060586452484,0,0,0,-1,-1,5336.4360015,unknown,2,2022-06-30T09:58:09.324+02:00,2022-06-30T08:20:05.567+02:00,1483,1.408551,0,0,1171.106,0,0,2022-06-30T09:57:51.488+02:00
2022-06-30T09:58:10.651+02:00,5337.762267625,-0.358306884765625,0.8008575439453125,0.4617767333984375,5337.752315625,-1.703294358615804,1.712178049089495,-0.6273900680818977,-3.770627498626709,-5.00684928894043,-0.3601679801940918,-1.145188927650452,0.3364431262016296,0.3530260324478149,XArbitraryZVertical,0.4072964068260413,0.6254181352891307,-0.6225637060639869,0.2353217510352079,0.8014848828315735,0.5870338678359985,0.1140764132142067,0,0,0,-1,-1,5336.4360015,unknown,2,2022-06-30T09:58:09.324+02:00,2022-06-30T08:20:05.567+02:00,1483,1.408551,0,0,1171.106,0,0,2022-06-30T09:57:51.488+02:00
2022-06-30T09:58:10.661+02:00,5337.772218625,-0.3554840087890625,0.7006988525390625,0.4512786865234375,5337.762267625,-1.656378771287119,1.689737659218091,-0.6269213067761492,-3.837434768676758,-5.034998893737793,-0.512571394443512,-1.156441211700439,0.2689058184623718,0.3333475589752197,XArbitraryZVertical,0.3857086453660705,0.6318836562838376,-0.6211606078615386,0.257121759460094,0.8041161298751831,0.5866543054580688,0.0960962250828743,0,0,0,-1,-1,5336.4360015,unknown,2,2022-06-30T09:58:09.324+02:00,2022-06-30T08:20:05.567+02:00,1483,1.408551,0,0,1171.106,0,0,2022-06-30T09:57:51.488+02:00
2022-06-30T09:58:10.671+02:00,5337.782170625001,-0.364501953125,0.8878631591796875,0.37420654296875,5337.772218625,-1.608162664726585,1.667734917276498,-0.6288894228202935,-3.904928922653198,-5.096375465393066,-0.7463002800941467,-1.161696076393127,0.1465397477149963,0.3915945291519165,XArbitraryZVertical,0.3629803997689195,0.6382633423553136,-0.6191530080636013,0.2784149212263509,0.8048849105834961,0.5882470011711121,0.07826972752809525,0,0,0,-1,-1,5336.4360015,unknown,2,2022-06-30T09:58:09.324+02:00,2022-06-30T08:20:05.567+02:00,1483,1.408551,0,0,1171.106,0,0,2022-06-30T09:57:51.488+02:00
2022-06-30T09:58:10.681+02:00,5337.792121625001,-0.3858795166015625,1.148681640625,0.0772857666015625,5337.782170625001,-1.559687325027413,1.644906511441596,-0.6347015676306905,-3.779751062393188,-5.265791893005371,-1.085841298103333,-1.1597580909729,0.1644935011863708,0.3619781732559204,XArbitraryZVertical,0.3385932361548117,0.6443336688733212,-0.6171563481999047,0.2988423543477071,0.8030382990837097,0.5929372310638428,0.05962251126766205,0,0,0,-1,-1,5336.4360015,unknown,2,2022-06-30T09:58:09.324+02:00,2022-06-30T08:20:05.567+02:00,1483,1.408551,0,0,1171.106,0,0,2022-06-30T09:57:51.488+02:00
2022-06-30T09:58:10.691+02:00,5337.802073625,-0.3646240234375,1.254806518554688,-0.4870758056640625,5337.792121625001,-1.515946344552295,1.617901184068275,-0.6449196527420348,-3.039367198944092,-5.388424396514893,-1.378490447998047,-1.173810720443726,0.4315497279167175,0.2351670265197754,XArbitraryZVertical,0.3129188345211913,0.6487655342403966,-0.6165842723942083,0.3178188666304408,0.7982615232467651,0.6011342406272888,0.03762983158230782,0,0,0,-1,-1,5336.4360015,unknown,2,2022-06-30T09:58:09.324+02:00,2022-06-30T08:20:05.567+02:00,1483,1.408551,0,0,1171.106,0,0,2022-06-30T09:57:51.488+02:00
2022-06-30T09:58:10.701+02:00,5337.812025625,-0.261871337890625,1.18035888671875,-0.9317779541015625,5337.802073625,-1.4851622967655,1.583328578818251,-0.6582920128903228,-1.750530242919922,-5.293942928314209,-1.408484697341919,-1.177557468414307,0.6115301251411438,-0.2011971473693848,XArbitraryZVertical,0.287970148379373,0.6496382146075849,-0.6190675839584115,0.3343632304058662,0.7909762263298035,0.6117666363716125,0.009913232177495956,0,0,0,-1,-1,5336.4360015,unknown,2,2022-06-30T09:58:09.324+02:00,2022-06-30T08:20:05.567+02:00,1483,1.408551,0,0,1171.106,0,0,2022-06-30T09:57:51.488+02:00
2022-06-30T09:58:10.711+02:00,5337.821976625,-0.1678314208984375,0.990631103515625,-1.0093994140625,5337.812025625,-1.470873755246517,1.540206277296793,-0.6711241474395232,-0.6341428160667419,-5.131414413452148,-1.119743704795837,-1.102351903915405,0.6153614521026611,-0.7322275042533875,XArbitraryZVertical,0.2657546324057893,0.6460638155775099,-0.624750916371572,0.3488014382992947,0.7827568650245667,0.6218667030334473,-0.02395204268395901,0,0,0,-1,-1,5336.4360015,unknown,2,2022-06-30T09:58:09.324+02:00,2022-06-30T08:20:05.567+02:00,1483,1.408551,0,0,1171.106,0,0,2022-06-30T09:57:51.488+02:00
2022-06-30T09:58:10.724+02:00,5337.831928625001,-0.504852294921875,1.269699096679688,-1.759368896484375,5337.821976625,-1.465153708182114,1.494277368012678,-0.6805607690354791,-0.4754968881607056,-4.821578502655029,-0.7549406290054321,-0.9797032475471497,0.4609045386314392,-0.9421573281288147,XArbitraryZVertical,0.2463744964121636,0.6399941996613138,-0.631127671148894,0.3624708245570534,0.7749459743499756,0.629228949546814,-0.05941406264901161,0,0,0,-1,-1,5336.4360015,unknown,2,2022-06-30T09:58:09.324+02:00,2022-06-30T08:20:05.567+02:00,1483,1.408551,0,0,1171.106,0,0,2022-06-30T09:57:51.488+02:00
2022-06-30T09:58:10.733+02:00,5337.841879625001,-3.523468017578125,6.1419677734375,-15.11219787597656,5337.831928625001,-1.445476172725561,1.48759921422811,-0.687404474186982,-4.376017093658447,6.444577217102051,-0.04283293709158897,-0.9217570424079895,0.3081086874008179,-0.9135544300079346,XArbitraryZVertical,0.2356760813054629,0.6421390174364195,-0.629407457828855,0.368728384905798,0.7702223062515259,0.6345332264900208,-0.06422853469848633,0,0,0,-1,-1,5336.4360015,unknown,2,2022-06-30T09:58:09.324+02:00,2022-06-30T08:20:05.567+02:00,1483,1.408551,0,0,1171.106,0,0,2022-06-30T09:57:51.488+02:00
2022-06-30T09:58:10.742+02:00,5337.851831625,1.39013671875,1.3558349609375,2.72906494140625,5337.841879625001,-1.37923836309367,1.557721422201264,-0.6906751031071265,-6.474521636962891,-2.753084659576416,-2.005967855453491,-5.004682540893555,3.541774988174438,-14.48851776123047,XArbitraryZVertical,0.2346832087918694,0.6632380877417916,-0.6095461329198367,0.36536639402337,0.7707502841949463,0.6370577216148376,-0.0100780613720417,0,0,0,-1,-1,5336.4360015,unknown,2,2022-06-30T09:58:09.324+02:00,2022-06-30T08:20:05.567+02:00,1483,1.408551,0,0,1171.106,0,0,2022-06-30T09:57:51.488+02:00
2022-06-30T09:58:10.751+02:00,5337.861782625,1.624832153320312,1.107498168945312,0.0082244873046875,5337.851831625,-1.337082333111684,1.59127333516997,-0.67876461153904,0.6773772835731506,3.480838775634766,3.042299270629883,-1.006762146949768,3.496145248413086,-3.872809648513794,XArbitraryZVertical,0.2346809993853539,0.6729735506908229,-0.5956467813160072,0.3704541891834944,0.7781857252120972,0.6278319358825684,0.01593714207410812,0,0,0,-1,-1,5336.4360015,unknown,2,2022-06-30T09:58:09.324+02:00,2022-06-30T08:20:05.567+02:00,1483,1.408551,0,0,1171.106,0,0,2022-06-30T09:57:51.488+02:00
2022-06-30T09:58:10.761+02:00,5337.871734625,1.231979370117188,-0.258514404296875,-0.625091552734375,5337.861782625,-1.358478349307147,1.60561282625831,-0.6569645156146922,0.8979660868644714,2.147353410720825,1.325812101364136,0.1623963117599487,-0.1517778038978577,1.485101103782654,XArbitraryZVertical,0.2533398668819102,0.6705228135528373,-0.5936220190077265,0.3658290997196815,0.7913697361946106,0.6107160449028015,0.02756386250257492,0,0,0,-1,-1,5336.4360015,unknown,2,2022-06-30T09:58:09.324+02:00,2022-06-30T08:20:05.567+02:00,1483,1.408551,0,0,1171.106,0,0,2022-06-30T09:57:51.488+02:00
2022-06-30T09:58:10.770+02:00,5337.881686625,-0.3687286376953125,-0.3026885986328125,-0.2911834716796875,5337.871734625,-1.367493053172467,1.607114031553815,-0.6504921501523507,0.676771342754364,0.224956750869751,-0.0490427277982235,0.9116177558898926,0.261074960231781,-0.2030583620071411,XArbitraryZVertical,0.2589279946779232,0.6688824074747851,-0.5938176955685649,0.3646000013818341,0.7952610850334167,0.6055781245231628,0.02889476343989372,0,0,0,-1,-1,5336.4360015,unknown,2,2022-06-30T09:58:09.324+02:00,2022-06-30T08:20:05.567+02:00,1483,1.408551,0,0,1171.106,0,0,2022-06-30T09:57:51.488+02:00
2022-06-30T09:58:10.780+02:00,5337.891637625,0.109375,-0.023956298828125,0.001953125,5337.881686625,-1.363875299941547,1.612706658612493,-0.65298058809743,-1.153351902961731,0.3147258758544922,-0.2989664077758789,-0.8147732019424438,-1.227674007415771,-0.6706838607788086,XArbitraryZVertical,0.2585607109190072,0.6706606300951286,-0.5929209660868896,0.3630501031029288,0.7935789823532104,0.6075565218925476,0.03327864408493042,0,0,0,-1,-1,5336.4360015,unknown,2,2022-06-30T09:58:09.324+02:00,2022-06-30T08:20:05.567+02:00,1483,1.408551,0,0,1171.106,0,0,2022-06-30T09:57:51.488+02:00
2022-06-30T09:58:10.790+02:00,5337.901589625,0.7080230712890625,0.5525970458984375,0.3017120361328125,5337.891637625,-1.347739859968561,1.624178922111812,-0.6557142598040899,-1.18495512008667,-0.06737329810857773,-0.3133021891117096,-1.13158643245697,-0.7478179931640625,-0.1106202676892281,XArbitraryZVertical,0.2556268835958427,0.6751301413503457,-0.5890563880918267,0.3631345661838127,0.791483461856842,0.6097255349159241,0.04229162260890007,0,0,0,-1,-1,5336.4360015,unknown,2,2022-06-30T09:58:09.324+02:00,2022-06-30T08:20:05.567+02:00,1483,1.408551,0,0,1171.106,0,0,2022-06-30T09:57:51.488+02:00
2022-06-30T09:58:10.800+02:00,5337.911540625,0.762725830078125,0.9213714599609375,0.4384765625,5337.901589625,-1.33768530303284,1.627376470642308,-0.6597463678284609,-0.2649281919002533,-0.7262484431266785,-0.5807568430900574,-0.3539465665817261,-0.3784502744674683,0.06441771984100342,XArbitraryZVertical,0.2518465417567083,0.6774324535698826,-0.5876300566313453,0.3637986768102117,0.7888832688331604,0.6129164695739746,0.0446828193962574,0,0,0,-1,-1,5336.4360015,unknown,2,2022-06-30T09:58:09.324+02:00,2022-06-30T08:20:05.567+02:00,1483,1.408551,0,0,1171.106,0,0,2022-06-30T09:57:51.488+02:00
2022-06-30T09:58:10.810+02:00,5337.921492625001,0.702606201171875,1.030471801757812,0.230560302734375,5337.911540625,-1.343080916454721,1.61372908868081,-0.669316407124267,1.22159481048584,-1.405207276344299,-1.191795229911804,-0.005279183387756348,0.1618525981903076,0.3927628993988037,XArbitraryZVertical,0.2464998532398922,0.6753277569345069,-0.5922120009419328,0.3639441870143569,0.7835235595703125,0.6204500198364258,0.03365951403975487,0,0,0,-1,-1,5336.4360015,unknown,2,2022-06-30T09:58:09.324+02:00,2022-06-30T08:20:05.567+02:00,1483,1.408551,0,0,1171.106,0,0,2022-06-30T09:57:51.488+02:00
2022-06-30T09:58:10.820+02:00,5337.931443625001,0.55426025390625,0.80670166015625,0.0364532470703125,5337.921492625001,-1.365834816776858,1.584260848764803,-0.6821537231408048,2.270689964294434,-1.735232353210449,-1.153167963027954,-0.03986376523971558,0.3710287809371948,0.3400740623474121,XArbitraryZVertical,0.2410984498531607,0.6686531784077816,-0.6023952596911536,0.3631727401407417,0.7761463522911072,0.6304662227630615,0.0104510709643364,0,0,0,-1,-1,5336.4360015,unknown,2,2022-06-30T09:58:09.324+02:00,2022-06-30T08:20:05.567+02:00,1483,1.408551,0,0,1171.106,0,0,2022-06-30T09:57:51.488+02:00
2022-06-30T09:58:10.830+02:00,5337.941395625,0.4576416015625,0.5802154541015625,-0.16558837890625,5337.931443625001,-1.395749290737596,1.548354666513445,-0.6931642130915768,2.254167079925537,-1.636457324028015,-1.036383867263794,-0.1038576364517212,0.3346275091171265,0.1360969543457031,XArbitraryZVertical,0.236448138435162,0.659895163093175,-0.6140928600578924,0.3626576189447822,0.7690342664718628,0.6389743685722351,-0.01726130396127701,0,0,0,-1,-1,5336.4360015,unknown,2,2022-06-30T09:58:09.324+02:00,2022-06-30T08:20:05.567+02:00,1483,1.408551,0,0,1171.106,0,0,2022-06-30T09:57:51.488+02:00
2022-06-30T09:58:10.840+02:00,5337.951347625,0.493865966796875,0.678375244140625,-0.157012939453125,5337.941395625,-1.419527881080515,1.519647949289225,-0.7025043832932786,1.304906725883484,-1.176666617393494,-1.007269501686096,-0.2737941145896912,0.009767532348632812,-0.09234195202589035,XArbitraryZVertical,0.2322465949547338,0.6531088240025655,-0.6233421128507135,0.3618768783172315,0.7622281312942505,0.6461310982704163,-0.03902076557278633,0,0,0,-1,-1,5336.4360015,unknown,2,2022-06-30T09:58:09.324+02:00,2022-06-30T08:20:05.567+02:00,1483,1.408551,0,0,1171.106,0,0,2022-06-30T09:57:51.488+02:00
2022-06-30T09:58:10.850+02:00,5337.961298625,0.640777587890625,0.7410430908203125,-0.137298583984375,5337.951347625,-1.432415674983471,1.501587480283112,-0.7132293733954583,0.5508564114570618,-0.7961469888687134,-1.185447573661804,-0.2749043107032776,-0.09397691488265991,-0.08983778953552246,XArbitraryZVertical,0.2271842035016249,0.6497988336258412,-0.6294670624994511,0.3604443487195216,0.754442572593689,0.6542794108390808,-0.05229762569069862,0,0,0,-1,-1,5336.4360015,unknown,2,2022-06-30T09:58:09.324+02:00,2022-06-30T08:20:05.567+02:00,1483,1.408551,0,0,1171.106,0,0,2022-06-30T09:57:51.488+02:00
2022-06-30T09:58:10.860+02:00,5337.971250625001,0.806640625,0.572845458984375,-0.1496734619140625,5337.961298625,-1.44103111865355,1.489864756453702,-0.7254909624288957,0.7044452428817749,-0.4634959101676941,-1.316390991210938,-0.1774263381958008,0.1099191904067993,-0.05471885949373245,XArbitraryZVertical,0.2221434311757186,0.6483902293592938,-0.6342278341410696,0.3577675311574743,0.7457250356674194,0.6635028719902039,-0.06048481166362762,0,0,0,-1,-1,5336.4360015,unknown,2,2022-06-30T09:58:09.324+02:00,2022-06-30T08:20:05.567+02:00,1483,1.408551,0,0,1171.106,0,0,2022-06-30T09:57:51.488+02:00
2022-06-30T09:58:10.870+02:00,5337.981201625001,0.7304534912109375,0.342041015625,-0.16162109375,5337.971250625001,-1.45394690661269,1.477488177817148,-0.7373883068695581,0.9459021091461182,-0.3021602928638458,-1.238761782646179,0.01473253965377808,-0.01738888025283813,-0.09304852038621902,XArbitraryZVertical,0.2183618527283272,0.6464004723512543,-0.6396631010540039,0.3539997909003409,0.7370073199272156,0.6723569631576538,-0.06896906346082687,0,0,0,-1,-1,5336.4360015,unknown,2,2022-06-30T09:58:09.324+02:00,2022-06-30T08:20:05.567+02:00,1483,1.408551,0,0,1171.106,0,0,2022-06-30T09:57:51.488+02:00
2022-06-30T09:58:10.880+02:00,5337.991153625,0.6528778076171875,0.2102203369140625,-0.162353515625,5337.981201625001,-1.468040795314827,1.466134863497591,-0.7494755541856536,0.8371080756187439,-0.05351608246564865,-1.385716199874878,0.07083374261856079,-0.2146109938621521,-0.07260089367628098,XArbitraryZVertical,0.2151720147323758,0.6445637205799254,-0.6451017413245702,0.3494028304108406,0.7280404567718506,0.6812549233436584,-0.07647722959518433,0,0,0,-1,-1,5336.4360015,unknown,2,2022-06-30T09:58:09.324+02:00,2022-06-30T08:20:05.567+02:00,1483,1.408551,0,0,1171.106,0,0,2022-06-30T09:57:51.488+02:00
2022-06-30T09:58:10.890+02:00,5338.001104625,0.6199798583984375,0.2173614501953125,-0.1827392578125,5337.991153625,-1.47874707489892,1.459438019007351,-0.7632627744992471,0.4373753666877747,0.1746758073568344,-1.537895798683167,-0.03048640489578247,-0.4368427395820618,-0.08078723400831223,XArbitraryZVertical,0.2117801166043172,0.644204469219937,-0.6495686664499971,0.3438172760847743,0.7181087136268616,0.6912827491760254,-0.08029957115650177,0,0,0,-1,-1,5336.4360015,unknown,2,2022-06-30T09:58:09.324+02:00,2022-06-30T08:20:05.567+02:00,1483,1.408551,0,0,1171.106,0,0,2022-06-30T09:57:51.488+02:00
2022-06-30T09:58:10.900+02:00,5338.011056625,0.62127685546875,0.2686309814453125,-0.1793975830078125,5338.001104625,-1.48567252405768,1.457229851223,-0.7789658658441572,0.2221016585826874,0.3352342545986176,-1.690793395042419,-0.07326692342758179,-0.503538966178894,-0.09644836187362671,XArbitraryZVertical,0.2079631018951985,0.6453130251742056,-0.65306901598691,0.3373772080830985,0.7070563435554504,0.7025438547134399,-0.08064489811658859,0,0,0,-1,-1,5336.4360015,unknown,2,2022-06-30T09:58:09.324+02:00,2022-06-30T08:20:05.567+02:00,1483,1.408551,0,0,1171.106,0,0,2022-06-30T09:57:51.488+02:00
2022-06-30T09:58:10.910+02:00,5338.021008625,0.5461273193359375,0.304534912109375,-0.22369384765625,5338.011056625,-1.491656252500617,1.456579767469198,-0.7958061620077392,0.2657798826694489,0.3777790367603302,-1.764323472976685,-0.06714379787445068,-0.4673426151275635,-0.09553271532058716,XArbitraryZVertical,0.2039586973849376,0.6469377763332764,-0.6563095491240311,0.330348659907737,0.6951501369476318,0.7144278883934021,-0.07974472641944885,0,0,0,-1,-1,5336.4360015,unknown,2,2022-06-30T09:58:09.324+02:00,2022-06-30T08:20:05.567+02:00,1483,1.408551,0,0,1171.106,0,0,2022-06-30T09:57:51.488+02:00
2022-06-30T09:58:10.920+02:00,5338.030959625,0.428680419921875,0.3231964111328125,-0.27386474609375,5338.021008625,-1.499666126609787,1.454395217228173,-0.8134848958464845,0.4378252327442169,0.3339583277702332,-1.887525320053101,-0.08730471134185791,-0.4408582448959351,-0.1176953762769699,XArbitraryZVertical,0.199815051179193,0.648214569747927,-0.6600472564816398,0.322845787396724,0.6823214292526245,0.7266855835914612,-0.07978363335132599,0,0,0,-1,-1,5336.4360015,unknown,2,2022-06-30T09:58:09.324+02:00,2022-06-30T08:20:05.567+02:00,1483,1.408551,0,0,1171.106,0,0,2022-06-30T09:57:51.488+02:00
2022-06-30T09:58:10.930+02:00,5338.040911625,0.31573486328125,0.321197509765625,-0.3381500244140625,5338.030959625,-1.51067201843125,1.449275011612623,-0.8321806745737819,0.6050259470939636,0.2735359966754913,-2.021906137466431,-0.179102897644043,-0.4190889596939087,-0.1685374975204468,XArbitraryZVertical,0.1953148628997884,0.648879557571961,-0.6645483390218925,0.3149334433542132,0.6683000922203064,0.7394012808799744,-0.08161484450101852,0,0,0,-1,-1,5336.4360015,unknown,2,2022-06-30T09:58:09.324+02:00,2022-06-30T08:20:05.567+02:00,1483,1.408551,0,0,1171.106,0,0,2022-06-30T09:57:51.488+02:00
2022-06-30T09:58:10.940+02:00,5338.050862625,0.23638916015625,0.386444091796875,-0.4019622802734375,5338.040911625,-1.524789482449123,1.441511702581427,-0.8521248672099397,0.7705131769180298,0.2967755198478699,-2.188398122787476,-0.2852755188941956,-0.4330707788467407,-0.216539740562439,XArbitraryZVertical,0.190497990307938,0.6490527199760658,-0.6697542418737451,0.3063826028439959,0.6528906226158142,0.7526810765266418,-0.08488216251134872,0,0,0,-1,-1,5336.4360015,unknown,2,2022-06-30T09:58:09.324+02:00,2022-06-30T08:20:05.567+02:00,1483,1.408551,0,0,1171.106,0,0,2022-06-30T09:57:51.488+02:00
2022-06-30T09:58:10.950+02:00,5338.060814625001,0.186370849609375,0.5070953369140625,-0.48211669921875,5338.050862625,-1.542301577856514,1.431410267006111,-0.8734780454602833,0.9200035929679871,0.3442370593547821,-2.367477893829346,-0.3626968264579773,-0.4234429001808167,-0.2833238840103149,XArbitraryZVertical,0.1854852173556069,0.6488340614250021,-0.6756088496155654,0.2969212955222303,0.6359362006187439,0.766567051410675,-0.08921919018030167,0,0,0,-1,-1,5336.4360015,unknown,2,2022-06-30T09:58:09.324+02:00,2022-06-30T08:20:05.567+02:00,1483,1.408551,0,0,1171.106,0,0,2022-06-30T09:57:51.488+02:00
2022-06-30T09:58:10.960+02:00,5338.070765625001,0.165618896484375,0.6371002197265625,-0.632354736328125,5338.060814625001,-1.563798130093881,1.418266891639352,-0.8962117281375256,1.130581855773926,0.3556351959705353,-2.543777227401733,-0.412777304649353,-0.3376682996749878,-0.3408482074737549,XArbitraryZVertical,0.180218703234336,0.6481302468769373,-0.6821552567861778,0.2865530635117239,0.6173216700553894,0.7809664607048035,-0.09489680081605911,0,0,0,-1,-1,5336.4360015,unknown,2,2022-06-30T09:58:09.324+02:00,2022-06-30T08:20:05.567+02:00,1483,1.408551,0,0,1171.106,0,0,2022-06-30T09:57:51.488+02:00
2022-06-30T09:58:10.970+02:00,5338.080717625,0.1553497314453125,0.7678070068359375,-0.79193115234375,5338.070765625001,-1.590944012991618,1.400463100951165,-0.9201372434333451,1.414595246315002,0.370152086019516,-2.744622468948364,-0.421667218208313,-0.2226107120513916,-0.4472519755363464,XArbitraryZVertical,0.1747159259945733,0.6466352047423772,-0.6896200176646625,0.2752479623853441,0.5969452261924744,0.7956847548484802,-0.1026745140552521,0,0,0,-1,-1,5336.4360015,unknown,2,2022-06-30T09:58:09.324+02:00,2022-06-30T08:20:05.567+02:00,1483,1.408551,0,0,1171.106,0,0,2022-06-30T09:57:51.488+02:00
2022-06-30T09:58:10.980+02:00,5338.090668625,0.1462860107421875,0.8748626708984375,-0.9187469482421875,5338.080717625,-1.62492482103704,1.376838146518216,-0.9450214092597531,1.666012525558472,0.3703503310680389,-2.887706518173218,-0.417881965637207,-0.1093682646751404,-0.6039013266563416,XArbitraryZVertical,0.1689814604993881,0.6442030820015889,-0.6980614228966613,0.2629790449399725,0.5747426748275757,0.8105095028877258,-0.1128953099250793,0,0,0,-1,-1,5336.4360015,unknown,2,2022-06-30T09:58:09.324+02:00,2022-06-30T08:20:05.567+02:00,1483,1.408551,0,0,1171.106,0,0,2022-06-30T09:57:51.488+02:00
2022-06-30T09:58:10.990+02:00,5338.100620625,0.087493896484375,0.946075439453125,-1.016143798828125,5338.090668625,-1.664880420365741,1.347776407862489,-0.9696967203702032,1.815557718276978,0.3576515913009644,-2.91666579246521,-0.396162748336792,0.002922356128692627,-0.7363792657852173,XArbitraryZVertical,0.1631978432859943,0.6409551555722653,-0.7070585923944178,0.2502222669020298,0.5515433549880981,0.8247142434120178,-0.1250859051942825,0,0,0,-1,-1,5336.4360015,unknown,2,2022-06-30T09:58:09.324+02:00,2022-06-30T08:20:05.567+02:00,1483,1.408551,0,0,1171.106,0,0,2022-06-30T09:57:51.488+02:00
2022-06-30T09:58:10.999+02:00,5338.110572625001,0.048370361328125,1.066146850585938,-1.075408935546875,5338.100620625,-1.709847528690429,1.314169356555054,-0.9939193864082625,1.897429585456848,0.4128837883472443,-3.008352041244507,-0.4058128595352173,0.07143670320510864,-0.8305737376213074,XArbitraryZVertical,0.1573877541832506,0.6371902212063623,-0.7162589715451636,0.2370462241054392,0.5275478363037109,0.838170051574707,-0.1384354382753372,0,0,0,-1,-1,5336.4360015,unknown,2,2022-06-30T09:58:09.324+02:00,2022-06-30T08:20:05.567+02:00,1483,1.408551,0,0,1171.106,0,0,2022-06-30T09:57:51.488+02:00
2022-06-30T09:58:11.009+02:00,5338.120523625001,0.0796966552734375,1.19757080078125,-1.0423583984375,5338.110572625001,-1.758888314235225,1.277246793565236,-1.018143336049589,1.835989475250244,0.4851585328578949,-3.089174270629883,-0.4444467425346375,0.1475833058357239,-0.9064549207687378,XArbitraryZVertical,0.1514943128068054,0.6333263516360036,-0.7253468690288881,0.2232022182637577,0.5024915337562561,0.8511348366737366,-0.1518944054841995,0,0,0,-1,-1,5336.4360015,unknown,2,2022-06-30T09:58:09.324+02:00,2022-06-30T08:20:05.567+02:00,1483,1.408551,0,0,1171.106,0,0,2022-06-30T09:57:51.488+02:00
2022-06-30T09:58:11.019+02:00,5338.130475625,0.1066131591796875,1.352981567382812,-1.00189208984375,5338.120523625001,-1.80951772410783,1.239066197035718,-1.041833920274049,1.682328462600708,0.5724265575408936,-3.030210733413696,-0.4178598523139954,0.272136390209198,-0.9009266495704651,XArbitraryZVertical,0.1456469171970302,0.6297712890653218,-0.7337918451976938,0.209104763814803,0.4771254062652588,0.863331139087677,-0.1643501967191696,0,0,0,-1,-1,5336.4360015,unknown,2,2022-06-30T09:58:09.324+02:00,2022-06-30T08:20:05.567+02:00,1483,1.408551,0,0,1171.106,0,0,2022-06-30T09:57:51.488+02:00
2022-06-30T09:58:11.029+02:00,5338.140426625,0.0972137451171875,1.569091796875,-0.9621429443359375,5338.130475625,-1.860301888421822,1.201405640209572,-1.064296451772946,1.513848066329956,0.7352516651153564,-2.946506023406982,-0.3543589413166046,0.3923976421356201,-0.8432965278625488,XArbitraryZVertical,0.1403033773758596,0.6266892576799916,-0.7413234958847214,0.1949742910708389,0.452396959066391,0.8744478225708008,-0.1751510798931122,0,0,0,-1,-1,5336.4360015,unknown,2,2022-06-30T09:58:09.324+02:00,2022-06-30T08:20:05.567+02:00,1483,1.408551,0,0,1171.106,0,0,2022-06-30T09:57:51.488+02:00
