loggingTime(txt),accelerometerTimestamp_sinceReboot(s),accelerometerAccelerationX(G),accelerometerAccelerationY(G),accelerometerAccelerationZ(G),motionTimestamp_sinceReboot(s),motionYaw(rad),motionRoll(rad),motionPitch(rad),motionRotationRateX(rad/s),motionRotationRateY(rad/s),motionRotationRateZ(rad/s),motionUserAccelerationX(G),motionUserAccelerationY(G),motionUserAccelerationZ(G),motionAttitudeReferenceFrame(txt),motionQuaternionX(R),motionQuaternionY(R),motionQuaternionZ(R),motionQuaternionW(R),motionGravityX(G),motionGravityY(G),motionGravityZ(G),motionMagneticFieldX(µT),motionMagneticFieldY(µT),motionMagneticFieldZ(µT),motionHeading(°),motionMagneticFieldCalibrationAccuracy(Z),activityTimestamp_sinceReboot(s),activity(txt),activityActivityConfidence(Z),activityActivityStartDate(txt),pedometerStartDate(txt),pedometerNumberofSteps(N),pedometerAverageActivePace(s/m),pedometerCurrentPace(s/m),pedometerCurrentCadence(steps/s),pedometerDistance(m),pedometerFloorAscended(N),pedometerFloorDescended(N),pedometerEndDate(txt)
2022-06-30T09:59:20.100+02:00,5407.199346875001,0.161224365234375,-0.2205352783203125,-0.8991851806640625,5407.189394875,1.711550543340875,0.07508215998119235,0.131735053864479,0.3264444172382355,0.1718375235795975,-0.0164454709738493,-0.1570034921169281,-0.08084923028945923,0.05050843954086304,XArbitraryZVertical,0.01484493669941834,0.074218280535324,0.7545308591155947,0.6518853656676781,0.07436169683933258,-0.1313543617725372,-0.9885425567626953,0,0,0,-1,-1,5405.231111375,unknown,2,2022-06-30T09:59:18.119+02:00,2022-06-30T08:20:05.567+02:00,1493,1.407114,0,0,1178.161,0,0,2022-06-30T09:59:18.119+02:00
2022-06-30T09:59:20.102+02:00,5407.209297875001,0.0671234130859375,-0.2415771484375,-0.874053955078125,5407.199346875001,1.712145367439251,0.07628914349258523,0.1352429839288628,0.3435589671134949,0.1266660541296005,0.1565026044845581,0.1292688101530075,0.01067069172859192,0.07648748159408569,XArbitraryZVertical,0.01551693214976216,0.07593383575143578,0.754688970921233,0.6514890705366769,0.07551921159029007,-0.1348310858011246,-0.9879865646362305,0,0,0,-1,-1,5405.231111375,unknown,2,2022-06-30T09:59:18.119+02:00,2022-06-30T08:20:05.567+02:00,1493,1.407114,0,0,1178.161,0,0,2022-06-30T09:59:18.119+02:00
2022-06-30T09:59:20.108+02:00,5407.219249875,0.071929931640625,-0.2490234375,-0.88970947265625,5407.209297875001,1.71319399405817,0.07746193708439096,0.1378952882145402,0.1598220467567444,0.130634605884552,0.06586824357509613,0.08457425981760025,-0.08307620882987976,0.0883520245552063,XArbitraryZVertical,0.01590298580516212,0.07732043194857159,0.7550046320372744,0.6509506937844859,0.07664991915225983,-0.1374586820602417,-0.9875372648239136,0,0,0,-1,-1,5405.231111375,unknown,2,2022-06-30T09:59:18.119+02:00,2022-06-30T08:20:05.567+02:00,1493,1.407114,0,0,1178.161,0,0,2022-06-30T09:59:18.119+02:00
2022-06-30T09:59:20.118+02:00,5407.229200875,0.11761474609375,-0.2469329833984375,-0.92218017578125,5407.219249875,1.713001703231236,0.07864082553349581,0.1384813985905208,-0.02826238051056862,0.1026828661561012,-0.08938711881637573,-0.01068450510501862,-0.1035375446081161,0.113311767578125,XArbitraryZVertical,0.01565738784997079,0.07792283617336748,0.7549435368126498,0.6509555753471733,0.0778077244758606,-0.1380392163991928,-0.9873657822608948,0,0,0,-1,-1,5405.231111375,unknown,2,2022-06-30T09:59:18.119+02:00,2022-06-30T08:20:05.567+02:00,1493,1.407114,0,0,1178.161,0,0,2022-06-30T09:59:18.119+02:00
2022-06-30T09:59:20.128+02:00,5407.239152875,0.143646240234375,-0.22003173828125,-0.947723388671875,5407.229200875,1.711576826001419,0.07976100322682277,0.1374685654560959,-0.135042816400528,0.08589223027229309,-0.2057489156723022,-0.006995059549808502,-0.1119870394468307,0.09770733118057251,XArbitraryZVertical,0.01495830570016727,0.07789627822322261,0.7545013953867368,0.6514876215436932,0.07892479747533798,-0.1370360106229782,-0.9874168634414673,0,0,0,-1,-1,5405.231111375,unknown,2,2022-06-30T09:59:18.119+02:00,2022-06-30T08:20:05.567+02:00,1493,1.407114,0,0,1178.161,0,0,2022-06-30T09:59:18.119+02:00
2022-06-30T09:59:20.138+02:00,5407.249103875,0.128936767578125,-0.1679840087890625,-0.9601287841796875,5407.239152875,1.709316047275782,0.08073040541257297,0.1358150723379639,-0.153868705034256,0.04764790460467339,-0.2664351761341095,0.03771442919969559,-0.1115346699953079,0.0653841495513916,XArbitraryZVertical,0.01413824402947187,0.07757530783492489,0.7537923691560307,0.6523643344723343,0.07990013062953949,-0.1353979259729385,-0.9875643849372864,0,0,0,-1,-1,5405.231111375,unknown,2,2022-06-30T09:59:18.119+02:00,2022-06-30T08:20:05.567+02:00,1493,1.407114,0,0,1178.161,0,0,2022-06-30T09:59:18.119+02:00
2022-06-30T09:59:20.148+02:00,5407.259055875001,0.1159210205078125,-0.14056396484375,-0.9785308837890625,5407.249103875,1.706569318069787,0.08146062425830165,0.1339994268946338,-0.1632820516824722,0.03167065232992172,-0.3101868629455566,0.06300493329763412,-0.08643257617950439,0.04002571105957031,XArbitraryZVertical,0.01337294867656884,0.07711414178101719,0.7529226884853106,0.6534385609742597,0.08064111322164536,-0.1335987746715546,-0.9877491593360901,0,0,0,-1,-1,5405.231111375,unknown,2,2022-06-30T09:59:18.119+02:00,2022-06-30T08:20:05.567+02:00,1493,1.407114,0,0,1178.161,0,0,2022-06-30T09:59:18.119+02:00
2022-06-30T09:59:20.158+02:00,5407.269006875001,0.1280364990234375,-0.1627349853515625,-0.993865966796875,5407.259055875001,1.703395032420479,0.08214866654539814,0.1319837651424847,-0.1895408183336258,0.02715632878243923,-0.3555580675601959,0.04759393632411957,-0.03638271987438202,0.02783095836639404,XArbitraryZVertical,0.01257275052279491,0.07656385538405948,0.7519123834457272,0.654681335230598,0.08134263753890991,-0.1316009163856506,-0.9879598021507263,0,0,0,-1,-1,5405.231111375,unknown,2,2022-06-30T09:59:18.119+02:00,2022-06-30T08:20:05.567+02:00,1493,1.407114,0,0,1178.161,0,0,2022-06-30T09:59:18.119+02:00
2022-06-30T09:59:20.168+02:00,5407.278957875001,0.123291015625,-0.1437225341796875,-1.00836181640625,5407.269006875001,1.699952558617559,0.08285622017373843,0.1295620908044533,-0.2320935279130936,0.03051933459937572,-0.3598330020904541,0.03385303169488907,-0.01136365532875061,0.009685814380645752,XArbitraryZVertical,0.01163968748922201,0.0758693838283175,0.7508152229790545,0.6560373495512113,0.08206778764724731,-0.1291999220848083,-0.9882166981697083,0,0,0,-1,-1,5405.231111375,unknown,2,2022-06-30T09:59:18.119+02:00,2022-06-30T08:20:05.567+02:00,1493,1.407114,0,0,1178.161,0,0,2022-06-30T09:59:18.119+02:00
2022-06-30T09:59:20.178+02:00,5407.288909875,0.10870361328125,-0.1174163818359375,-1.00457763671875,5407.278957875001,1.696824547864214,0.08361507986106281,0.1268283039312696,-0.2612000107765198,0.0461326465010643,-0.3059231638908386,0.04518943279981613,-0.03624603152275085,-0.005363583564758301,XArbitraryZVertical,0.01056997869270548,0.07508038563340143,0.7498205936423965,0.657282509563732,0.08284687250852585,-0.1264885663986206,-0.9885024428367615,0,0,0,-1,-1,5405.231111375,unknown,2,2022-06-30T09:59:18.119+02:00,2022-06-30T08:20:05.567+02:00,1493,1.407114,0,0,1178.161,0,0,2022-06-30T09:59:18.119+02:00
2022-06-30T09:59:20.188+02:00,5407.298860875,0.099029541015625,-0.1110382080078125,-1.003860473632812,5407.288909875,1.694358062399908,0.0843930819827695,0.1239371927481747,-0.2646566033363342,0.05809657275676727,-0.2288508415222168,0.03964443504810333,-0.02010199427604675,-0.01956391334533691,XArbitraryZVertical,0.009413963273367951,0.07424562723767396,0.7490410425112866,0.658283014183395,0.08364637941122055,-0.1236201450228691,-0.9887979030609131,0,0,0,-1,-1,5405.231111375,unknown,2,2022-06-30T09:59:18.119+02:00,2022-06-30T08:20:05.567+02:00,1493,1.407114,0,0,1178.161,0,0,2022-06-30T09:59:18.119+02:00
2022-06-30T09:59:20.198+02:00,5407.308812875001,0.0926055908203125,-0.1071319580078125,-0.9902191162109375,5407.298860875,1.692900506281416,0.08521385762798932,0.1213970577299287,-0.2108516991138458,0.08163305371999741,-0.09784169495105743,0.02421903610229492,0.003683097660541534,-0.01553905010223389,XArbitraryZVertical,0.008319121150613682,0.07356277259954391,0.7485873896707567,0.658890101399957,0.08448438346385956,-0.1210990995168686,-0.9890386462211609,0,0,0,-1,-1,5405.231111375,unknown,2,2022-06-30T09:59:18.119+02:00,2022-06-30T08:20:05.567+02:00,1493,1.407114,0,0,1178.161,0,0,2022-06-30T09:59:18.119+02:00
2022-06-30T09:59:20.208+02:00,5407.318763875001,0.087554931640625,-0.10089111328125,-0.9845733642578125,5407.308812875001,1.692812398995182,0.08609106018729168,0.1194187894421847,-0.1797556281089783,0.1041600704193115,0.04768344759941101,0.01365697383880615,0.008097328245639801,-0.01465964317321777,XArbitraryZVertical,0.007338445875854532,0.07311435392289203,0.7485783222726614,0.6589621029399969,0.08537237346172333,-0.1191351562738419,-0.9892008900642395,0,0,0,-1,-1,5405.231111375,unknown,2,2022-06-30T09:59:18.119+02:00,2022-06-30T08:20:05.567+02:00,1493,1.407114,0,0,1178.161,0,0,2022-06-30T09:59:18.119+02:00
2022-06-30T09:59:20.217+02:00,5407.328715875,0.1109619140625,-0.1154022216796875,-0.9824676513671875,5407.318763875001,1.694089483028843,0.08711593260732924,0.1180471854428746,-0.1071551963686943,0.1382226943969727,0.176210805773735,0.006205134093761444,0.01064163446426392,-0.0009444355964660645,XArbitraryZVertical,0.006453707128598002,0.07294512123459861,0.7490133042139022,0.6584956808996557,0.08640027046203613,-0.117773212492466,-0.9892747402191162,0,0,0,-1,-1,5405.231111375,unknown,2,2022-06-30T09:59:18.119+02:00,2022-06-30T08:20:05.567+02:00,1493,1.407114,0,0,1178.161,0,0,2022-06-30T09:59:18.119+02:00
2022-06-30T09:59:20.228+02:00,5407.338666875,0.124603271484375,-0.1351318359375,-0.9653472900390625,5407.328715875,1.69622514800598,0.08812795806942854,0.1176105480922763,-0.02022222802042961,0.1196330934762955,0.2425621598958969,0.0001488253474235535,0.01644887030124664,0.004664480686187744,XArbitraryZVertical,0.005852006953799668,0.07312184266942395,0.7497224438260793,0.6576740428269895,0.08740591257810593,-0.1173395961523056,-0.989237904548645,0,0,0,-1,-1,5405.231111375,unknown,2,2022-06-30T09:59:18.119+02:00,2022-06-30T08:20:05.567+02:00,1493,1.407114,0,0,1178.161,0,0,2022-06-30T09:59:18.119+02:00
2022-06-30T09:59:20.237+02:00,5407.348618875,0.1093597412109375,-0.146942138671875,-0.9582061767578125,5407.338666875,1.69905917731115,0.08889205212901385,0.117801583050063,0.002189069986343384,0.108979120850563,0.321845531463623,0.0228019505739212,0.002127476036548615,0.006680786609649658,XArbitraryZVertical,0.005524694495050679,0.07345227920429162,0.7506543539118536,0.6565762192699947,0.08815976977348328,-0.1175293102860451,-0.9891484975814819,0,0,0,-1,-1,5405.231111375,unknown,2,2022-06-30T09:59:18.119+02:00,2022-06-30T08:20:05.567+02:00,1493,1.407114,0,0,1178.161,0,0,2022-06-30T09:59:18.119+02:00
2022-06-30T09:59:20.247+02:00,5407.358569875,0.106964111328125,-0.136993408203125,-0.96307373046875,5407.348618875,1.702384844075315,0.08956192106817343,0.1181709461639952,0.01776263676583767,0.1090018227696419,0.3410733342170715,0.03578462451696396,-0.01723534613847733,0.02369856834411621,XArbitraryZVertical,0.005272514974985352,0.07381904466331761,0.7517441162068211,0.6552890476588119,0.08881846070289612,-0.1178961098194122,-0.9890459179878235,0,0,0,-1,-1,5405.231111375,unknown,2,2022-06-30T09:59:18.119+02:00,2022-06-30T08:20:05.567+02:00,1493,1.407114,0,0,1178.161,0,0,2022-06-30T09:59:18.119+02:00
2022-06-30T09:59:20.257+02:00,5407.368521875001,0.10894775390625,-0.147979736328125,-0.970306396484375,5407.358569875,1.705839664479536,0.09018514437086765,0.1187789714366091,0.04635726660490036,0.1039338260889053,0.3579215407371521,0.01993118971586227,-0.02844188362360001,0.0307125449180603,XArbitraryZVertical,0.005110420871410121,0.07425964375426436,0.7528719716941343,0.6539443614054404,0.0894283652305603,-0.118499867618084,-0.9889187812805176,0,0,0,-1,-1,5405.231111375,unknown,2,2022-06-30T09:59:18.119+02:00,2022-06-30T08:20:05.567+02:00,1493,1.407114,0,0,1178.161,0,0,2022-06-30T09:59:18.119+02:00
2022-06-30T09:59:20.268+02:00,5407.378472875001,0.111724853515625,-0.180145263671875,-0.980712890625,5407.368521875001,1.709403644367758,0.09073723676378873,0.1195496299431535,0.03661968186497688,0.09873756021261215,0.360428124666214,0.01699789613485336,-0.01772795617580414,0.02570420503616333,XArbitraryZVertical,0.005022955576443855,0.07473796506859751,0.7540316011865161,0.6525529483093437,0.08996602147817612,-0.1192650645971298,-0.9887779951095581,0,0,0,-1,-1,5405.231111375,unknown,2,2022-06-30T09:59:18.119+02:00,2022-06-30T08:20:05.567+02:00,1493,1.407114,0,0,1178.161,0,0,2022-06-30T09:59:18.119+02:00
2022-06-30T09:59:20.277+02:00,5407.388423875001,0.1089630126953125,-0.172515869140625,-0.9959716796875,5407.378472875001,1.712809656919703,0.09123541786404729,0.119876776898622,-0.0267582256346941,0.09378781169652939,0.3179874420166016,0.01849251985549927,-0.02838948369026184,0.01838767528533936,XArbitraryZVertical,0.004814771339501617,0.07503156884232827,0.7551404994496971,0.6512372279824699,0.09045504778623581,-0.1195898726582527,-0.9886941909790039,0,0,0,-1,-1,5405.231111375,unknown,2,2022-06-30T09:59:18.119+02:00,2022-06-30T08:20:05.567+02:00,1493,1.407114,0,0,1178.161,0,0,2022-06-30T09:59:18.119+02:00
2022-06-30T09:59:20.287+02:00,5407.39837675,0.1000213623046875,-0.1282958984375,-0.9986724853515625,5407.38842475,1.71572642086673,0.09174524911186617,0.119764549297382,-0.03554932028055191,0.08437283337116241,0.2572682797908783,0.02076434344053268,-0.06066642701625824,0.007948338985443115,XArbitraryZVertical,0.004475890315131983,0.07516201060261556,0.7560914849238598,0.6501202732217509,0.09096033126115799,-0.1194784492254257,-0.9886612892150879,0,0,0,-1,-1,5405.231111375,unknown,2,2022-06-30T09:59:18.119+02:00,2022-06-30T08:20:05.567+02:00,1493,1.407114,0,0,1178.161,0,0,2022-06-30T09:59:18.119+02:00
2022-06-30T09:59:20.297+02:00,5407.40832775,0.0962371826171875,-0.1229095458984375,-0.9946136474609375,5407.39837675,1.718121941850988,0.09225758481110975,0.1196933407564321,-0.01693142764270306,0.08104068040847778,0.2199518084526062,0.01749520748853683,-0.05310773104429245,-0.007348716259002686,XArbitraryZVertical,0.004168709754835834,0.07530680642284693,0.7568712662871441,0.6491974931416419,0.09146762639284134,-0.1194077506661415,-0.9886230230331421,0,0,0,-1,-1,5405.231111375,unknown,2,2022-06-30T09:59:18.119+02:00,2022-06-30T08:20:05.567+02:00,1493,1.407114,0,0,1178.161,0,0,2022-06-30T09:59:18.119+02:00
2022-06-30T09:59:20.307+02:00,5407.418279750001,0.0937957763671875,-0.1345672607421875,-0.9885406494140625,5407.40832775,1.720137801489894,0.09275409500441822,0.119811309709956,0.01267460081726313,0.07655104994773865,0.1844971925020218,0.008064001798629761,-0.00877062976360321,-0.0101090669631958,XArbitraryZVertical,0.003943237905697891,0.0755164140511181,0.757525327715856,0.6484111950317689,0.09195717424154282,-0.1195248737931252,-0.9885634183883667,0,0,0,-1,-1,5405.231111375,unknown,2,2022-06-30T09:59:18.119+02:00,2022-06-30T08:20:05.567+02:00,1493,1.407114,0,0,1178.161,0,0,2022-06-30T09:59:18.119+02:00
2022-06-30T09:59:20.317+02:00,5407.428230750001,0.0933685302734375,-0.1217041015625,-0.9720458984375,5407.418279750001,1.721795680626397,0.0932404003358412,0.1202580397880025,0.04423492401838303,0.06931417435407639,0.1519871801137924,0.003804080188274384,-0.002940773963928223,-0.006148338317871094,XArbitraryZVertical,0.003841948370724669,0.07584567293335322,0.7580601078661492,0.6477480877095824,0.09243292361497879,-0.1199683845043182,-0.9884653687477112,0,0,0,-1,-1,5405.231111375,unknown,2,2022-06-30T09:59:18.119+02:00,2022-06-30T08:20:05.567+02:00,1493,1.407114,0,0,1178.161,0,0,2022-06-30T09:59:18.119+02:00
2022-06-30T09:59:20.327+02:00,5407.43818275,0.0950927734375,-0.1326446533203125,-0.9687652587890625,5407.428230750001,1.723105826658823,0.09370563185134172,0.1208214267872299,0.05049028992652893,0.06332861632108688,0.1179154291749001,0.0009091570973396301,-0.01403918862342834,-0.0001859068870544434,XArbitraryZVertical,0.003799356822478192,0.07621135177960817,0.7584808514619978,0.6472127612545889,0.09288644045591354,-0.1205276846885681,-0.9883548021316528,0,0,0,-1,-1,5405.231111375,unknown,2,2022-06-30T09:59:18.119+02:00,2022-06-30T08:20:05.567+02:00,1493,1.407114,0,0,1178.161,0,0,2022-06-30T09:59:18.119+02:00
2022-06-30T09:59:20.337+02:00,5407.44813375,0.099761962890625,-0.14898681640625,-0.9595794677734375,5407.43818275,1.724015191391925,0.09414354915460837,0.1215714570351105,0.08927284181118011,0.05044637620449066,0.07874086499214172,5.762279033660889e-05,-0.0004314929246902466,0.01617777347564697,XArbitraryZVertical,0.003842756739892367,0.07663787084169316,0.7587700925656465,0.6468229164873639,0.09331072121858597,-0.1212722137570381,-0.9882237315177917,0,0,0,-1,-1,5405.231111375,unknown,2,2022-06-30T09:59:18.119+02:00,2022-06-30T08:20:05.567+02:00,1493,1.407114,0,0,1178.161,0,0,2022-06-30T09:59:18.119+02:00
2022-06-30T09:59:20.347+02:00,5407.45808575,0.0955963134765625,-0.1575469970703125,-0.9601593017578125,5407.44813375,1.724539937779386,0.09446687623362356,0.1225769883627279,0.1009484082460403,0.03442531079053879,0.04447530582547188,0.001473903656005859,-0.01037400215864182,0.01930630207061768,XArbitraryZVertical,0.004027239363589156,0.07712309370062724,0.7589325404645816,0.6465734874803731,0.09361869096755981,-0.1222702637314796,-0.988071620464325,0,0,0,-1,-1,5405.231111375,unknown,2,2022-06-30T09:59:18.119+02:00,2022-06-30T08:20:05.567+02:00,1493,1.407114,0,0,1178.161,0,0,2022-06-30T09:59:18.119+02:00
2022-06-30T09:59:20.357+02:00,5407.46803675,0.0935211181640625,-0.15582275390625,-0.965606689453125,5407.45808575,1.724571065347388,0.09546022842246983,0.12495535255548,0.1013955473899841,0.02839670889079571,0.001190680777654052,0.005189627408981323,-0.02435599267482758,0.02810633182525635,XArbitraryZVertical,0.004423200420071792,0.07834222216128735,0.7589255811540155,0.6464325219613456,0.09457216411828995,-0.1246304363012314,-0.9876858592033386,0,0,0,-1,-1,5405.231111375,unknown,2,2022-06-30T09:59:18.119+02:00,2022-06-30T08:20:05.567+02:00,1493,1.407114,0,0,1178.161,0,0,2022-06-30T09:59:18.119+02:00
2022-06-30T09:59:20.367+02:00,5407.47798775,0.096832275390625,-0.153076171875,-0.977508544921875,5407.46803675,1.724209220294025,0.09635401394161688,0.1286690838534096,0.05842344835400581,0.02625465579330921,-0.04325674474239349,0.0001864209771156311,-0.02923226356506348,0.02697408199310303,XArbitraryZVertical,0.005307262045134004,0.08003196951437873,0.7587793755697093,0.6463904265400706,0.09540971368551254,-0.128314346075058,-0.9871334433555603,0,0,0,-1,-1,5405.231111375,unknown,2,2022-06-30T09:59:18.119+02:00,2022-06-30T08:20:05.567+02:00,1493,1.407114,0,0,1178.161,0,0,2022-06-30T09:59:18.119+02:00
2022-06-30T09:59:20.377+02:00,5407.48793975,0.1000518798828125,-0.147003173828125,-1.000701904296875,5407.47798775,1.723494403385669,0.09708574908323898,0.1310819038988103,-0.004474292043596506,0.02705759927630424,-0.08387687802314758,-0.002580776810646057,-0.02511553466320038,0.02114558219909668,XArbitraryZVertical,0.005844157400005754,0.08117680890643461,0.7585289022944514,0.6465371480739602,0.09610172361135483,-0.1307068467140198,-0.9867523312568665,0,0,0,-1,-1,5405.231111375,unknown,2,2022-06-30T09:59:18.119+02:00,2022-06-30T08:20:05.567+02:00,1493,1.407114,0,0,1178.161,0,0,2022-06-30T09:59:18.119+02:00
2022-06-30T09:59:20.387+02:00,5407.49789075,0.097625732421875,-0.1110992431640625,-1.003326416015625,5407.48793975,1.722570318769608,0.09768481856307071,0.1307349577563638,0.00399835454300046,0.03266608342528343,-0.09545966237783432,0.0001348331570625305,-0.02271290123462677,0.009231090545654297,XArbitraryZVertical,0.005541481859553537,0.08123706243602978,0.7582348978914778,0.6468768053691677,0.09669725596904755,-0.130362868309021,-0.9867396354675293,0,0,0,-1,-1,5405.231111375,unknown,2,2022-06-30T09:59:18.119+02:00,2022-06-30T08:20:05.567+02:00,1493,1.407114,0,0,1178.161,0,0,2022-06-30T09:59:18.119+02:00
2022-06-30T09:59:20.397+02:00,5407.50784275,0.09051513671875,-0.1016082763671875,-1.001235961914062,5407.49789075,1.72172246286069,0.09810562003882096,0.1304566864420835,0.04257051274180412,0.03313426673412323,-0.06797530502080917,0.002935677766799927,-0.01691581308841705,-0.01396697759628296,XArbitraryZVertical,0.00532572535593558,0.08126599241438107,0.7579642013623757,0.6471922059060365,0.09711601585149765,-0.1300869584083557,-0.986734926700592,0,0,0,-1,-1,5405.231111375,unknown,2,2022-06-30T09:59:18.119+02:00,2022-06-30T08:20:05.567+02:00,1493,1.407114,0,0,1178.161,0,0,2022-06-30T09:59:18.119+02:00
2022-06-30T09:59:20.407+02:00,5407.51779375,0.0901947021484375,-0.11688232421875,-0.996368408203125,5407.50784275,1.721249880679159,0.09835610829606367,0.1312353328289642,0.07438842952251434,0.04316197708249092,-0.01928316801786423,0.0002723410725593567,0.01976011693477631,-0.01671695709228516,XArbitraryZVertical,0.005503946922387507,0.08163920384157981,0.757805102731672,0.6473301746718838,0.09735320508480072,-0.1308589577674866,-0.9866095185279846,0,0,0,-1,-1,5405.231111375,unknown,2,2022-06-30T09:59:18.119+02:00,2022-06-30T08:20:05.567+02:00,1493,1.407114,0,0,1178.161,0,0,2022-06-30T09:59:18.119+02:00
2022-06-30T09:59:20.417+02:00,5407.527745750001,0.097503662109375,-0.1290130615234375,-0.9859771728515625,5407.51779375,1.721207781365155,0.09877534083493346,0.1317114608270916,0.085528165102005,0.0554593913257122,0.02557191997766495,-0.007245704531669617,0.02972307801246643,-0.01472955942153931,XArbitraryZVertical,0.005502093209573795,0.08195417733968174,0.7577884155123951,0.6473099074673556,0.09776065498590469,-0.1313309669494629,-0.986506462097168,0,0,0,-1,-1,5405.231111375,unknown,2,2022-06-30T09:59:18.119+02:00,2022-06-30T08:20:05.567+02:00,1493,1.407114,0,0,1178.161,0,0,2022-06-30T09:59:18.119+02:00
2022-06-30T09:59:20.427+02:00,5407.537696750001,0.1004791259765625,-0.123260498046875,-0.971038818359375,5407.527745750001,1.721565535105422,0.09929836196488406,0.1327819753371654,0.08156518638134003,0.06722338497638702,0.06090524420142174,-0.008068099617958069,0.01551021635532379,-0.01005369424819946,XArbitraryZVertical,0.005638270769140771,0.0825277913062904,0.7578960817869826,0.6471096467940778,0.09826261550188065,-0.1323921382427216,-0.9863147735595703,0,0,0,-1,-1,5405.231111375,unknown,2,2022-06-30T09:59:18.119+02:00,2022-06-30T08:20:05.567+02:00,1493,1.407114,0,0,1178.161,0,0,2022-06-30T09:59:18.119+02:00
2022-06-30T09:59:20.436+02:00,5407.54764875,0.09710693359375,-0.1301116943359375,-0.9729156494140625,5407.537696750001,1.722156765984921,0.1000004262276276,0.1341876666062671,0.02111675590276718,0.07497318089008331,0.07091766595840454,-0.001432888209819794,0.004772648215293884,8.213520050048828e-05,XArbitraryZVertical,0.005805935863178516,0.0832862882736765,0.7580765960469941,0.64679948252482,0.09893637150526047,-0.1337853223085403,-0.9860593676567078,0,0,0,-1,-1,5405.231111375,unknown,2,2022-06-30T09:59:18.119+02:00,2022-06-30T08:20:05.567+02:00,1493,1.407114,0,0,1178.161,0,0,2022-06-30T09:59:18.119+02:00
2022-06-30T09:59:20.446+02:00,5407.55759975,0.0969085693359375,-0.120025634765625,-0.9718475341796875,5407.54764875,1.722889162786644,0.1005299021104138,0.1354542164836692,-0.008107376284897327,0.08322984725236893,0.07288090884685516,0.001037582755088806,0.0117802619934082,0.01479858160018921,XArbitraryZVertical,0.005987325224352548,0.08393699630627194,0.7583032484739034,0.6464478380508114,0.09944136440753937,-0.1350403875112534,-0.985837459564209,0,0,0,-1,-1,5405.231111375,unknown,2,2022-06-30T09:59:18.119+02:00,2022-06-30T08:20:05.567+02:00,1493,1.407114,0,0,1178.161,0,0,2022-06-30T09:59:18.119+02:00
2022-06-30T09:59:20.456+02:00,5407.56755175,0.0989532470703125,-0.116943359375,-0.97369384765625,5407.55759975,1.72371718761686,0.1009920862930694,0.1363878922132778,-0.02015258744359016,0.08502002060413361,0.08004667609930038,-0.00277748703956604,0.005854144692420959,0.01274985074996948,XArbitraryZVertical,0.006081332862703261,0.08444081749434104,0.7585634603071985,0.64607611017781,0.09988423436880112,-0.1359654515981674,-0.9856655597686768,0,0,0,-1,-1,5405.231111375,unknown,2,2022-06-30T09:59:18.119+02:00,2022-06-30T08:20:05.567+02:00,1493,1.407114,0,0,1178.161,0,0,2022-06-30T09:59:18.119+02:00
2022-06-30T09:59:20.466+02:00,5407.57750275,0.1045989990234375,-0.130157470703125,-0.976348876953125,5407.56755175,1.72459639576009,0.1015376285978982,0.136997531276929,-0.02281907759606838,0.08474334329366684,0.08423496782779694,-0.003505133092403412,0.0165441483259201,0.01368063688278198,XArbitraryZVertical,0.006035650215833288,0.08484955354857782,0.7588432830472467,0.6456943110963996,0.1004135236144066,-0.1365693956613541,-0.9855282306671143,0,0,0,-1,-1,5405.231111375,unknown,2,2022-06-30T09:59:18.119+02:00,2022-06-30T08:20:05.567+02:00,1493,1.407114,0,0,1178.161,0,0,2022-06-30T09:59:18.119+02:00
2022-06-30T09:59:20.476+02:00,5407.587454750001,0.107147216796875,-0.12994384765625,-0.97076416015625,5407.57750275,1.725478941735599,0.1021493377424806,0.1372532014934626,-0.009130163118243217,0.08494147658348083,0.08847711980342865,-0.002059727907180786,0.01987969875335693,0.01173794269561768,XArbitraryZVertical,0.005849192432748946,0.08514606079001903,0.7591275154701735,0.645322645246588,0.101012796163559,-0.1368226706981659,-0.9854318499565125,0,0,0,-1,-1,5405.231111375,unknown,2,2022-06-30T09:59:18.119+02:00,2022-06-30T08:20:05.567+02:00,1493,1.407114,0,0,1178.161,0,0,2022-06-30T09:59:18.119+02:00
2022-06-30T09:59:20.493+02:00,5407.597405750001,0.0954437255859375,-0.11712646484375,-0.9779815673828125,5407.587454750001,1.726495136609979,0.1027435502301389,0.1362011485604574,-0.02053455077111721,0.08484038710594177,0.1075775399804115,0.002985775470733643,0.005623355507850647,0.009165406227111816,XArbitraryZVertical,0.005238240578250773,0.0849435262038498,0.7594667623916525,0.6449554552529508,0.1016130447387695,-0.1357804387807846,-0.9855143427848816,0,0,0,-1,-1,5405.231111375,unknown,2,2022-06-30T09:59:18.119+02:00,2022-06-30T08:20:05.567+02:00,1493,1.407114,0,0,1178.161,0,0,2022-06-30T09:59:18.119+02:00
2022-06-30T09:59:20.509+02:00,5407.607356750001,0.0898590087890625,-0.1121826171875,-0.9855194091796875,5407.597405750001,1.727694258723369,0.103071601408037,0.1348832205562975,-0.008825697004795074,0.08800315111875534,0.1193013116717339,0.005192376673221588,0.004531130194664001,0.01489382982254028,XArbitraryZVertical,0.004634462992536356,0.0845546369674377,0.7598660359704584,0.6445406471624414,0.1019546613097191,-0.134474590420723,-0.9856580495834351,0,0,0,-1,-1,5405.231111375,unknown,2,2022-06-30T09:59:18.119+02:00,2022-06-30T08:20:05.567+02:00,1493,1.407114,0,0,1178.161,0,0,2022-06-30T09:59:18.119+02:00
2022-06-30T09:59:20.511+02:00,5407.61730875,0.0887298583984375,-0.1190185546875,-0.9856719970703125,5407.607356750001,1.728964185214416,0.1033533063223784,0.134441500648698,0.01870972290635109,0.09042260050773621,0.124422200024128,-0.006794899702072144,0.01691080629825592,0.007706701755523682,XArbitraryZVertical,0.004330271538796436,0.08448136139991301,0.7602796805571375,0.6440643881496918,0.1022384390234947,-0.1340368688106537,-0.9856882691383362,0,0,0,-1,-1,5405.231111375,unknown,2,2022-06-30T09:59:18.119+02:00,2022-06-30T08:20:05.567+02:00,1493,1.407114,0,0,1178.161,0,0,2022-06-30T09:59:18.119+02:00
2022-06-30T09:59:20.516+02:00,5407.62725975,0.0922088623046875,-0.139068603515625,-0.98321533203125,5407.61730875,1.730177962555726,0.1039433845135475,0.1346692577481168,0.0307000745087862,0.09582775086164474,0.1173629611730576,-0.01295805722475052,0.02208034694194794,7.796287536621094e-05,XArbitraryZVertical,0.004128473498078229,0.08475995900066688,0.760669664132373,0.6435685764789366,0.1028168797492981,-0.1342625766992569,-0.9855974316596985,0,0,0,-1,-1,5405.231111375,unknown,2,2022-06-30T09:59:18.119+02:00,2022-06-30T08:20:05.567+02:00,1493,1.407114,0,0,1178.161,0,0,2022-06-30T09:59:18.119+02:00
2022-06-30T09:59:20.526+02:00,5407.63721175,0.0944061279296875,-0.1401519775390625,-0.9814300537109375,5407.62725975,1.73121056862162,0.1047176779769921,0.1347364034560972,0.02498146705329418,0.09304925054311752,0.09081417322158813,-0.01484937220811844,0.01531095802783966,-0.0001634955406188965,XArbitraryZVertical,0.00381186134962503,0.08503647455631026,0.7610027780708164,0.6431400527359002,0.1035790517926216,-0.1343291103839874,-0.9855085611343384,0,0,0,-1,-1,5405.231111375,unknown,2,2022-06-30T09:59:18.119+02:00,2022-06-30T08:20:05.567+02:00,1493,1.407114,0,0,1178.161,0,0,2022-06-30T09:59:18.119+02:00
2022-06-30T09:59:20.536+02:00,5407.64716275,0.0924072265625,-0.1264495849609375,-0.9716339111328125,5407.63721175,1.73196576526803,0.1053492703785876,0.1349103499212858,0.008289307355880737,0.08553381264209747,0.06112658604979515,-0.01199032366275787,-0.004566743969917297,0.002204239368438721,XArbitraryZVertical,0.003595725037715043,0.0853067289385445,0.7612452225872604,0.6428183909714728,0.1041990146040916,-0.1345014721155167,-0.9854196906089783,0,0,0,-1,-1,5405.231111375,unknown,2,2022-06-30T09:59:18.119+02:00,2022-06-30T08:20:05.567+02:00,1493,1.407114,0,0,1178.161,0,0,2022-06-30T09:59:18.119+02:00
2022-06-30T09:59:20.546+02:00,5407.65711475,0.0881500244140625,-0.133392333984375,-0.9735107421875,5407.64716275,1.732417160651549,0.1059551118406861,0.1344186033025345,-0.03192183002829552,0.08267376571893692,0.02022818848490715,-0.01039702445268631,-0.006137415766716003,0.003991901874542236,XArbitraryZVertical,0.003186488114949256,0.0853161355831759,0.7613955036833538,0.6426412611621576,0.1048029810190201,-0.1340141743421555,-0.9854220151901245,0,0,0,-1,-1,5405.231111375,unknown,2,2022-06-30T09:59:18.119+02:00,2022-06-30T08:20:05.567+02:00,1493,1.407114,0,0,1178.161,0,0,2022-06-30T09:59:18.119+02:00
2022-06-30T09:59:20.556+02:00,5407.66706575,0.0919036865234375,-0.1234588623046875,-0.97900390625,5407.65711475,1.732485219689168,0.1066492035296619,0.1334974073218112,-0.05080363899469376,0.08520829677581787,-0.01744675263762474,-0.01309297978878021,0.006652042269706726,0.01383739709854126,XArbitraryZVertical,0.00262085343945228,0.0851906726627643,0.7614260228501217,0.6426243365664556,0.1055000275373459,-0.1331012398004532,-0.9854713678359985,0,0,0,-1,-1,5405.231111375,unknown,2,2022-06-30T09:59:18.119+02:00,2022-06-30T08:20:05.567+02:00,1493,1.407114,0,0,1178.161,0,0,2022-06-30T09:59:18.119+02:00
2022-06-30T09:59:20.566+02:00,5407.67701775,0.093109130859375,-0.0976104736328125,-0.9819488525390625,5407.66706575,1.732207810277043,0.1075548508487816,0.133013299836665,-0.02274690568447113,0.08554349839687347,-0.04626471921801567,-0.01824952661991119,-0.0007705241441726685,0.01192855834960938,XArbitraryZVertical,0.002131035409773724,0.08529817430801778,0.7613418522061344,0.6427117085748327,0.10639937967062,-0.1326214224100113,-0.9854393601417542,0,0,0,-1,-1,5405.231111375,unknown,2,2022-06-30T09:59:18.119+02:00,2022-06-30T08:20:05.567+02:00,1493,1.407114,0,0,1178.161,0,0,2022-06-30T09:59:18.119+02:00
2022-06-30T09:59:20.576+02:00,5407.68696875,0.0867919921875,-0.09967041015625,-0.986236572265625,5407.67701775,1.731685342939885,0.1084796843307676,0.1329464103139882,0.03048249334096909,0.07380375266075134,-0.05252980813384056,-0.01540814340114594,0.009096652269363403,0.006345391273498535,XArbitraryZVertical,0.001779653961874313,0.0855695971260136,0.7611753600510899,0.6428738761294946,0.1073116585612297,-0.1325551271438599,-0.9853493571281433,0,0,0,-1,-1,5405.231111375,unknown,2,2022-06-30T09:59:18.119+02:00,2022-06-30T08:20:05.567+02:00,1493,1.407114,0,0,1178.161,0,0,2022-06-30T09:59:18.119+02:00
2022-06-30T09:59:20.586+02:00,5407.69691975,0.0854034423828125,-0.092620849609375,-0.98309326171875,5407.68696875,1.731221926631697,0.108951581468763,0.1330206305166536,0.07814382016658783,0.07257747650146484,-0.03641651570796967,-0.0146666094660759,0.03501859307289124,0.003339886665344238,XArbitraryZVertical,0.001643983857175474,0.08574897607574138,0.7610262138010755,0.6430268662734201,0.1077755615115166,-0.1326286941766739,-0.9852887988090515,0,0,0,-1,-1,5405.231111375,unknown,2,2022-06-30T09:59:18.119+02:00,2022-06-30T08:20:05.567+02:00,1493,1.407114,0,0,1178.161,0,0,2022-06-30T09:59:18.119+02:00
2022-06-30T09:59:20.595+02:00,5407.706871750001,0.0848541259765625,-0.0931396484375,-0.9775390625,5407.69691975,1.730916877021917,0.1091924212867919,0.133275657109097,0.09502666443586349,0.07121633738279343,-0.01779303140938282,-0.02121734619140625,0.03321143984794617,-0.001007437705993652,XArbitraryZVertical,0.001648139255150843,0.0859226039882344,0.7609263664761007,0.64312174683757,0.1080091670155525,-0.1328814625740051,-0.9852291941642761,0,0,0,-1,-1,5405.231111375,unknown,2,2022-06-30T09:59:18.119+02:00,2022-06-30T08:20:05.567+02:00,1493,1.407114,0,0,1178.161,0,0,2022-06-30T09:59:18.119+02:00
2022-06-30T09:59:20.605+02:00,5407.716822750001,0.0895843505859375,-0.0971527099609375,-0.9716339111328125,5407.706871750001,1.730836958705202,0.1093606630607072,0.133920304654951,0.1146291941404343,0.07084420323371887,0.01278255507349968,-0.02276229113340378,0.04089991748332977,0.002032339572906494,XArbitraryZVertical,0.001796656673421918,0.08622036638711472,0.7608958493698684,0.6431176906810651,0.1081655472517014,-0.1335203647613525,-0.9851256608963013,0,0,0,-1,-1,5405.231111375,unknown,2,2022-06-30T09:59:18.119+02:00,2022-06-30T08:20:05.567+02:00,1493,1.407114,0,0,1178.161,0,0,2022-06-30T09:59:18.119+02:00
2022-06-30T09:59:20.616+02:00,5407.72677475,0.096038818359375,-0.124786376953125,-0.9586944580078125,5407.716822750001,1.731006457976365,0.1095809170232215,0.1352822809107908,0.1139117330312729,0.06870994716882706,0.03064570762217045,-0.02350859344005585,0.04173076152801514,0.007381021976470947,XArbitraryZVertical,0.002147256573550055,0.08680627454563127,0.7609398510314621,0.6429857900958162,0.1083625331521034,-0.1348700225353241,-0.9849201440811157,0,0,0,-1,-1,5405.231111375,unknown,2,2022-06-30T09:59:18.119+02:00,2022-06-30T08:20:05.567+02:00,1493,1.407114,0,0,1178.161,0,0,2022-06-30T09:59:18.119+02:00
2022-06-30T09:59:20.625+02:00,5407.73672575,0.100830078125,-0.146087646484375,-0.944854736328125,5407.72677475,1.731268977752497,0.1097654833570233,0.1364248354483928,0.06599294394254684,0.05673903971910477,0.03033411875367165,-0.018943190574646,0.03884972631931305,0.01311230659484863,XArbitraryZVertical,0.002436112029002139,0.08729788692678907,0.761015207237416,0.6428288587100008,0.1085273623466492,-0.1360020488500595,-0.9847462773323059,0,0,0,-1,-1,5405.231111375,unknown,2,2022-06-30T09:59:18.119+02:00,2022-06-30T08:20:05.567+02:00,1493,1.407114,0,0,1178.161,0,0,2022-06-30T09:59:18.119+02:00
2022-06-30T09:59:20.635+02:00,5407.74667775,0.097015380859375,-0.135345458984375,-0.9364776611328125,5407.73672575,1.73154658845767,0.1098297386824878,0.1365428123885431,-0.009274373762309551,0.04232121631503105,0.02014619670808315,-0.0125502422451973,0.01133294403553009,0.02602887153625488,XArbitraryZVertical,0.002437800112989542,0.08736347422945503,0.7611035527590527,0.6427154995886936,0.108588881790638,-0.1361189186573029,-0.9847233891487122,0,0,0,-1,-1,5405.231111375,unknown,2,2022-06-30T09:59:18.119+02:00,2022-06-30T08:20:05.567+02:00,1493,1.407114,0,0,1178.161,0,0,2022-06-30T09:59:18.119+02:00
2022-06-30T09:59:20.645+02:00,5407.75662875,0.091796875,-0.124359130859375,-0.935638427734375,5407.74667775,1.731799449588872,0.1097343511527443,0.1362077844411933,-0.05421414971351624,0.03129173442721367,0.009859469719231129,-0.007670029997825623,-0.01030024886131287,0.03992420434951782,XArbitraryZVertical,0.002354450909120378,0.08720643929154656,0.7611874243021852,0.6426377239607004,0.1084999367594719,-0.1357870101928711,-0.9847790002822876,0,0,0,-1,-1,5405.231111375,unknown,2,2022-06-30T09:59:18.119+02:00,2022-06-30T08:20:05.567+02:00,1493,1.407114,0,0,1178.161,0,0,2022-06-30T09:59:18.119+02:00
2022-06-30T09:59:20.655+02:00,5407.766580750001,0.092620849609375,-0.1178131103515625,-0.9273223876953125,5407.75662875,1.731962430963135,0.1096558201431898,0.1353758138827159,-0.07036463171243668,0.01368184946477413,0.002423391444608569,-0.01141972094774246,-0.0003823786973953247,0.04842174053192139,XArbitraryZVertical,0.002107572855941803,0.08686673258799038,0.7612464351278956,0.642614782088996,0.1084349304437637,-0.1349626928567886,-0.9848994612693787,0,0,0,-1,-1,5405.231111375,unknown,2,2022-06-30T09:59:18.119+02:00,2022-06-30T08:20:05.567+02:00,1493,1.407114,0,0,1178.161,0,0,2022-06-30T09:59:18.119+02:00
2022-06-30T09:59:20.665+02:00,5407.776531750001,0.09393310546875,-0.1157989501953125,-0.93463134765625,5407.766580750001,1.732112330622837,0.1095198319239828,0.1340986487745397,-0.07692532241344452,0.004537885077297688,0.01195005141198635,-0.01652304828166962,0.009338364005088806,0.0494462251663208,XArbitraryZVertical,0.001738887023547437,0.08634010308446684,0.761304549212942,0.6426178873387678,0.1083197444677353,-0.1336971074342728,-0.9850847125053406,0,0,0,-1,-1,5405.231111375,unknown,2,2022-06-30T09:59:18.119+02:00,2022-06-30T08:20:05.567+02:00,1493,1.407114,0,0,1178.161,0,0,2022-06-30T09:59:18.119+02:00
2022-06-30T09:59:20.676+02:00,5407.78648375,0.091705322265625,-0.11322021484375,-0.9357452392578125,5407.776531750001,1.732457317268127,0.1092551176347758,0.1330477734653366,-0.05738924071192741,-0.0005551557987928391,0.03434846550226212,-0.01545355468988419,0.01484286785125732,0.05793005228042603,XArbitraryZVertical,0.001484252723582356,0.0858577632450116,0.7614232891621404,0.6425424993736115,0.1080742329359055,-0.1326555907726288,-0.9852524995803833,0,0,0,-1,-1,5407.77877575,unknown,2,2022-06-30T09:59:20.667+02:00,2022-06-30T08:20:05.567+02:00,1493,1.407114,0,0,1178.161,0,0,2022-06-30T09:59:20.666+02:00
2022-06-30T09:59:20.685+02:00,5407.79643475,0.080810546875,-0.121337890625,-0.9221343994140625,5407.78648375,1.732988681992107,0.1088486430758646,0.1322227574420511,-0.04865420237183571,-0.02628213912248611,0.05402636528015137,-0.01375266909599304,0.01603925228118896,0.05077338218688965,XArbitraryZVertical,0.001348979454201162,0.08541536139485181,0.7615999723823137,0.642392432619066,0.1076855957508087,-0.1318378150463104,-0.9854047894477844,0,0,0,-1,-1,5407.77877575,unknown,2,2022-06-30T09:59:20.667+02:00,2022-06-30T08:20:05.567+02:00,1493,1.407114,0,0,1178.161,0,0,2022-06-30T09:59:20.666+02:00
2022-06-30T09:59:20.695+02:00,5407.80638575,0.07421875,-0.127532958984375,-0.9201202392578125,5407.79643475,1.733728040438679,0.1082252134205095,0.1313465143264829,-0.07863127440214157,-0.03639895468950272,0.07350392639636993,-0.01537853479385376,0.0177493542432785,0.04984086751937866,XArbitraryZVertical,0.001271152228968702,0.08488394166878808,0.7618435985108645,0.6421740060591383,0.107083685696125,-0.1309691816568375,-0.9855862259864807,0,0,0,-1,-1,5407.77877575,unknown,2,2022-06-30T09:59:20.667+02:00,2022-06-30T08:20:05.567+02:00,1493,1.407114,0,0,1178.161,0,0,2022-06-30T09:59:20.666+02:00
2022-06-30T09:59:20.705+02:00,5407.81633775,0.0831756591796875,-0.09967041015625,-0.91949462890625,5407.80638575,1.734592137674563,0.1076588532418571,0.1303232630174541,-0.09982737898826599,-0.03446295857429504,0.07404667884111404,-0.02572944015264511,0.008617162704467773,0.06364494562149048,XArbitraryZVertical,0.001119143704116432,0.08431512750723677,0.7621282966805557,0.6419113569937813,0.1065398156642914,-0.1299546658992767,-0.9857794046401978,0,0,0,-1,-1,5407.77877575,unknown,2,2022-06-30T09:59:20.667+02:00,2022-06-30T08:20:05.567+02:00,1493,1.407114,0,0,1178.161,0,0,2022-06-30T09:59:20.666+02:00
2022-06-30T09:59:20.715+02:00,5407.82628875,0.0825653076171875,-0.1240234375,-0.9225921630859375,5407.81633775,1.735452915545896,0.1070856994501933,0.1293514744601996,-0.1079079434275627,-0.05033273622393608,0.075655497610569,-0.03176966309547424,0.001458495855331421,0.06584513187408447,XArbitraryZVertical,0.0009870027184867441,0.0837634700311571,0.7624113856507088,0.6416475156739233,0.1059882417321205,-0.1289910674095154,-0.9859654307365417,0,0,0,-1,-1,5407.77877575,unknown,2,2022-06-30T09:59:20.667+02:00,2022-06-30T08:20:05.567+02:00,1493,1.407114,0,0,1178.161,0,0,2022-06-30T09:59:20.666+02:00
2022-06-30T09:59:20.725+02:00,5407.83624075,0.069000244140625,-0.160400390625,-0.9138336181640625,5407.82628875,1.736227075184331,0.1064201063871378,0.1283562400712237,-0.1365084946155548,-0.06319174915552139,0.04875253885984421,-0.0221700593829155,0.02833406627178192,0.06666821241378784,XArbitraryZVertical,0.0008866253689803947,0.08317308123069059,0.7626666950775569,0.6414211628657402,0.1053455471992493,-0.1280040740966797,-0.9861629009246826,0,0,0,-1,-1,5407.77877575,unknown,2,2022-06-30T09:59:20.667+02:00,2022-06-30T08:20:05.567+02:00,1493,1.407114,0,0,1178.161,0,0,2022-06-30T09:59:20.666+02:00
2022-06-30T09:59:20.735+02:00,5407.84619175,0.0442352294921875,-0.1659393310546875,-0.8948822021484375,5407.83624075,1.736404798075804,0.1057109004415752,0.1267968119951137,-0.1929512619972229,-0.07011676579713821,-0.05898244678974152,-0.02210193127393723,0.002434283494949341,0.06384247541427612,XArbitraryZVertical,0.0006455692255209377,0.08235441334042166,0.7627346416990403,0.6414462631523461,0.104667067527771,-0.1264573186635971,-0.9864346385002136,0,0,0,-1,-1,5407.77877575,unknown,2,2022-06-30T09:59:20.667+02:00,2022-06-30T08:20:05.567+02:00,1493,1.407114,0,0,1178.161,0,0,2022-06-30T09:59:20.666+02:00
2022-06-30T09:59:20.745+02:00,5407.85614375,0.030517578125,-0.178009033203125,-0.8621063232421875,5407.84619175,1.735129817761966,0.1052102805343584,0.1243952924914301,-0.2651281952857971,-0.0571160726249218,-0.2495516389608383,-0.03520474582910538,-0.03632528334856033,0.07295244932174683,XArbitraryZVertical,0.0001119547363985531,0.08128304373923848,0.7623420244363065,0.6420497204973356,0.1042048186063766,-0.1240747198462486,-0.9867861270904541,0,0,0,-1,-1,5407.77877575,unknown,2,2022-06-30T09:59:20.667+02:00,2022-06-30T08:20:05.567+02:00,1493,1.407114,0,0,1178.161,0,0,2022-06-30T09:59:20.666+02:00
2022-06-30T09:59:20.755+02:00,5407.86609475,0.03057861328125,-0.1362762451171875,-0.8048553466796875,5407.85614375,1.731777935832716,0.1050462861398743,0.1211204042209975,-0.3213089108467102,-0.05236286297440529,-0.4937565624713898,-0.05984997749328613,-0.04511446505784988,0.09231972694396973,XArbitraryZVertical,-0.0007509649829126146,0.07999028345514381,0.7612856872806407,0.6434633765089615,0.1040850356221199,-0.1208244785666466,-0.987201988697052,0,0,0,-1,-1,5407.77877575,unknown,2,2022-06-30T09:59:20.667+02:00,2022-06-30T08:20:05.567+02:00,1493,1.407114,0,0,1178.161,0,0,2022-06-30T09:59:20.666+02:00
2022-06-30T09:59:20.765+02:00,5407.876046750001,0.0187835693359375,-0.0852813720703125,-0.7383270263671875,5407.86609475,1.725829524885729,0.1050611315313425,0.1168207237484386,-0.4224245548248291,-0.08375360816717148,-0.7795273661613464,-0.07363580167293549,-0.06145345419645309,0.125601589679718,XArbitraryZVertical,-0.00191727793988779,0.07837314048137989,0.7593922195980491,0.6458926709030646,0.1041532084345818,-0.1165551915764809,-0.9877079725265503,0,0,0,-1,-1,5407.77877575,unknown,2,2022-06-30T09:59:20.667+02:00,2022-06-30T08:20:05.567+02:00,1493,1.407114,0,0,1178.161,0,0,2022-06-30T09:59:20.666+02:00
2022-06-30T09:59:20.775+02:00,5407.885997750001,-0.0070037841796875,-0.1276397705078125,-0.6779022216796875,5407.876046750001,1.717087270900898,0.1049972632362665,0.1109813738106599,-0.5602816939353943,-0.1276233196258545,-1.092833399772644,-0.07358124852180481,-0.02552215754985809,0.1835192441940308,XArbitraryZVertical,-0.003459520232853035,0.07616247733885879,0.7565874039623046,0.6494327847796283,0.1041596755385399,-0.1107536926865578,-0.9883745908737183,0,0,0,-1,-1,5407.77877575,unknown,2,2022-06-30T09:59:20.667+02:00,2022-06-30T08:20:05.567+02:00,1493,1.407114,0,0,1178.161,0,0,2022-06-30T09:59:20.666+02:00
2022-06-30T09:59:20.785+02:00,5407.89594975,-0.1259613037109375,-0.2725372314453125,-0.608612060546875,5407.885997750001,1.70486371121982,0.1045517285001676,0.1038686947884807,-0.5906379222869873,-0.2322678565979004,-1.491942882537842,-0.08501551300287247,0.01840104162693024,0.2508522868156433,XArbitraryZVertical,-0.005167875072331303,0.07337306971798718,0.7526261811996044,0.6543268803722475,0.103798896074295,-0.1036820262670517,-0.9891793727874756,0,0,0,-1,-1,5407.77877575,unknown,2,2022-06-30T09:59:20.667+02:00,2022-06-30T08:20:05.567+02:00,1493,1.407114,0,0,1178.161,0,0,2022-06-30T09:59:20.666+02:00
2022-06-30T09:59:20.795+02:00,5407.90590075,-0.538970947265625,-0.3310089111328125,-0.431640625,5407.89594975,1.69283200141923,0.1022566424661079,0.09716557789522939,-0.3932097852230072,-0.3246467709541321,-0.6961474418640137,-0.1086010187864304,-0.03062663227319717,0.312181830406189,XArbitraryZVertical,-0.006088962025394046,0.070148863706053,0.7486937531034128,0.6591660828105913,0.1015970408916473,-0.09701275825500488,-0.9900841116905212,0,0,0,-1,-1,5407.77877575,unknown,2,2022-06-30T09:59:20.667+02:00,2022-06-30T08:20:05.567+02:00,1493,1.407114,0,0,1178.161,0,0,2022-06-30T09:59:20.666+02:00
2022-06-30T09:59:20.805+02:00,5407.91585175,-0.4522705078125,-0.5122833251953125,-0.39337158203125,5407.90590075,1.686878136320396,0.1008765481441506,0.09037023806013111,-0.9598667025566101,-0.05304887890815735,-0.9135854840278625,-0.2262561023235321,-0.1822895705699921,0.3822442889213562,XArbitraryZVertical,-0.00762458001210215,0.06718379141365693,0.7467370367615175,0.6616736911362467,0.1002946048974991,-0.09024728089570999,-0.990856409072876,0,0,0,-1,-1,5407.77877575,unknown,2,2022-06-30T09:59:20.667+02:00,2022-06-30T08:20:05.567+02:00,1493,1.407114,0,0,1178.161,0,0,2022-06-30T09:59:20.666+02:00
2022-06-30T09:59:20.815+02:00,5407.92580375,-0.167205810546875,-0.6452789306640625,-0.32794189453125,5407.91585175,1.674549510227255,0.1015318470220776,0.07625008935064659,-1.559985041618347,-0.03495429828763008,-1.751741886138916,-0.6400341391563416,-0.2548322975635529,0.5603187084197998,XArbitraryZVertical,-0.01218116318210582,0.06222474136958826,0.7426201716971585,0.6667045040605157,0.1010629832744598,-0.0761762261390686,-0.9919593930244446,0,0,0,-1,-1,5407.77877575,unknown,2,2022-06-30T09:59:20.667+02:00,2022-06-30T08:20:05.567+02:00,1493,1.407114,0,0,1178.161,0,0,2022-06-30T09:59:20.666+02:00
2022-06-30T09:59:20.824+02:00,5407.93575475,-0.2486419677734375,-0.6943817138671875,-0.2357177734375,5407.92580375,1.657769396736035,0.1011863238043648,0.05549248404427461,-2.303956508636475,-0.2576326727867126,-1.997577786445618,-0.5531289577484131,-0.4568189382553101,0.599981963634491,XArbitraryZVertical,-0.01854421818018195,0.05458311284017243,0.7368995802651032,0.6735398049584382,0.100858248770237,-0.055464006960392,-0.9933536052703857,0,0,0,-1,-1,5407.77877575,unknown,2,2022-06-30T09:59:20.667+02:00,2022-06-30T08:20:05.567+02:00,1493,1.407114,0,0,1178.161,0,0,2022-06-30T09:59:20.666+02:00
2022-06-30T09:59:20.835+02:00,5407.945706750001,-0.437408447265625,-0.667236328125,-0.2480621337890625,5407.93575475,1.639098142770003,0.09868091644214878,0.026288144809555,-3.141910076141357,-0.3621284663677216,-2.341145277023315,-0.2656928300857544,-0.6189934611320496,0.6668492555618286,XArbitraryZVertical,-0.02708182179875509,0.04325502194775201,0.7303281093558833,0.6811875502342065,0.09848679602146149,-0.02628511749207973,-0.9947911500930786,0,0,0,-1,-1,5407.77877575,unknown,2,2022-06-30T09:59:20.667+02:00,2022-06-30T08:20:05.567+02:00,1493,1.407114,0,0,1178.161,0,0,2022-06-30T09:59:20.666+02:00
2022-06-30T09:59:20.844+02:00,5407.955657750001,-0.5359039306640625,-0.5770263671875,-0.2171783447265625,5407.945706750001,1.617338212449526,0.09529382122498366,-0.01137180585860333,-3.971823692321777,-0.342901200056076,-2.739578485488892,-0.3437857031822205,-0.7057529091835022,0.7596808671951294,XArbitraryZVertical,-0.03837411797115564,0.02877707705571243,0.7223492682585545,0.6898629163430059,0.09514351189136505,0.01137156039476395,-0.9953986406326294,0,0,0,-1,-1,5407.77877575,unknown,2,2022-06-30T09:59:20.667+02:00,2022-06-30T08:20:05.567+02:00,1493,1.407114,0,0,1178.161,0,0,2022-06-30T09:59:20.666+02:00
2022-06-30T09:59:20.854+02:00,5407.96560975,-0.6178436279296875,-0.5219573974609375,-0.2131195068359375,5407.955657750001,1.592547335209958,0.09083535407365975,-0.05722956978678819,-4.71792459487915,-0.3859261572360992,-3.066508531570435,-0.5279706716537476,-0.7244343161582947,0.746184766292572,XArbitraryZVertical,-0.0524271644497844,0.01131138858001036,0.7128171123944865,0.699296237181677,0.09056198596954346,0.05719833448529243,-0.9942469000816345,0,0,0,-1,-1,5407.77877575,unknown,2,2022-06-30T09:59:20.667+02:00,2022-06-30T08:20:05.567+02:00,1493,1.407114,0,0,1178.161,0,0,2022-06-30T09:59:20.666+02:00
2022-06-30T09:59:20.864+02:00,5407.97556075,-0.6973876953125,-0.4920196533203125,-0.2274627685546875,5407.96560975,1.564963143224116,0.08436972628053234,-0.1102030173247004,-5.411149501800537,-0.4360655248165131,-3.379810810089111,-0.6196626424789429,-0.6870061159133911,0.7732200622558594,XArbitraryZVertical,-0.06870973426308116,-0.008932832487539481,0.7016980045844438,0.7090973969180624,0.08375847339630127,0.1099800914525986,-0.9903983473777771,0,0,0,-1,-1,5407.77877575,unknown,2,2022-06-30T09:59:20.667+02:00,2022-06-30T08:20:05.567+02:00,1493,1.407114,0,0,1178.161,0,0,2022-06-30T09:59:20.666+02:00
2022-06-30T09:59:20.874+02:00,5407.98551275,-0.7569122314453125,-0.458038330078125,-0.253662109375,5407.97556075,1.533740111071846,0.07576058137216791,-0.1700503006260938,-6.062932968139648,-0.4025528430938721,-3.78741979598999,-0.6924403309822083,-0.6911889314651489,0.7696297168731689,XArbitraryZVertical,-0.08729115282464518,-0.0317122952776303,0.688566314586419,0.7192016816597275,0.07459641993045807,0.1692319214344025,-0.9827491641044617,0,0,0,-1,-1,5407.77877575,unknown,2,2022-06-30T09:59:20.667+02:00,2022-06-30T08:20:05.567+02:00,1493,1.407114,0,0,1178.161,0,0,2022-06-30T09:59:20.666+02:00
2022-06-30T09:59:20.884+02:00,5407.99546375,-0.8402099609375,-0.3925628662109375,-0.230010986328125,5407.98551275,1.497765858843321,0.06482119210415548,-0.2356358432599505,-6.574347019195557,-0.32811638712883,-4.201983451843262,-0.7603737711906433,-0.7254806160926819,0.742861270904541,XArbitraryZVertical,-0.1079600002855998,-0.05641499679993955,0.672956175177809,0.7295834741386802,0.06298580020666122,0.2334613054990768,-0.9703239798545837,0,0,0,-1,-1,5407.77877575,unknown,2,2022-06-30T09:59:20.667+02:00,2022-06-30T08:20:05.567+02:00,1493,1.407114,0,0,1178.161,0,0,2022-06-30T09:59:20.666+02:00
2022-06-30T09:59:20.894+02:00,5408.00541575,-0.9484405517578125,-0.3492431640625,-0.2141876220703125,5407.99546375,1.45641207401233,0.05100774655127854,-0.305664059441818,-7.001514911651611,-0.2049736976623535,-4.612215518951416,-0.805534839630127,-0.7589645385742188,0.6987450122833252,XArbitraryZVertical,-0.1303626447963697,-0.08247470613694602,0.6546627484136756,0.7400136931084124,0.04862231016159058,0.3009265065193176,-0.9524070024490356,0,0,0,-1,-1,5407.77877575,unknown,2,2022-06-30T09:59:20.667+02:00,2022-06-30T08:20:05.567+02:00,1493,1.407114,0,0,1178.161,0,0,2022-06-30T09:59:20.666+02:00
2022-06-30T09:59:20.905+02:00,5408.01536675,-1.0374755859375,-0.2764739990234375,-0.191619873046875,5408.00541575,1.408683784361026,0.03390037193943002,-0.3788125407838344,-7.276265621185303,0.006316224113106728,-5.031301498413086,-0.8717012405395508,-0.7623800039291382,0.6985597610473633,XArbitraryZVertical,-0.1542316761061979,-0.1092120838753399,0.6334289720430151,0.750368752314355,0.03149095550179482,0.3698174655437469,-0.9285706281661987,0,0,0,-1,-1,5407.77877575,unknown,2,2022-06-30T09:59:20.667+02:00,2022-06-30T08:20:05.567+02:00,1493,1.407114,0,0,1178.161,0,0,2022-06-30T09:59:20.666+02:00
2022-06-30T09:59:20.914+02:00,5408.02531775,-1.111343383789062,-0.150146484375,-0.1512298583984375,5408.01536675,1.353974084655376,0.01312383155455255,-0.4531771974567481,-7.418493270874023,0.2733449935913086,-5.354999542236328,-0.9602396488189697,-0.7870671153068542,0.6847956776618958,XArbitraryZVertical,-0.1791119538760012,-0.1357472548095681,0.6092722115717505,0.760446653462077,0.01179878134280443,0.4378242194652557,-0.8989831805229187,0,0,0,-1,-1,5407.77877575,unknown,2,2022-06-30T09:59:20.667+02:00,2022-06-30T08:20:05.567+02:00,1493,1.407114,0,0,1178.161,0,0,2022-06-30T09:59:20.666+02:00
2022-06-30T09:59:20.924+02:00,5408.03526975,-1.210220336914062,-0.0194244384765625,-0.1655426025390625,5408.02531775,1.292373902270528,-0.01169506977797447,-0.5276340298055917,-7.526137828826904,0.5904058218002319,-5.567394733428955,-1.027371644973755,-0.77996426820755,0.6723219156265259,XArbitraryZVertical,-0.2047901418727603,-0.1615244941329595,0.5825206922086673,0.7698315680902442,-0.01010431908071041,0.5034905672073364,-0.8639416694641113,0,0,0,-1,-1,5407.77877575,unknown,2,2022-06-30T09:59:20.667+02:00,2022-06-30T08:20:05.567+02:00,1493,1.407114,0,0,1178.161,0,0,2022-06-30T09:59:20.666+02:00
2022-06-30T09:59:20.934+02:00,5408.04522075,-1.27032470703125,0.1409454345703125,-0.1909332275390625,5408.03526975,1.223081226611952,-0.04080084454315601,-0.6009247324253942,-7.479485511779785,1.036459803581238,-5.81063985824585,-1.077700018882751,-0.7155517339706421,0.6728970408439636,XArbitraryZVertical,-0.2310856712830677,-0.1858388237302958,0.5532374231188116,0.7784547188933477,-0.03364373743534088,0.5654054284095764,-0.824126660823822,0,0,0,-1,-1,5407.77877575,unknown,2,2022-06-30T09:59:20.667+02:00,2022-06-30T08:20:05.567+02:00,1493,1.407114,0,0,1178.161,0,0,2022-06-30T09:59:20.666+02:00
2022-06-30T09:59:20.944+02:00,5408.055172750001,-1.293487548828125,0.275726318359375,-0.1971588134765625,5408.04522075,1.144876519486624,-0.07459277118003452,-0.6710902579008563,-7.311282634735107,1.513173937797546,-5.987962245941162,-1.151857972145081,-0.6412644386291504,0.6154240369796753,XArbitraryZVertical,-0.2575261937625905,-0.2078389878819219,0.5214392539416077,0.7865012993032914,-0.05836273357272148,0.6218401789665222,-0.7809664011001587,0,0,0,-1,-1,5407.77877575,unknown,2,2022-06-30T09:59:20.667+02:00,2022-06-30T08:20:05.567+02:00,1493,1.407114,0,0,1178.161,0,0,2022-06-30T09:59:20.666+02:00
2022-06-30T09:59:20.954+02:00,5408.065123750001,-1.298904418945312,0.3690185546875,-0.201812744140625,5408.055172750001,1.056968699267697,-0.1143809901969126,-0.73668577985262,-7.071798324584961,1.92882227897644,-6.18168830871582,-1.185787796974182,-0.5308911800384521,0.5449262261390686,XArbitraryZVertical,-0.2835500777887598,-0.2273097810502638,0.4874087126133337,0.7939536351878994,-0.08453729748725891,0.671836793422699,-0.735859215259552,0,0,0,-1,-1,5407.77877575,unknown,2,2022-06-30T09:59:20.667+02:00,2022-06-30T08:20:05.567+02:00,1493,1.407114,0,0,1178.161,0,0,2022-06-30T09:59:20.666+02:00
2022-06-30T09:59:20.964+02:00,5408.07507575,-1.313705444335938,0.41217041015625,-0.207794189453125,5408.065123750001,0.9573386806075497,-0.1626824064011595,-0.79690821845108,-6.922607421875,2.267411231994629,-6.431775093078613,-1.180286645889282,-0.4394721388816833,0.4925343990325928,XArbitraryZVertical,-0.3087555773166611,-0.2445884272187933,0.4510944161267633,0.8008497490211226,-0.1132013276219368,0.7151985764503479,-0.6896929740905762,0,0,0,-1,-1,5407.77877575,unknown,2,2022-06-30T09:59:20.667+02:00,2022-06-30T08:20:05.567+02:00,1493,1.407114,0,0,1178.161,0,0,2022-06-30T09:59:20.666+02:00
2022-06-30T09:59:20.974+02:00,5408.08502675,-1.349319458007812,0.433197021484375,-0.1752777099609375,5408.07507575,0.8433312566290136,-0.2223259384175932,-0.8518434586794632,-6.892134666442871,2.582090854644775,-6.72285795211792,-1.153684854507446,-0.3834771513938904,0.4405747056007385,XArbitraryZVertical,-0.3332974222496053,-0.26022918923632,0.4122333774785735,0.8070051378305934,-0.1452199369668961,0.7524957656860352,-0.6423872113227844,0,0,0,-1,-1,5407.77877575,unknown,2,2022-06-30T09:59:20.667+02:00,2022-06-30T08:20:05.567+02:00,1493,1.407114,0,0,1178.161,0,0,2022-06-30T09:59:20.666+02:00
2022-06-30T09:59:20.984+02:00,5408.09497875,-1.401138305664062,0.4617462158203125,-0.0843048095703125,5408.08502675,0.7124726203422884,-0.2957995274403365,-0.9011501310434019,-7.00554895401001,2.878534078598022,-6.994471073150635,-1.132766366004944,-0.3718708157539368,0.385956883430481,XArbitraryZVertical,-0.3574231223277031,-0.2745419415328639,0.3706598993257703,0.8120878466104826,-0.1809395104646683,0.7840413451194763,-0.5937508940696716,0,0,0,-1,-1,5407.77877575,unknown,2,2022-06-30T09:59:20.667+02:00,2022-06-30T08:20:05.567+02:00,1493,1.407114,0,0,1178.161,0,0,2022-06-30T09:59:20.666+02:00
2022-06-30T09:59:20.999+02:00,5408.10492975,-1.5009765625,0.47576904296875,-0.02349853515625,5408.09497875,0.5624785885059497,-0.3855682750529728,-0.9445420529154075,-7.266178131103516,3.1430504322052,-7.239371776580811,-1.128890752792358,-0.3770315647125244,0.3678068518638611,XArbitraryZVertical,-0.3815862107861697,-0.287836373826022,0.3263196514939227,0.8155107045088164,-0.2204291224479675,0.8102285861968994,-0.5430843830108643,0,0,0,-1,-1,5407.77877575,unknown,2,2022-06-30T09:59:20.667+02:00,2022-06-30T08:20:05.567+02:00,1493,1.407114,0,0,1178.161,0,0,2022-06-30T09:59:20.666+02:00
2022-06-30T09:59:21.004+02:00,5408.114881750001,-1.575576782226562,0.5745391845703125,0.0766143798828125,5408.10492975,0.391933431440002,-0.4926225552181516,-0.9795616445635279,-7.422215461730957,3.493258953094482,-7.485015392303467,-1.137529373168945,-0.368506908416748,0.4068062305450439,XArbitraryZVertical,-0.4056063303533403,-0.2998801057358996,0.2791467300394287,0.8170878576134843,-0.2636094391345978,0.8302531242370605,-0.4911108613014221,0,0,0,-1,-1,5407.77877575,unknown,2,2022-06-30T09:59:20.667+02:00,2022-06-30T08:20:05.567+02:00,1493,1.407114,0,0,1178.161,0,0,2022-06-30T09:59:20.666+02:00
2022-06-30T09:59:21.014+02:00,5408.124832750001,-1.652755737304688,0.7561187744140625,0.1320953369140625,5408.114881750001,0.2032156939098526,-0.6139878704272798,-1.004114303212179,-7.657763957977295,3.895267963409424,-7.537393093109131,-1.191689014434814,-0.3679178357124329,0.4152880907058716,XArbitraryZVertical,-0.4294947448177667,-0.310066181996092,0.2294334782908027,0.8165498032914669,-0.3092880249023438,0.8436868190765381,-0.4387864470481873,0,0,0,-1,-1,5407.77877575,unknown,2,2022-06-30T09:59:20.667+02:00,2022-06-30T08:20:05.567+02:00,1493,1.407114,0,0,1178.161,0,0,2022-06-30T09:59:20.666+02:00
2022-06-30T09:59:21.026+02:00,5408.13478475,-1.74993896484375,1.087173461914062,0.171142578125,5408.124832750001,0.002808431876544638,-0.7430311952558434,-1.017464923548437,-7.845831871032715,4.316357612609863,-7.401778221130371,-1.22004759311676,-0.2762393951416016,0.463621973991394,XArbitraryZVertical,-0.4533960738308787,-0.3176920578904859,0.1779627656552576,0.8135313037212767,-0.3555296361446381,0.8507785201072693,-0.3870075047016144,0,0,0,-1,-1,5407.77877575,unknown,2,2022-06-30T09:59:20.667+02:00,2022-06-30T08:20:05.567+02:00,1493,1.407114,0,0,1178.161,0,0,2022-06-30T09:59:20.666+02:00
2022-06-30T09:59:21.033+02:00,5408.14473575,-1.812667846679688,1.4300537109375,0.26458740234375,5408.13478475,-0.2027165007203356,-0.8728884820478743,-1.020139995852011,-8.201329231262207,4.788022041320801,-7.144237518310547,-1.251850605010986,-0.09606266021728516,0.4683422446250916,XArbitraryZVertical,-0.4775284190700241,-0.3222471082426928,0.1253013141042539,0.8077271211474093,-0.400905579328537,0.8521812558174133,-0.3362468183040619,0,0,0,-1,-1,5407.77877575,unknown,2,2022-06-30T09:59:20.667+02:00,2022-06-30T08:20:05.567+02:00,1493,1.407114,0,0,1178.161,0,0,2022-06-30T09:59:20.666+02:00
2022-06-30T09:59:21.043+02:00,5408.15468675,-1.7413330078125,1.648361206054688,0.416107177734375,5408.14473575,-0.4102644350750999,-0.9990471170104811,-1.013931100178836,-8.743577003479004,5.364638805389404,-6.82944917678833,-1.305470943450928,0.2382571697235107,0.4571310579776764,XArbitraryZVertical,-0.5025646299921711,-0.3231634116685329,0.07137770309109692,0.7986861009859728,-0.4444684386253357,0.8489161133766174,-0.2859883904457092,0,0,0,-1,-1,5407.77877575,unknown,2,2022-06-30T09:59:20.667+02:00,2022-06-30T08:20:05.567+02:00,1493,1.407114,0,0,1178.161,0,0,2022-06-30T09:59:20.666+02:00
2022-06-30T09:59:21.053+02:00,5408.16463875,-1.596649169921875,1.69720458984375,0.56707763671875,5408.15468675,-0.6202405619967416,-1.120058151558144,-1.00144856506738,-9.721502304077148,6.00196647644043,-6.330004692077637,-1.327425956726074,0.5878006815910339,0.4994280934333801,XArbitraryZVertical,-0.5295343563320006,-0.3196451719799873,0.01603533786810365,0.7855973065052251,-0.4852422475814819,0.842252790927887,-0.2348406612873077,0,0,0,-1,-1,5407.77877575,unknown,2,2022-06-30T09:59:20.667+02:00,2022-06-30T08:20:05.567+02:00,1493,1.407114,0,0,1178.161,0,0,2022-06-30T09:59:20.666+02:00
2022-06-30T09:59:21.064+02:00,5408.17458975,-1.478713989257812,1.747543334960938,0.757904052734375,5408.16463875,-0.8369174959877425,-1.23929693573249,-0.9852418926309446,-11.05878448486328,6.510993957519531,-5.704197406768799,-1.218761205673218,0.8149551749229431,0.5959770679473877,XArbitraryZVertical,-0.5597185313772812,-0.3110951702715437,-0.04051171186210812,0.767003187518342,-0.5225722789764404,0.8334057927131653,-0.1798699200153351,0,0,0,-1,-1,5407.77877575,unknown,2,2022-06-30T09:59:20.667+02:00,2022-06-30T08:20:05.567+02:00,1493,1.407114,0,0,1178.161,0,0,2022-06-30T09:59:20.666+02:00
2022-06-30T09:59:21.073+02:00,5408.18454175,-1.404937744140625,1.920059204101562,0.94915771484375,5408.17458975,-1.066402253455707,-1.362297585676777,-0.9656286231917602,-12.82896041870117,6.981614589691162,-4.94939661026001,-1.040070056915283,0.8747977018356323,0.6848350167274475,XArbitraryZVertical,-0.5940828143858541,-0.2969627706002834,-0.09796635670699159,0.7411352447167319,-0.5565794110298157,0.8224067091941833,-0.1177574470639229,0,0,0,-1,-1,5407.77877575,unknown,2,2022-06-30T09:59:20.667+02:00,2022-06-30T08:20:05.567+02:00,1493,1.407114,0,0,1178.161,0,0,2022-06-30T09:59:20.666+02:00
2022-06-30T09:59:21.083+02:00,5408.19449275,-1.40618896484375,2.3658447265625,1.2547607421875,5408.18454175,-1.311585306881483,-1.490420586119096,-0.9410559927226329,-14.66531276702881,7.447641849517822,-3.980746507644653,-0.8916805982589722,0.939362645149231,0.8051890730857849,XArbitraryZVertical,-0.6326529357652061,-0.2758762288549208,-0.1557977442691836,0.7066609507739604,-0.5870336890220642,0.8081804513931274,-0.04728513956069946,0,0,0,-1,-1,5407.77877575,unknown,2,2022-06-30T09:59:20.667+02:00,2022-06-30T08:20:05.567+02:00,1493,1.407114,0,0,1178.161,0,0,2022-06-30T09:59:20.666+02:00
2022-06-30T09:59:21.094+02:00,5408.20444475,-1.442123413085938,2.801284790039062,1.626617431640625,5408.19449275,-1.569994438768158,-1.621088612874617,-0.9093374986127172,-16.4169807434082,7.790831089019775,-2.801275968551636,-0.7914459705352783,1.130962014198303,0.9182776212692261,XArbitraryZVertical,-0.6742488412080555,-0.2466343025915756,-0.2124669686809927,0.6628860071428497,-0.6134920716285706,0.7890969514846802,0.03087995760142803,0,0,0,-1,-1,5407.77877575,unknown,2,2022-06-30T09:59:20.667+02:00,2022-06-30T08:20:05.567+02:00,1493,1.407114,0,0,1178.161,0,0,2022-06-30T09:59:20.666+02:00
2022-06-30T09:59:21.103+02:00,5408.21439575,-1.301605224609375,3.047897338867188,1.965164184570312,5408.20444475,-1.834333354250746,-1.747440512223812,-0.8685020506739103,-17.63553619384766,8.075592041015625,-1.502954006195068,-0.7702703475952148,1.602482438087463,1.14124596118927,XArbitraryZVertical,-0.7164325693052733,-0.2085225036331158,-0.2661975776454863,0.610230865080392,-0.6359189748764038,0.7633621692657471,0.1135145202279091,0,0,0,-1,-1,5407.77877575,unknown,2,2022-06-30T09:59:20.667+02:00,2022-06-30T08:20:05.567+02:00,1493,1.407114,0,0,1178.161,0,0,2022-06-30T09:59:20.666+02:00
2022-06-30T09:59:21.113+02:00,5408.224347750001,-0.966064453125,3.139846801757812,2.103652954101562,5408.21439575,-2.092175290144092,-1.85987710766677,-0.8197837762447476,-17.97416496276855,7.983233451843262,0.00801067054271698,-0.7880586385726929,2.070286512374878,1.432090401649475,XArbitraryZVertical,-0.7556391619167787,-0.1620890183880524,-0.3145600217135327,0.5511703154582185,-0.6540650725364685,0.7309982776641846,0.1945267915725708,0,0,0,-1,-1,5407.77877575,unknown,2,2022-06-30T09:59:20.667+02:00,2022-06-30T08:20:05.567+02:00,1493,1.407114,0,0,1178.161,0,0,2022-06-30T09:59:20.666+02:00
2022-06-30T09:59:21.123+02:00,5408.234298750001,-0.669403076171875,2.988906860351562,1.85137939453125,5408.224347750001,-2.334782571175312,-1.9569474968265,-0.7686694346540216,-17.55372428894043,7.250339031219482,1.632749795913696,-0.6357002258300781,2.352717876434326,1.694431662559509,XArbitraryZVertical,-0.7895558688983541,-0.109396908502816,-0.3539052762100145,0.4892697985697219,-0.6659051775932312,0.6951794028282166,0.2707323133945465,0,0,0,-1,-1,5407.77877575,unknown,2,2022-06-30T09:59:20.667+02:00,2022-06-30T08:20:05.567+02:00,1493,1.407114,0,0,1178.161,0,0,2022-06-30T09:59:20.666+02:00
2022-06-30T09:59:21.133+02:00,5408.24425075,-0.5036468505859375,2.698043823242188,1.368240356445312,5408.234298750001,-2.555031593457933,-2.03899027535752,-0.7201900638821461,-15.91396331787109,6.243144989013672,2.971352815628052,-0.2952764630317688,2.480319261550903,1.764437675476074,XArbitraryZVertical,-0.8165260767822721,-0.05378305483463589,-0.3824962923047019,0.4290562232032594,-0.6707882881164551,0.6595275402069092,0.3392148911952972,0,0,0,-1,-1,5407.77877575,unknown,2,2022-06-30T09:59:20.667+02:00,2022-06-30T08:20:05.567+02:00,1493,1.407114,0,0,1178.161,0,0,2022-06-30T09:59:20.666+02:00
2022-06-30T09:59:21.143+02:00,5408.25420175,-0.5336456298828125,2.199432373046875,1.017059326171875,5408.24425075,-2.743912460647039,-2.103002422195917,-0.6802897606411797,-13.3526668548584,5.37617015838623,3.900691032409668,0.0004662275314331055,2.359888792037964,1.456903457641602,XArbitraryZVertical,-0.835007452283945,0.0006383715813442066,-0.4014036792871664,0.3763474304724023,-0.669869601726532,0.6290183067321777,0.3944756984710693,0,0,0,-1,-1,5407.77877575,unknown,2,2022-06-30T09:59:20.667+02:00,2022-06-30T08:20:05.567+02:00,1493,1.407114,0,0,1178.161,0,0,2022-06-30T09:59:20.666+02:00
2022-06-30T09:59:21.153+02:00,5408.26415275,-0.8915863037109375,1.407058715820312,0.9088287353515625,5408.25420175,-2.901397398885458,-2.150708868695039,-0.6536232274441381,-10.6350679397583,4.585297584533691,4.605831623077393,0.1604470610618591,2.089977264404297,0.9332296252250671,XArbitraryZVertical,-0.8454777060109441,0.0516982940708649,-0.4131766327480255,0.3343351111298888,-0.6640941500663757,0.6080667972564697,0.4350105226039886,0,0,0,-1,-1,5407.77877575,unknown,2,2022-06-30T09:59:20.667+02:00,2022-06-30T08:20:05.567+02:00,1493,1.407114,0,0,1178.161,0,0,2022-06-30T09:59:20.666+02:00
2022-06-30T09:59:21.163+02:00,5408.27410475,-1.194793701171875,0.6585540771484375,1.12744140625,5408.26415275,-3.030671372256605,-2.187064793414348,-0.6405461217185061,-8.145513534545898,3.720151662826538,4.712002277374268,0.1206309199333191,1.601799011230469,0.5536409616470337,XArbitraryZVertical,-0.8498068701032868,0.097658866777457,-0.4198205585115313,0.303383634770433,-0.6542766094207764,0.597633421421051,0.4634179472923279,0,0,0,-1,-1,5407.77877575,unknown,2,2022-06-30T09:59:20.667+02:00,2022-06-30T08:20:05.567+02:00,1493,1.407114,0,0,1178.161,0,0,2022-06-30T09:59:20.666+02:00
2022-06-30T09:59:21.173+02:00,5408.28405575,-1.088241577148438,0.195098876953125,1.421051025390625,5408.27410475,-3.135384972896494,-2.216415029735784,-0.6362089707640548,-6.089584827423096,2.910135746002197,4.524033069610596,-0.249126672744751,0.8129084706306458,0.4248544573783875,XArbitraryZVertical,-0.8504321591795155,0.1369383070730037,-0.4230063326999025,0.2812092895598355,-0.6424597501754761,0.5941503643989563,0.4839739203453064,0,0,0,-1,-1,5407.77877575,unknown,2,2022-06-30T09:59:20.667+02:00,2022-06-30T08:20:05.567+02:00,1493,1.407114,0,0,1178.161,0,0,2022-06-30T09:59:20.666+02:00
2022-06-30T09:59:21.183+02:00,5408.294007750001,-0.931396484375,0.012908935546875,1.599761962890625,5408.28405575,3.063269739155783,-2.242326523436029,-0.6390292082597406,-4.375921726226807,1.988397836685181,4.260199069976807,-0.5664029717445374,0.0621379017829895,0.628028929233551,XArbitraryZVertical,-0.8490246133154299,0.1698922062255621,-0.4233964495309484,0.2665134621561031,-0.628390908241272,0.5964164733886719,0.4994122982025146,0,0,0,-1,-1,5407.77877575,unknown,2,2022-06-30T09:59:20.667+02:00,2022-06-30T08:20:05.567+02:00,1493,1.407114,0,0,1178.161,0,0,2022-06-30T09:59:20.666+02:00
2022-06-30T09:59:21.193+02:00,5408.303958750001,-0.934814453125,0.097900390625,1.809097290039062,5408.294007750001,2.997444383839451,-2.266733246123594,-0.6477417857349139,-2.8128662109375,1.037247776985168,3.771240949630737,-0.4762369990348816,-0.4082878828048706,0.9098026752471924,XArbitraryZVertical,-0.8468119316886907,0.1962999423421212,-0.4213059099218788,0.2586067037726917,-0.6120047569274902,0.6033871173858643,0.5112482309341431,0,0,0,-1,-1,5407.77877575,unknown,2,2022-06-30T09:59:20.667+02:00,2022-06-30T08:20:05.567+02:00,1493,1.407114,0,0,1178.161,0,0,2022-06-30T09:59:20.666+02:00
2022-06-30T09:59:21.203+02:00,5408.31391075,-0.9594879150390625,0.1472625732421875,1.970230102539062,5408.303958750001,2.948100872911935,-2.290971871079166,-0.6609438950243883,-1.46049690246582,0.1240464374423027,3.364295959472656,-0.3380025625228882,-0.6009530425071716,1.079130411148071,XArbitraryZVertical,-0.844658885313312,0.2164877147286131,-0.4170039080786321,0.2564998781303499,-0.5933939814567566,0.6138622760772705,0.5206311345100403,0,0,0,-1,-1,5407.77877575,unknown,2,2022-06-30T09:59:20.667+02:00,2022-06-30T08:20:05.567+02:00,1493,1.407114,0,0,1178.161,0,0,2022-06-30T09:59:20.666+02:00
2022-06-30T09:59:21.213+02:00,5408.32386175,-0.9722442626953125,0.0917816162109375,2.106613159179688,5408.31391075,2.912826708020544,-2.316071854476429,-0.6789075266831808,-0.3162689208984375,-0.7573447823524475,3.03378701210022,-0.362870991230011,-0.5300426483154297,1.281301617622375,XArbitraryZVertical,-0.8428571560606688,0.2312779479765874,-0.4105890544665767,0.2598440200701599,-0.571943461894989,0.6279431581497192,0.5277953743934631,0,0,0,-1,-1,5407.77877575,unknown,2,2022-06-30T09:59:20.667+02:00,2022-06-30T08:20:05.567+02:00,1493,1.407114,0,0,1178.161,0,0,2022-06-30T09:59:20.666+02:00
2022-06-30T09:59:21.223+02:00,5408.33381375,-0.98321533203125,-0.0047454833984375,2.1773681640625,5408.32386175,2.8880108603974,-2.343338432187509,-0.7005010022370233,0.4559524357318878,-1.530487537384033,2.763603210449219,-0.4119860529899597,-0.4973379969596863,1.436627388000488,XArbitraryZVertical,-0.841650302640769,0.2417145975359415,-0.4020693669651482,0.2674678082871434,-0.5475018620491028,0.6446008086204529,0.5336023569107056,0,0,0,-1,-1,5407.77877575,unknown,2,2022-06-30T09:59:20.667+02:00,2022-06-30T08:20:05.567+02:00,1493,1.407114,0,0,1178.161,0,0,2022-06-30T09:59:20.666+02:00
2022-06-30T09:59:21.233+02:00,5408.34376475,-0.99053955078125,-0.07958984375,2.18896484375,5408.33381375,2.8692489448866,-2.374128521366801,-0.7238609543952489,0.8054686188697815,-2.175841331481934,2.572870969772339,-0.4520276784896851,-0.5705006122589111,1.567394256591797,XArbitraryZVertical,-0.8411772558055967,0.2490584500959988,-0.3914592861177166,0.2777595021200007,-0.5202165842056274,0.6622824668884277,0.539218544960022,0,0,0,-1,-1,5407.77877575,unknown,2,2022-06-30T09:59:20.667+02:00,2022-06-30T08:20:05.567+02:00,1493,1.407114,0,0,1178.161,0,0,2022-06-30T09:59:20.666+02:00
2022-06-30T09:59:21.243+02:00,5408.35371675,-1.003768920898438,-0.1127166748046875,2.1868896484375,5408.34376475,2.852475729191189,-2.409732375969324,-0.7470116982063878,0.8536761403083801,-2.705451965332031,2.427052736282349,-0.4929018020629883,-0.6841943860054016,1.631527662277222,XArbitraryZVertical,-0.8415336861797539,0.254442793631007,-0.3787560934361847,0.2891777854987136,-0.4903136193752289,0.679449200630188,0.5458401441574097,0,0,0,-1,-1,5407.77877575,unknown,2,2022-06-30T09:59:20.667+02:00,2022-06-30T08:20:05.567+02:00,1493,1.407114,0,0,1178.161,0,0,2022-06-30T09:59:20.666+02:00
2022-06-30T09:59:21.253+02:00,5408.36366775,-1.001663208007812,-0.09716796875,2.212066650390625,5408.35371675,2.834965247820981,-2.451048842185326,-0.7684482725475857,0.7205479145050049,-3.169092178344727,2.320496559143066,-0.5325741171836853,-0.7746098637580872,1.634695053100586,XArbitraryZVertical,-0.8427692898159594,0.258601351643993,-0.3639603972812033,0.3006630070904677,-0.4579655826091766,0.6950203776359558,0.5542694926261902,0,0,0,-1,-1,5407.77877575,unknown,2,2022-06-30T09:59:20.667+02:00,2022-06-30T08:20:05.567+02:00,1493,1.407114,0,0,1178.161,0,0,2022-06-30T09:59:20.666+02:00
2022-06-30T09:59:21.263+02:00,5408.37361875,-1.0111083984375,-0.0376434326171875,2.200668334960938,5408.36366775,2.815484027158103,-2.498457294852124,-0.7874117396096102,0.5574501752853394,-3.600939273834229,2.223198413848877,-0.5805665850639343,-0.8212456107139587,1.622189283370972,XArbitraryZVertical,-0.8448535756064041,0.2618633921190597,-0.3470837131789059,0.3117416664762653,-0.4232023656368256,0.7085291743278503,0.5647000074386597,0,0,0,-1,-1,5407.77877575,unknown,2,2022-06-30T09:59:20.667+02:00,2022-06-30T08:20:05.567+02:00,1493,1.407114,0,0,1178.161,0,0,2022-06-30T09:59:20.666+02:00
2022-06-30T09:59:21.272+02:00,5408.38357075,-1.05078125,0.0240631103515625,2.134292602539062,5408.37361875,2.794540305203389,-2.551238038880002,-0.8040915460424946,0.4821055829524994,-3.994395971298218,2.116843223571777,-0.6154745221138,-0.8173682689666748,1.635724782943726,XArbitraryZVertical,-0.8475848501900449,0.2641414547125399,-0.3283315401766648,0.3225333396246342,-0.3861888349056244,0.7202006578445435,0.5763415694236755,0,0,0,-1,-1,5407.77877575,unknown,2,2022-06-30T09:59:20.667+02:00,2022-06-30T08:20:05.567+02:00,1493,1.407114,0,0,1178.161,0,0,2022-06-30T09:59:20.666+02:00
2022-06-30T09:59:21.282+02:00,5408.3935215,-1.098876953125,0.039337158203125,2.076202392578125,5408.38357075,2.772844213009933,-2.608631895683018,-0.8190736061440689,0.467851310968399,-4.370500087738037,2.027322292327881,-0.6641374826431274,-0.7681564688682556,1.612483024597168,XArbitraryZVertical,-0.850705931602324,0.2653149332695096,-0.3078901129578992,0.3333336467573671,-0.3469710946083069,0.7305135130882263,0.58818519115448,0,0,0,-1,-1,5407.77877575,unknown,2,2022-06-30T09:59:20.667+02:00,2022-06-30T08:20:05.567+02:00,1493,1.407114,0,0,1178.161,0,0,2022-06-30T09:59:20.666+02:00
2022-06-30T09:59:21.292+02:00,5408.4034735,-1.146072387695312,0.0496673583984375,2.019332885742188,5408.3935215,2.750655412498693,-2.670248109398417,-0.8326616720573103,0.4631265997886658,-4.728268623352051,1.933422327041626,-0.7452234625816345,-0.7156614661216736,1.534757733345032,XArbitraryZVertical,-0.8540223923920572,0.2653546615100597,-0.2858599072555348,0.3442629493012358,-0.3055579662322998,0.7397250533103943,0.5995346903800964,0,0,0,-1,-1,5407.77877575,unknown,2,2022-06-30T09:59:20.667+02:00,2022-06-30T08:20:05.567+02:00,1493,1.407114,0,0,1178.161,0,0,2022-06-30T09:59:20.666+02:00
2022-06-30T09:59:21.302+02:00,5408.4134245,-1.18585205078125,0.0723114013671875,1.944717407226562,5408.4034735,2.727995839756377,-2.735862323495829,-0.8444604312946161,0.3749215006828308,-5.06644344329834,1.828326463699341,-0.8367496728897095,-0.7082754373550415,1.465985417366028,XArbitraryZVertical,-0.8574819594209664,0.264259471919167,-0.2622834887132991,0.3551043118468392,-0.2621273696422577,0.7476128935813904,0.6102167367935181,0,0,0,-1,-1,5407.77877575,unknown,2,2022-06-30T09:59:20.667+02:00,2022-06-30T08:20:05.567+02:00,1493,1.407114,0,0,1178.161,0,0,2022-06-30T09:59:20.666+02:00
2022-06-30T09:59:21.312+02:00,5408.4233765,-1.221115112304688,0.1185760498046875,1.853652954101562,5408.4134245,2.704836204803659,-2.805226632918275,-0.8536829135448967,0.2396720498800278,-5.378040313720703,1.705169200897217,-0.9291538000106812,-0.7040383219718933,1.398950576782227,XArbitraryZVertical,-0.8611069197760048,0.2620799413622781,-0.2371795024580634,0.3654517056726453,-0.2169186919927597,0.7537059783935547,0.6203820705413818,0,0,0,-1,-1,5407.77877575,unknown,2,2022-06-30T09:59:20.667+02:00,2022-06-30T08:20:05.567+02:00,1493,1.407114,0,0,1178.161,0,0,2022-06-30T09:59:20.666+02:00
2022-06-30T09:59:21.322+02:00,5408.4333275,-1.258544921875,0.184600830078125,1.780899047851562,5408.4233765,2.681699377804515,-2.877655991476813,-0.8601659199618382,0.1028060242533684,-5.659098148345947,1.589874148368835,-1.015675187110901,-0.6856390237808228,1.314994335174561,XArbitraryZVertical,-0.8648066176781987,0.2587873611004226,-0.2106605738571565,0.3751811119418323,-0.1701770573854446,0.7579507827758789,0.6297227740287781,0,0,0,-1,-1,5407.77877575,unknown,2,2022-06-30T09:59:20.667+02:00,2022-06-30T08:20:05.567+02:00,1493,1.407114,0,0,1178.161,0,0,2022-06-30T09:59:20.666+02:00
2022-06-30T09:59:21.332+02:00,5408.4432795,-1.32049560546875,0.25079345703125,1.727874755859375,5408.4333275,2.658969512783649,-2.952629983258312,-0.8640099331847356,-0.01565750315785408,-5.93682861328125,1.478546023368835,-1.099133133888245,-0.641876220703125,1.215818643569946,XArbitraryZVertical,-0.8684430656474723,0.2544086287353918,-0.1828025776951974,0.3842736581232127,-0.1219821944832802,0.7604526877403259,0.6378341913223267,0,0,0,-1,-1,5407.77877575,unknown,2,2022-06-30T09:59:20.667+02:00,2022-06-30T08:20:05.567+02:00,1493,1.407114,0,0,1178.161,0,0,2022-06-30T09:59:20.666+02:00
2022-06-30T09:59:21.342+02:00,5408.4532305,-1.342971801757812,0.3214111328125,1.686920166015625,5408.4432795,2.637300599775422,-3.029483434832949,-0.8655862863842103,-0.09553596377372742,-6.188978672027588,1.363348722457886,-1.186028718948364,-0.5768741965293884,1.136774063110352,XArbitraryZVertical,-0.8718496752291639,0.2488786093965882,-0.1537221097283247,0.3928195142619851,-0.07251639664173126,0.7614754438400269,0.6441248655319214,0,0,0,-1,-1,5407.77877575,unknown,2,2022-06-30T09:59:20.667+02:00,2022-06-30T08:20:05.567+02:00,1493,1.407114,0,0,1178.161,0,0,2022-06-30T09:59:20.666+02:00
2022-06-30T09:59:21.352+02:00,5408.463182500001,-1.3406982421875,0.4001922607421875,1.63067626953125,5408.4532305,2.616947371968966,-3.107684439647521,-0.865433475317398,-0.1181166395545006,-6.404265880584717,1.27908182144165,-1.298516988754272,-0.5105826854705811,1.079936981201172,XArbitraryZVertical,-0.8748036980318428,0.2422546352013523,-0.1235933398486475,0.4009438027404901,-0.02197883278131485,0.7613763809204102,0.6479376554489136,0,0,0,-1,-1,5407.77877575,unknown,2,2022-06-30T09:59:20.667+02:00,2022-06-30T08:20:05.567+02:00,1493,1.407114,0,0,1178.161,0,0,2022-06-30T09:59:20.666+02:00
2022-06-30T09:59:21.362+02:00,5408.473133500001,-1.335037231445312,0.4919281005859375,1.553985595703125,5408.463182500001,2.597854007474854,3.096390630415848,-0.8642132540983535,-0.1080036759376526,-6.566462516784668,1.219070672988892,-1.372308850288391,-0.4391734004020691,1.038344383239746,XArbitraryZVertical,-0.8770501317027691,0.2346717147733945,-0.09266046988879929,0.4088107991449053,0.02933690696954727,0.7605847120285034,0.648575484752655,0,0,0,-1,-1,5407.77877575,unknown,2,2022-06-30T09:59:20.667+02:00,2022-06-30T08:20:05.567+02:00,1493,1.407114,0,0,1178.161,0,0,2022-06-30T09:59:20.666+02:00
2022-06-30T09:59:21.372+02:00,5408.4830855,-1.306838989257812,0.57861328125,1.43798828125,5408.473133500001,2.579730751931495,3.0166726843493,-0.8621865622305395,-0.08506640791893005,-6.678479194641113,1.175794005393982,-1.421782493591309,-0.3590748906135559,0.9849683046340942,XArbitraryZVertical,-0.8784231356050648,0.2263329193556066,-0.0611415710643762,0.4164226868818442,0.0810839831829071,0.7592673301696777,0.6457076072692871,0,0,0,-1,-1,5407.77877575,unknown,2,2022-06-30T09:59:20.667+02:00,2022-06-30T08:20:05.567+02:00,1493,1.407114,0,0,1178.161,0,0,2022-06-30T09:59:20.666+02:00
2022-06-30T09:59:21.382+02:00,5408.4930365,-1.265090942382812,0.6396942138671875,1.327957153320312,5408.4830855,2.562460396074139,2.936763555375197,-0.8597250687324633,-0.02652972564101219,-6.740187168121338,1.137410998344421,-1.467785596847534,-0.2657347917556763,0.9149825572967529,XArbitraryZVertical,-0.87877934755596,0.2173667272372891,-0.02930714456020036,0.4238392519533744,0.132748082280159,0.7576631307601929,0.6390028595924377,0,0,0,-1,-1,5407.77877575,unknown,2,2022-06-30T09:59:20.667+02:00,2022-06-30T08:20:05.567+02:00,1493,1.407114,0,0,1178.161,0,0,2022-06-30T09:59:20.666+02:00
2022-06-30T09:59:21.392+02:00,5408.5029875,-1.236053466796875,0.6736602783203125,1.249191284179688,5408.4930365,2.545727701119783,2.856924787116966,-0.8568334298778258,-0.01541156135499477,-6.758470058441162,1.139652848243713,-1.490741968154907,-0.1771591305732727,0.8095077276229858,XArbitraryZVertical,-0.8780570557881947,0.2079807650236443,0.00263493338550301,0.430990676394214,0.1839027851819992,0.7557727694511414,0.6284803748130798,0,0,0,-1,-1,5407.77877575,unknown,2,2022-06-30T09:59:20.667+02:00,2022-06-30T08:20:05.567+02:00,1493,1.407114,0,0,1178.161,0,0,2022-06-30T09:59:20.666+02:00
2022-06-30T09:59:21.402+02:00,5408.5129395,-1.205368041992188,0.6844635009765625,1.19720458984375,5408.5029875,2.52959080907251,2.77756800565226,-0.8525971625460641,-0.1327405273914337,-6.736310482025146,1.146250247955322,-1.499374866485596,-0.1132973432540894,0.7130467295646667,XArbitraryZVertical,-0.8764122841276004,0.1983852294140116,0.03464382558161602,0.4374297424805873,0.2342837452888489,0.7529919743537903,0.614910364151001,0,0,0,-1,-1,5407.77877575,unknown,2,2022-06-30T09:59:20.667+02:00,2022-06-30T08:20:05.567+02:00,1493,1.407114,0,0,1178.161,0,0,2022-06-30T09:59:20.666+02:00
2022-06-30T09:59:21.412+02:00,5408.5228905,-1.157638549804688,0.6823577880859375,1.191024780273438,5408.5129395,2.515375779838787,2.700209180182564,-0.8459204957750308,-0.3698904812335968,-6.658916473388672,1.108955264091492,-1.519299268722534,-0.07492125034332275,0.6496936678886414,XArbitraryZVertical,-0.8741778055195838,0.1885785894673391,0.06654622588755772,0.4425187524705297,0.2832455933094025,0.7485817670822144,0.5994974374771118,0,0,0,-1,-1,5407.77877575,unknown,2,2022-06-30T09:59:20.667+02:00,2022-06-30T08:20:05.567+02:00,1493,1.407114,0,0,1178.161,0,0,2022-06-30T09:59:20.666+02:00
2022-06-30T09:59:21.422+02:00,5408.532842500001,-1.0906982421875,0.7168426513671875,1.175949096679688,5408.5228905,2.504565012238313,2.6262813635078,-0.8365785830753671,-0.6259356141090393,-6.58409309387207,1.042523980140686,-1.535551428794861,-0.0578913688659668,0.6142053008079529,XArbitraryZVertical,-0.8715897885895436,0.1784118872571498,0.09812971106182156,0.4459495289301472,0.3301830887794495,0.7423551082611084,0.5829991102218628,0,0,0,-1,-1,5407.77877575,unknown,2,2022-06-30T09:59:20.667+02:00,2022-06-30T08:20:05.567+02:00,1493,1.407114,0,0,1178.161,0,0,2022-06-30T09:59:20.666+02:00
2022-06-30T09:59:21.432+02:00,5408.542793500001,-1.0250244140625,0.814849853515625,1.122650146484375,5408.532842500001,2.497740924882875,2.555889950129772,-0.8249955804732818,-0.8771398663520813,-6.543310165405273,0.9614077806472778,-1.532736897468567,-0.05218666791915894,0.6255640983581543,XArbitraryZVertical,-0.8686758461654204,0.1677276202696528,0.129441261447328,0.4477887443673341,0.3750980794429779,0.7345447540283203,0.5654605627059937,0,0,0,-1,-1,5407.77877575,unknown,2,2022-06-30T09:59:20.667+02:00,2022-06-30T08:20:05.567+02:00,1493,1.407114,0,0,1178.161,0,0,2022-06-30T09:59:20.666+02:00
2022-06-30T09:59:21.442+02:00,5408.5527455,-0.961639404296875,0.9171142578125,0.9866790771484375,5408.542793500001,2.495299229229145,2.489463662070222,-0.8115087568931876,-1.12179172039032,-6.443697452545166,0.8931550979614258,-1.508477568626404,-0.008483767509460449,0.6288092136383057,XArbitraryZVertical,-0.8654915913485491,0.1565060500921443,0.1603386024233036,0.4480196951430578,0.4177789986133575,0.7253266572952271,0.5471397042274475,0,0,0,-1,-1,5407.77877575,unknown,2,2022-06-30T09:59:20.667+02:00,2022-06-30T08:20:05.567+02:00,1493,1.407114,0,0,1178.161,0,0,2022-06-30T09:59:20.666+02:00
2022-06-30T09:59:21.451+02:00,5408.5626965,-0.92437744140625,0.979522705078125,0.86767578125,5408.5527455,2.496546755335719,2.426822901047442,-0.7968231446922613,-1.264025807380676,-6.325671195983887,0.839419424533844,-1.483168125152588,0.09971117973327637,0.59474778175354,XArbitraryZVertical,-0.8619387147297507,0.1449582417509276,0.1906053433181449,0.4468988084641635,0.4581435918807983,0.7151391506195068,0.5279024839401245,0,0,0,-1,-1,5407.77877575,unknown,2,2022-06-30T09:59:20.667+02:00,2022-06-30T08:20:05.567+02:00,1493,1.407114,0,0,1178.161,0,0,2022-06-30T09:59:20.666+02:00
2022-06-30T09:59:21.461+02:00,5408.5726485,-0.9359588623046875,0.971771240234375,0.77825927734375,5408.5626965,2.500588059374003,2.367220762736496,-0.7817500296358043,-1.35782516002655,-6.23884916305542,0.799963653087616,-1.457896828651428,0.2125920057296753,0.4793556928634644,XArbitraryZVertical,-0.8578595516494892,0.1331864757656881,0.2201823770300805,0.4448123760875808,0.496257096529007,0.7045224905014038,0.5073233246803284,0,0,0,-1,-1,5407.77877575,unknown,2,2022-06-30T09:59:20.667+02:00,2022-06-30T08:20:05.567+02:00,1493,1.407114,0,0,1178.161,0,0,2022-06-30T09:59:20.666+02:00
2022-06-30T09:59:21.471+02:00,5408.5825995,-0.9447174072265625,0.895721435546875,0.7438507080078125,5408.5726485,2.507571289721708,2.310782879296201,-0.7661095343615967,-1.565073251724243,-6.07545804977417,0.7676552534103394,-1.456534743309021,0.2861860394477844,0.3817818164825439,XArbitraryZVertical,-0.8533759898198467,0.1212285239943869,0.2490607181192548,0.4416127862217988,0.5321570038795471,0.6933369636535645,0.4858938753604889,0,0,0,-1,-1,5407.77877575,unknown,2,2022-06-30T09:59:20.667+02:00,2022-06-30T08:20:05.567+02:00,1493,1.407114,0,0,1178.161,0,0,2022-06-30T09:59:20.666+02:00
2022-06-30T09:59:21.481+02:00,5408.5925515,-0.924407958984375,0.869598388671875,0.8083953857421875,5408.5825995,2.518631545785256,2.25871070678348,-0.749673110103893,-1.820471048355103,-5.939366340637207,0.6587490439414978,-1.501413583755493,0.2903719544410706,0.3135485947132111,XArbitraryZVertical,-0.8488133644595393,0.108954868626495,0.2769989891233698,0.4369395852537278,0.5654543042182922,0.6813995242118835,0.4647105932235718,0,0,0,-1,-1,5407.77877575,unknown,2,2022-06-30T09:59:20.667+02:00,2022-06-30T08:20:05.567+02:00,1493,1.407114,0,0,1178.161,0,0,2022-06-30T09:59:20.666+02:00
2022-06-30T09:59:21.492+02:00,5408.6025025,-0.9337158203125,0.8972015380859375,0.8418121337890625,5408.5925515,2.53500278541348,2.210982181404613,-0.7329042363142441,-2.17534613609314,-5.867824554443359,0.499771922826767,-1.540780663490295,0.2266908288002014,0.2998836636543274,XArbitraryZVertical,-0.8442829589511829,0.0957596172891719,0.3041479534065509,0.4307093715808682,0.5960630178451538,0.6690309643745422,0.4439672529697418,0,0,0,-1,-1,5407.77877575,unknown,2,2022-06-30T09:59:20.667+02:00,2022-06-30T08:20:05.567+02:00,1493,1.407114,0,0,1178.161,0,0,2022-06-30T09:59:20.666+02:00
2022-06-30T09:59:21.502+02:00,5408.6124545,-0.9761962890625,1.000839233398438,0.773773193359375,5408.6025025,2.556664957677755,2.167081078519131,-0.7164858574047451,-2.362900257110596,-5.863316535949707,0.2881247103214264,-1.548386573791504,0.2128600478172302,0.3849034905433655,XArbitraryZVertical,-0.8397151208500663,0.08139075448177147,0.3305333734461713,0.4230859711173685,0.623978316783905,0.6567386388778687,0.4234918653964996,0,0,0,-1,-1,5407.77877575,unknown,2,2022-06-30T09:59:20.667+02:00,2022-06-30T08:20:05.567+02:00,1493,1.407114,0,0,1178.161,0,0,2022-06-30T09:59:20.666+02:00
2022-06-30T09:59:21.511+02:00,5408.6224055,-1.023101806640625,1.130661010742188,0.6870880126953125,5408.6124545,2.581255973679543,2.124407927239134,-0.7026764871937652,-2.267708301544189,-5.924145221710205,-0.00198673689737916,-1.582845687866211,0.2509393692016602,0.4405945241451263,XArbitraryZVertical,-0.8344402053462115,0.06571403495772889,0.3562554102164519,0.4152990377153314,0.6491296291351318,0.6462624669075012,0.4012175798416138,0,0,0,-1,-1,5407.77877575,unknown,2,2022-06-30T09:59:20.667+02:00,2022-06-30T08:20:05.567+02:00,1493,1.407114,0,0,1178.161,0,0,2022-06-30T09:59:20.666+02:00
2022-06-30T09:59:21.521+02:00,5408.6323565,-1.003448486328125,1.14947509765625,0.488006591796875,5408.6224055,2.606267836478183,2.081257575377219,-0.6926440323524125,-2.047021389007568,-5.986525058746338,-0.2018209248781204,-1.647652864456177,0.362265408039093,0.3977817296981812,XArbitraryZVertical,-0.8280013065251575,0.04908838894535429,0.3812669484058536,0.4082153672100723,0.6714563369750977,0.6385741829872131,0.3759916722774506,0,0,0,-1,-1,5407.77877575,unknown,2,2022-06-30T09:59:20.667+02:00,2022-06-30T08:20:05.567+02:00,1493,1.407114,0,0,1178.161,0,0,2022-06-30T09:59:20.666+02:00
2022-06-30T09:59:21.532+02:00,5408.642308500001,-0.9566192626953125,1.113327026367188,0.26678466796875,5408.6323565,2.629371916980343,2.035708787767374,-0.6863039629469723,-1.72762405872345,-6.136200428009033,-0.3507044315338135,-1.714586973190308,0.4969789981842041,0.3402517735958099,XArbitraryZVertical,-0.8199940708615764,0.03206158324719635,0.405911714559247,0.40226548885993,0.6914849281311035,0.6336823105812073,0.3468364477157593,0,0,0,-1,-1,5407.77877575,unknown,2,2022-06-30T09:59:20.667+02:00,2022-06-30T08:20:05.567+02:00,1493,1.407114,0,0,1178.161,0,0,2022-06-30T09:59:20.666+02:00
2022-06-30T09:59:21.541+02:00,5408.652259500001,-0.8575286865234375,1.01666259765625,0.1114959716796875,5408.642308500001,2.650969318755759,1.987559773234881,-0.6828026775315831,-1.637768507003784,-6.284955978393555,-0.4375756680965424,-1.712850093841553,0.5185056328773499,0.173957496881485,XArbitraryZVertical,-0.8104388257009846,0.01461325657859653,0.4305058930619052,0.3970392353557433,0.7094014286994934,0.6309698224067688,0.3140492737293243,0,0,0,-1,-1,5407.77877575,unknown,2,2022-06-30T09:59:20.667+02:00,2022-06-30T08:20:05.567+02:00,1493,1.407114,0,0,1178.161,0,0,2022-06-30T09:59:20.666+02:00
2022-06-30T09:59:21.551+02:00,5408.6622115,-0.70947265625,0.969757080078125,0.04461669921875,5408.652259500001,2.673246005909827,1.938096822653157,-0.680520785175028,-1.782896637916565,-6.499014377593994,-0.4559648036956787,-1.6820228099823,0.4841295480728149,-0.01232179999351501,XArbitraryZVertical,-0.7997133649841683,-0.003450226457554972,0.4552282905391527,0.391425623918864,0.7254033088684082,0.629197895526886,0.2791067361831665,0,0,0,-1,-1,5407.77877575,unknown,2,2022-06-30T09:59:20.667+02:00,2022-06-30T08:20:05.567+02:00,1493,1.407114,0,0,1178.161,0,0,2022-06-30T09:59:20.666+02:00
2022-06-30T09:59:21.561+02:00,5408.6721625,-0.629119873046875,0.9630126953125,-0.04925537109375,5408.6622115,2.698974969168102,1.888665171917481,-0.6782357316404655,-2.135732650756836,-6.666354179382324,-0.472950667142868,-1.597200870513916,0.3892427086830139,-0.1318750381469727,XArbitraryZVertical,-0.788147109378434,-0.02257741843813177,0.480255482069068,0.3842774616704267,0.7396719455718994,0.62742018699646,0.2433712184429169,0,0,0,-1,-1,5407.77877575,unknown,2,2022-06-30T09:59:20.667+02:00,2022-06-30T08:20:05.567+02:00,1493,1.407114,0,0,1178.161,0,0,2022-06-30T09:59:20.666+02:00
2022-06-30T09:59:21.573+02:00,5408.6821145,-0.5919952392578125,1.24822998046875,-0.1390228271484375,5408.6721625,2.726360156602456,1.839357673466842,-0.677346611861385,-1.919245958328247,-6.689563751220703,-0.6087628602981567,-1.460778474807739,0.3430298566818237,-0.1621498763561249,XArbitraryZVertical,-0.7756198579214407,-0.04239364974904607,0.5049002919152205,0.3764205315801652,0.7513056993484497,0.6267275810241699,0.2067667692899704,0,0,0,-1,-1,5407.77877575,unknown,2,2022-06-30T09:59:20.667+02:00,2022-06-30T08:20:05.567+02:00,1493,1.407114,0,0,1178.161,0,0,2022-06-30T09:59:20.666+02:00
2022-06-30T09:59:21.585+02:00,5408.6920655,-0.6309661865234375,1.4830322265625,-0.4821624755859375,5408.6821145,2.747627582848033,1.786080245293172,-0.6801502220365169,-1.057641506195068,-6.716488361358643,-0.7196401357650757,-1.388651013374329,0.3341032266616821,-0.2153436988592148,XArbitraryZVertical,-0.7611017875941415,-0.06138742052751538,0.5288513471174391,0.3705024706216833,0.7595310211181641,0.6289098262786865,0.1660887002944946,0,0,0,-1,-1,5407.77877575,unknown,2,2022-06-30T09:59:20.667+02:00,2022-06-30T08:20:05.567+02:00,1493,1.407114,0,0,1178.161,0,0,2022-06-30T09:59:20.666+02:00
2022-06-30T09:59:21.592+02:00,5408.702017500001,-0.6678009033203125,1.535797119140625,-0.9513702392578125,5408.6920655,2.751944470253583,1.722335796152173,-0.6866286992028472,0.7385042309761047,-6.619976997375488,-0.6783108115196228,-1.356519937515259,0.6142967939376831,-0.2557731866836548,XArbitraryZVertical,-0.7432798952355597,-0.0768787388691593,0.5524882289222466,0.3692984799332479,0.7645244002342224,0.6339334845542908,0.1167506873607635,0,0,0,-1,-1,5407.77877575,unknown,2,2022-06-30T09:59:20.667+02:00,2022-06-30T08:20:05.567+02:00,1493,1.407114,0,0,1178.161,0,0,2022-06-30T09:59:20.666+02:00
2022-06-30T09:59:21.601+02:00,5408.711968500001,-0.6558837890625,1.465682983398438,-1.5101318359375,5408.702017500001,2.729471194018556,1.643688088574686,-0.6937354661633957,2.864425659179688,-6.295830249786377,-0.3046967089176178,-1.397787690162659,0.8436188697814941,-0.5381563901901245,XArbitraryZVertical,-0.7215697892802853,-0.08563946891014912,0.5758309502516326,0.3747288151498289,0.7668212652206421,0.6394137144088745,0.05599416047334671,0,0,0,-1,-1,5407.77877575,unknown,2,2022-06-30T09:59:20.667+02:00,2022-06-30T08:20:05.567+02:00,1493,1.407114,0,0,1178.161,0,0,2022-06-30T09:59:20.666+02:00
2022-06-30T09:59:21.611+02:00,5408.7219205,-0.8224029541015625,1.227279663085938,-1.862823486328125,5408.711968500001,2.683333506940132,1.554060846997003,-0.694525589837487,4.128740310668945,-5.77343225479126,0.3237568438053131,-1.4360511302948,0.8957764506340027,-0.9385117292404175,XArbitraryZVertical,-0.6971930746000572,-0.08656038618971584,0.598717481794663,0.3846642929015626,0.7682499885559082,0.6400209665298462,-0.01285823248326778,0,0,0,-1,-1,5407.77877575,unknown,2,2022-06-30T09:59:20.667+02:00,2022-06-30T08:20:05.567+02:00,1493,1.407114,0,0,1178.161,0,0,2022-06-30T09:59:20.666+02:00
2022-06-30T09:59:21.621+02:00,5408.7318715,-6.56744384765625,3.97216796875,-18.51728820800781,5408.7219205,2.633329784183068,1.481760606605944,-0.687332413218508,2.845171689987183,0.402233749628067,0.6341486573219299,-1.425763607025146,0.8312057256698608,-1.441403031349182,XArbitraryZVertical,-0.6775655274922935,-0.08087464727070295,0.6152416771103615,0.3947681997030635,0.7698796391487122,0.6344775557518005,-0.0687284916639328,0,0,0,-1,-1,5407.77877575,unknown,2,2022-06-30T09:59:20.667+02:00,2022-06-30T08:20:05.567+02:00,1493,1.407114,0,0,1178.161,0,0,2022-06-30T09:59:20.666+02:00
2022-06-30T09:59:21.631+02:00,5408.7418225,3.27935791015625,0.55413818359375,1.873260498046875,5408.7318715,2.627647452769764,1.475621313588301,-0.6811827900974662,2.438045740127563,2.081253051757812,-1.117666125297546,-1.595715999603271,0.5975676774978638,-1.789000034332275,XArbitraryZVertical,-0.6760306485176255,-0.07791672046093778,0.6174287700415758,0.394579920812488,0.7733128070831299,0.6297122836112976,-0.07382309436798096,0,0,0,-1,-1,5407.77877575,unknown,2,2022-06-30T09:59:20.667+02:00,2022-06-30T08:20:05.567+02:00,1493,1.407114,0,0,1178.161,0,0,2022-06-30T09:59:20.666+02:00
2022-06-30T09:59:21.641+02:00,5408.7517745,1.972152709960938,0.107330322265625,1.2752685546875,5408.7418225,2.624272473952468,1.506321069208084,-0.650061199366234,-0.4601789712905884,3.222561120986938,5.502718448638916,-7.361836910247803,3.366933107376099,-18.46599769592285,XArbitraryZVertical,-0.686165330310136,-0.05943278038066946,0.6124689584869669,0.3879776744086662,0.7943927645683289,0.6052350997924805,-0.05128976702690125,0,0,0,-1,-1,5407.77877575,unknown,2,2022-06-30T09:59:20.667+02:00,2022-06-30T08:20:05.567+02:00,1493,1.407114,0,0,1178.161,0,0,2022-06-30T09:59:20.666+02:00
2022-06-30T09:59:21.650+02:00,5408.7617255,0.5976104736328125,0.6384429931640625,-1.075897216796875,5408.7517745,2.625146481052334,1.524299283498778,-0.6206548833456528,0.1015371009707451,0.7634732127189636,1.516918659210205,2.466739177703857,-0.02742952108383179,1.911072373390198,XArbitraryZVertical,-0.6921045600133399,-0.04566697872719577,0.6121206835296802,0.3797552113183362,0.8126184940338135,0.5815680027008057,-0.03781161084771156,0,0,0,-1,-1,5407.77877575,unknown,2,2022-06-30T09:59:20.667+02:00,2022-06-30T08:20:05.567+02:00,1493,1.407114,0,0,1178.161,0,0,2022-06-30T09:59:20.666+02:00
2022-06-30T09:59:21.660+02:00,5408.7716775,-1.19390869140625,0.040252685546875,-1.688247680664062,5408.7617255,2.637898152891135,1.539918908908764,-0.6045502680342497,-1.415019273757935,0.5909340381622314,1.885443210601807,1.149786949157715,-0.4610615372657776,1.300669431686401,XArbitraryZVertical,-0.6968408508693582,-0.04138271756658455,0.6121279543414809,0.3714830123143874,0.8223655819892883,0.5683920979499817,-0.02540059760212898,0,0,0,-1,-1,5407.77877575,unknown,2,2022-06-30T09:59:20.667+02:00,2022-06-30T08:20:05.567+02:00,1493,1.407114,0,0,1178.161,0,0,2022-06-30T09:59:20.666+02:00
2022-06-30T09:59:21.671+02:00,5408.7816285,-0.3962860107421875,0.200775146484375,-0.89813232421875,5408.7716775,2.646105295603435,1.553083418679898,-0.5927334203153909,-0.1392682492733002,0.8068673610687256,0.7083827257156372,-0.2316765189170837,0.07981306314468384,-1.061206340789795,XArbitraryZVertical,-0.7008853615266075,-0.03760852618954016,0.6112234980138963,0.3657201662672684,0.8292868137359619,0.5586302280426025,-0.01469061709940434,0,0,0,-1,-1,5407.77877575,unknown,2,2022-06-30T09:59:20.667+02:00,2022-06-30T08:20:05.567+02:00,1493,1.407114,0,0,1178.161,0,0,2022-06-30T09:59:20.666+02:00
2022-06-30T09:59:21.680+02:00,5408.7915805,0.5160980224609375,0.2597503662109375,-0.2283782958984375,5408.7816285,2.64509794710915,1.560312496334763,-0.586513248717338,0.402663379907608,0.5742478966712952,0.8271896839141846,-2.02673864364624,-0.5132073163986206,-1.679515838623047,XArbitraryZVertical,-0.7032046636648852,-0.03372561917646304,0.6096387547769841,0.3642890191590735,0.8328298926353455,0.5534603595733643,-0.008731567300856113,0,0,0,-1,-1,5407.77877575,unknown,2,2022-06-30T09:59:20.667+02:00,2022-06-30T08:20:05.567+02:00,1493,1.407114,0,0,1178.161,0,0,2022-06-30T09:59:20.666+02:00
2022-06-30T09:59:21.690+02:00,5408.8015315,0.5444183349609375,0.51416015625,-0.0817413330078125,5408.7915805,2.63605215050278,1.559206702624793,-0.5781472753088358,1.127058863639832,0.03249119967222214,0.8200916051864624,-1.233706474304199,-0.345697820186615,-0.8884262442588806,XArbitraryZVertical,-0.7031184122357312,-0.02777747534808668,0.6099048678173403,0.3645118790252911,0.8374202251434326,0.5464732646942139,-0.009705820120871067,0,0,0,-1,-1,5407.77877575,unknown,2,2022-06-30T09:59:20.667+02:00,2022-06-30T08:20:05.567+02:00,1493,1.407114,0,0,1178.161,0,0,2022-06-30T09:59:20.666+02:00
2022-06-30T09:59:21.700+02:00,5408.811483500001,0.2645263671875,0.626953125,-0.41900634765625,5408.8015315,2.616097874696924,1.544775901093904,-0.5734924993242274,2.350231885910034,-0.8010770678520203,0.1327074021100998,-0.3236290216445923,-0.2828183770179749,-0.206523060798645,XArbitraryZVertical,-0.6989982314738941,-0.02177108819641423,0.6121586607841992,0.369038394257221,0.8397269248962402,0.542569100856781,-0.02185498364269733,0,0,0,-1,-1,5407.77877575,unknown,2,2022-06-30T09:59:20.667+02:00,2022-06-30T08:20:05.567+02:00,1493,1.407114,0,0,1178.161,0,0,2022-06-30T09:59:20.666+02:00
2022-06-30T09:59:21.710+02:00,5408.821434500001,0.130767822265625,0.5552825927734375,-0.590057373046875,5408.811483500001,2.579834628097406,1.515129591654801,-0.5724226622128055,3.723849058151245,-1.19687819480896,-0.05469019711017609,-0.2948709726333618,-0.02750951051712036,-0.03497231379151344,XArbitraryZVertical,-0.6902245718371784,-0.01433997399470001,0.6158690616811917,0.3795916818332374,0.8392892479896545,0.5416700839996338,-0.04676881060004234,0,0,0,-1,-1,5407.77877575,unknown,2,2022-06-30T09:59:20.667+02:00,2022-06-30T08:20:05.567+02:00,1493,1.407114,0,0,1178.161,0,0,2022-06-30T09:59:20.666+02:00
2022-06-30T09:59:21.720+02:00,5408.8313865,0.2363433837890625,0.3836212158203125,-0.607635498046875,5408.821434500001,2.530997156676756,1.476201590675265,-0.5703713391670715,4.450048923492432,-1.33070957660675,-0.1521036624908447,-0.5734114050865173,0.08700889348983765,-0.3395043611526489,XArbitraryZVertical,-0.6784022993985572,-0.004409038831612653,0.6201418101152306,0.3939227388807586,0.837937593460083,0.5399446487426758,-0.07950176298618317,0,0,0,-1,-1,5407.77877575,unknown,2,2022-06-30T09:59:20.667+02:00,2022-06-30T08:20:05.567+02:00,1493,1.407114,0,0,1178.161,0,0,2022-06-30T09:59:20.666+02:00
2022-06-30T09:59:21.731+02:00,5408.8413375,0.3876953125,0.3769073486328125,-0.512298583984375,5408.8313865,2.477184168179862,1.433347427415003,-0.5677334514752822,4.598635673522949,-1.446795105934143,-0.3512929379940033,-0.7044026255607605,0.01756048202514648,-0.4745355248451233,XArbitraryZVertical,-0.6649833460440749,0.006027823249933379,0.6242470159312389,0.4099712868308631,0.8351702094078064,0.5377224683761597,-0.1155216321349144,0,0,0,-1,-1,5407.77877575,unknown,2,2022-06-30T09:59:20.667+02:00,2022-06-30T08:20:05.567+02:00,1493,1.407114,0,0,1178.161,0,0,2022-06-30T09:59:20.666+02:00
2022-06-30T09:59:21.740+02:00,5408.8512895,0.4332275390625,0.5557403564453125,-0.541961669921875,5408.8413375,2.424378614895132,1.390455388607147,-0.5645647980634676,4.300107002258301,-1.469915866851807,-0.4091233313083649,-0.594777524471283,-0.1514267325401306,-0.4561038911342621,XArbitraryZVertical,-0.6511452179754653,0.01562710937972722,0.6279772586710766,0.4259227604153316,0.8311206698417664,0.5350481867790222,-0.1515313982963562,0,0,0,-1,-1,5407.77877575,unknown,2,2022-06-30T09:59:20.667+02:00,2022-06-30T08:20:05.567+02:00,1493,1.407114,0,0,1178.161,0,0,2022-06-30T09:59:20.666+02:00
2022-06-30T09:59:21.750+02:00,5408.8612405,0.3739166259765625,0.72393798828125,-0.655059814453125,5408.8512895,2.376270864878543,1.349924485630599,-0.560673840270805,3.877975940704346,-1.501686573028564,-0.4584706425666809,-0.4386281371116638,-0.1548492312431335,-0.3267598748207092,XArbitraryZVertical,-0.6377015162824156,0.02382244809181644,0.6314354827646877,0.44052088286858,0.8263233304023743,0.5317569971084595,-0.1855385303497314,0,0,0,-1,-1,5407.77877575,unknown,2,2022-06-30T09:59:20.667+02:00,2022-06-30T08:20:05.567+02:00,1493,1.407114,0,0,1178.161,0,0,2022-06-30T09:59:20.666+02:00
2022-06-30T09:59:21.760+02:00,5408.8711915,0.350921630859375,0.7741851806640625,-0.7655487060546875,5408.8612405,2.332618288542167,1.311742397367188,-0.5569649807970782,3.530295848846436,-1.486214399337769,-0.5860430002212524,-0.3873119354248047,0.02712845802307129,-0.3245113492012024,XArbitraryZVertical,-0.6247767686848668,0.0304783239814728,0.6345189066912459,0.4539945256648832,0.8205393552780151,0.5286123156547546,-0.2174501270055771,0,0,0,-1,-1,5407.77877575,unknown,2,2022-06-30T09:59:20.667+02:00,2022-06-30T08:20:05.567+02:00,1493,1.407114,0,0,1178.161,0,0,2022-06-30T09:59:20.666+02:00
2022-06-30T09:59:21.770+02:00,5408.881143500001,0.41217041015625,0.7309417724609375,-0.893798828125,5408.8711915,2.292727652179305,1.276478873951084,-0.55413238469132,3.174848794937134,-1.340706467628479,-0.7288632392883301,-0.4398758411407471,0.19773268699646,-0.4083822965621948,XArbitraryZVertical,-0.6126828066706624,0.03579237464236518,0.6368617672031515,0.4666324067215665,0.8137922883033752,0.5262057185173035,-0.2466773688793182,0,0,0,-1,-1,5407.77877575,unknown,2,2022-06-30T09:59:20.667+02:00,2022-06-30T08:20:05.567+02:00,1493,1.407114,0,0,1178.161,0,0,2022-06-30T09:59:20.666+02:00
2022-06-30T09:59:21.780+02:00,5408.891094500001,0.5476226806640625,0.7049407958984375,-0.971435546875,5408.881143500001,2.256701431609086,1.245193938944704,-0.5529129670943599,2.756777286529541,-1.121373772621155,-0.9124005436897278,-0.455363929271698,0.2490171194076538,-0.4933315217494965,XArbitraryZVertical,-0.6019190527823296,0.03981150529684187,0.6381171039357316,0.4784507035997265,0.8062853813171387,0.5251683592796326,-0.2722170054912567,0,0,0,-1,-1,5407.77877575,unknown,2,2022-06-30T09:59:20.667+02:00,2022-06-30T08:20:05.567+02:00,1493,1.407114,0,0,1178.161,0,0,2022-06-30T09:59:20.666+02:00
2022-06-30T09:59:21.790+02:00,5408.9010465,0.7138671875,0.822021484375,-1.0238037109375,5408.891094500001,2.22437097561847,1.218092353256017,-0.5535866219606332,2.435465812683105,-0.8932380676269531,-1.041759014129639,-0.3861103057861328,0.2052005529403687,-0.5999549627304077,XArbitraryZVertical,-0.5926713430023655,0.04264778210336157,0.6382386623719719,0.4894622266794861,0.7982804775238037,0.5257415175437927,-0.293843686580658,0,0,0,-1,-1,5407.77877575,unknown,2,2022-06-30T09:59:20.667+02:00,2022-06-30T08:20:05.567+02:00,1493,1.407114,0,0,1178.161,0,0,2022-06-30T09:59:20.666+02:00
2022-06-30T09:59:21.800+02:00,5408.9109975,0.84979248046875,1.08868408203125,-1.054000854492188,5408.9010465,2.194315491698295,1.194159172345928,-0.5552800248978851,2.271095275878906,-0.7276934385299683,-1.095109105110168,-0.2425684332847595,0.1777598857879639,-0.6589001417160034,XArbitraryZVertical,-0.5845639273326214,0.04491553828550601,0.6374704406855187,0.4998990713130015,0.7901909351348877,0.5271812677383423,-0.3125352263450623,0,0,0,-1,-1,5407.77877575,unknown,2,2022-06-30T09:59:20.667+02:00,2022-06-30T08:20:05.567+02:00,1493,1.407114,0,0,1178.161,0,0,2022-06-30T09:59:20.666+02:00
2022-06-30T09:59:21.810+02:00,5408.9209495,0.924407958984375,1.353164672851562,-1.01971435546875,5408.9109975,2.164594334191931,1.171647569749904,-0.5566990122431176,2.347354888916016,-0.6356532573699951,-1.082669496536255,-0.06839859485626221,0.293635368347168,-0.6938516497612,XArbitraryZVertical,-0.576875996459045,0.04730866679691893,0.6361827241132583,0.5101446817518749,0.7822656035423279,0.5283865332603455,-0.3299519419670105,0,0,0,-1,-1,5407.77877575,unknown,2,2022-06-30T09:59:20.667+02:00,2022-06-30T08:20:05.567+02:00,1493,1.407114,0,0,1178.161,0,0,2022-06-30T09:59:20.666+02:00
2022-06-30T09:59:21.820+02:00,5408.9309005,1.023712158203125,1.6190185546875,-0.933319091796875,5408.9209495,2.131520598461721,1.14850553663081,-0.5565011604082515,2.915123224258423,-0.4699796736240387,-1.144310116767883,0.07527589797973633,0.560465931892395,-0.7059926986694336,XArbitraryZVertical,-0.5686880413361801,0.05089102889968752,0.6343277896029597,0.5211835730180633,0.7745164036750793,0.5282185673713684,-0.3480080366134644,0,0,0,-1,-1,5407.77877575,unknown,2,2022-06-30T09:59:20.667+02:00,2022-06-30T08:20:05.567+02:00,1493,1.407114,0,0,1178.161,0,0,2022-06-30T09:59:20.666+02:00
2022-06-30T09:59:21.830+02:00,5408.9408525,1.154220581054688,1.847854614257812,-0.965576171875,5408.9309005,2.089914049139177,1.123226427950555,-0.5530214752098945,3.85046124458313,-0.1878100484609604,-1.190702080726624,0.157282829284668,0.8279043436050415,-0.6514471769332886,XArbitraryZVertical,-0.5590909253183458,0.05730436884561726,0.6312681407088233,0.5344475634673455,0.7671249508857727,0.5252607464790344,-0.3682670891284943,0,0,0,-1,-1,5407.77877575,unknown,2,2022-06-30T09:59:20.667+02:00,2022-06-30T08:20:05.567+02:00,1493,1.407114,0,0,1178.161,0,0,2022-06-30T09:59:20.666+02:00
2022-06-30T09:59:21.839+02:00,5408.9508035,1.18243408203125,1.963211059570312,-1.039520263671875,5408.9408525,2.037760030079151,1.095281766240817,-0.5439700946644479,4.975729465484619,0.03466289862990379,-1.153737783432007,0.2629804611206055,1.101481914520264,-0.5416008830070496,XArbitraryZVertical,-0.5473232058939492,0.06766276968675934,0.6269264941637949,0.5502930216004183,0.7607315182685852,0.5175371170043945,-0.3917181193828583,0,0,0,-1,-1,5407.77877575,unknown,2,2022-06-30T09:59:20.667+02:00,2022-06-30T08:20:05.567+02:00,1493,1.407114,0,0,1178.161,0,0,2022-06-30T09:59:20.666+02:00
2022-06-30T09:59:21.849+02:00,5408.9607555,1.1025390625,1.96380615234375,-1.059555053710938,5408.9508035,1.975440824930431,1.064124293356919,-0.5280601453546001,5.971560955047607,0.1176267564296722,-1.071739912033081,0.3989565372467041,1.343996286392212,-0.5464065074920654,XArbitraryZVertical,-0.5326412616920226,0.08190534482361862,0.6215514177461359,0.5685585033809878,0.7552638053894043,0.5038586854934692,-0.4191696047782898,0,0,0,-1,-1,5407.77877575,unknown,2,2022-06-30T09:59:20.667+02:00,2022-06-30T08:20:05.567+02:00,1493,1.407114,0,0,1178.161,0,0,2022-06-30T09:59:20.666+02:00
2022-06-30T09:59:21.860+02:00,5408.9707065,0.96856689453125,1.897125244140625,-1.138565063476562,5408.9607555,1.907769868466437,1.032167636810114,-0.5055941406632494,6.439448833465576,0.2757173180580139,-0.8793540000915527,0.4314196109771729,1.478884220123291,-0.5907387733459473,XArbitraryZVertical,-0.5155710914610556,0.09897341622287024,0.6154830959290025,0.5878532281441212,0.7510142922401428,0.4843273460865021,-0.448781430721283,0,0,0,-1,-1,5407.77877575,unknown,2,2022-06-30T09:59:20.667+02:00,2022-06-30T08:20:05.567+02:00,1493,1.407114,0,0,1178.161,0,0,2022-06-30T09:59:20.666+02:00
2022-06-30T09:59:21.869+02:00,5408.980658500001,0.917510986328125,1.848556518554688,-1.14776611328125,5408.9707065,1.840787572472002,1.004465953314932,-0.478927038409638,6.380221366882324,0.6751126646995544,-0.7039030790328979,0.3536077737808228,1.502979397773743,-0.5833820700645447,XArbitraryZVertical,-0.4980528533192221,0.117715267836409,0.608523099248688,0.6064538267673544,0.7489311099052429,0.4608272016048431,-0.4761729538440704,0,0,0,-1,-1,5407.77877575,unknown,2,2022-06-30T09:59:20.667+02:00,2022-06-30T08:20:05.567+02:00,1493,1.407114,0,0,1178.161,0,0,2022-06-30T09:59:20.666+02:00
2022-06-30T09:59:21.879+02:00,5408.990609500001,0.9581298828125,1.839920043945312,-1.07452392578125,5408.980658500001,1.779169092102328,0.9855761976683026,-0.4503212756827954,6.012022972106934,1.107867121696472,-0.4711348712444305,0.2180789709091187,1.461870908737183,-0.6412506699562073,XArbitraryZVertical,-0.4820881547790749,0.1376001807689401,0.6005942721453941,0.6228513999923234,0.7504876852035522,0.4352548122406006,-0.4973143935203552,0,0,0,-1,-1,5407.77877575,unknown,2,2022-06-30T09:59:20.667+02:00,2022-06-30T08:20:05.567+02:00,1493,1.407114,0,0,1178.161,0,0,2022-06-30T09:59:20.666+02:00
2022-06-30T09:59:21.890+02:00,5409.000560500001,1.037948608398438,1.922195434570312,-0.937713623046875,5408.990609500001,1.723848490955965,0.9752278475568034,-0.4205189417663747,5.727790355682373,1.5169438123703,-0.156682938337326,0.1618038415908813,1.440322637557983,-0.6356607675552368,XArbitraryZVertical,-0.4678517888878287,0.1583098540284432,0.5922003114791963,0.6366722774200626,0.7557069659233093,0.4082342386245728,-0.512105405330658,0,0,0,-1,-1,5407.77877575,unknown,2,2022-06-30T09:59:20.667+02:00,2022-06-30T08:20:05.567+02:00,1493,1.407114,0,0,1178.161,0,0,2022-06-30T09:59:20.666+02:00
2022-06-30T09:59:21.899+02:00,5409.0105125,1.114059448242188,2.057296752929688,-0.7794647216796875,5409.000560500001,1.672560498565464,0.9716738912234953,-0.3884480819091343,5.767392635345459,1.814267635345459,0.1557137370109558,0.1938248872756958,1.461167812347412,-0.5526189804077148,XArbitraryZVertical,-0.4544212567825503,0.1804129569537276,0.5835335114898199,0.6484144156416707,0.7643048167228699,0.378752589225769,-0.5219049453735352,0,0,0,-1,-1,5407.77877575,unknown,2,2022-06-30T09:59:20.667+02:00,2022-06-30T08:20:05.567+02:00,1493,1.407114,0,0,1178.161,0,0,2022-06-30T09:59:20.666+02:00
2022-06-30T09:59:21.909+02:00,5409.0204635,1.113540649414062,2.122161865234375,-0.67547607421875,5409.0105125,1.622065025665211,0.9718993503933636,-0.352628508874161,6.15243673324585,1.901087760925293,0.4598824083805084,0.2628131508827209,1.57683002948761,-0.4086693525314331,XArbitraryZVertical,-0.4401824304093279,0.2042480598734444,0.5747050648538476,0.6589660541725716,0.7751352190971375,0.3453657627105713,-0.5290443301200867,0,0,0,-1,-1,5407.77877575,unknown,2,2022-06-30T09:59:20.667+02:00,2022-06-30T08:20:05.567+02:00,1493,1.407114,0,0,1178.161,0,0,2022-06-30T09:59:20.666+02:00
2022-06-30T09:59:21.919+02:00,5409.0304155,1.0560302734375,2.106658935546875,-0.62176513671875,5409.0204635,1.568950943147626,0.9735766356763615,-0.3112510427591622,6.890755176544189,1.925982356071472,0.7293529510498047,0.3268885612487793,1.751047253608704,-0.2441392540931702,XArbitraryZVertical,-0.4234364387579156,0.2303015292354031,0.5655291550566158,0.6692081904437259,0.7871706485748291,0.3062497973442078,-0.5353255867958069,0,0,0,-1,-1,5407.77877575,unknown,2,2022-06-30T09:59:20.667+02:00,2022-06-30T08:20:05.567+02:00,1493,1.407114,0,0,1178.161,0,0,2022-06-30T09:59:20.666+02:00
2022-06-30T09:59:21.929+02:00,5409.0403665,0.9594573974609375,1.958816528320312,-0.53466796875,5409.0304155,1.511487974482053,0.9764430022706014,-0.2636499422875053,7.610773086547852,1.938454985618591,0.9716928601264954,0.3136586546897888,1.861556053161621,-0.1348528265953064,XArbitraryZVertical,-0.4033851245328018,0.2587832568531274,0.5555787440384868,0.6794438113728367,0.7998817563056946,0.2606061100959778,-0.5406233072280884,0,0,0,-1,-1,5407.77877575,unknown,2,2022-06-30T09:59:20.667+02:00,2022-06-30T08:20:05.567+02:00,1493,1.407114,0,0,1178.161,0,0,2022-06-30T09:59:20.666+02:00
2022-06-30T09:59:21.939+02:00,5409.050318500001,0.8707733154296875,1.691940307617188,-0.4355926513671875,5409.0403665,1.451129811037956,0.9817636109836585,-0.211410452419105,7.97833776473999,2.007621049880981,1.158088803291321,0.243063747882843,1.896820068359375,-0.07857728004455566,XArbitraryZVertical,-0.3806707127193332,0.288956385530884,0.544727646189905,0.6891050507163697,0.8129663467407227,0.2098391652107239,-0.5431880354881287,0,0,0,-1,-1,5407.77877575,unknown,2,2022-06-30T09:59:20.667+02:00,2022-06-30T08:20:05.567+02:00,1493,1.407114,0,0,1178.161,0,0,2022-06-30T09:59:20.666+02:00
2022-06-30T09:59:21.949+02:00,5409.060269500001,0.833099365234375,1.42779541015625,-0.3436126708984375,5409.050318500001,1.390490186881321,0.9914886178327456,-0.1575403457972472,7.941679000854492,2.209007263183594,1.247935771942139,0.1329786777496338,1.801927328109741,0.005997121334075928,XArbitraryZVertical,-0.3569179494176046,0.3198076511919588,0.5329677218771368,0.6973364617811231,0.8264785408973694,0.156889483332634,-0.5406652688980103,0,0,0,-1,-1,5407.77877575,unknown,2,2022-06-30T09:59:20.667+02:00,2022-06-30T08:20:05.567+02:00,1493,1.407114,0,0,1178.161,0,0,2022-06-30T09:59:20.666+02:00
2022-06-30T09:59:21.959+02:00,5409.0702215,0.844268798828125,1.234603881835938,-0.2250518798828125,5409.060269500001,1.331623068236816,1.006947329670454,-0.1050788047390295,7.602124691009521,2.448780298233032,1.267871379852295,0.03023070096969604,1.587055087089539,0.09590268135070801,XArbitraryZVertical,-0.3337840488933564,0.3504860070228778,0.5203765775126887,0.703531157927802,0.8405424356460571,0.1048855409026146,-0.5314955115318298,0,0,0,-1,-1,5407.77877575,unknown,2,2022-06-30T09:59:20.667+02:00,2022-06-30T08:20:05.567+02:00,1493,1.407114,0,0,1178.161,0,0,2022-06-30T09:59:20.666+02:00
2022-06-30T09:59:21.969+02:00,5409.0801725,0.845123291015625,1.174362182617188,-0.0347137451171875,5409.0702215,1.275279613991613,1.027683475446586,-0.05547867294064344,7.22247838973999,2.62550687789917,1.270935893058777,-0.02168774604797363,1.372345447540283,0.1723953485488892,XArbitraryZVertical,-0.3119013259007058,0.3804121595728832,0.5072716179244825,0.7075872471782493,0.8547869920730591,0.05545021966099739,-0.5160083174705505,0,0,0,-1,-1,5407.77877575,unknown,2,2022-06-30T09:59:20.667+02:00,2022-06-30T08:20:05.567+02:00,1493,1.407114,0,0,1178.161,0,0,2022-06-30T09:59:20.666+02:00
2022-06-30T09:59:21.979+02:00,5409.0901245,0.8247528076171875,1.16326904296875,0.084228515625,5409.0801725,1.221870723028022,1.052737160592742,-0.009539981754312442,6.701684951782227,2.763614892959595,1.263314962387085,-0.02447372674942017,1.225064277648926,0.270120233297348,XArbitraryZVertical,-0.2915668047432154,0.4091486406115787,0.4940166004446841,0.7096011468705747,0.8687423467636108,0.009539837017655373,-0.495172381401062,0,0,0,-1,-1,5407.77877575,unknown,2,2022-06-30T09:59:20.667+02:00,2022-06-30T08:20:05.567+02:00,1493,1.407114,0,0,1178.161,0,0,2022-06-30T09:59:20.666+02:00
2022-06-30T09:59:21.989+02:00,5409.1000755,0.7991485595703125,1.20440673828125,0.20562744140625,5409.0901245,1.171137462548502,1.081483010054245,0.03281953578751827,6.366222858428955,2.896757125854492,1.265458345413208,-0.03705739974975586,1.207176089286804,0.435052752494812,XArbitraryZVertical,-0.2727382225626706,0.4367269766852349,0.4807978333474391,0.7097302320526752,0.8821805715560913,-0.03281364589929581,-0.4697668254375458,0,0,0,-1,-1,5407.77877575,unknown,2,2022-06-30T09:59:20.667+02:00,2022-06-30T08:20:05.567+02:00,1493,1.407114,0,0,1178.161,0,0,2022-06-30T09:59:20.666+02:00
2022-06-30T09:59:21.999+02:00,5409.1100275,0.752105712890625,1.201950073242188,0.3108367919921875,5409.1000755,1.121282187817287,1.113310185881444,0.07234906383023634,6.166481494903564,2.968892812728882,1.239002704620361,-0.07006591558456421,1.235555171966553,0.5247668623924255,XArbitraryZVertical,-0.2547491635994096,0.4635013607903731,0.4673405836347267,0.7084224039336108,0.8948187232017517,-0.0722859650850296,-0.4405387043952942,0,0,0,-1,-1,5407.77877575,unknown,2,2022-06-30T09:59:20.667+02:00,2022-06-30T08:20:05.567+02:00,1493,1.407114,0,0,1178.161,0,0,2022-06-30T09:59:20.666+02:00
2022-06-30T09:59:22.009+02:00,5409.1199785,0.6880645751953125,1.1002197265625,0.3551025390625,5409.1100275,1.071307719354528,1.147720465455456,0.1093184250586412,6.058564186096191,3.042312383651733,1.2188880443573,-0.1072390079498291,1.313507795333862,0.6137434244155884,XArbitraryZVertical,-0.2372185961753707,0.4895602077794765,0.4535069566525664,0.7059672079564184,0.9063874483108521,-0.1091008186340332,-0.4081162810325623,0,0,0,-1,-1,5407.77877575,unknown,2,2022-06-30T09:59:20.667+02:00,2022-06-30T08:20:05.567+02:00,1493,1.407114,0,0,1178.161,0,0,2022-06-30T09:59:20.666+02:00
2022-06-30T09:59:22.019+02:00,5409.1299305,0.651214599609375,0.9406890869140625,0.3289642333984375,5409.1199785,1.020700125527977,1.184757935303604,0.1438334673182727,5.942945003509521,3.121579885482788,1.187257409095764,-0.1647360920906067,1.345288276672363,0.6834697723388672,XArbitraryZVertical,-0.2200169548603388,0.5150494167662627,0.4392118302967966,0.7024312139416548,0.9168416857719421,-0.1433380395174026,-0.3726332783699036,0,0,0,-1,-1,5407.77877575,unknown,2,2022-06-30T09:59:20.667+02:00,2022-06-30T08:20:05.567+02:00,1493,1.407114,0,0,1178.161,0,0,2022-06-30T09:59:20.666+02:00
2022-06-30T09:59:22.029+02:00,5409.1398815,0.590972900390625,0.7812347412109375,0.3198699951171875,5409.1299305,0.9696245763763615,1.223901689728441,0.1757549002343391,5.828488349914551,3.116535902023315,1.166191577911377,-0.2378810048103333,1.275071382522583,0.6898438334465027,XArbitraryZVertical,-0.2031327695680462,0.5397835266995729,0.424604683121698,0.6979124269609733,0.925945520401001,-0.1748514622449875,-0.3347416520118713,0,0,0,-1,-1,5407.77877575,unknown,2,2022-06-30T09:59:20.667+02:00,2022-06-30T08:20:05.567+02:00,1493,1.407114,0,0,1178.161,0,0,2022-06-30T09:59:20.666+02:00
2022-06-30T09:59:22.039+02:00,5409.1498325,0.5214080810546875,0.698486328125,0.2805633544921875,5409.1398815,0.9180442098637536,1.264788021914702,0.2049004994769447,5.676056861877441,3.160346984863281,1.121428847312927,-0.2823822498321533,1.144158959388733,0.6239167451858521,XArbitraryZVertical,-0.1865622801393163,0.5636648451574656,0.4097069295999564,0.6925436483078261,0.9335967302322388,-0.2034697383642197,-0.294952929019928,0,0,0,-1,-1,5407.77877575,unknown,2,2022-06-30T09:59:20.667+02:00,2022-06-30T08:20:05.567+02:00,1493,1.407114,0,0,1178.161,0,0,2022-06-30T09:59:20.666+02:00
