loggingTime(txt),accelerometerTimestamp_sinceReboot(s),accelerometerAccelerationX(G),accelerometerAccelerationY(G),accelerometerAccelerationZ(G),motionTimestamp_sinceReboot(s),motionYaw(rad),motionRoll(rad),motionPitch(rad),motionRotationRateX(rad/s),motionRotationRateY(rad/s),motionRotationRateZ(rad/s),motionUserAccelerationX(G),motionUserAccelerationY(G),motionUserAccelerationZ(G),motionAttitudeReferenceFrame(txt),motionQuaternionX(R),motionQuaternionY(R),motionQuaternionZ(R),motionQuaternionW(R),motionGravityX(G),motionGravityY(G),motionGravityZ(G),motionMagneticFieldX(µT),motionMagneticFieldY(µT),motionMagneticFieldZ(µT),motionHeading(°),motionMagneticFieldCalibrationAccuracy(Z),activityTimestamp_sinceReboot(s),activity(txt),activityActivityConfidence(Z),activityActivityStartDate(txt),pedometerStartDate(txt),pedometerNumberofSteps(N),pedometerAverageActivePace(s/m),pedometerCurrentPace(s/m),pedometerCurrentCadence(steps/s),pedometerDistance(m),pedometerFloorAscended(N),pedometerFloorDescended(N),pedometerEndDate(txt)
2022-06-30T09:59:48.649+02:00,5435.745440916667,0.0484771728515625,-0.226165771484375,-0.9049072265625,5435.735489916667,-0.08323502097174527,0.06723315307846227,0.3397319029745632,-0.2678814232349396,-0.04778974130749702,-0.2926712334156036,0.02132804691791534,-0.04234576225280762,0.1057224869728088,XArbitraryZVertical,0.1701866595582744,0.02606837806056509,-0.03530661847633571,0.9844341027202064,0.0633426308631897,-0.3332343399524689,-0.9407138824462891,0,0,0,-1,-1,5433.254320916667,unknown,2,2022-06-30T09:59:46.142+02:00,2022-06-30T08:20:05.567+02:00,1493,1.420341,0,0,1178.161,0,0,2022-06-30T09:59:46.142+02:00
2022-06-30T09:59:48.651+02:00,5435.755392916667,0.0256805419921875,-0.2533721923828125,-0.91888427734375,5435.745440916667,-0.08628957329860268,0.06741441935250531,0.3385003664896566,0.03329865261912346,-0.1249242052435875,-0.2951176166534424,-0.01195112615823746,0.006022840738296509,0.02173864841461182,XArbitraryZVertical,0.1696237244329596,0.02592730421942945,-0.03681956420774458,0.984479607419382,0.0635407492518425,-0.3320729434490204,-0.941111147403717,0,0,0,-1,-1,5433.254320916667,unknown,2,2022-06-30T09:59:46.142+02:00,2022-06-30T08:20:05.567+02:00,1493,1.420341,0,0,1178.161,0,0,2022-06-30T09:59:46.142+02:00
2022-06-30T09:59:48.654+02:00,5435.765343916667,0.0344696044921875,-0.301483154296875,-0.9340362548828125,5435.755392916667,-0.08942037366276673,0.06699789665252351,0.33958824677506,0.2131035774946213,-0.1651643067598343,-0.2793197333812714,-0.01464769244194031,0.1069328188896179,0.03586935997009277,XArbitraryZVertical,0.1701912895911769,0.02542970675275335,-0.0383739195906085,0.9843352073341362,0.06312452256679535,-0.3330988883972168,-0.940776526927948,0,0,0,-1,-1,5433.254320916667,unknown,2,2022-06-30T09:59:46.142+02:00,2022-06-30T08:20:05.567+02:00,1493,1.420341,0,0,1178.161,0,0,2022-06-30T09:59:46.142+02:00
2022-06-30T09:59:48.664+02:00,5435.775295916667,0.058563232421875,-0.2915496826171875,-0.94287109375,5435.765343916667,-0.09237247272447642,0.06630370888211848,0.3415643250547314,0.1871294975280762,-0.1724997162818909,-0.2457338273525238,-0.03674750030040741,0.0815889835357666,0.02127730846405029,XArbitraryZVertical,0.1711867268917698,0.02478635328677535,-0.03984592028025247,0.9841204819872192,0.06242769956588745,-0.3349614441394806,-0.9401614665985107,0,0,0,-1,-1,5433.254320916667,unknown,2,2022-06-30T09:59:46.142+02:00,2022-06-30T08:20:05.567+02:00,1493,1.420341,0,0,1178.161,0,0,2022-06-30T09:59:46.142+02:00
2022-06-30T09:59:48.674+02:00,5435.785246916667,0.07061767578125,-0.27142333984375,-0.978729248046875,5435.775295916667,-0.09488537282604174,0.06547742268161914,0.3424422805481982,0.01848109066486359,-0.1623024791479111,-0.2217507213354111,-0.02716230973601341,0.03430512547492981,0.005882740020751953,XArbitraryZVertical,0.1716324899914369,0.02414173643418258,-0.04113543662607488,0.984005791700293,0.06163157150149345,-0.3357885777950287,-0.9399189352989197,0,0,0,-1,-1,5433.254320916667,unknown,2,2022-06-30T09:59:46.142+02:00,2022-06-30T08:20:05.567+02:00,1493,1.420341,0,0,1178.161,0,0,2022-06-30T09:59:46.142+02:00
2022-06-30T09:59:48.684+02:00,5435.795198916667,0.0773773193359375,-0.23358154296875,-1.006790161132812,5435.785246916667,-0.09721681949691428,0.06477199805697585,0.3418544151026096,-0.09733818471431732,-0.1385084688663483,-0.2283042371273041,-0.002418387681245804,0.04368481040000916,-0.002712011337280273,XArbitraryZVertical,0.1713565267326411,0.0236102734911509,-0.04235482953773788,0.9840150266529799,0.06098128110170364,-0.3352347910404205,-0.9401589632034302,0,0,0,-1,-1,5433.254320916667,unknown,2,2022-06-30T09:59:46.142+02:00,2022-06-30T08:20:05.567+02:00,1493,1.420341,0,0,1178.161,0,0,2022-06-30T09:59:46.142+02:00
2022-06-30T09:59:48.694+02:00,5435.805149916667,0.0723724365234375,-0.2138519287109375,-1.013687133789062,5435.795198916667,-0.09959276416530298,0.06425771347435022,0.340486102762373,-0.1391234397888184,-0.1235603988170624,-0.2341850250959396,0.010090172290802,0.06252172589302063,-0.0380820631980896,XArbitraryZVertical,0.1707003865480961,0.02319093912512677,-0.04359525788504098,0.9840849370834788,0.06052716076374054,-0.3339453339576721,-0.9406471252441406,0,0,0,-1,-1,5433.254320916667,unknown,2,2022-06-30T09:59:46.142+02:00,2022-06-30T08:20:05.567+02:00,1493,1.420341,0,0,1178.161,0,0,2022-06-30T09:59:46.142+02:00
2022-06-30T09:59:48.704+02:00,5435.815100916667,0.069854736328125,-0.2209320068359375,-1.000213623046875,5435.805149916667,-0.1019441782344452,0.06389448144745141,0.3391437208095167,-0.09662226587533951,-0.1073240414261818,-0.2288846969604492,0.01716292649507523,0.09909787774085999,-0.0656745433807373,XArbitraryZVertical,0.1700592596114515,0.02284882106352139,-0.04481011154873799,0.9841493664765554,0.06021405383944511,-0.3326797187328339,-0.9411155581474304,0,0,0,-1,-1,5435.807672916667,unknown,2,2022-06-30T09:59:48.696+02:00,2022-06-30T08:20:05.567+02:00,1493,1.420341,0,0,1178.161,0,0,2022-06-30T09:59:48.695+02:00
2022-06-30T09:59:48.714+02:00,5435.825052916667,0.06903076171875,-0.24603271484375,-0.97515869140625,5435.815100916667,-0.104223209972582,0.06362803694313969,0.3383103605473458,-0.04350505024194717,-0.09944293648004532,-0.2105220258235931,0.01239119470119476,0.1180414855480194,-0.07227915525436401,XArbitraryZVertical,0.169669236250851,0.02254753108936748,-0.04597089933764106,0.9841700514848473,0.05998090282082558,-0.3318937122821808,-0.9414079189300537,0,0,0,-1,-1,5435.807672916667,unknown,2,2022-06-30T09:59:48.696+02:00,2022-06-30T08:20:05.567+02:00,1493,1.420341,0,0,1178.161,0,0,2022-06-30T09:59:48.695+02:00
2022-06-30T09:59:48.724+02:00,5435.835003916667,0.0687103271484375,-0.2840728759765625,-0.9563751220703125,5435.825052916667,-0.1063850544473542,0.06338149715495404,0.3378575002579749,-0.02933463454246521,-0.0982370600104332,-0.2077355682849884,0.01009608060121536,0.1105341911315918,-0.05864095687866211,XArbitraryZVertical,0.1694650015292445,0.0222558727497943,-0.04706468838707629,0.9841601660413987,0.05975832045078278,-0.3314664661884308,-0.9415726065635681,0,0,0,-1,-1,5435.807672916667,unknown,2,2022-06-30T09:59:48.696+02:00,2022-06-30T08:20:05.567+02:00,1493,1.420341,0,0,1178.161,0,0,2022-06-30T09:59:48.695+02:00
2022-06-30T09:59:48.737+02:00,5435.844955916667,0.0743865966796875,-0.301361083984375,-0.938507080078125,5435.835003916667,-0.1086498583313028,0.06320883949925689,0.337351758033458,-0.04537924751639366,-0.08736021816730499,-0.2286727428436279,0.00942409411072731,0.08495628833770752,-0.033408522605896,XArbitraryZVertical,0.1692372259694853,0.02199386823797255,-0.04820392596180204,0.984150097211123,0.05960633233189583,-0.330989271402359,-0.9417500495910645,0,0,0,-1,-1,5435.807672916667,unknown,2,2022-06-30T09:59:48.696+02:00,2022-06-30T08:20:05.567+02:00,1493,1.420341,0,0,1178.161,0,0,2022-06-30T09:59:48.695+02:00
2022-06-30T09:59:48.755+02:00,5435.854906916667,0.0735015869140625,-0.2915191650390625,-0.9218597412109375,5435.844955916667,-0.1111749371905078,0.06314796238173384,0.3365405676076823,-0.08986255526542664,-0.09105721861124039,-0.2609699666500092,0.009144067764282227,0.04615053534507751,-0.01435369253158569,XArbitraryZVertical,0.1688644366341038,0.02177457577232716,-0.04946794752460879,0.9841562878970375,0.05956592410802841,-0.3302237093448639,-0.9420213103294373,0,0,0,-1,-1,5435.807672916667,unknown,2,2022-06-30T09:59:48.696+02:00,2022-06-30T08:20:05.567+02:00,1493,1.420341,0,0,1178.161,0,0,2022-06-30T09:59:48.695+02:00
2022-06-30T09:59:48.758+02:00,5435.864857916667,0.0667877197265625,-0.2738800048828125,-0.92486572265625,5435.854906916667,-0.1139784743830618,0.06313366082140252,0.3352241889067664,-0.1370678842067719,-0.09427478164434433,-0.2852261960506439,0.01480643451213837,0.02761951088905334,0.003948211669921875,XArbitraryZVertical,0.1682470612669065,0.02157121868832156,-0.05087537372048011,0.9841948294843599,0.05957982689142227,-0.3289808928966522,-0.9424552321434021,0,0,0,-1,-1,5435.807672916667,unknown,2,2022-06-30T09:59:48.696+02:00,2022-06-30T08:20:05.567+02:00,1493,1.420341,0,0,1178.161,0,0,2022-06-30T09:59:48.695+02:00
2022-06-30T09:59:48.764+02:00,5435.874809916667,0.06121826171875,-0.2530975341796875,-0.9306488037109375,5435.864857916667,-0.1170672225464449,0.06314980001372321,0.3335954765276032,-0.1493003219366074,-0.1042368710041046,-0.3182296752929688,0.01387248188257217,0.03592294454574585,0.02112805843353271,XArbitraryZVertical,0.1674796314976281,0.02137052170119782,-0.0524271527586052,0.984248615329689,0.05962877348065376,-0.3274424076080322,-0.9429877400398254,0,0,0,-1,-1,5435.807672916667,unknown,2,2022-06-30T09:59:48.696+02:00,2022-06-30T08:20:05.567+02:00,1493,1.420341,0,0,1178.161,0,0,2022-06-30T09:59:48.695+02:00
2022-06-30T09:59:48.774+02:00,5435.884760916667,0.0567779541015625,-0.2350616455078125,-0.9404144287109375,5435.874809916667,-0.1204497836746132,0.06313318357464175,0.3319533258213994,-0.1357913613319397,-0.1213325336575508,-0.3445814251899719,0.007140442728996277,0.05201002955436707,0.01865845918655396,XArbitraryZVertical,0.1667074891798737,0.02113205635228396,-0.05412680251163206,0.984292789915254,0.05964694917201996,-0.3258903324604034,-0.9435241222381592,0,0,0,-1,-1,5435.807672916667,unknown,2,2022-06-30T09:59:48.696+02:00,2022-06-30T08:20:05.567+02:00,1493,1.420341,0,0,1178.161,0,0,2022-06-30T09:59:48.695+02:00
2022-06-30T09:59:48.784+02:00,5435.894712916667,0.0504913330078125,-0.2219696044921875,-0.955841064453125,5435.884760916667,-0.1240727190095111,0.06296988820878074,0.330539019724042,-0.1024507209658623,-0.1466482877731323,-0.3600690364837646,0.001696109771728516,0.07145509123802185,0.0133441686630249,XArbitraryZVertical,0.1660453672791471,0.02079656219540799,-0.05595247981614907,0.9843097720469762,0.05952182039618492,-0.3245529234409332,-0.9439928531646729,0,0,0,-1,-1,5435.807672916667,unknown,2,2022-06-30T09:59:48.696+02:00,2022-06-30T08:20:05.567+02:00,1493,1.420341,0,0,1178.161,0,0,2022-06-30T09:59:48.695+02:00
2022-06-30T09:59:48.794+02:00,5435.904663916667,0.0447845458984375,-0.2160491943359375,-0.970794677734375,5435.894712916667,-0.1277648016553933,0.06260333741612682,0.329467776110658,-0.06688400357961655,-0.1660503745079041,-0.3544607758522034,-0.002419888973236084,0.08847755193710327,0.00394672155380249,XArbitraryZVertical,0.1655460438844333,0.02034607986388009,-0.05782201177684346,0.9842952784634672,0.05919751152396202,-0.3235394656658173,-0.9443610906600952,0,0,0,-1,-1,5435.807672916667,unknown,2,2022-06-30T09:59:48.696+02:00,2022-06-30T08:20:05.567+02:00,1493,1.420341,0,0,1178.161,0,0,2022-06-30T09:59:48.695+02:00
2022-06-30T09:59:48.803+02:00,5435.914615916667,0.03814697265625,-0.2247314453125,-0.9894561767578125,5435.904663916667,-0.1312942877059375,0.06185706982565767,0.3283208811132159,-0.04893243685364723,-0.180498018860817,-0.3368796408176422,-0.008024644106626511,0.100484162569046,-0.0110662579536438,XArbitraryZVertical,0.1649954285556988,0.01972665518599515,-0.0596443417008689,0.9842915780546859,0.05851564928889275,-0.3224540650844574,-0.9447747468948364,0,0,0,-1,-1,5435.807672916667,unknown,2,2022-06-30T09:59:48.696+02:00,2022-06-30T08:20:05.567+02:00,1493,1.420341,0,0,1178.161,0,0,2022-06-30T09:59:48.695+02:00
2022-06-30T09:59:48.813+02:00,5435.924566916667,0.028594970703125,-0.2378082275390625,-0.9993896484375,5435.914615916667,-0.1346273053386955,0.06092007727095327,0.3272859342187679,-0.05269847810268402,-0.1848001778125763,-0.3139820098876953,-0.01286644488573074,0.1054247319698334,-0.02563285827636719,XArbitraryZVertical,0.1644903580216416,0.01902745998906956,-0.06138308307417358,0.9842830580750637,0.05765066295862198,-0.3214742243289948,-0.945161759853363,0,0,0,-1,-1,5435.807672916667,unknown,2,2022-06-30T09:59:48.696+02:00,2022-06-30T08:20:05.567+02:00,1493,1.420341,0,0,1178.161,0,0,2022-06-30T09:59:48.695+02:00
2022-06-30T09:59:48.823+02:00,5435.934517916667,0.011260986328125,-0.244293212890625,-0.9909515380859375,5435.924566916667,-0.1377439621162015,0.05987709528715021,0.3260928092681296,-0.08060122281312943,-0.1900284886360168,-0.3002819120883942,-0.0185411162674427,0.09561246633529663,-0.04385250806808472,XArbitraryZVertical,0.163900228917971,0.01830124636913031,-0.06302688712905374,0.9842912965765531,0.05668775737285614,-0.3203442096710205,-0.9456035494804382,0,0,0,-1,-1,5435.807672916667,unknown,2,2022-06-30T09:59:48.696+02:00,2022-06-30T08:20:05.567+02:00,1493,1.420341,0,0,1178.161,0,0,2022-06-30T09:59:48.695+02:00
2022-06-30T09:59:48.833+02:00,5435.944469916667,-0.0030364990234375,-0.246124267578125,-0.97064208984375,5435.934517916667,-0.1406719601309724,0.05877607771520643,0.3245763075510043,-0.1179866790771484,-0.186956599354744,-0.2823744118213654,-0.02708042785525322,0.08109873533248901,-0.05324023962020874,XArbitraryZVertical,0.1631455016307347,0.0175756267451541,-0.06458860738406215,0.9843287496496294,0.05567507073283195,-0.318907231092453,-0.9461492896080017,0,0,0,-1,-1,5435.807672916667,unknown,2,2022-06-30T09:59:48.696+02:00,2022-06-30T08:20:05.567+02:00,1493,1.420341,0,0,1178.161,0,0,2022-06-30T09:59:48.695+02:00
2022-06-30T09:59:48.844+02:00,5435.954420916667,-0.01861572265625,-0.2329559326171875,-0.95196533203125,5435.944469916667,-0.1434119198276713,0.05762698928609868,0.3226643206140352,-0.1540812999010086,-0.1797056198120117,-0.2713342607021332,-0.04336218535900116,0.07280099391937256,-0.0441318154335022,XArbitraryZVertical,0.1621911592376607,0.01685860656981117,-0.0660689410025833,0.9844006624387535,0.0546228438615799,-0.3170945048332214,-0.9468196034431458,0,0,0,-1,-1,5435.807672916667,unknown,2,2022-06-30T09:59:48.696+02:00,2022-06-30T08:20:05.567+02:00,1493,1.420341,0,0,1178.161,0,0,2022-06-30T09:59:48.695+02:00
2022-06-30T09:59:48.854+02:00,5435.964372916667,-0.0255584716796875,-0.2061920166015625,-0.9367523193359375,5435.954420916667,-0.1459602543825674,0.05652236324912915,0.3205016728146269,-0.1694952100515366,-0.1716149598360062,-0.2441214174032211,-0.05665237084031105,0.06891816854476929,-0.02308011054992676,XArbitraryZVertical,0.1611115477404925,0.0161909572412939,-0.06745545919566863,0.984495115265531,0.05361554399132729,-0.3150427341461182,-0.9475618600845337,0,0,0,-1,-1,5435.807672916667,unknown,2,2022-06-30T09:59:48.696+02:00,2022-06-30T08:20:05.567+02:00,1493,1.420341,0,0,1178.161,0,0,2022-06-30T09:59:48.695+02:00
2022-06-30T09:59:48.863+02:00,5435.974323916667,-0.0257110595703125,-0.1799468994140625,-0.9323883056640625,5435.964372916667,-0.1482094673145278,0.05532791218964288,0.318360725554511,-0.1545985490083694,-0.1729233711957932,-0.2144434154033661,-0.07113691419363022,0.08005383610725403,-0.003668725490570068,XArbitraryZVertical,0.1600354659230764,0.01550475000400608,-0.06870055107897283,0.9845956620182291,0.05252086743712425,-0.3130100667476654,-0.9482964873313904,0,0,0,-1,-1,5435.807672916667,unknown,2,2022-06-30T09:59:48.696+02:00,2022-06-30T08:20:05.567+02:00,1493,1.420341,0,0,1178.161,0,0,2022-06-30T09:59:48.695+02:00
2022-06-30T09:59:48.873+02:00,5435.984275916667,-0.028228759765625,-0.18048095703125,-0.9457855224609375,5435.974323916667,-0.1501657973755142,0.05400190642463233,0.3164555245893723,-0.130419909954071,-0.1840308159589767,-0.1899085342884064,-0.07685426622629166,0.1050077080726624,0.01220685243606567,XArbitraryZVertical,0.1590669953798164,0.01477003979851595,-0.06980632352346694,0.9846861496067842,0.05129547044634819,-0.3112000524997711,-0.9489590525627136,0,0,0,-1,-1,5435.807672916667,unknown,2,2022-06-30T09:59:48.696+02:00,2022-06-30T08:20:05.567+02:00,1493,1.420341,0,0,1178.161,0,0,2022-06-30T09:59:48.695+02:00
2022-06-30T09:59:48.883+02:00,5435.994226916667,-0.025848388671875,-0.2062835693359375,-0.963653564453125,5435.984275916667,-0.1519854166579651,0.05255547996829135,0.3148818118275435,-0.08826632797718048,-0.1828084141016006,-0.1838141530752182,-0.0756598636507988,0.129756897687912,0.01713192462921143,XArbitraryZVertical,0.158254891575122,0.01397543164629511,-0.07084695325421923,0.9847541727795102,0.04994848370552063,-0.3097040951251984,-0.9495201706886292,0,0,0,-1,-1,5435.807672916667,unknown,2,2022-06-30T09:59:48.696+02:00,2022-06-30T08:20:05.567+02:00,1493,1.420341,0,0,1178.161,0,0,2022-06-30T09:59:48.695+02:00
2022-06-30T09:59:48.893+02:00,5436.004177916667,-0.0204010009765625,-0.232269287109375,-0.969757080078125,5435.994226916667,-0.1538393298463057,0.05116760507722617,0.313720877178824,-0.06471113860607147,-0.1749822795391083,-0.1873235702514648,-0.07687805593013763,0.1281187832355499,0.004161596298217773,XArbitraryZVertical,0.1576466814660595,0.0131917739287706,-0.07189115566851259,0.9847869096177901,0.04864897578954697,-0.3086000382900238,-0.9499469995498657,0,0,0,-1,-1,5435.807672916667,unknown,2,2022-06-30T09:59:48.696+02:00,2022-06-30T08:20:05.567+02:00,1493,1.420341,0,0,1178.161,0,0,2022-06-30T09:59:48.695+02:00
2022-06-30T09:59:48.916+02:00,5436.014129916667,-0.0218353271484375,-0.2457733154296875,-0.97216796875,5436.004177916667,-0.1556687710853608,0.04992946447584028,0.3125200897241883,-0.09590314328670502,-0.1499522924423218,-0.1805974841117859,-0.07333993911743164,0.1011737585067749,-0.01327753067016602,XArbitraryZVertical,0.1570226989116088,0.01248638056184237,-0.07291155358450103,0.9848207813600346,0.04749123379588127,-0.3074576258659363,-0.9503759145736694,0,0,0,-1,-1,5435.807672916667,unknown,2,2022-06-30T09:59:48.696+02:00,2022-06-30T08:20:05.567+02:00,1493,1.420341,0,0,1178.161,0,0,2022-06-30T09:59:48.695+02:00
2022-06-30T09:59:48.919+02:00,5436.024080916667,-0.0357818603515625,-0.2360382080078125,-0.9606170654296875,5436.014129916667,-0.1574158029669949,0.04891636762255945,0.3108365867803303,-0.1620410829782486,-0.1245518624782562,-0.1786455512046814,-0.06695495545864105,0.07358565926551819,-0.01881778240203857,XArbitraryZVertical,0.156167672844286,0.01191893376121599,-0.07388185753318599,0.9848914938773173,0.04655362665653229,-0.3058552443981171,-0.9509391784667969,0,0,0,-1,-1,5435.807672916667,unknown,2,2022-06-30T09:59:48.696+02:00,2022-06-30T08:20:05.567+02:00,1493,1.420341,0,0,1178.161,0,0,2022-06-30T09:59:48.695+02:00
2022-06-30T09:59:48.923+02:00,5436.034032916667,-0.04815673828125,-0.2171478271484375,-0.94305419921875,5436.024080916667,-0.1591682190906112,0.04814378477415686,0.3084760227972247,-0.2263873070478439,-0.1013061925768852,-0.1920231431722641,-0.0676892027258873,0.05783331394195557,-0.02047449350357056,XArbitraryZVertical,0.1549873841636903,0.01149871341306726,-0.07484756933282567,0.9850100098514951,0.04585355520248413,-0.3036069571971893,-0.9516933560371399,0,0,0,-1,-1,5435.807672916667,unknown,2,2022-06-30T09:59:48.696+02:00,2022-06-30T08:20:05.567+02:00,1493,1.420341,0,0,1178.161,0,0,2022-06-30T09:59:48.695+02:00
2022-06-30T09:59:48.933+02:00,5436.043983916667,-0.0682830810546875,-0.192657470703125,-0.9195709228515625,5436.034032916667,-0.1610643586131512,0.04760041130627175,0.3056328134273562,-0.2546710968017578,-0.08785632252693176,-0.2059224843978882,-0.08115949481725693,0.06485822796821594,-0.008040428161621094,XArbitraryZVertical,0.153578106925747,0.01120231500105255,-0.07587431159347979,0.9851555802344812,0.04537731409072876,-0.3008967339992523,-0.9525765180587769,0,0,0,-1,-1,5435.807672916667,unknown,2,2022-06-30T09:59:48.696+02:00,2022-06-30T08:20:05.567+02:00,1493,1.420341,0,0,1178.161,0,0,2022-06-30T09:59:48.695+02:00
2022-06-30T09:59:48.943+02:00,5436.053934916667,-0.0905303955078125,-0.16973876953125,-0.88848876953125,5436.043983916667,-0.1631940992782916,0.04728147754786143,0.3026377095073862,-0.2618483006954193,-0.06561759859323502,-0.2391930818557739,-0.09327295422554016,0.080890953540802,0.01043277978897095,XArbitraryZVertical,0.1521032003423745,0.01100764227239504,-0.07700118944872759,0.9852990543878288,0.04511589556932449,-0.2980390787124634,-0.9534869194030762,0,0,0,-1,-1,5435.807672916667,unknown,2,2022-06-30T09:59:48.696+02:00,2022-06-30T08:20:05.567+02:00,1493,1.420341,0,0,1178.161,0,0,2022-06-30T09:59:48.695+02:00
2022-06-30T09:59:48.953+02:00,5436.063886916667,-0.10833740234375,-0.15692138671875,-0.853607177734375,5436.053934916667,-0.1656589176932762,0.04735092537710765,0.2995505579988714,-0.274465948343277,-0.03459089994430542,-0.2713451087474823,-0.1135088503360748,0.1024330854415894,0.03482747077941895,XArbitraryZVertical,0.1505993582748104,0.01098608020649202,-0.07826529089478465,0.9854307130240404,0.04522544518113136,-0.2950907945632935,-0.9543982744216919,0,0,0,-1,-1,5435.807672916667,unknown,2,2022-06-30T09:59:48.696+02:00,2022-06-30T08:20:05.567+02:00,1493,1.420341,0,0,1178.161,0,0,2022-06-30T09:59:48.695+02:00
2022-06-30T09:59:48.963+02:00,5436.073837916667,-0.122589111328125,-0.14471435546875,-0.8209075927734375,5436.063886916667,-0.1684634528277367,0.04774877472749898,0.2962232991056719,-0.3114745616912842,-0.01811392232775688,-0.3092890083789825,-0.1361824721097946,0.1221710443496704,0.06686699390411377,XArbitraryZVertical,0.1489920428485828,0.01111514115001282,-0.07967698815378634,0.985560449474167,0.04565175995230675,-0.2919100821018219,-0.9553556442260742,0,0,0,-1,-1,5435.807672916667,unknown,2,2022-06-30T09:59:48.696+02:00,2022-06-30T08:20:05.567+02:00,1493,1.420341,0,0,1178.161,0,0,2022-06-30T09:59:48.695+02:00
2022-06-30T09:59:48.973+02:00,5436.083789916667,-0.1459503173828125,-0.1257781982421875,-0.7832183837890625,5436.073837916667,-0.1716650436120752,0.04844578725512224,0.2924558030990885,-0.3599279522895813,0.0008429794106632471,-0.3494748771190643,-0.1547082960605621,0.131382942199707,0.1028082370758057,XArbitraryZVertical,0.1471825479281581,0.01138641124194956,-0.08127127025951107,0.9856990486631567,0.04637057334184647,-0.2883046269416809,-0.9564152956008911,0,0,0,-1,-1,5435.807672916667,unknown,2,2022-06-30T09:59:48.696+02:00,2022-06-30T08:20:05.567+02:00,1493,1.420341,0,0,1178.161,0,0,2022-06-30T09:59:48.695+02:00
2022-06-30T09:59:48.983+02:00,5436.093740916667,-0.170013427734375,-0.1083984375,-0.7471771240234375,5436.083789916667,-0.1752868882135425,0.0494521916448544,0.2881018348082159,-0.433099627494812,0.02472780458629131,-0.3948402404785156,-0.1699841171503067,0.1394181549549103,0.1367053389549255,XArbitraryZVertical,0.1451002134322787,0.01181203367027092,-0.08306268145390369,0.9858534232749893,0.04739469289779663,-0.2841328084468842,-0.9576128125190735,0,0,0,-1,-1,5435.807672916667,unknown,2,2022-06-30T09:59:48.696+02:00,2022-06-30T08:20:05.567+02:00,1493,1.420341,0,0,1178.161,0,0,2022-06-30T09:59:48.695+02:00
2022-06-30T09:59:48.993+02:00,5436.103692916667,-0.18353271484375,-0.09674072265625,-0.707305908203125,5436.093740916667,-0.1792935224212178,0.05084883991477755,0.2828628560323314,-0.5383064150810242,0.06055638566613197,-0.4323598146438599,-0.1947577148675919,0.1533273458480835,0.1758008599281311,XArbitraryZVertical,0.14260217298268,0.01245114318960655,-0.08503512290100959,0.9860419331921836,0.04880708456039429,-0.2791058719158173,-0.9590191841125488,0,0,0,-1,-1,5435.807672916667,unknown,2,2022-06-30T09:59:48.696+02:00,2022-06-30T08:20:05.567+02:00,1493,1.420341,0,0,1178.161,0,0,2022-06-30T09:59:48.695+02:00
2022-06-30T09:59:49.002+02:00,5436.113643916667,-0.1864776611328125,-0.0803985595703125,-0.66259765625,5436.103692916667,-0.1835724122257369,0.05263248416534246,0.2764762754538007,-0.6648014783859253,0.08979657292366028,-0.4671508371829987,-0.2206240445375443,0.164568692445755,0.2135140299797058,XArbitraryZVertical,0.1395595040284617,0.01332662327548994,-0.08714091265280956,0.9862819281935135,0.05061030015349388,-0.2729674577713013,-0.9606910943984985,0,0,0,-1,-1,5435.807672916667,unknown,2,2022-06-30T09:59:48.696+02:00,2022-06-30T08:20:05.567+02:00,1493,1.420341,0,0,1178.161,0,0,2022-06-30T09:59:48.695+02:00
2022-06-30T09:59:49.013+02:00,5436.123594916667,-0.1843109130859375,-0.0636138916015625,-0.606475830078125,5436.113643916667,-0.188204497604667,0.05476062570709163,0.2686762982279923,-0.8235020637512207,0.1104173511266708,-0.5192695260047913,-0.2363026291131973,0.1687144339084625,0.2553721070289612,XArbitraryZVertical,0.1358411351049036,0.01442997578771357,-0.08943143811076361,0.9865805556715342,0.05276960134506226,-0.2654554545879364,-0.9626778960227966,0,0,0,-1,-1,5435.807672916667,unknown,2,2022-06-30T09:59:48.696+02:00,2022-06-30T08:20:05.567+02:00,1493,1.420341,0,0,1178.161,0,0,2022-06-30T09:59:48.695+02:00
2022-06-30T09:59:49.022+02:00,5436.133546916667,-0.1955413818359375,-0.062591552734375,-0.5543212890625,5436.123594916667,-0.1934309106960058,0.05722124407569304,0.2590922043846706,-1.024412035942078,0.131438747048378,-0.6129429936408997,-0.2417591512203217,0.1758042871952057,0.3024433255195618,XArbitraryZVertical,0.1312669711711257,0.01576492462856205,-0.09203814262140131,0.986939471329991,0.05528118833899498,-0.2562031745910645,-0.965040922164917,0,0,0,-1,-1,5435.807672916667,unknown,2,2022-06-30T09:59:48.696+02:00,2022-06-30T08:20:05.567+02:00,1493,1.420341,0,0,1178.161,0,0,2022-06-30T09:59:48.695+02:00
2022-06-30T09:59:49.032+02:00,5436.143497916667,-0.192779541015625,-0.09686279296875,-0.4984130859375,5436.133546916667,-0.1996688834559255,0.06003562742964649,0.246907841192438,-1.333934783935547,0.1371080428361893,-0.7501339316368103,-0.2424911707639694,0.1807925403118134,0.3614500761032104,XArbitraryZVertical,0.1254408388510585,0.01736884368758974,-0.09518812122781715,0.9873712885189909,0.05817995220422745,-0.2444067448377609,-0.9679258465766907,0,0,0,-1,-1,5435.807672916667,unknown,2,2022-06-30T09:59:48.696+02:00,2022-06-30T08:20:05.567+02:00,1493,1.420341,0,0,1178.161,0,0,2022-06-30T09:59:48.695+02:00
2022-06-30T09:59:49.042+02:00,5436.153449916667,-0.2035675048828125,-0.1189727783203125,-0.4520111083984375,5436.143497916667,-0.2070637257907327,0.06307547400167289,0.2311397711454862,-1.725811719894409,0.1451486647129059,-0.886509895324707,-0.2568990290164948,0.1664952635765076,0.4171490073204041,XArbitraryZVertical,0.1178753436609531,0.01924313904124764,-0.09898991597770619,0.9878948314268662,0.06135733425617218,-0.2290871292352676,-0.9714702367782593,0,0,0,-1,-1,5435.807672916667,unknown,2,2022-06-30T09:59:48.696+02:00,2022-06-30T08:20:05.567+02:00,1493,1.420341,0,0,1178.161,0,0,2022-06-30T09:59:48.695+02:00
2022-06-30T09:59:49.052+02:00,5436.163400916667,-0.2923736572265625,-0.1417388916015625,-0.3953857421875,5436.153449916667,-0.2156638793138852,0.06621755615442196,0.2111193473012178,-2.158489942550659,0.107191376388073,-1.105202794075012,-0.2574798762798309,0.1126914173364639,0.477241039276123,XArbitraryZVertical,0.1082371397859473,0.02139391652430426,-0.1034978025312779,0.988491438370817,0.06470002233982086,-0.209554523229599,-0.9756540656089783,0,0,0,-1,-1,5435.807672916667,unknown,2,2022-06-30T09:59:48.696+02:00,2022-06-30T08:20:05.567+02:00,1493,1.420341,0,0,1178.161,0,0,2022-06-30T09:59:48.695+02:00
2022-06-30T09:59:49.062+02:00,5436.173352916667,-0.206146240234375,-0.2078094482421875,-0.3774566650390625,5436.163400916667,-0.2274513928277521,0.06951972632532502,0.1861949344867957,-2.646393060684204,0.1207234263420105,-1.510578989982605,-0.2718309164047241,0.06614784896373749,0.52833092212677,XArbitraryZVertical,0.09623342847599371,0.0238357046337023,-0.1097111714009319,0.9890068114301984,0.06826311349868774,-0.1851209402084351,-0.9803419709205627,0,0,0,-1,-1,5435.807672916667,unknown,2,2022-06-30T09:59:48.696+02:00,2022-06-30T08:20:05.567+02:00,1493,1.420341,0,0,1178.161,0,0,2022-06-30T09:59:48.695+02:00
2022-06-30T09:59:49.073+02:00,5436.183303916667,-0.17498779296875,-0.0853118896484375,-0.3015594482421875,5436.173352916667,-0.2405309719965415,0.07323768334729974,0.1570499698177129,-3.009859561920166,0.1803075075149536,-1.451539278030396,-0.3646456599235535,0.01466594636440277,0.589659571647644,XArbitraryZVertical,0.08220433248483522,0.02682910333047232,-0.1166747271113311,0.9893987276044396,0.07227169722318649,-0.1564051657915115,-0.985045313835144,0,0,0,-1,-1,5435.807672916667,unknown,2,2022-06-30T09:59:48.696+02:00,2022-06-30T08:20:05.567+02:00,1493,1.420341,0,0,1178.161,0,0,2022-06-30T09:59:48.695+02:00
2022-06-30T09:59:49.082+02:00,5436.193254916667,-0.248291015625,-0.0658721923828125,-0.3003692626953125,5436.183303916667,-0.2525657529910453,0.0762438762750553,0.1236268495393763,-3.483977079391479,0.1013269424438477,-1.490751028060913,-0.2817352414131165,-0.0844976082444191,0.6120283007621765,XArbitraryZVertical,0.06602865621802721,0.02996236274485211,-0.1232799850417046,0.9897195122395677,0.07558869570493698,-0.1233121827244759,-0.989484965801239,0,0,0,-1,-1,5435.807672916667,unknown,2,2022-06-30T09:59:48.696+02:00,2022-06-30T08:20:05.567+02:00,1493,1.420341,0,0,1178.161,0,0,2022-06-30T09:59:48.695+02:00
2022-06-30T09:59:49.092+02:00,5436.203206916667,-0.275146484375,-0.0240631103515625,-0.293975830078125,5436.193254916667,-0.2660713016129015,0.07838869266087636,0.08620736670079192,-3.781854629516602,0.07278449833393097,-1.784813046455383,-0.253005713224411,0.0007883980870246887,0.6916676163673401,XArbitraryZVertical,0.04786949711438034,0.03309072978978964,-0.1307450439919317,0.9897067224541238,0.07801763713359833,-0.08610063046216965,-0.9932270050048828,0,0,0,-1,-1,5435.807672916667,unknown,2,2022-06-30T09:59:48.696+02:00,2022-06-30T08:20:05.567+02:00,1493,1.420341,0,0,1178.161,0,0,2022-06-30T09:59:48.695+02:00
2022-06-30T09:59:49.102+02:00,5436.213157916667,-0.293304443359375,-0.0073394775390625,-0.2899322509765625,5436.203206916667,-0.2817544321222253,0.07997952524030771,0.04549440660645136,-4.128556728363037,0.05545903742313385,-1.983382344245911,-0.3281029164791107,-0.02039381861686707,0.6954026818275452,XArbitraryZVertical,0.02811398563735699,0.0363816545705632,-0.139362812063054,0.9891734085328061,0.07981161773204803,-0.04547871276736259,-0.9957719445228577,0,0,0,-1,-1,5435.807672916667,unknown,2,2022-06-30T09:59:48.696+02:00,2022-06-30T08:20:05.567+02:00,1493,1.420341,0,0,1178.161,0,0,2022-06-30T09:59:48.695+02:00
2022-06-30T09:59:49.112+02:00,5436.223109916667,-0.325408935546875,-0.008544921875,-0.295074462890625,5436.213157916667,-0.2987793843379882,0.08060538423373596,0.0009859630265997698,-4.496798038482666,0.004490553867071867,-2.152021646499634,-0.355664849281311,-0.02307749167084694,0.7027768492698669,XArbitraryZVertical,0.006483906689345592,0.03976969683304488,-0.1486941239212462,0.9880619770727352,0.08051808923482895,-0.0009859629208222032,-0.9967526793479919,0,0,0,-1,-1,5435.807672916667,unknown,2,2022-06-30T09:59:48.696+02:00,2022-06-30T08:20:05.567+02:00,1493,1.420341,0,0,1178.161,0,0,2022-06-30T09:59:48.695+02:00
2022-06-30T09:59:49.122+02:00,5436.233060916667,-0.3778533935546875,0.0123291015625,-0.276885986328125,5436.223109916667,-0.3175633133065002,0.07978840236764817,-0.04699905647673801,-4.8033447265625,-0.06773383915424347,-2.392171859741211,-0.3729204535484314,-0.05432157963514328,0.7057855725288391,XArbitraryZVertical,-0.01687885324814326,0.04308337092726622,-0.1588712412515983,0.9862144623790698,0.0796157568693161,0.04698175564408302,-0.9957178831100464,0,0,0,-1,-1,5435.807672916667,unknown,2,2022-06-30T09:59:48.696+02:00,2022-06-30T08:20:05.567+02:00,1493,1.420341,0,0,1178.161,0,0,2022-06-30T09:59:48.695+02:00
2022-06-30T09:59:49.132+02:00,5436.243011916667,-0.4421539306640625,0.011199951171875,-0.27386474609375,5436.233060916667,-0.338990911315192,0.07714637147027123,-0.09816778430891586,-5.099852085113525,-0.1332585066556931,-2.70560097694397,-0.4021080136299133,-0.1065554618835449,0.6971509456634521,XArbitraryZVertical,-0.04182785058898853,0.04623546429575836,-0.1702215522567213,0.9834313942688,0.07669880986213684,0.09801018983125687,-0.9922254085540771,0,0,0,-1,-1,5435.807672916667,unknown,2,2022-06-30T09:59:48.696+02:00,2022-06-30T08:20:05.567+02:00,1493,1.420341,0,0,1178.161,0,0,2022-06-30T09:59:48.695+02:00
2022-06-30T09:59:49.142+02:00,5436.252963916667,-0.4958648681640625,0.0196380615234375,-0.2416534423828125,5436.243011916667,-0.3638270962474772,0.07240062390318776,-0.152015859810107,-5.306788444519043,-0.1837493777275085,-3.035803318023682,-0.4493568241596222,-0.1391022950410843,0.7089921832084656,XArbitraryZVertical,-0.06810412971025381,0.04922093665847689,-0.1829742769351698,0.9795200477802639,0.0715031772851944,0.1514310538768768,-0.9858782291412354,0,0,0,-1,-1,5435.807672916667,unknown,2,2022-06-30T09:59:48.696+02:00,2022-06-30T08:20:05.567+02:00,1493,1.420341,0,0,1178.161,0,0,2022-06-30T09:59:48.695+02:00
2022-06-30T09:59:49.152+02:00,5436.262914916667,-0.5696563720703125,-0.0013275146484375,-0.217864990234375,5436.252963916667,-0.392310055801616,0.06500044502708356,-0.2080240952281797,-5.539186477661133,-0.2672642469406128,-3.352971076965332,-0.5057084560394287,-0.1953274011611938,0.7025098204612732,XArbitraryZVertical,-0.09548086567507348,0.05192379314944427,-0.1970528846317724,0.9743498367972541,0.0635543167591095,0.2065269947052002,-0.976374626159668,0,0,0,-1,-1,5435.807672916667,unknown,2,2022-06-30T09:59:48.696+02:00,2022-06-30T08:20:05.567+02:00,1493,1.420341,0,0,1178.161,0,0,2022-06-30T09:59:48.695+02:00
2022-06-30T09:59:49.162+02:00,5436.272866916667,-0.64324951171875,-0.0362701416015625,-0.1951446533203125,5436.262914916667,-0.4248951694076822,0.05420535723706597,-0.2663762712301579,-5.778977870941162,-0.3443238735198975,-3.69890570640564,-0.5481330752372742,-0.243599534034729,0.7216606140136719,XArbitraryZVertical,-0.1240981393739954,0.0542453910504172,-0.2124266762587366,0.9677458247753746,0.05226799100637436,0.2632372379302979,-0.9633141756057739,0,0,0,-1,-1,5435.807672916667,unknown,2,2022-06-30T09:59:48.696+02:00,2022-06-30T08:20:05.567+02:00,1493,1.420341,0,0,1178.161,0,0,2022-06-30T09:59:48.695+02:00
2022-06-30T09:59:49.172+02:00,5436.282817916667,-0.733734130859375,-0.024200439453125,-0.180419921875,5436.272866916667,-0.462174650169479,0.03945775170083757,-0.326681819382928,-5.981475830078125,-0.4171136319637299,-4.016507148742676,-0.6070178151130676,-0.3222299814224243,0.7285100817680359,XArbitraryZVertical,-0.1538038919854847,0.05618516744311965,-0.2290662497249231,0.9595396315320716,0.03736122697591782,0.3209021091461182,-0.9463751912117004,0,0,0,-1,-1,5435.807672916667,unknown,2,2022-06-30T09:59:48.696+02:00,2022-06-30T08:20:05.567+02:00,1493,1.420341,0,0,1178.161,0,0,2022-06-30T09:59:48.695+02:00
2022-06-30T09:59:49.182+02:00,5436.292769916667,-0.843841552734375,0.029052734375,-0.18896484375,5436.282817916667,-0.5044952796887255,0.02016485379222289,-0.3882590072378169,-6.141935348510742,-0.464360237121582,-4.315106391906738,-0.6619124412536621,-0.4148480594158173,0.7302365899085999,XArbitraryZVertical,-0.1843289731873138,0.05772466245263406,-0.2467639620449137,0.9496305461077464,0.0186627097427845,0.3785775899887085,-0.9253813624382019,0,0,0,-1,-1,5435.807672916667,unknown,2,2022-06-30T09:59:48.696+02:00,2022-06-30T08:20:05.567+02:00,1493,1.420341,0,0,1178.161,0,0,2022-06-30T09:59:48.695+02:00
2022-06-30T09:59:49.191+02:00,5436.302720916667,-0.9601287841796875,0.1053466796875,-0.2349395751953125,5436.292769916667,-0.5526428142072981,-0.004143593908313118,-0.4503860075215806,-6.262660980224609,-0.4573330283164978,-4.61638069152832,-0.7300039529800415,-0.4595138728618622,0.7198513746261597,XArbitraryZVertical,-0.2153744171583084,0.05897583936668063,-0.2654844108033759,0.9378986475046787,-0.003730380441993475,0.4353130757808685,-0.9002714157104492,0,0,0,-1,-1,5435.807672916667,unknown,2,2022-06-30T09:59:48.696+02:00,2022-06-30T08:20:05.567+02:00,1493,1.420341,0,0,1178.161,0,0,2022-06-30T09:59:48.695+02:00
2022-06-30T09:59:49.201+02:00,5436.312671916667,-1.076385498046875,0.1657257080078125,-0.2805938720703125,5436.302720916667,-0.6076071382552702,-0.03400342061868086,-0.5122735061580356,-6.35545015335083,-0.4060312211513519,-4.937526702880859,-0.8142089247703552,-0.4611078202724457,0.6821635365486145,XArbitraryZVertical,-0.2466284172950088,0.06008460875510815,-0.2852405187062224,0.924230566369698,-0.02963277138769627,0.4901601672172546,-0.8711284995079041,0,0,0,-1,-1,5435.807672916667,unknown,2,2022-06-30T09:59:48.696+02:00,2022-06-30T08:20:05.567+02:00,1493,1.420341,0,0,1178.161,0,0,2022-06-30T09:59:48.695+02:00
2022-06-30T09:59:49.211+02:00,5436.322623916667,-1.17718505859375,0.1968994140625,-0.299530029296875,5436.312671916667,-0.6707619344382169,-0.07032385856864652,-0.5730252484504571,-6.396950244903564,-0.3197585940361023,-5.27118968963623,-0.9010869860649109,-0.4368301630020142,0.6032479405403137,XArbitraryZVertical,-0.2777969821819273,0.06111439389094871,-0.3061354338585132,0.9085015397546148,-0.05904195830225945,0.5421765446662903,-0.8381877541542053,0,0,0,-1,-1,5435.807672916667,unknown,2,2022-06-30T09:59:48.696+02:00,2022-06-30T08:20:05.567+02:00,1493,1.420341,0,0,1178.161,0,0,2022-06-30T09:59:48.695+02:00
2022-06-30T09:59:49.221+02:00,5436.332574916667,-1.292922973632812,0.1999053955078125,-0.3486785888671875,5436.322623916667,-0.7432711749823744,-0.1141503304331761,-0.6317266985353462,-6.45758581161499,-0.2003741413354874,-5.58816385269165,-0.9844652414321899,-0.4248136878013611,0.5211628675460815,XArbitraryZVertical,-0.3086503621794823,0.06210041659409486,-0.3281023315050141,0.8906331942625828,-0.09192042052745819,0.5905390977859497,-0.8017569780349731,0,0,0,-1,-1,5435.807672916667,unknown,2,2022-06-30T09:59:48.696+02:00,2022-06-30T08:20:05.567+02:00,1493,1.420341,0,0,1178.161,0,0,2022-06-30T09:59:48.695+02:00
2022-06-30T09:59:49.234+02:00,5436.342526916667,-1.4124755859375,0.177276611328125,-0.359405517578125,5436.332574916667,-0.8264930816882605,-0.1663988754393577,-0.6877107442658235,-6.528721809387207,-0.02171454019844532,-5.916193008422852,-1.049201130867004,-0.4378708004951477,0.4624981284141541,XArbitraryZVertical,-0.3390927208504095,0.06326084258607791,-0.3511114243904534,0.8704797995624034,-0.1279840916395187,0.6347699165344238,-0.7620283961296082,0,0,0,-1,-1,5435.807672916667,unknown,2,2022-06-30T09:59:48.696+02:00,2022-06-30T08:20:05.567+02:00,1493,1.420341,0,0,1178.161,0,0,2022-06-30T09:59:48.695+02:00
2022-06-30T09:59:49.245+02:00,5436.352477916667,-1.538909912109375,0.1401214599609375,-0.383636474609375,5436.342526916667,-0.92227497998207,-0.2284106870239272,-0.7400858154261066,-6.635807514190674,0.1889747828245163,-6.275941848754883,-1.125724911689758,-0.474446177482605,0.3705534934997559,XArbitraryZVertical,-0.3690445022420676,0.06473024001224305,-0.3752371968362961,0.8478284999668453,-0.1671981662511826,0.6743512749671936,-0.7192323207855225,0,0,0,-1,-1,5435.807672916667,unknown,2,2022-06-30T09:59:48.696+02:00,2022-06-30T08:20:05.567+02:00,1493,1.420341,0,0,1178.161,0,0,2022-06-30T09:59:48.695+02:00
2022-06-30T09:59:49.251+02:00,5436.362429916667,-1.67926025390625,0.168609619140625,-0.4621734619140625,5436.352477916667,-1.032191112358262,-0.3013353179482421,-0.7872870500438669,-6.68385648727417,0.477643609046936,-6.625302314758301,-1.203006267547607,-0.531164824962616,0.3145627975463867,XArbitraryZVertical,-0.3982258561474653,0.06657211924569172,-0.4005092287379869,0.8225428574343894,-0.2094694226980209,0.7084411382675171,-0.6739686131477356,0,0,0,-1,-1,5435.807672916667,unknown,2,2022-06-30T09:59:48.696+02:00,2022-06-30T08:20:05.567+02:00,1493,1.420341,0,0,1178.161,0,0,2022-06-30T09:59:48.695+02:00
2022-06-30T09:59:49.261+02:00,5436.372380916667,-1.824188232421875,0.3164520263671875,-0.5600433349609375,5436.362429916667,-1.15623668011939,-0.3842049610461564,-0.8272919083116316,-6.67481517791748,0.9160529375076294,-6.871668815612793,-1.285203456878662,-0.5959798097610474,0.243888795375824,XArbitraryZVertical,-0.4259688118346578,0.06919381069908236,-0.4268875914314403,0.794688560301426,-0.2537065446376801,0.7361010313034058,-0.6275255680084229,0,0,0,-1,-1,5435.807672916667,unknown,2,2022-06-30T09:59:48.696+02:00,2022-06-30T08:20:05.567+02:00,1493,1.420341,0,0,1178.161,0,0,2022-06-30T09:59:48.695+02:00
2022-06-30T09:59:49.274+02:00,5436.382331916667,-1.962158203125,0.5468597412109375,-0.5181121826171875,5436.372380916667,-1.292443129022825,-0.4744823382501842,-0.859082398393529,-6.730736255645752,1.412264108657837,-6.975357055664062,-1.380858302116394,-0.5886340737342834,0.1188068985939026,XArbitraryZVertical,-0.4518367972687139,0.07316525462248701,-0.4539956016370471,0.7644465466898279,-0.2984019815921783,0.7572435736656189,-0.5809807181358337,0,0,0,-1,-1,5435.807672916667,unknown,2,2022-06-30T09:59:48.696+02:00,2022-06-30T08:20:05.567+02:00,1493,1.420341,0,0,1178.161,0,0,2022-06-30T09:59:48.695+02:00
2022-06-30T09:59:49.281+02:00,5436.392283916667,-2.122329711914062,0.79071044921875,-0.4205780029296875,5436.382331916667,-1.439091239785578,-0.5705861675262801,-0.8835687218750806,-7.029738903045654,1.855642914772034,-6.993016719818115,-1.481534481048584,-0.456555962562561,-0.026145339012146,XArbitraryZVertical,-0.4762393601856714,0.07903731367821523,-0.4811861514073915,0.7317165673585265,-0.342653751373291,0.7730078101158142,-0.5338983535766602,0,0,0,-1,-1,5435.807672916667,unknown,2,2022-06-30T09:59:48.696+02:00,2022-06-30T08:20:05.567+02:00,1493,1.420341,0,0,1178.161,0,0,2022-06-30T09:59:48.695+02:00
2022-06-30T09:59:49.291+02:00,5436.402234916667,-2.228256225585938,1.128570556640625,-0.3349609375,5436.392283916667,-1.596901316306614,-0.6724473093508999,-0.9018887373658336,-7.576169013977051,2.414193153381348,-6.992988109588623,-1.575878143310547,-0.2376400232315063,-0.03298556804656982,XArbitraryZVertical,-0.4997849973492656,0.08747265179382929,-0.5082403702123995,0.6958845378897583,-0.3862800896167755,0.7844995856285095,-0.4851269721984863,0,0,0,-1,-1,5435.807672916667,unknown,2,2022-06-30T09:59:48.696+02:00,2022-06-30T08:20:05.567+02:00,1493,1.420341,0,0,1178.161,0,0,2022-06-30T09:59:48.695+02:00
2022-06-30T09:59:49.301+02:00,5436.412186916667,-2.236831665039062,1.515457153320312,-0.28253173828125,5436.402234916667,-1.766400239894006,-0.7789245073120519,-0.9152358044349286,-8.344572067260742,3.073722124099731,-6.834234237670898,-1.694074153900146,-0.001996040344238281,0.01325803995132446,XArbitraryZVertical,-0.522636160164023,0.09966564332691201,-0.5348760909594993,0.6563732755634653,-0.4282554388046265,0.7927063703536987,-0.4338364005088806,0,0,0,-1,-1,5435.807672916667,unknown,2,2022-06-30T09:59:48.696+02:00,2022-06-30T08:20:05.567+02:00,1493,1.420341,0,0,1178.161,0,0,2022-06-30T09:59:48.695+02:00
2022-06-30T09:59:49.311+02:00,5436.422137875001,-2.12213134765625,1.87689208984375,-0.3154449462890625,5436.412186916667,-1.945992340855047,-0.8877734034246205,-0.9245633289780173,-9.10169792175293,3.795027017593384,-6.412326335906982,-1.76116156578064,0.3302126526832581,0.0451011061668396,XArbitraryZVertical,-0.544405291290305,0.116583207838443,-0.560320843713805,0.6132470525765503,-0.4670946598052979,0.7983579039573669,-0.380062460899353,0,0,0,-1,-1,5435.807672916667,unknown,2,2022-06-30T09:59:48.696+02:00,2022-06-30T08:20:05.567+02:00,1493,1.420341,0,0,1178.161,0,0,2022-06-30T09:59:48.695+02:00
2022-06-30T09:59:49.321+02:00,5436.432088875001,-1.898223876953125,2.191009521484375,-0.3720855712890625,5436.422137875001,-2.131845660988771,-0.994825465843918,-0.9303652279685987,-9.663874626159668,4.582275867462158,-5.77133321762085,-1.735695123672485,0.7136188149452209,0.04291832447052002,XArbitraryZVertical,-0.5639310289215403,0.1387679879586516,-0.5839094559743822,0.5672523053196137,-0.5011364221572876,0.801838219165802,-0.3254504799842834,0,0,0,-1,-1,5435.807672916667,unknown,2,2022-06-30T09:59:48.696+02:00,2022-06-30T08:20:05.567+02:00,1493,1.420341,0,0,1178.161,0,0,2022-06-30T09:59:48.695+02:00
2022-06-30T09:59:49.331+02:00,5436.442040875,-1.657623291015625,2.443496704101562,-0.37335205078125,5436.432088875001,-2.31888761761796,-1.096207255324723,-0.9328485020775987,-9.97980785369873,5.197335243225098,-4.97575569152832,-1.592402696609497,1.073572397232056,-0.04329589009284973,XArbitraryZVertical,-0.5800566174900861,0.1657094498516155,-0.6050557185650844,0.5195981729061731,-0.5297284722328186,0.8033196330070496,-0.272149384021759,0,0,0,-1,-1,5435.807672916667,unknown,2,2022-06-30T09:59:48.696+02:00,2022-06-30T08:20:05.567+02:00,1493,1.420341,0,0,1178.161,0,0,2022-06-30T09:59:48.695+02:00
2022-06-30T09:59:49.341+02:00,5436.451991875,-1.443618774414062,2.577499389648438,-0.33074951171875,5436.442040875,-2.503935809630986,-1.191054885921787,-0.9333763835513282,-10.21088790893555,5.608424186706543,-4.031277179718018,-1.345495939254761,1.387375593185425,-0.1514850854873657,XArbitraryZVertical,-0.5924674777052029,0.1966770991053443,-0.6229537115060824,0.471411890074474,-0.5527277588844299,0.8036338686943054,-0.220600813627243,0,0,0,-1,-1,5435.807672916667,unknown,2,2022-06-30T09:59:48.696+02:00,2022-06-30T08:20:05.567+02:00,1493,1.420341,0,0,1178.161,0,0,2022-06-30T09:59:48.695+02:00
2022-06-30T09:59:49.351+02:00,5436.461943875001,-1.23541259765625,2.636734008789062,-0.1349029541015625,5436.451991875,-2.686286085113566,-1.280255253749083,-0.933762765752838,-10.46152019500732,5.89531421661377,-3.012175798416138,-1.087738990783691,1.639632940292358,-0.2029558271169662,XArbitraryZVertical,-0.6010840747629256,0.2312998885498916,-0.6370295876643443,0.4235464272844549,-0.569884181022644,0.8038637638092041,-0.1703965961933136,0,0,0,-1,-1,5435.807672916667,unknown,2,2022-06-30T09:59:48.696+02:00,2022-06-30T08:20:05.567+02:00,1493,1.420341,0,0,1178.161,0,0,2022-06-30T09:59:48.695+02:00
2022-06-30T09:59:49.361+02:00,5436.471894875001,-1.062774658203125,2.609283447265625,0.1090087890625,5436.461943875001,-2.870740388367385,-1.368973078493311,-0.9353683067317172,-11.02946281433105,6.068976402282715,-1.984282732009888,-0.8621433973312378,1.772681713104248,-0.2117748260498047,XArbitraryZVertical,-0.6063665863969797,0.2698741443371326,-0.64673156656013,0.3758002871535024,-0.5814752578735352,0.8048177361488342,-0.1189750209450722,0,0,0,-1,-1,5435.807672916667,unknown,2,2022-06-30T09:59:48.696+02:00,2022-06-30T08:20:05.567+02:00,1493,1.420341,0,0,1178.161,0,0,2022-06-30T09:59:48.695+02:00
2022-06-30T09:59:49.371+02:00,5436.481846875,-0.9090728759765625,2.519454956054688,0.4547882080078125,5436.471894875001,-3.063886631529648,-1.463383161367789,-0.938069738340477,-11.87995433807373,6.207384586334229,-0.9572886228561401,-0.6474746465682983,1.830316066741943,-0.07150696963071823,XArbitraryZVertical,-0.6085888433014649,0.3129241020728501,-0.6514601427606942,0.32756350648328,-0.5879377126693726,0.8064181804656982,-0.06339625269174576,0,0,0,-1,-1,5435.807672916667,unknown,2,2022-06-30T09:59:48.696+02:00,2022-06-30T08:20:05.567+02:00,1493,1.420341,0,0,1178.161,0,0,2022-06-30T09:59:48.695+02:00
2022-06-30T09:59:49.381+02:00,5436.491797875,-0.755035400390625,2.344528198242188,0.6168365478515625,5436.481846875,3.009692828202574,-1.569622850226055,-0.9399014145358123,-13.05559158325195,6.376014232635498,0.03350767493247986,-0.4729071855545044,1.801783680915833,0.1097006797790527,XArbitraryZVertical,-0.6075952592898927,0.3612227886534121,-0.6505382172787898,0.2777519153185641,-0.5898672342300415,0.8074999451637268,-0.00069219566648826,0,0,0,-1,-1,5435.807672916667,unknown,2,2022-06-30T09:59:48.696+02:00,2022-06-30T08:20:05.567+02:00,1493,1.420341,0,0,1178.161,0,0,2022-06-30T09:59:48.695+02:00
2022-06-30T09:59:49.391+02:00,5436.501748875,-0.46917724609375,2.420394897460938,0.906219482421875,5436.491797875,2.788005603215862,-1.683522245745432,-0.9367252872377816,-13.18102264404297,6.505140781402588,0.9359244108200073,-0.3204030990600586,1.713832855224609,0.3881471157073975,XArbitraryZVertical,-0.6022376024533369,0.4130741870773202,-0.6443600682853905,0.2268916483858615,-0.5886695384979248,0.805622398853302,0.06664082407951355,0,0,0,-1,-1,5435.807672916667,unknown,2,2022-06-30T09:59:48.696+02:00,2022-06-30T08:20:05.567+02:00,1493,1.420341,0,0,1178.161,0,0,2022-06-30T09:59:48.695+02:00
2022-06-30T09:59:49.401+02:00,5436.511700875,-0.16583251953125,2.683425903320312,1.071014404296875,5436.501748875,2.586856345960803,-1.77478728479064,-0.9256883882725987,-12.56553077697754,6.269716262817383,1.703694939613342,-0.1662173867225647,1.545493602752686,0.4950286149978638,XArbitraryZVertical,-0.5901234836699546,0.4611487410537372,-0.6382101594492205,0.1782806925365692,-0.5888177752494812,0.7990348935127258,0.1218077763915062,0,0,0,-1,-1,5435.807672916667,unknown,2,2022-06-30T09:59:48.696+02:00,2022-06-30T08:20:05.567+02:00,1493,1.420341,0,0,1178.161,0,0,2022-06-30T09:59:48.695+02:00
2022-06-30T09:59:49.411+02:00,5436.521651875,0.0589141845703125,2.67523193359375,1.009353637695312,5436.511700875,2.389175605661744,-1.871032985529207,-0.9162849017446492,-11.19977474212646,5.839835166931152,2.569015026092529,0.1123623847961426,1.627049684524536,0.7261773347854614,XArbitraryZVertical,-0.5749896648267626,0.5093210086325537,-0.6257799452738109,0.1355673998186431,-0.5815393328666687,0.7933454513549805,0.1800420135259628,0,0,0,-1,-1,5435.807672916667,unknown,2,2022-06-30T09:59:48.696+02:00,2022-06-30T08:20:05.567+02:00,1493,1.420341,0,0,1178.161,0,0,2022-06-30T09:59:48.695+02:00
2022-06-30T09:59:49.420+02:00,5436.531603875001,0.07861328125,2.506988525390625,1.013137817382812,5436.521651875,2.219363566642623,-1.949995902937335,-0.910448095469925,-8.903128623962402,5.188140869140625,3.259791374206543,0.4039852023124695,1.89364755153656,0.8439507484436035,XArbitraryZVertical,-0.555986116822897,0.5517347776357316,-0.6133006679635299,0.1016392841148255,-0.5698174834251404,0.7897786498069763,0.2270636558532715,0,0,0,-1,-1,5435.807672916667,unknown,2,2022-06-30T09:59:48.696+02:00,2022-06-30T08:20:05.567+02:00,1493,1.420341,0,0,1178.161,0,0,2022-06-30T09:59:48.695+02:00
2022-06-30T09:59:49.430+02:00,5436.541554875001,-0.19512939453125,2.130691528320312,0.8894195556640625,5436.531603875001,2.082752424645928,-2.009836863617661,-0.9120908482034134,-6.495572090148926,4.443307876586914,3.733239412307739,0.6129572987556458,1.884446978569031,0.7491700649261475,XArbitraryZVertical,-0.5348501435527157,0.5865381876728161,-0.6032102848955365,0.07775404817956257,-0.5540427565574646,0.7907852530479431,0.2601834535598755,0,0,0,-1,-1,5435.807672916667,unknown,2,2022-06-30T09:59:48.696+02:00,2022-06-30T08:20:05.567+02:00,1493,1.420341,0,0,1178.161,0,0,2022-06-30T09:59:48.695+02:00
2022-06-30T09:59:49.440+02:00,5436.551505875001,-0.585479736328125,1.591262817382812,0.8647003173828125,5436.541554875001,1.972926027718295,-2.055266834421309,-0.9227813588362227,-4.694182395935059,3.942376375198364,4.164310455322266,0.6127570271492004,1.709705352783203,0.7320146560668945,XArbitraryZVertical,-0.5124424488339225,0.6147879970158143,-0.5962566409068747,0.06258331247406068,-0.5341435074806213,0.7972835302352905,0.2811231017112732,0,0,0,-1,-1,5435.807672916667,unknown,2,2022-06-30T09:59:48.696+02:00,2022-06-30T08:20:05.567+02:00,1493,1.420341,0,0,1178.161,0,0,2022-06-30T09:59:48.695+02:00
2022-06-30T09:59:49.450+02:00,5436.561457875,-0.8925933837890625,1.095794677734375,0.9864501953125,5436.551505875001,1.878214148642577,-2.094158544127317,-0.9412032297392811,-3.616791963577271,3.50301718711853,4.523991584777832,0.3148702383041382,1.322424650192261,0.5951321125030518,XArbitraryZVertical,-0.4889899556015927,0.6387742394098926,-0.5915879161556287,0.05366666858452356,-0.5099993348121643,0.8082671761512756,0.2942874133586884,0,0,0,-1,-1,5435.807672916667,unknown,2,2022-06-30T09:59:48.696+02:00,2022-06-30T08:20:05.567+02:00,1493,1.420341,0,0,1178.161,0,0,2022-06-30T09:59:48.695+02:00
2022-06-30T09:59:49.460+02:00,5436.571408875,-0.9280548095703125,0.7708740234375,1.130294799804688,5436.561457875,1.786362101500528,-2.135385769634687,-0.9631713066754405,-3.373199224472046,3.256978511810303,4.773563385009766,-0.1031619310379028,0.7702568173408508,0.5592191219329834,XArbitraryZVertical,-0.4648956909875475,0.6607667006958993,-0.5873090005923191,0.04824500773391677,-0.4823174476623535,0.8210062384605408,0.3054812848567963,0,0,0,-1,-1,5435.807672916667,unknown,2,2022-06-30T09:59:48.696+02:00,2022-06-30T08:20:05.567+02:00,1493,1.420341,0,0,1178.161,0,0,2022-06-30T09:59:48.695+02:00
2022-06-30T09:59:49.470+02:00,5436.581360875,-0.8419342041015625,0.6773223876953125,1.298782348632812,5436.571408875,1.687670908816259,-2.186669959714492,-0.9842772393353804,-3.599534749984741,2.820960283279419,4.866883277893066,-0.4408164918422699,0.2629225254058838,0.6667290329933167,XArbitraryZVertical,-0.4405711736088906,0.6824643933164123,-0.5815208175974667,0.0444170924974771,-0.4517764449119568,0.8328722715377808,0.3197212219238281,0,0,0,-1,-1,5435.807672916667,unknown,2,2022-06-30T09:59:48.696+02:00,2022-06-30T08:20:05.567+02:00,1493,1.420341,0,0,1178.161,0,0,2022-06-30T09:59:48.695+02:00
2022-06-30T09:59:49.480+02:00,5436.591311875,-0.7144775390625,0.732940673828125,1.520401000976562,5436.581360875,1.581396350618757,-2.250208857241152,-1.000763068735209,-3.702669858932495,2.26878547668457,4.827432155609131,-0.5082300305366516,-0.07100874185562134,0.7912068367004395,XArbitraryZVertical,-0.4173035381966372,0.7038478370648756,-0.5733392617273162,0.04169127008825985,-0.4198243916034698,0.8418830037117004,0.3390880525112152,0,0,0,-1,-1,5435.807672916667,unknown,2,2022-06-30T09:59:48.696+02:00,2022-06-30T08:20:05.567+02:00,1493,1.420341,0,0,1178.161,0,0,2022-06-30T09:59:48.695+02:00
2022-06-30T09:59:49.490+02:00,5436.601263875001,-0.6725006103515625,0.6806488037109375,1.78515625,5436.591311875,1.470772247200586,-2.324690371128866,-1.013438812676252,-3.582790374755859,1.537963271141052,4.872944355010986,-0.4563170671463013,-0.1713331937789917,0.9367282390594482,XArbitraryZVertical,-0.3953738461237253,0.7243663727850037,-0.5632672192477947,0.04126744677463507,-0.3856167495250702,0.8486558198928833,0.3620542287826538,0,0,0,-1,-1,5435.807672916667,unknown,2,2022-06-30T09:59:48.696+02:00,2022-06-30T08:20:05.567+02:00,1493,1.420341,0,0,1178.161,0,0,2022-06-30T09:59:48.695+02:00
2022-06-30T09:59:49.500+02:00,5436.611214875001,-0.6222076416015625,0.5311431884765625,2.029067993164062,5436.601263875001,1.358679957113536,-2.408541792867488,-1.02272316569224,-3.383443593978882,0.7747844457626343,4.851583003997803,-0.3658260405063629,-0.1205892562866211,1.13319456577301,XArbitraryZVertical,-0.3750762898296146,0.7435865850644765,-0.5517882783493727,0.04389153709956346,-0.3486510813236237,0.8535300493240356,0.3872064650058746,0,0,0,-1,-1,5435.807672916667,unknown,2,2022-06-30T09:59:48.696+02:00,2022-06-30T08:20:05.567+02:00,1493,1.420341,0,0,1178.161,0,0,2022-06-30T09:59:48.695+02:00
2022-06-30T09:59:49.510+02:00,5436.621165875001,-0.609588623046875,0.4581298828125,2.156890869140625,5436.611214875001,1.24800659260049,-2.499134819135113,-1.028242906935709,-3.086553573608398,0.05077895522117615,4.728853225708008,-0.3631364107131958,-0.1757439970970154,1.371773481369019,XArbitraryZVertical,-0.3567239132107806,0.7612092305832824,-0.5393101911650999,0.04953030760860613,-0.309363842010498,0.8563930988311768,0.413382887840271,0,0,0,-1,-1,5435.807672916667,unknown,2,2022-06-30T09:59:48.696+02:00,2022-06-30T08:20:05.567+02:00,1493,1.420341,0,0,1178.161,0,0,2022-06-30T09:59:48.695+02:00
2022-06-30T09:59:49.520+02:00,5436.631117875,-0.608612060546875,0.4338531494140625,2.1788330078125,5436.621165875001,1.142987888679206,-2.591918874941332,-1.030460117262465,-2.645662546157837,-0.6030497550964355,4.508882522583008,-0.3534670174121857,-0.3263922333717346,1.590420603752136,XArbitraryZVertical,-0.3405321450036719,0.776763573708805,-0.5266176820883749,0.05788133457199082,-0.2687402665615082,0.8575357794761658,0.4386475682258606,0,0,0,-1,-1,5435.807672916667,unknown,2,2022-06-30T09:59:48.696+02:00,2022-06-30T08:20:05.567+02:00,1493,1.420341,0,0,1178.161,0,0,2022-06-30T09:59:48.695+02:00
2022-06-30T09:59:49.530+02:00,5436.641068875,-0.6248626708984375,0.37353515625,2.144271850585938,5436.631117875,1.046313398007505,-2.683960034189798,-1.031189410416794,-2.058074712753296,-1.228745222091675,4.292659759521484,-0.3825785517692566,-0.3997805118560791,1.695961117744446,XArbitraryZVertical,-0.3264593003993092,0.7898666504847104,-0.5145657231281894,0.06897353684511059,-0.2270097434520721,0.857910692691803,0.4609299898147583,0,0,0,-1,-1,5435.807672916667,unknown,2,2022-06-30T09:59:48.696+02:00,2022-06-30T08:20:05.567+02:00,1493,1.420341,0,0,1178.161,0,0,2022-06-30T09:59:48.695+02:00
2022-06-30T09:59:49.540+02:00,5436.651020875001,-0.6443023681640625,0.2701263427734375,2.100204467773438,5436.641068875,0.958151095048003,-2.774669319433754,-1.031696906212184,-1.536542534828186,-1.78353226184845,4.080643653869629,-0.4244450330734253,-0.424318253993988,1.699641585350037,XArbitraryZVertical,-0.3143883800833325,0.8004721363691141,-0.5035468034810547,0.08273362818175618,-0.1841665953397751,0.8581713438034058,0.479191392660141,0,0,0,-1,-1,5435.807672916667,unknown,2,2022-06-30T09:59:48.696+02:00,2022-06-30T08:20:05.567+02:00,1493,1.420341,0,0,1178.161,0,0,2022-06-30T09:59:48.695+02:00
2022-06-30T09:59:49.550+02:00,5436.660971875001,-0.6431427001953125,0.1919097900390625,2.022430419921875,5436.651020875001,0.8764878064840802,-2.864961395213228,-1.030954023100146,-1.320566534996033,-2.272572040557861,3.848063468933105,-0.4844801127910614,-0.4842545390129089,1.649812936782837,XArbitraryZVertical,-0.3041402443392215,0.8091527543957802,-0.4930070460910541,0.09856263779397709,-0.1403821110725403,0.8577897548675537,0.494458943605423,0,0,0,-1,-1,5435.807672916667,unknown,2,2022-06-30T09:59:48.696+02:00,2022-06-30T08:20:05.567+02:00,1493,1.420341,0,0,1178.161,0,0,2022-06-30T09:59:48.695+02:00
2022-06-30T09:59:49.560+02:00,5436.670922875001,-0.6343841552734375,0.1790008544921875,1.936660766601562,5436.660971875001,0.8007320805374252,-2.954752504529393,-1.026839970055924,-1.315537929534912,-2.71640682220459,3.598986148834229,-0.5481690168380737,-0.5855414867401123,1.591686010360718,XArbitraryZVertical,-0.2958297173253734,0.8165439612888439,-0.482015564925069,0.1157660419919821,-0.09613293409347534,0.8556678891181946,0.5085185170173645,0,0,0,-1,-1,5435.807672916667,unknown,2,2022-06-30T09:59:48.696+02:00,2022-06-30T08:20:05.567+02:00,1493,1.420341,0,0,1178.161,0,0,2022-06-30T09:59:48.695+02:00
2022-06-30T09:59:49.570+02:00,5436.680874875,-0.654296875,0.1805572509765625,1.860137939453125,5436.670922875001,0.7314693775826964,-3.043032870507961,-1.018452700423207,-1.39576256275177,-3.130078077316284,3.329259395599365,-0.5915132164955139,-0.6593873500823975,1.500292778015137,XArbitraryZVertical,-0.2894542329579712,0.822973343935966,-0.4700883028193849,0.1339709433527905,-0.05162906646728516,0.8512971997261047,0.5221377611160278,0,0,0,-1,-1,5435.807672916667,unknown,2,2022-06-30T09:59:48.696+02:00,2022-06-30T08:20:05.567+02:00,1493,1.420341,0,0,1178.161,0,0,2022-06-30T09:59:48.695+02:00
2022-06-30T09:59:49.580+02:00,5436.690825875,-0.670196533203125,0.1861724853515625,1.819229125976562,5436.680874875,0.6701800475983085,-3.128009662011529,-1.005860855113597,-1.500768065452576,-3.491202116012573,3.04002046585083,-0.6271121501922607,-0.6656221151351929,1.401348352432251,XArbitraryZVertical,-0.2850353920926885,0.8284992575057734,-0.4571332303167672,0.1528828818592707,-0.007271590642631054,0.8446231484413147,0.5353124141693115,0,0,0,-1,-1,5435.807672916667,unknown,2,2022-06-30T09:59:48.696+02:00,2022-06-30T08:20:05.567+02:00,1493,1.420341,0,0,1178.161,0,0,2022-06-30T09:59:48.695+02:00
2022-06-30T09:59:49.590+02:00,5436.700777875,-0.7098541259765625,0.2276611328125,1.7767333984375,5436.690825875,0.6177046800062987,3.074678387411975,-0.9895747698341344,-1.621206283569336,-3.817823171615601,2.756630897521973,-0.6910079717636108,-0.6552352905273438,1.312321186065674,XArbitraryZVertical,-0.2824934726825798,0.8331301578615361,-0.4431746757235595,0.1723016951961687,0.03671156987547874,0.835792601108551,0.5478168725967407,0,0,0,-1,-1,5435.807672916667,unknown,2,2022-06-30T09:59:48.696+02:00,2022-06-30T08:20:05.567+02:00,1493,1.420341,0,0,1178.161,0,0,2022-06-30T09:59:48.695+02:00
2022-06-30T09:59:49.599+02:00,5436.710728875,-0.7561492919921875,0.275115966796875,1.718475341796875,5436.700777875,0.5744921198037009,2.999330398203932,-0.970142817325682,-1.745915770530701,-4.1037917137146,2.45847487449646,-0.7503291964530945,-0.6387938857078552,1.259756803512573,XArbitraryZVertical,-0.2817766787110736,0.8368620463021946,-0.4282239771289722,0.1920628286847468,0.08013312518596649,0.8249664306640625,0.559472382068634,0,0,0,-1,-1,5435.807672916667,unknown,2,2022-06-30T09:59:48.696+02:00,2022-06-30T08:20:05.567+02:00,1493,1.420341,0,0,1178.161,0,0,2022-06-30T09:59:48.695+02:00
2022-06-30T09:59:49.610+02:00,5436.720680875001,-0.80352783203125,0.339080810546875,1.68646240234375,5436.710728875,0.5405780290462474,2.92944711088304,-0.9487129777333303,-1.804139256477356,-4.351720333099365,2.152579545974731,-0.8325519561767578,-0.5850051641464233,1.207067966461182,XArbitraryZVertical,-0.2827974348801537,0.8395583598120296,-0.4125605484142956,0.2120402499010381,0.1226982027292252,0.8126661777496338,0.569665253162384,0,0,0,-1,-1,5435.807672916667,unknown,2,2022-06-30T09:59:48.696+02:00,2022-06-30T08:20:05.567+02:00,1493,1.420341,0,0,1178.161,0,0,2022-06-30T09:59:48.695+02:00
2022-06-30T09:59:49.619+02:00,5436.730631875001,-0.8798370361328125,0.4000091552734375,1.6700439453125,5436.720680875001,0.5150574952172119,2.864399027690582,-0.9264607205562665,-1.78349494934082,-4.580424308776855,1.868640542030334,-0.9205260872840881,-0.5243828296661377,1.140736699104309,XArbitraryZVertical,-0.2853624261609408,0.8410931343234579,-0.3964826511526225,0.2322333624891964,0.1643772721290588,0.7994990348815918,0.5777387619018555,0,0,0,-1,-1,5435.807672916667,unknown,2,2022-06-30T09:59:48.696+02:00,2022-06-30T08:20:05.567+02:00,1493,1.420341,0,0,1178.161,0,0,2022-06-30T09:59:48.695+02:00
2022-06-30T09:59:49.629+02:00,5436.740582875001,-0.960113525390625,0.472503662109375,1.624832153320312,5436.730631875001,0.4967147626861374,2.803345588903078,-0.9046260728270153,-1.701856851577759,-4.761336326599121,1.603809356689453,-1.008594155311584,-0.4471133351325989,1.103498697280884,XArbitraryZVertical,-0.2892444543149683,0.8413200771794503,-0.3803792358031914,0.2526457332693077,0.2050666809082031,0.7861941456794739,0.5829636454582214,0,0,0,-1,-1,5435.807672916667,unknown,2,2022-06-30T09:59:48.696+02:00,2022-06-30T08:20:05.567+02:00,1493,1.420341,0,0,1178.161,0,0,2022-06-30T09:59:48.695+02:00
2022-06-30T09:59:49.640+02:00,5436.750534875,-1.01922607421875,0.573516845703125,1.563064575195312,5436.740582875001,0.4840526013155257,2.745289671900847,-0.884150385971322,-1.563097357749939,-4.920536041259766,1.368084192276001,-1.124546766281128,-0.3733674883842468,1.085231423377991,XArbitraryZVertical,-0.2941549805573256,0.8401660840391295,-0.3645744619657576,0.273275094342639,0.2447101473808289,0.7733766436576843,0.5848124027252197,0,0,0,-1,-1,5435.807672916667,unknown,2,2022-06-30T09:59:48.696+02:00,2022-06-30T08:20:05.567+02:00,1493,1.420341,0,0,1178.161,0,0,2022-06-30T09:59:48.695+02:00
2022-06-30T09:59:49.649+02:00,5436.760485875,-1.047576904296875,0.6575927734375,1.5140380859375,5436.750534875,0.4755282574275272,2.688951758950143,-0.8657110464685638,-1.354917287826538,-5.08733606338501,1.154582500457764,-1.243553996086121,-0.2890524864196777,1.041999578475952,XArbitraryZVertical,-0.2998323470023205,0.8375659806538089,-0.3492908461489861,0.2942444770284542,0.2834409475326538,0.7615562677383423,0.582832396030426,0,0,0,-1,-1,5435.807672916667,unknown,2,2022-06-30T09:59:48.696+02:00,2022-06-30T08:20:05.567+02:00,1493,1.420341,0,0,1178.161,0,0,2022-06-30T09:59:48.695+02:00
2022-06-30T09:59:49.659+02:00,5436.770437875,-1.05523681640625,0.6634063720703125,1.466522216796875,5436.760485875,0.4701349323268739,2.633458967129609,-0.8494646243031064,-1.214990019798279,-5.248121738433838,0.9915997385978699,-1.340534687042236,-0.1774099469184875,0.9861159324645996,XArbitraryZVertical,-0.306125962135832,0.8335233877191713,-0.334541089522033,0.3156075242105054,0.3213090896606445,0.7509269714355469,0.5769487023353577,0,0,0,-1,-1,5435.807672916667,unknown,2,2022-06-30T09:59:48.696+02:00,2022-06-30T08:20:05.567+02:00,1493,1.420341,0,0,1178.161,0,0,2022-06-30T09:59:48.695+02:00
2022-06-30T09:59:49.669+02:00,5436.780388875,-1.0635986328125,0.65673828125,1.427536010742188,5436.770437875,0.4674132519300571,2.578302392624636,-0.8344876046563278,-1.203881502151489,-5.427350044250488,0.8569988608360291,-1.406168699264526,-0.08335977792739868,0.9462342858314514,XArbitraryZVertical,-0.3129449989031726,0.8282314150815631,-0.3198490373541094,0.3373347796087401,0.3585922122001648,0.7409524917602539,0.567803680896759,0,0,0,-1,-1,5435.807672916667,unknown,2,2022-06-30T09:59:48.696+02:00,2022-06-30T08:20:05.567+02:00,1493,1.420341,0,0,1178.161,0,0,2022-06-30T09:59:48.695+02:00
2022-06-30T09:59:49.679+02:00,5436.790340875001,-1.0574951171875,0.7237548828125,1.366348266601562,5436.780388875,0.4680697078208357,2.524092486136531,-0.8195980334321351,-1.336040019989014,-5.570846557617188,0.7341485619544983,-1.450411915779114,-0.06746518611907959,0.9100480079650879,XArbitraryZVertical,-0.3204130828848328,0.8219321892540878,-0.3046034744888971,0.3591375501815012,0.3951755464076996,0.7308715581893921,0.5564741492271423,0,0,0,-1,-1,5435.807672916667,unknown,2,2022-06-30T09:59:48.696+02:00,2022-06-30T08:20:05.567+02:00,1493,1.420341,0,0,1178.161,0,0,2022-06-30T09:59:48.695+02:00
2022-06-30T09:59:49.689+02:00,5436.800291875001,-1.074996948242188,0.82086181640625,1.298385620117188,5436.790340875001,0.4728977233485536,2.47133683628241,-0.8039755669372232,-1.56770932674408,-5.740861892700195,0.6191771626472473,-1.494608163833618,-0.0633818507194519,0.8837917447090149,XArbitraryZVertical,-0.3286827583940123,0.8147635911371711,-0.2883004817968445,0.3808029789694317,0.4310100078582764,0.7201201915740967,0.5437441468238831,0,0,0,-1,-1,5435.807672916667,unknown,2,2022-06-30T09:59:48.696+02:00,2022-06-30T08:20:05.567+02:00,1493,1.420341,0,0,1178.161,0,0,2022-06-30T09:59:48.695+02:00
2022-06-30T09:59:49.699+02:00,5436.810242875001,-1.091217041015625,0.9181060791015625,1.200286865234375,5436.800291875001,0.4821090059754606,2.419966483198208,-0.787596899899816,-1.772359728813171,-5.909404754638672,0.4934583604335785,-1.52358603477478,0.01509517431259155,0.8366683125495911,XArbitraryZVertical,-0.337801773556327,0.8066782994426823,-0.2707847848753124,0.4022882854851155,0.4660913050174713,0.708659827709198,0.5296798348426819,0,0,0,-1,-1,5435.807672916667,unknown,2,2022-06-30T09:59:48.696+02:00,2022-06-30T08:20:05.567+02:00,1493,1.420341,0,0,1178.161,0,0,2022-06-30T09:59:48.695+02:00
2022-06-30T09:59:49.709+02:00,5436.820194875,-1.091567993164062,0.9626922607421875,1.146957397460938,5436.810242875001,0.4954026802373375,2.369856502468832,-0.771350374765274,-1.892456293106079,-6.042969226837158,0.3231277763843536,-1.574997663497925,0.1237577795982361,0.7845321893692017,XArbitraryZVertical,-0.3477244586198618,0.7975050654709638,-0.2523899839666845,0.4235242350699341,0.5000011324882507,0.6971040368080139,0.5138532519340515,0,0,0,-1,-1,5435.807672916667,unknown,2,2022-06-30T09:59:48.696+02:00,2022-06-30T08:20:05.567+02:00,1493,1.420341,0,0,1178.161,0,0,2022-06-30T09:59:48.695+02:00
2022-06-30T09:59:49.719+02:00,5436.830145875,-1.048385620117188,0.9551849365234375,1.1805419921875,5436.820194875,0.5120293504487184,2.320810633024297,-0.7561189960548932,-1.970266580581665,-6.129780769348145,0.1833312511444092,-1.623516440391541,0.2320029139518738,0.7043838500976562,XArbitraryZVertical,-0.3582692679083719,0.7871432583482662,-0.2335411551133743,0.4444178015863459,0.5322996973991394,0.6861031651496887,0.4959027469158173,0,0,0,-1,-1,5435.807672916667,unknown,2,2022-06-30T09:59:48.696+02:00,2022-06-30T08:20:05.567+02:00,1493,1.420341,0,0,1178.161,0,0,2022-06-30T09:59:48.695+02:00
2022-06-30T09:59:49.729+02:00,5436.840097875001,-1.025802612304688,0.861724853515625,1.206893920898438,5436.830145875,0.5319123471479239,2.27276016378605,-0.7416566916117334,-2.144925832748413,-6.262067317962646,0.05099904909729958,-1.654590606689453,0.2871818542480469,0.6708362102508545,XArbitraryZVertical,-0.3693726875161338,0.7756444296866696,-0.2140682224786284,0.464881085325387,0.5630229115486145,0.6755104064941406,0.4761209189891815,0,0,0,-1,-1,5435.807672916667,unknown,2,2022-06-30T09:59:48.696+02:00,2022-06-30T08:20:05.567+02:00,1493,1.420341,0,0,1178.161,0,0,2022-06-30T09:59:48.695+02:00
2022-06-30T09:59:49.744+02:00,5436.850048875001,-1.058502197265625,0.8704986572265625,1.202682495117188,5436.840097875001,0.5554640044479717,2.22572034502687,-0.7276353200499467,-2.349325180053711,-6.365912437438965,-0.05955116078257561,-1.640627980232239,0.2900792956352234,0.7256973385810852,XArbitraryZVertical,-0.3811187012044408,0.7630011373470631,-0.1936712926862314,0.4848395511122284,0.5922427773475647,0.6651057004928589,0.4548443853855133,0,0,0,-1,-1,5435.807672916667,unknown,2,2022-06-30T09:59:48.696+02:00,2022-06-30T08:20:05.567+02:00,1493,1.420341,0,0,1178.161,0,0,2022-06-30T09:59:48.695+02:00
2022-06-30T09:59:49.750+02:00,5436.859999875001,-1.106414794921875,1.0028076171875,1.106735229492188,5436.850048875001,0.5832108681643324,2.180408037937694,-0.713994988261611,-2.640127182006836,-6.43804931640625,-0.2101472318172455,-1.645421028137207,0.2068666219711304,0.7741886377334595,XArbitraryZVertical,-0.3935885719027805,0.7492933790074379,-0.1722658421969712,0.5039563220277204,0.6196185350418091,0.6548582315444946,0.4327050745487213,0,0,0,-1,-1,5435.807672916667,unknown,2,2022-06-30T09:59:48.696+02:00,2022-06-30T08:20:05.567+02:00,1493,1.420341,0,0,1178.161,0,0,2022-06-30T09:59:48.695+02:00
2022-06-30T09:59:49.759+02:00,5436.869951875,-1.115493774414062,1.162277221679688,0.995269775390625,5436.859999875001,0.6155056011587596,2.136942008875537,-0.701381586617373,-2.837460041046143,-6.542754650115967,-0.4102001786231995,-1.70325767993927,0.2252249121665955,0.7929115295410156,XArbitraryZVertical,-0.4069719795772174,0.7343426579066837,-0.1499921699265092,0.5221274334169075,0.6447556614875793,0.645273745059967,0.409770667552948,0,0,0,-1,-1,5435.807672916667,unknown,2,2022-06-30T09:59:48.696+02:00,2022-06-30T08:20:05.567+02:00,1493,1.420341,0,0,1178.161,0,0,2022-06-30T09:59:48.695+02:00
2022-06-30T09:59:49.769+02:00,5436.879902875,-1.099014282226562,1.2642822265625,0.8013763427734375,5436.869951875,0.6507039483876106,2.093624232136396,-0.6909810994424508,-2.833344697952271,-6.719745635986328,-0.6164376735687256,-1.774089097976685,0.3655142188072205,0.7219389081001282,XArbitraryZVertical,-0.4209559484497973,0.7177702741585089,-0.1273608195794635,0.5397974843744501,0.6676746010780334,0.6372935175895691,0.384796142578125,0,0,0,-1,-1,5435.807672916667,unknown,2,2022-06-30T09:59:48.696+02:00,2022-06-30T08:20:05.567+02:00,1493,1.420341,0,0,1178.161,0,0,2022-06-30T09:59:48.695+02:00
2022-06-30T09:59:49.779+02:00,5436.889854875,-1.04339599609375,1.350418090820312,0.739837646484375,5436.879902875,0.6854408036967591,2.047906114329646,-0.6847762573426921,-2.443332195281982,-6.924590110778809,-0.8807364106178284,-1.803555965423584,0.5297775864601135,0.6395804882049561,XArbitraryZVertical,-0.4348113795047608,0.6991305499378305,-0.1054980200048884,0.5576969353607554,0.6880624294281006,0.6324997544288635,0.3556889295578003,0,0,0,-1,-1,5435.807672916667,unknown,2,2022-06-30T09:59:48.696+02:00,2022-06-30T08:20:05.567+02:00,1493,1.420341,0,0,1178.161,0,0,2022-06-30T09:59:48.695+02:00
2022-06-30T09:59:49.789+02:00,5436.899805875,-0.96051025390625,1.254150390625,0.7173309326171875,5436.889854875,0.7165835876829694,1.99774499566073,-0.6838566649621535,-1.988442897796631,-7.11569881439209,-1.055232882499695,-1.804574370384216,0.632495105266571,0.4803932905197144,XArbitraryZVertical,-0.4477580367889458,0.6782360095839821,-0.0852248315652253,0.5764073852299926,0.7055602669715881,0.6317871809005737,0.3209826946258545,0,0,0,-1,-1,5435.807672916667,unknown,2,2022-06-30T09:59:48.696+02:00,2022-06-30T08:20:05.567+02:00,1493,1.420341,0,0,1178.161,0,0,2022-06-30T09:59:48.695+02:00
2022-06-30T09:59:49.799+02:00,5436.909757875001,-0.8711090087890625,0.9956207275390625,0.7083282470703125,5436.899805875,0.7430031684886208,1.943005676939624,-0.6871788233389519,-1.527523517608643,-7.277987480163574,-1.160597085952759,-1.763501763343811,0.7160593867301941,0.4587028324604034,XArbitraryZVertical,-0.4592856374256658,0.6554570445384217,-0.06639476669136489,0.5958394417816096,0.7201060056686401,0.634358823299408,0.2811344563961029,0,0,0,-1,-1,5435.807672916667,unknown,2,2022-06-30T09:59:48.696+02:00,2022-06-30T08:20:05.567+02:00,1493,1.420341,0,0,1178.161,0,0,2022-06-30T09:59:48.695+02:00
2022-06-30T09:59:49.809+02:00,5436.919708875001,-0.82757568359375,0.71923828125,0.7469024658203125,5436.909757875001,0.7661016326861251,1.884337176799228,-0.6935876556855748,-1.450724363327026,-7.530703067779541,-1.241191148757935,-1.691978931427002,0.6148504614830017,0.4801619350910187,XArbitraryZVertical,-0.4696862976863451,0.6308558518575533,-0.04829192149361967,0.6156977169920943,0.7314689159393311,0.6393000483512878,0.2371686547994614,0,0,0,-1,-1,5435.807672916667,unknown,2,2022-06-30T09:59:48.696+02:00,2022-06-30T08:20:05.567+02:00,1493,1.420341,0,0,1178.161,0,0,2022-06-30T09:59:48.695+02:00
2022-06-30T09:59:49.818+02:00,5436.929659875001,-0.9636993408203125,0.8489227294921875,0.4667205810546875,5436.919708875001,0.7897260989541991,1.823029882119021,-0.7012300728085049,-1.60927677154541,-7.82825231552124,-1.249408602714539,-1.610981702804565,0.350462794303894,0.5176460742950439,XArbitraryZVertical,-0.4797716692917891,0.6042847533313829,-0.0293018267227134,0.6354530248057301,0.7398727536201477,0.6451579928398132,0.1906818300485611,0,0,0,-1,-1,5435.807672916667,unknown,2,2022-06-30T09:59:48.696+02:00,2022-06-30T08:20:05.567+02:00,1493,1.420341,0,0,1178.161,0,0,2022-06-30T09:59:48.695+02:00
2022-06-30T09:59:49.835+02:00,5436.939611875,-1.107177734375,1.357330322265625,-0.190673828125,5436.929659875001,0.8163071657406176,1.762600232905779,-0.7097109412885804,-1.934240937232971,-7.799759864807129,-1.312509059906006,-1.572215676307678,0.06762385368347168,0.602299690246582,XArbitraryZVertical,-0.4900425806845933,0.5763328127624969,-0.009297114521398071,0.6539207954798908,0.744640052318573,0.6516145467758179,0.1446024775505066,0,0,0,-1,-1,5435.807672916667,unknown,2,2022-06-30T09:59:48.696+02:00,2022-06-30T08:20:05.567+02:00,1493,1.420341,0,0,1178.161,0,0,2022-06-30T09:59:48.695+02:00
2022-06-30T09:59:49.838+02:00,5436.949562875,-1.0386962890625,1.675613403320312,-0.857452392578125,5436.939611875,0.8430376169778735,1.703608474591531,-0.71995737724082,-1.550102114677429,-7.573019027709961,-1.379178047180176,-1.708912134170532,0.1895702481269836,0.3671607971191406,XArbitraryZVertical,-0.4998338653439934,0.547673078586017,0.01034317913435772,0.6709049099686097,0.7452128529548645,0.6593526005744934,0.09955938905477524,0,0,0,-1,-1,5435.807672916667,unknown,2,2022-06-30T09:59:48.696+02:00,2022-06-30T08:20:05.567+02:00,1493,1.420341,0,0,1178.161,0,0,2022-06-30T09:59:48.695+02:00
2022-06-30T09:59:49.849+02:00,5436.959514875,-0.7606201171875,1.628738403320312,-1.453079223632812,5436.949562875,0.856139752683436,1.638985736359476,-0.7325965077030676,0.003725846763700247,-7.215091228485107,-1.314316511154175,-1.848890542984009,0.6885282397270203,-0.2413296699523926,XArbitraryZVertical,-0.5056595671618174,0.5192650130699094,0.0264298188465337,0.6884576517595838,0.7417129278182983,0.6688022613525391,0.05065550282597542,0,0,0,-1,-1,5435.807672916667,unknown,2,2022-06-30T09:59:48.696+02:00,2022-06-30T08:20:05.567+02:00,1493,1.420341,0,0,1178.161,0,0,2022-06-30T09:59:48.695+02:00
2022-06-30T09:59:49.858+02:00,5436.969465875,-0.6220550537109375,1.468521118164062,-1.622512817382812,5436.959514875,0.843293612199576,1.561145989426612,-0.7439471204513836,2.041698217391968,-6.716183185577393,-0.8891657590866089,-1.774463534355164,0.9984160661697388,-0.8503521084785461,XArbitraryZVertical,-0.5039188328311097,0.4924586261306848,0.03754182245371138,0.7086191444750066,0.7357673048973083,0.6771974563598633,-0.007100623100996017,0,0,0,-1,-1,5435.807672916667,unknown,2,2022-06-30T09:59:48.696+02:00,2022-06-30T08:20:05.567+02:00,1493,1.420341,0,0,1178.161,0,0,2022-06-30T09:59:48.695+02:00
2022-06-30T09:59:49.868+02:00,5436.979417875001,-6.498458862304688,6.051177978515625,-19.98416137695312,5436.969465875,0.8060970776656428,1.475977612397956,-0.748478749117633,3.099113702774048,-4.68925666809082,-0.3514874875545502,-1.49005389213562,0.9482136368751526,-1.383707642555237,XArbitraryZVertical,-0.4944059310350828,0.469975296440741,0.0438483245747111,0.7299064420198055,0.7294337153434753,0.6805248856544495,-0.06937199085950851,0,0,0,-1,-1,5435.807672916667,unknown,2,2022-06-30T09:59:48.696+02:00,2022-06-30T08:20:05.567+02:00,1493,1.420341,0,0,1178.161,0,0,2022-06-30T09:59:48.695+02:00
2022-06-30T09:59:49.878+02:00,5436.989368875001,0.9676513671875,1.8804931640625,0.1852874755859375,5436.979417875001,0.8064272922737924,1.495657755702735,-0.7442113749036083,-0.2466905266046524,1.775802850723267,-0.958324134349823,-1.355602025985718,0.7911293506622314,-1.567291498184204,XArbitraryZVertical,-0.4937599204226143,0.4781112072653367,0.04056761669932871,0.7252345985287674,0.7335469126701355,0.6773918867111206,-0.05522162839770317,0,0,0,-1,-1,5435.807672916667,unknown,2,2022-06-30T09:59:48.696+02:00,2022-06-30T08:20:05.567+02:00,1493,1.420341,0,0,1178.161,0,0,2022-06-30T09:59:48.695+02:00
2022-06-30T09:59:49.888+02:00,5436.999319875001,1.793350219726562,-1.384506225585938,0.4048309326171875,5436.989368875001,0.8072516551714176,1.498953894759263,-0.7392691126666572,0.6989160180091858,1.622306346893311,4.720431804656982,-7.235514163970947,5.377429962158203,-19.93111801147461,XArbitraryZVertical,-0.4927127419178604,0.4803255037469189,0.0417528561326178,0.724415929239414,0.737055242061615,0.6737480163574219,-0.05304312705993652,0,0,0,-1,-1,5435.807672916667,unknown,2,2022-06-30T09:59:48.696+02:00,2022-06-30T08:20:05.567+02:00,1493,1.420341,0,0,1178.161,0,0,2022-06-30T09:59:48.695+02:00
2022-06-30T09:59:49.898+02:00,5437.009271875,1.60009765625,-0.2178192138671875,-0.6290435791015625,5436.999319875001,0.7695132126028313,1.508514430006344,-0.6923149836997476,3.97645378112793,2.705777168273926,3.283934593200684,0.1993733644485474,1.242172479629517,0.233198881149292,XArbitraryZVertical,-0.4709510005029313,0.5042313601472519,0.0419708011863467,0.7226302572270848,0.7682780623435974,0.6383209228515625,-0.04791178181767464,0,0,0,-1,-1,5435.807672916667,unknown,2,2022-06-30T09:59:48.696+02:00,2022-06-30T08:20:05.567+02:00,1493,1.420341,0,0,1178.161,0,0,2022-06-30T09:59:48.695+02:00
2022-06-30T09:59:49.908+02:00,5437.019222875,-0.8347625732421875,0.4334259033203125,-1.505874633789062,5437.009271875,0.7472407336151291,1.503771570113546,-0.6765956823122965,-0.1429338306188583,0.06934130191802979,0.4297563135623932,1.015392065048218,-2.010648488998413,0.4570512175559998,XArbitraryZVertical,-0.4608477686985604,0.511379501799703,0.04043553477858549,0.7242067050253753,0.7779581546783447,0.6261422634124756,-0.05222067981958389,0,0,0,-1,-1,5435.807672916667,unknown,2,2022-06-30T09:59:48.696+02:00,2022-06-30T08:20:05.567+02:00,1493,1.420341,0,0,1178.161,0,0,2022-06-30T09:59:48.695+02:00
2022-06-30T09:59:49.918+02:00,5437.029174875001,-0.6603546142578125,0.6842041015625,-1.116958618164062,5437.019222875,0.7530641987524807,1.515662548769263,-0.6747541512244889,-0.5526230931282043,0.9275164604187012,0.374486118555069,0.8204235434532166,-0.842524528503418,-0.5860139727592468,XArbitraryZVertical,-0.4620699495941856,0.5147585533966125,0.04043129570824779,0.7210272742941024,0.7796741127967834,0.6247053742408752,-0.04302998632192612,0,0,0,-1,-1,5435.807672916667,unknown,2,2022-06-30T09:59:48.696+02:00,2022-06-30T08:20:05.567+02:00,1493,1.420341,0,0,1178.161,0,0,2022-06-30T09:59:48.695+02:00
2022-06-30T09:59:49.928+02:00,5437.039125875001,0.111114501953125,0.3993988037109375,-0.811798095703125,5437.029174875001,0.7542659223434955,1.524332893059074,-0.6727136350176868,0.6300477385520935,0.458483099937439,0.2476247996091843,-1.616052150726318,-0.1896846890449524,-1.469547510147095,XArbitraryZVertical,-0.4619901326624753,0.5180746503980921,0.0395676683171157,0.7187477273251407,0.7812896966934204,0.6231107115745544,-0.0363275483250618,0,0,0,-1,-1,5435.807672916667,unknown,2,2022-06-30T09:59:48.696+02:00,2022-06-30T08:20:05.567+02:00,1493,1.420341,0,0,1178.161,0,0,2022-06-30T09:59:48.695+02:00
2022-06-30T09:59:49.938+02:00,5437.049076875001,0.2143402099609375,0.30657958984375,-0.6285858154296875,5437.039125875001,0.7402122837759813,1.519981248691323,-0.6716872083446443,1.453835725784302,0.2174473106861115,0.159387081861496,-1.442117094993591,0.06189656257629395,-1.077199459075928,XArbitraryZVertical,-0.4579769676869788,0.5199781973133832,0.03586891218934685,0.7201341160495414,0.7817623615264893,0.6223075985908508,-0.03975954279303551,0,0,0,-1,-1,5435.807672916667,unknown,2,2022-06-30T09:59:48.696+02:00,2022-06-30T08:20:05.567+02:00,1493,1.420341,0,0,1178.161,0,0,2022-06-30T09:59:48.695+02:00
2022-06-30T09:59:49.948+02:00,5437.059028875,0.0028839111328125,0.5,-0.8328399658203125,5437.049076875001,0.7176694646412057,1.50592444901557,-0.6740769440090622,2.169459581375122,-0.2697511613368988,-0.4324278831481934,-0.6685256361961365,-0.2247775197029114,-0.7611507177352905,XArbitraryZVertical,-0.4525567179077007,0.5194887140204589,0.03010344085924211,0.7241669209715192,0.7796401381492615,0.6241764426231384,-0.0506477877497673,0,0,0,-1,-1,5435.807672916667,unknown,2,2022-06-30T09:59:48.696+02:00,2022-06-30T08:20:05.567+02:00,1493,1.420341,0,0,1178.161,0,0,2022-06-30T09:59:48.695+02:00
2022-06-30T09:59:49.958+02:00,5437.068979875,-0.0179290771484375,0.7204437255859375,-0.9594573974609375,5437.059028875,0.6814358762492653,1.479612168020235,-0.6798382039495606,3.432742595672607,-0.4924244284629822,-0.9169729948043823,-0.5601035952568054,-0.3220875859260559,-0.5577728748321533,XArbitraryZVertical,-0.444485837231417,0.5167452520941294,0.02084455039580943,0.7314179643406182,0.7744437456130981,0.6286672353744507,-0.0708133727312088,0,0,0,-1,-1,5435.807672916667,unknown,2,2022-06-30T09:59:48.696+02:00,2022-06-30T08:20:05.567+02:00,1493,1.420341,0,0,1178.161,0,0,2022-06-30T09:59:48.695+02:00
2022-06-30T09:59:49.968+02:00,5437.078931875,0.1135101318359375,0.827545166015625,-0.81268310546875,5437.068979875,0.6275944424723398,1.439835094842941,-0.6858252785873639,4.770968914031982,-0.6957579255104065,-1.076106309890747,-0.7643858194351196,-0.1333118677139282,-0.7317793369293213,XArbitraryZVertical,-0.432120613462374,0.5125829454076469,0.007707022490318399,0.7419373943864706,0.7672696113586426,0.633311927318573,-0.1010610014200211,0,0,0,-1,-1,5435.807672916667,unknown,2,2022-06-30T09:59:48.696+02:00,2022-06-30T08:20:05.567+02:00,1493,1.420341,0,0,1178.161,0,0,2022-06-30T09:59:48.695+02:00
2022-06-30T09:59:49.978+02:00,5437.088882875,0.2581024169921875,0.888824462890625,-0.3622589111328125,5437.078931875,0.5574491862927867,1.386821864334475,-0.6891461054770178,5.824720859527588,-1.001527905464172,-1.221899747848511,-0.7766939997673035,0.08456528186798096,-0.8182679414749146,XArbitraryZVertical,-0.4152783985032054,0.5069012820762275,-0.008417391448369701,0.7553304201713953,0.7587648034095764,0.6358783841133118,-0.1411898881196976,0,0,0,-1,-1,5435.807672916667,unknown,2,2022-06-30T09:59:48.696+02:00,2022-06-30T08:20:05.567+02:00,1493,1.420341,0,0,1178.161,0,0,2022-06-30T09:59:48.695+02:00
2022-06-30T09:59:49.988+02:00,5437.098834875001,0.349273681640625,0.950592041015625,-0.1039276123046875,5437.088882875,0.4762577148311853,1.323752237711918,-0.6891359861079929,6.413491249084473,-1.2448490858078,-1.410271883010864,-0.6348536610603333,0.1916746497154236,-0.623949408531189,XArbitraryZVertical,-0.3953960631845062,0.4992944099705434,-0.02660845604499219,0.7704928392688178,0.7483637928962708,0.6358705759048462,-0.1887340843677521,0,0,0,-1,-1,5435.807672916667,unknown,2,2022-06-30T09:59:48.696+02:00,2022-06-30T08:20:05.567+02:00,1493,1.420341,0,0,1178.161,0,0,2022-06-30T09:59:48.695+02:00
2022-06-30T09:59:49.998+02:00,5437.108785875001,0.3686065673828125,0.9926605224609375,-0.1685791015625,5437.098834875001,0.3908107118922159,1.25594980945001,-0.6858855277691427,6.437386989593506,-1.442834377288818,-1.582216739654541,-0.4777163863182068,0.2554659247398376,-0.1226181089878082,XArbitraryZVertical,-0.3743597201353518,0.4899328396264268,-0.04582340196065912,0.7859522838609054,0.7358188033103943,0.6333585381507874,-0.2396412193775177,0,0,0,-1,-1,5435.807672916667,unknown,2,2022-06-30T09:59:48.696+02:00,2022-06-30T08:20:05.567+02:00,1493,1.420341,0,0,1178.161,0,0,2022-06-30T09:59:48.695+02:00
2022-06-30T09:59:50.008+02:00,5437.118736875001,0.2602996826171875,0.9040069580078125,-0.39019775390625,5437.108785875001,0.3084674930676926,1.188199177475312,-0.6805499194507559,5.919292449951172,-1.664361834526062,-1.752436757087708,-0.3717582821846008,0.3213714361190796,0.1862349510192871,XArbitraryZVertical,-0.3543388196629501,0.4789180878467146,-0.06460004980250059,0.8005674726374568,0.7210319042205811,0.6292205452919006,-0.2901629209518433,0,0,0,-1,-1,5435.807672916667,unknown,2,2022-06-30T09:59:48.696+02:00,2022-06-30T08:20:05.567+02:00,1493,1.420341,0,0,1178.161,0,0,2022-06-30T09:59:48.695+02:00
2022-06-30T09:59:50.018+02:00,5437.128688875,0.15447998046875,0.656768798828125,-0.5854644775390625,5437.118736875001,0.2350754119744671,1.125068073390721,-0.6758564718690744,4.917547702789307,-1.684808015823364,-1.961764693260193,-0.3353399038314819,0.3670946955680847,0.1677642464637756,XArbitraryZVertical,-0.3375162066826828,0.4668093173116307,-0.0820102092431499,0.8132935108655834,0.7039464116096497,0.625565767288208,-0.3363437354564667,0,0,0,-1,-1,5435.807672916667,unknown,2,2022-06-30T09:59:48.696+02:00,2022-06-30T08:20:05.567+02:00,1493,1.420341,0,0,1178.161,0,0,2022-06-30T09:59:48.695+02:00
2022-06-30T09:59:50.027+02:00,5437.138639875,0.1626129150390625,0.4454498291015625,-0.7610931396484375,5437.128688875,0.17465149759453,1.071491903848811,-0.6749681469193223,3.565503597259521,-1.407042145729065,-2.141010761260986,-0.4251128435134888,0.2791343927383423,-0.01637434959411621,XArbitraryZVertical,-0.3256463805952531,0.4550193053469726,-0.09761937480719922,0.8230324060150881,0.6854124665260315,0.6248724460601807,-0.3738237321376801,0,0,0,-1,-1,5435.807672916667,unknown,2,2022-06-30T09:59:48.696+02:00,2022-06-30T08:20:05.567+02:00,1493,1.420341,0,0,1178.161,0,0,2022-06-30T09:59:48.695+02:00
2022-06-30T09:59:50.038+02:00,5437.148591875,0.2694549560546875,0.5147705078125,-0.88238525390625,5437.138639875,0.1289378038680462,1.030856812967105,-0.680248676004539,2.106435060501099,-0.9408071041107178,-2.29099702835083,-0.5123409628868103,0.02778226137161255,-0.1858074069023132,XArbitraryZVertical,-0.3195960548085392,0.4450052644130348,-0.1112513485073457,0.8291270945929924,0.6668208837509155,0.6289863586425781,-0.3996573388576508,0,0,0,-1,-1,5435.807672916667,unknown,2,2022-06-30T09:59:48.696+02:00,2022-06-30T08:20:05.567+02:00,1493,1.420341,0,0,1178.161,0,0,2022-06-30T09:59:48.695+02:00
2022-06-30T09:59:50.047+02:00,5437.158542875,0.3735809326171875,0.7920379638671875,-0.96270751953125,5437.148591875,0.09811746918157348,1.00432282820298,-0.6934220038750876,0.5897189974784851,-0.4261124730110168,-2.43021035194397,-0.4863218665122986,-0.1937229633331299,-0.3483681678771973,XArbitraryZVertical,-0.3196959583164447,0.4375292136848941,-0.122932086625123,0.8314147938721134,0.6489347219467163,0.6391726732254028,-0.4127253592014313,0,0,0,-1,-1,5435.807672916667,unknown,2,2022-06-30T09:59:48.696+02:00,2022-06-30T08:20:05.567+02:00,1493,1.420341,0,0,1178.161,0,0,2022-06-30T09:59:48.695+02:00
2022-06-30T09:59:50.057+02:00,5437.168494875001,0.4373626708984375,1.1064453125,-0.887481689453125,5437.158542875,0.08007119011954515,0.9907403752874298,-0.7141020558394094,-0.4430047571659088,0.07345739006996155,-2.512272357940674,-0.3626214265823364,-0.1401687264442444,-0.4682185649871826,XArbitraryZVertical,-0.3250785927090308,0.432712837983984,-0.1330175733123086,0.830295057435549,0.6320763230323792,0.6549391150474548,-0.4141670167446136,0,0,0,-1,-1,5435.807672916667,unknown,2,2022-06-30T09:59:48.696+02:00,2022-06-30T08:20:05.567+02:00,1493,1.420341,0,0,1178.161,0,0,2022-06-30T09:59:48.695+02:00
2022-06-30T09:59:50.067+02:00,5437.178445875001,0.4722900390625,1.429702758789062,-0.696258544921875,5437.168494875001,0.06904643250417072,0.9861761842248301,-0.7389321650098609,-0.8475492000579834,0.5058212876319885,-2.513230323791504,-0.24284428358078,0.1185388565063477,-0.5547627210617065,XArbitraryZVertical,-0.3331457710163935,0.4301642728091825,-0.1424796140009075,0.8268447832937852,0.6164252161979675,0.6734989881515503,-0.4079451858997345,0,0,0,-1,-1,5435.807672916667,unknown,2,2022-06-30T09:59:48.696+02:00,2022-06-30T08:20:05.567+02:00,1493,1.420341,0,0,1178.161,0,0,2022-06-30T09:59:48.695+02:00
2022-06-30T09:59:50.077+02:00,5437.188396875001,0.499114990234375,1.870819091796875,-0.5528411865234375,5437.178445875001,0.05935077383700522,0.9864710862417589,-0.7638880866113419,-0.7016417980194092,0.9141941070556641,-2.398761987686157,-0.1649731993675232,0.4147107005119324,-0.4891164898872375,XArbitraryZVertical,-0.3411900576019213,0.4294258390863185,-0.1521482889589976,0.8222127669216766,0.6023358702659607,0.6917344331741333,-0.3983655869960785,0,0,0,-1,-1,5435.807672916667,unknown,2,2022-06-30T09:59:48.696+02:00,2022-06-30T08:20:05.567+02:00,1493,1.420341,0,0,1178.161,0,0,2022-06-30T09:59:48.695+02:00
2022-06-30T09:59:50.087+02:00,5437.198348875,0.51190185546875,2.345306396484375,-0.5854339599609375,5437.188396875001,0.04798710570415967,0.9891157823486566,-0.7864114891128006,-0.4250458180904388,1.260750651359558,-2.217201709747314,-0.1179274320602417,0.7218797206878662,-0.3081478476524353,XArbitraryZVertical,-0.3476629234444121,0.4302034105063595,-0.1623025476091391,0.8171373623195024,0.5902174115180969,0.7078229188919067,-0.388111025094986,0,0,0,-1,-1,5435.807672916667,unknown,2,2022-06-30T09:59:48.696+02:00,2022-06-30T08:20:05.567+02:00,1493,1.420341,0,0,1178.161,0,0,2022-06-30T09:59:48.695+02:00
2022-06-30T09:59:50.097+02:00,5437.208299875,0.5482330322265625,2.802017211914062,-0.632781982421875,5437.198348875,0.03248203299274029,0.9922181365322587,-0.8045163367394248,0.3065692782402039,1.644613027572632,-1.942646503448486,-0.08147811889648438,1.150323629379272,-0.1736340522766113,XArbitraryZVertical,-0.351366894805012,0.4323627558404142,-0.1731885820694153,0.8121635097833565,0.5805930495262146,0.720495343208313,-0.3792074918746948,0,0,0,-1,-1,5435.807672916667,unknown,2,2022-06-30T09:59:48.696+02:00,2022-06-30T08:20:05.567+02:00,1493,1.420341,0,0,1178.161,0,0,2022-06-30T09:59:48.695+02:00
2022-06-30T09:59:50.107+02:00,5437.218251875001,0.59710693359375,3.12066650390625,-0.6455078125,5437.208299875,0.007467897157836694,0.9915131316857698,-0.8144414219598703,1.518723130226135,1.911746859550476,-1.480962991714478,-0.06241095066070557,1.617963910102844,-0.209750771522522,XArbitraryZVertical,-0.3500054755901107,0.4354932952859651,-0.1853869165856185,0.8083771471006758,0.5743128061294556,0.7273423671722412,-0.3756835162639618,0,0,0,-1,-1,5435.807672916667,unknown,2,2022-06-30T09:59:48.696+02:00,2022-06-30T08:20:05.567+02:00,1493,1.420341,0,0,1178.161,0,0,2022-06-30T09:59:48.695+02:00
2022-06-30T09:59:50.117+02:00,5437.228202875001,0.57342529296875,3.09112548828125,-0.6641082763671875,5437.218251875001,-0.03069980053489851,0.982286665394466,-0.8128458245689725,2.969750881195068,2.082052230834961,-0.7431507706642151,-0.02355372905731201,2.075770616531372,-0.2511722445487976,XArbitraryZVertical,-0.3419056720781052,0.4385150621958854,-0.1988597513719518,0.8070068486571123,0.5717867612838745,0.7262464165687561,-0.381610095500946,0,0,0,-1,-1,5435.807672916667,unknown,2,2022-06-30T09:59:48.696+02:00,2022-06-30T08:20:05.567+02:00,1493,1.420341,0,0,1178.161,0,0,2022-06-30T09:59:48.695+02:00
2022-06-30T09:59:50.127+02:00,5437.238153875001,0.5492401123046875,2.778045654296875,-0.6231689453125,5437.228202875001,-0.07889992376407855,0.9684909015891069,-0.7956740972068236,4.494931221008301,2.231854438781738,-0.0361638143658638,0.02044677734375,2.406330823898315,-0.2490389347076416,XArbitraryZVertical,-0.3256879590118925,0.4423717271245886,-0.2124010265230708,0.8081586534803716,0.57666015625,0.7143355011940002,-0.3964692056179047,0,0,0,-1,-1,5435.807672916667,unknown,2,2022-06-30T09:59:48.696+02:00,2022-06-30T08:20:05.567+02:00,1493,1.420341,0,0,1178.161,0,0,2022-06-30T09:59:48.695+02:00
2022-06-30T09:59:50.137+02:00,5437.248105875,0.5442962646484375,2.362640380859375,-0.5597381591796875,5437.238153875001,-0.1357590793317563,0.9510963229252043,-0.7649572875632201,5.58030891418457,2.351856708526611,0.4704863429069519,-0.01384210586547852,2.398619174957275,-0.2451190650463104,XArbitraryZVertical,-0.3022357868048468,0.4462720679782849,-0.2264209784831823,0.8113127080601253,0.5872673392295837,0.6925061941146851,-0.4189895391464233,0,0,0,-1,-1,5435.807672916667,unknown,2,2022-06-30T09:59:48.696+02:00,2022-06-30T08:20:05.567+02:00,1493,1.420341,0,0,1178.161,0,0,2022-06-30T09:59:48.695+02:00
2022-06-30T09:59:50.147+02:00,5437.258056875,0.52227783203125,1.954849243164062,-0.56744384765625,5437.248105875,-0.1936732254689738,0.935806116703254,-0.7261168475111427,5.824645519256592,2.519026041030884,0.858487069606781,-0.05276328325271606,2.114074468612671,-0.1796217560768127,XArbitraryZVertical,-0.2747145428490436,0.4502867672872206,-0.2400892654945562,0.8149422042645403,0.6020033359527588,0.6639710068702698,-0.4435474872589111,0,0,0,-1,-1,5435.807672916667,unknown,2,2022-06-30T09:59:48.696+02:00,2022-06-30T08:20:05.567+02:00,1493,1.420341,0,0,1178.161,0,0,2022-06-30T09:59:48.695+02:00
2022-06-30T09:59:50.157+02:00,5437.268008875,0.493988037109375,1.732589721679688,-0.59326171875,5437.258056875,-0.2454580784703403,0.9285578473470838,-0.6845153711752812,5.467676639556885,2.80485725402832,1.141671419143677,-0.07607060670852661,1.730342388153076,-0.09568604826927185,XArbitraryZVertical,-0.2461928168780887,0.4553711499480657,-0.25226390583716,0.817550704288955,0.6203668713569641,0.6322976350784302,-0.4640524387359619,0,0,0,-1,-1,5435.807672916667,unknown,2,2022-06-30T09:59:48.696+02:00,2022-06-30T08:20:05.567+02:00,1493,1.420341,0,0,1178.161,0,0,2022-06-30T09:59:48.695+02:00
2022-06-30T09:59:50.167+02:00,5437.277959875,0.45111083984375,1.814926147460938,-0.5469818115234375,5437.268008875,-0.2890601973072719,0.9309781600769378,-0.6434700028797984,5.023161888122559,3.105182886123657,1.366018056869507,-0.1195005774497986,1.354873895645142,-0.08979332447052002,XArbitraryZVertical,-0.2182915455997524,0.4620859313251103,-0.2625547346959164,0.818468291535583,0.6417784094810486,0.5999751091003418,-0.4776507914066315,0,0,0,-1,-1,5435.807672916667,unknown,2,2022-06-30T09:59:48.696+02:00,2022-06-30T08:20:05.567+02:00,1493,1.420341,0,0,1178.161,0,0,2022-06-30T09:59:48.695+02:00
2022-06-30T09:59:50.177+02:00,5437.287911875001,0.4398345947265625,2.014190673828125,-0.45196533203125,5437.277959875,-0.3265933892358385,0.9412560656083667,-0.6028217075295214,4.783736228942871,3.380228042602539,1.604199528694153,-0.1718388795852661,1.16562032699585,-0.1082664728164673,XArbitraryZVertical,-0.1906791060237722,0.4702591781809558,-0.2711881955133059,0.8178966452312076,0.6658269762992859,0.566969096660614,-0.484995573759079,0,0,0,-1,-1,5435.807672916667,unknown,2,2022-06-30T09:59:48.696+02:00,2022-06-30T08:20:05.567+02:00,1493,1.420341,0,0,1178.161,0,0,2022-06-30T09:59:48.695+02:00
2022-06-30T09:59:50.187+02:00,5437.297862875001,0.4724578857421875,2.110977172851562,-0.3321380615234375,5437.287911875001,-0.3617015013431883,0.9565942189205704,-0.5604567036281485,5.038660049438477,3.586304426193237,1.9073086977005,-0.2410961389541626,1.283352851867676,-0.05884319543838501,XArbitraryZVertical,-0.1619758923884219,0.4792643661903945,-0.2786755977142742,0.816339134397169,0.6922070384025574,0.5315731167793274,-0.4881389439105988,0,0,0,-1,-1,5435.807672916667,unknown,2,2022-06-30T09:59:48.696+02:00,2022-06-30T08:20:05.567+02:00,1493,1.420341,0,0,1178.161,0,0,2022-06-30T09:59:48.695+02:00
2022-06-30T09:59:50.196+02:00,5437.307813875001,0.5030059814453125,2.043212890625,-0.18829345703125,5437.297862875001,-0.3991114958463359,0.9734248243515383,-0.5132695265329047,5.707394599914551,3.644640922546387,2.232074737548828,-0.2804417014122009,1.523162245750427,0.03802764415740967,XArbitraryZVertical,-0.1302171583433382,0.4879005020803852,-0.285840323737713,0.8144273060159074,0.7202763557434082,0.4910281002521515,-0.4899931848049164,0,0,0,-1,-1,5435.807672916667,unknown,2,2022-06-30T09:59:48.696+02:00,2022-06-30T08:20:05.567+02:00,1493,1.420341,0,0,1178.161,0,0,2022-06-30T09:59:48.695+02:00
2022-06-30T09:59:50.206+02:00,5437.317765875,0.4921875,1.84759521484375,-0.0146636962890625,5437.307813875001,-0.4415421090940801,0.9896515128711447,-0.4597739930665984,6.530128479003906,3.622810363769531,2.526852607727051,-0.2765777707099915,1.667231321334839,0.159832775592804,XArbitraryZVertical,-0.09441385975100118,0.4950762443052061,-0.2932284661454299,0.8124055433764358,0.7490357160568237,0.4437455832958221,-0.4919710755348206,0,0,0,-1,-1,5435.807672916667,unknown,2,2022-06-30T09:59:48.696+02:00,2022-06-30T08:20:05.567+02:00,1493,1.420341,0,0,1178.161,0,0,2022-06-30T09:59:48.695+02:00
2022-06-30T09:59:50.216+02:00,5437.327716875,0.4727020263671875,1.57867431640625,0.1441802978515625,5437.317765875,-0.4889852913812818,1.005934888602356,-0.4010929622399544,7.091029644012451,3.658688545227051,2.681675910949707,-0.274619996547699,1.652787685394287,0.3045210540294647,XArbitraryZVertical,-0.05500092828575617,0.5005672253136556,-0.3010018355169011,0.8098180334475209,0.7776259779930115,0.3904247879981995,-0.492814689874649,0,0,0,-1,-1,5435.807672916667,unknown,2,2022-06-30T09:59:48.696+02:00,2022-06-30T08:20:05.567+02:00,1493,1.420341,0,0,1178.161,0,0,2022-06-30T09:59:48.695+02:00
2022-06-30T09:59:50.226+02:00,5437.337668875,0.474517822265625,1.3245849609375,0.1747283935546875,5437.327716875,-0.5389677225756062,1.02474385365494,-0.3407592807446088,7.212238788604736,3.796592235565186,2.679880380630493,-0.3132563233375549,1.513392090797424,0.4747937917709351,XArbitraryZVertical,-0.01381881988856364,0.5050546436231931,-0.3088096642440213,0.8058322542328785,0.8054438829421997,0.3342028260231018,-0.4894576966762543,0,0,0,-1,-1,5435.807672916667,unknown,2,2022-06-30T09:59:48.696+02:00,2022-06-30T08:20:05.567+02:00,1493,1.420341,0,0,1178.161,0,0,2022-06-30T09:59:48.695+02:00
2022-06-30T09:59:50.236+02:00,5437.347619875,0.4839019775390625,1.169281005859375,0.2082061767578125,5437.337668875,-0.5892831044056916,1.047824528604696,-0.2819795020863402,7.051613330841064,3.95671272277832,2.588004350662231,-0.359421968460083,1.300416469573975,0.6239117980003357,XArbitraryZVertical,0.02740456576149953,0.509296725346489,-0.3162207489916995,0.7999190198917278,0.8321240544319153,0.2782575190067291,-0.4797316789627075,0,0,0,-1,-1,5435.807672916667,unknown,2,2022-06-30T09:59:48.696+02:00,2022-06-30T08:20:05.567+02:00,1493,1.420341,0,0,1178.161,0,0,2022-06-30T09:59:48.695+02:00
2022-06-30T09:59:50.246+02:00,5437.357571875001,0.48089599609375,1.093307495117188,0.2409210205078125,5437.347619875,-0.6382850244773316,1.075500789582787,-0.2265757759341192,6.687084197998047,4.095208644866943,2.512011766433716,-0.3828231692314148,1.099942445755005,0.6378721594810486,XArbitraryZVertical,0.06748730056471441,0.5136862053624186,-0.3227218663126052,0.7921001380716054,0.8573411107063293,0.2246421426534653,-0.4631438851356506,0,0,0,-1,-1,5435.807672916667,unknown,2,2022-06-30T09:59:48.696+02:00,2022-06-30T08:20:05.567+02:00,1493,1.420341,0,0,1178.161,0,0,2022-06-30T09:59:48.695+02:00
2022-06-30T09:59:50.256+02:00,5437.367522875001,0.4638519287109375,1.049102783203125,0.239898681640625,5437.357571875001,-0.68482012532293,1.107215847915091,-0.1748965868554568,6.236214637756348,4.15693998336792,2.491686344146729,-0.3969098925590515,0.9952743053436279,0.6485381126403809,XArbitraryZVertical,0.1058747066498951,0.5182900158560803,-0.3277682997095089,0.7827732267553548,0.880811870098114,0.1740062981843948,-0.4403320252895355,0,0,0,-1,-1,5435.807672916667,unknown,2,2022-06-30T09:59:48.696+02:00,2022-06-30T08:20:05.567+02:00,1493,1.420341,0,0,1178.161,0,0,2022-06-30T09:59:48.695+02:00
2022-06-30T09:59:50.267+02:00,5437.377473875001,0.419189453125,1.036544799804688,0.2779388427734375,5437.367522875001,-0.7291285993699896,1.142033347476578,-0.1265899567738342,5.926263332366943,4.201999664306641,2.482165098190308,-0.4213072657585144,0.9670549631118774,0.6533403396606445,XArbitraryZVertical,0.1426005246407348,0.5229296374392081,-0.3313173187575031,0.772294368373604,0.9022032618522644,0.1262521296739578,-0.4124193787574768,0,0,0,-1,-1,5435.807672916667,unknown,2,2022-06-30T09:59:48.696+02:00,2022-06-30T08:20:05.567+02:00,1493,1.420341,0,0,1178.161,0,0,2022-06-30T09:59:48.695+02:00
2022-06-30T09:59:50.276+02:00,5437.387425875,0.353057861328125,0.9859771728515625,0.2637176513671875,5437.377473875001,-0.7724659900892344,1.179236399554167,-0.08097552538371575,5.695878982543945,4.19881534576416,2.483905792236328,-0.4574341773986816,0.9682153463363647,0.6202788949012756,XArbitraryZVertical,0.1781268420753739,0.5273335839839219,-0.3336889263724893,0.760816535691569,0.9212861061096191,0.08088706433773041,-0.380380243062973,0,0,0,-1,-1,5435.807672916667,unknown,2,2022-06-30T09:59:48.696+02:00,2022-06-30T08:20:05.567+02:00,1493,1.420341,0,0,1178.161,0,0,2022-06-30T09:59:48.695+02:00
2022-06-30T09:59:50.286+02:00,5437.397376875,0.3270416259765625,0.95062255859375,0.2824554443359375,5437.387425875,-0.8163804051915995,1.21846640245798,-0.03740977714936294,5.719396114349365,4.239804744720459,2.48702335357666,-0.5187250971794128,0.9991433024406433,0.6227829456329346,XArbitraryZVertical,0.2130312965910072,0.531220880617788,-0.335299370455817,0.7483290173967233,0.9379144906997681,0.03740105032920837,-0.3448440730571747,0,0,0,-1,-1,5435.807672916667,unknown,2,2022-06-30T09:59:48.696+02:00,2022-06-30T08:20:05.567+02:00,1493,1.420341,0,0,1178.161,0,0,2022-06-30T09:59:48.695+02:00
2022-06-30T09:59:50.296+02:00,5437.407328875001,0.3256683349609375,0.87774658203125,0.3186798095703125,5437.397376875,-0.8620317325937211,1.259724012293784,0.004612196823726665,5.703797340393066,4.22155237197876,2.533951044082642,-0.5989379286766052,0.990588903427124,0.5697940587997437,XArbitraryZVertical,0.2477869938186554,0.5343813137088713,-0.3363879569992677,0.7347662837630783,0.951995849609375,-0.004612180404365063,-0.3060764372348785,0,0,0,-1,-1,5435.807672916667,unknown,2,2022-06-30T09:59:48.696+02:00,2022-06-30T08:20:05.567+02:00,1493,1.420341,0,0,1178.161,0,0,2022-06-30T09:59:48.695+02:00
2022-06-30T09:59:50.306+02:00,5437.417279875001,0.3135223388671875,0.852996826171875,0.393402099609375,5437.407328875001,-0.9093902484345637,1.302392152233968,0.04511825309654582,5.758205890655518,4.147725105285645,2.560681581497192,-0.6361725330352783,0.9957250952720642,0.5473786592483521,XArbitraryZVertical,0.282259318118196,0.5365333840338226,-0.3369401966880181,0.7203699734549472,0.963214099407196,-0.04510294646024704,-0.2649232149124146,0,0,0,-1,-1,5435.807672916667,unknown,2,2022-06-30T09:59:48.696+02:00,2022-06-30T08:20:05.567+02:00,1493,1.420341,0,0,1178.161,0,0,2022-06-30T09:59:48.695+02:00
2022-06-30T09:59:50.316+02:00,5437.427230416667,0.298614501953125,0.8167572021484375,0.427276611328125,5437.417279875001,-0.9584814794970069,1.346300589220275,0.08358919018949756,5.67108678817749,4.071856498718262,2.555270910263062,-0.6458342671394348,0.9612380266189575,0.5405173897743225,XArbitraryZVertical,0.3162141120304865,0.537670797111479,-0.3370910987874183,0.7051866837252401,0.9715024828910828,-0.08349188417196274,-0.221837505698204,0,0,0,-1,-1,5435.807672916667,unknown,2,2022-06-30T09:59:48.696+02:00,2022-06-30T08:20:05.567+02:00,1493,1.420341,0,0,1178.161,0,0,2022-06-30T09:59:48.695+02:00
2022-06-30T09:59:50.327+02:00,5437.437182416667,0.2681884765625,0.760101318359375,0.457489013671875,5437.427230416667,-1.008539388244273,1.39118181623473,0.1194455329688479,5.59698486328125,3.968237161636353,2.508808374404907,-0.6633798480033875,0.9721580743789673,0.57077956199646,XArbitraryZVertical,0.3491980962899515,0.5379330734625651,-0.3367660274146551,0.6894036403746879,0.9769021272659302,-0.1191617101430893,-0.1773774027824402,0,0,0,-1,-1,5435.807672916667,unknown,2,2022-06-30T09:59:48.696+02:00,2022-06-30T08:20:05.567+02:00,1493,1.420341,0,0,1178.161,0,0,2022-06-30T09:59:48.695+02:00
2022-06-30T09:59:50.336+02:00,5437.447133416667,0.2565765380859375,0.7757720947265625,0.50048828125,5437.437182416667,-1.059983667560227,1.437035047426946,0.1523169035018193,5.573496341705322,3.898844480514526,2.444471597671509,-0.6809784770011902,0.9684853553771973,0.5590953826904297,XArbitraryZVertical,0.3812257292445963,0.5373616965112084,-0.3362348945899557,0.672945297114415,0.9795928597450256,-0.1517286151647568,-0.1318186968564987,0,0,0,-1,-1,5435.807672916667,unknown,2,2022-06-30T09:59:48.696+02:00,2022-06-30T08:20:05.567+02:00,1493,1.420341,0,0,1178.161,0,0,2022-06-30T09:59:48.695+02:00
2022-06-30T09:59:50.346+02:00,5437.457085416667,0.216644287109375,0.77911376953125,0.5,5437.447133416667,-1.1131885906736,1.484210370927386,0.1823364760960787,5.584874153137207,3.855425596237183,2.418591499328613,-0.711550235748291,0.9414286613464355,0.5425333976745605,XArbitraryZVertical,0.4125362083018308,0.5359960408402779,-0.3355207862326782,0.6557041844165228,0.9797386527061462,-0.1813278049230576,-0.08504424244165421,0,0,0,-1,-1,5435.807672916667,unknown,2,2022-06-30T09:59:48.696+02:00,2022-06-30T08:20:05.567+02:00,1493,1.420341,0,0,1178.161,0,0,2022-06-30T09:59:48.695+02:00
2022-06-30T09:59:50.356+02:00,5437.467036416667,0.18365478515625,0.7318878173828125,0.4862823486328125,5437.457085416667,-1.168626479184815,1.532933215437666,0.2093599772087455,5.696691513061523,3.826632022857666,2.344133377075195,-0.7208866477012634,0.9836055636405945,0.5375159382820129,XArbitraryZVertical,0.4432929690883579,0.5338329309703155,-0.3347488579093605,0.6375398014918765,0.9774631261825562,-0.2078339010477066,-0.03702748939394951,0,0,0,-1,-1,5435.807672916667,unknown,2,2022-06-30T09:59:48.696+02:00,2022-06-30T08:20:05.567+02:00,1493,1.420341,0,0,1178.161,0,0,2022-06-30T09:59:48.695+02:00
2022-06-30T09:59:50.366+02:00,5437.476988416667,0.1809844970703125,0.6453399658203125,0.5558929443359375,5437.467036416667,-1.227190466414904,1.583290559134571,0.2327634179983154,5.855564594268799,3.780232906341553,2.260385990142822,-0.7563125491142273,1.009780645370483,0.4878431558609009,XArbitraryZVertical,0.4736336613765633,0.5308009467584972,-0.3343223079026902,0.6181829330830149,0.9729567766189575,-0.2306672930717468,0.01215698011219501,0,0,0,-1,-1,5435.807672916667,unknown,2,2022-06-30T09:59:48.696+02:00,2022-06-30T08:20:05.567+02:00,1493,1.420341,0,0,1178.161,0,0,2022-06-30T09:59:48.695+02:00
2022-06-30T09:59:50.376+02:00,5437.486939416667,0.123138427734375,0.5180511474609375,0.6354522705078125,5437.476988416667,-1.287720522141718,1.634533914388212,0.2527829224089405,5.793876647949219,3.707129240036011,2.256370782852173,-0.7825994491577148,0.9819868206977844,0.424612283706665,XArbitraryZVertical,0.5032652923457792,0.5268388440476383,-0.3339267632329999,0.5980450021763537,0.9662541747093201,-0.2500994205474854,0.06167024374008179,0,0,0,-1,-1,5435.807672916667,unknown,2,2022-06-30T09:59:48.696+02:00,2022-06-30T08:20:05.567+02:00,1493,1.420341,0,0,1178.161,0,0,2022-06-30T09:59:48.695+02:00
2022-06-30T09:59:50.386+02:00,5437.496890416667,0.100738525390625,0.500396728515625,0.7038421630859375,5437.486939416667,-1.347984637705766,1.686125821555394,0.2692647306125791,5.596281051635742,3.710867643356323,2.14272403717041,-0.7765786647796631,0.9113622307777405,0.4449656009674072,XArbitraryZVertical,0.5315571423590041,0.5224086222850024,-0.3330793227090003,0.5775764303220842,0.9575632214546204,-0.2660227417945862,0.1109275296330452,0,0,0,-1,-1,5435.807672916667,unknown,2,2022-06-30T09:59:48.696+02:00,2022-06-30T08:20:05.567+02:00,1493,1.420341,0,0,1178.161,0,0,2022-06-30T09:59:48.695+02:00
2022-06-30T09:59:50.396+02:00,5437.506842416667,0.0919952392578125,0.613525390625,0.7659454345703125,5437.496890416667,-1.40677613982688,1.737176569094545,0.2812909964908394,5.423517227172852,3.705660820007324,1.99356484413147,-0.8242930769920349,0.7956469058990479,0.476347804069519,XArbitraryZVertical,0.5579611275388022,0.5179109395470926,-0.332031983274942,0.5569582711770154,0.9474314451217651,-0.2775961458683014,0.1591047197580338,0,0,0,-1,-1,5435.807672916667,unknown,2,2022-06-30T09:59:48.696+02:00,2022-06-30T08:20:05.567+02:00,1493,1.420341,0,0,1178.161,0,0,2022-06-30T09:59:48.695+02:00
2022-06-30T09:59:50.406+02:00,5437.516793416667,0.0621337890625,0.6720733642578125,0.8212432861328125,5437.506842416667,-1.463354570279807,1.783032535466906,0.2881366228992623,5.364126682281494,3.683073282241821,1.911877512931824,-0.8365240693092346,0.7845624685287476,0.5018798112869263,XArbitraryZVertical,0.5815384034239691,0.5126347474253985,-0.3322738035540966,0.5372270782539207,0.9372624754905701,-0.284166157245636,0.2019626051187515,0,0,0,-1,-1,5435.807672916667,unknown,2,2022-06-30T09:59:48.696+02:00,2022-06-30T08:20:05.567+02:00,1493,1.420341,0,0,1178.161,0,0,2022-06-30T09:59:48.695+02:00
2022-06-30T09:59:50.416+02:00,5437.526745416667,0.041839599609375,0.59515380859375,0.8994140625,5437.516793416667,-1.521808822340578,1.83503786588,0.2932194108363044,5.372544765472412,3.60749363899231,1.800196886062622,-0.8320955038070679,0.9025607109069824,0.5159158706665039,XArbitraryZVertical,0.6060180080459331,0.507697793738922,-0.3306103926273178,0.5154434721049707,0.9240907430648804,-0.2890357077121735,0.2500297427177429,0,0,0,-1,-1,5435.807672916667,unknown,2,2022-06-30T09:59:48.696+02:00,2022-06-30T08:20:05.567+02:00,1493,1.420341,0,0,1178.161,0,0,2022-06-30T09:59:48.695+02:00
2022-06-30T09:59:50.426+02:00,5437.536696416667,0.0390777587890625,0.5018157958984375,1.01324462890625,5437.526745416667,-1.580171082453727,1.88685603541647,0.2941647555437296,5.349679470062256,3.521665334701538,1.627227663993835,-0.8475062847137451,0.9620136022567749,0.5237712860107422,XArbitraryZVertical,0.6294690483773503,0.5024986238174367,-0.3290207912893949,0.4929595636011321,0.909639835357666,-0.2899405956268311,0.2974722981452942,0,0,0,-1,-1,5435.807672916667,unknown,2,2022-06-30T09:59:48.696+02:00,2022-06-30T08:20:05.567+02:00,1493,1.420341,0,0,1178.161,0,0,2022-06-30T09:59:48.695+02:00
2022-06-30T09:59:50.436+02:00,5437.546647416667,0.042236328125,0.4256591796875,1.076873779296875,5437.536696416667,-1.636671770761007,1.937467509553269,0.2912433800327943,5.07402515411377,3.450881719589233,1.492902398109436,-0.8523735404014587,0.8822969794273376,0.556002140045166,XArbitraryZVertical,0.6514488089586948,0.4973133112942499,-0.3273259372427816,0.4702676158728527,0.8942129015922546,-0.2871434688568115,0.3434121608734131,0,0,0,-1,-1,5435.807672916667,unknown,2,2022-06-30T09:59:48.696+02:00,2022-06-30T08:20:05.567+02:00,1493,1.420341,0,0,1178.161,0,0,2022-06-30T09:59:48.695+02:00
2022-06-30T09:59:50.445+02:00,5437.556599416667,0.0354461669921875,0.4171905517578125,1.11602783203125,5437.546647416667,-1.689085793408763,1.9862172630534,0.2858516702294165,4.683774948120117,3.399917364120483,1.360551357269287,-0.8387421369552612,0.783790111541748,0.6260461211204529,XArbitraryZVertical,0.6716100078751112,0.4924829189385448,-0.3248884685756223,0.4481609119111201,0.8778198957443237,-0.2819746732711792,0.3871988654136658,0,0,0,-1,-1,5435.807672916667,unknown,2,2022-06-30T09:59:48.696+02:00,2022-06-30T08:20:05.567+02:00,1493,1.420341,0,0,1178.161,0,0,2022-06-30T09:59:48.695+02:00
2022-06-30T09:59:50.455+02:00,5437.566550416667,0.0439300537109375,0.4226837158203125,1.158416748046875,5437.556599416667,-1.736807453852266,2.032710073031586,0.2784360754999254,4.300771713256836,3.306972742080688,1.227711319923401,-0.818487823009491,0.7005111575126648,0.6483759880065918,XArbitraryZVertical,0.6898721372751326,0.4881859111376233,-0.32174381531988,0.4268862710294845,0.8607239127159119,-0.2748523056507111,0.4284980893135071,0,0,0,-1,-1,5435.807672916667,unknown,2,2022-06-30T09:59:48.696+02:00,2022-06-30T08:20:05.567+02:00,1493,1.420341,0,0,1178.161,0,0,2022-06-30T09:59:48.695+02:00
2022-06-30T09:59:50.465+02:00,5437.576502416667,0.0255126953125,0.3985595703125,1.177413940429688,5437.566550416667,-1.780350046347397,2.076433729720772,0.2697216711901633,3.993786334991455,3.149688959121704,1.147332429885864,-0.8077893257141113,0.6836534142494202,0.6491751670837402,XArbitraryZVertical,0.7064231023716679,0.4841414416533537,-0.3181471051379457,0.4066398561316471,0.8432353138923645,-0.2664631903171539,0.4668530821800232,0,0,0,-1,-1,5435.807672916667,unknown,2,2022-06-30T09:59:48.696+02:00,2022-06-30T08:20:05.567+02:00,1493,1.420341,0,0,1178.161,0,0,2022-06-30T09:59:48.695+02:00
2022-06-30T09:59:50.475+02:00,5437.586453416667,0.0418853759765625,0.35882568359375,1.225067138671875,5437.576502416667,-1.820361704598592,2.117344773932955,0.2597970084230008,3.734328508377075,2.997563362121582,1.038090109825134,-0.7817245721817017,0.679567813873291,0.6561168432235718,XArbitraryZVertical,0.7214612578292821,0.4802538846947301,-0.3143898530740202,0.3873099684850415,0.8256544470787048,-0.25688436627388,0.5023002624511719,0,0,0,-1,-1,5435.807672916667,unknown,2,2022-06-30T09:59:48.696+02:00,2022-06-30T08:20:05.567+02:00,1493,1.420341,0,0,1178.161,0,0,2022-06-30T09:59:48.695+02:00
2022-06-30T09:59:50.485+02:00,5437.596405416667,0.029052734375,0.34539794921875,1.327178955078125,5437.586453416667,-1.857431413223586,2.155586433998665,0.2487519120022298,3.564635276794434,2.839943647384644,0.9565534591674805,-0.7826507687568665,0.6447538137435913,0.6423808932304382,XArbitraryZVertical,0.7351934246892325,0.4764528263739534,-0.3106487428637112,0.3687556252517038,0.8081631660461426,-0.2461944818496704,0.5350333452224731,0,0,0,-1,-1,5435.807672916667,unknown,2,2022-06-30T09:59:48.696+02:00,2022-06-30T08:20:05.567+02:00,1493,1.420341,0,0,1178.161,0,0,2022-06-30T09:59:48.695+02:00
2022-06-30T09:59:50.495+02:00,5437.606356416667,0.00665283203125,0.310089111328125,1.40545654296875,5437.596405416667,-1.892183273077197,2.190985811855702,0.2361369185411272,3.459681510925293,2.621978044509888,0.7963033318519592,-0.7493004202842712,0.5927739143371582,0.6600066423416138,XArbitraryZVertical,0.7477294489972941,0.4726850585684417,-0.307341965490897,0.3507287395169764,0.791185736656189,-0.2339484989643097,0.5650609731674194,0,0,0,-1,-1,5435.807672916667,unknown,2,2022-06-30T09:59:48.696+02:00,2022-06-30T08:20:05.567+02:00,1493,1.420341,0,0,1178.161,0,0,2022-06-30T09:59:48.695+02:00
2022-06-30T09:59:50.505+02:00,5437.616307416667,0.09979248046875,0.2412567138671875,1.567901611328125,5437.606356416667,-1.924505746623485,2.223330523015241,0.2218490438385056,3.323868751525879,2.427026987075806,0.674994170665741,-0.7460225820541382,0.5654314756393433,0.7348584532737732,XArbitraryZVertical,0.7590353680644178,0.4690689297537163,-0.3046486309501985,0.3332098621374632,0.7750749588012695,-0.2200337201356888,0.5923206806182861,0,0,0,-1,-1,5435.807672916667,unknown,2,2022-06-30T09:59:48.696+02:00,2022-06-30T08:20:05.567+02:00,1493,1.420341,0,0,1178.161,0,0,2022-06-30T09:59:48.695+02:00
2022-06-30T09:59:50.515+02:00,5437.626259416667,0.1866912841796875,0.2113037109375,1.715438842773438,5437.616307416667,-1.953954944258274,2.252703860958857,0.2072873004103838,3.005229473114014,2.239962339401245,0.6112204790115356,-0.7530994415283203,0.515894889831543,0.7886741757392883,XArbitraryZVertical,0.7691646461226239,0.4655932585294343,-0.3021756672246015,0.3166993839337383,0.7597518563270569,-0.2058060318231583,0.6167826652526855,0,0,0,-1,-1,5435.807672916667,unknown,2,2022-06-30T09:59:48.696+02:00,2022-06-30T08:20:05.567+02:00,1493,1.420341,0,0,1178.161,0,0,2022-06-30T09:59:48.695+02:00
2022-06-30T09:59:50.525+02:00,5437.636210416667,0.232452392578125,0.2325592041015625,1.858688354492188,5437.626259416667,-1.979619721869293,2.279194436592879,0.1935760516905814,2.646968603134155,2.078786611557007,0.5190321207046509,-0.6454291939735413,0.4336258172988892,0.929435670375824,XArbitraryZVertical,0.7780197360913728,0.4625132816879162,-0.2995628755154404,0.3017102094558042,0.7452216148376465,-0.1923693716526031,0.638466477394104,0,0,0,-1,-1,5435.807672916667,unknown,2,2022-06-30T09:59:48.696+02:00,2022-06-30T08:20:05.567+02:00,1493,1.420341,0,0,1178.161,0,0,2022-06-30T09:59:48.695+02:00
2022-06-30T09:59:50.535+02:00,5437.646162416667,0.2812957763671875,0.213134765625,2.014572143554688,5437.636210416667,-2.001757710003373,2.303046923494438,0.1808171640608962,2.346531391143799,1.9018714427948,0.4486852288246155,-0.5448566675186157,0.3911370038986206,1.057793378829956,XArbitraryZVertical,0.7857113875478505,0.45987008548535,-0.2968579042627305,0.2881882724797158,0.7315475940704346,-0.1798334717750549,0.6576457619667053,0,0,0,-1,-1,5435.807672916667,unknown,2,2022-06-30T09:59:48.696+02:00,2022-06-30T08:20:05.567+02:00,1493,1.420341,0,0,1178.161,0,0,2022-06-30T09:59:48.695+02:00
2022-06-30T09:59:50.545+02:00,5437.656113416667,0.3171234130859375,0.201629638671875,2.184722900390625,5437.646162416667,-2.021132001640188,2.324447434025542,0.1691533411110053,2.056589126586914,1.745087742805481,0.4273936152458191,-0.486335813999176,0.4009068012237549,1.184149503707886,XArbitraryZVertical,0.792459819942367,0.4574679656995081,-0.2941685981206725,0.2760349759859308,0.7187879085540771,-0.1683478355407715,0.6745390295982361,0,0,0,-1,-1,5435.807672916667,unknown,2,2022-06-30T09:59:48.696+02:00,2022-06-30T08:20:05.567+02:00,1493,1.420341,0,0,1178.161,0,0,2022-06-30T09:59:48.695+02:00
2022-06-30T09:59:50.555+02:00,5437.666065416667,0.3628997802734375,0.1829986572265625,2.364349365234375,5437.656113416667,-2.037726281000464,2.343854352757393,0.1589905642262575,1.7294842004776,1.635981440544128,0.3684946000576019,-0.4254553914070129,0.3714561462402344,1.325052499771118,XArbitraryZVertical,0.7983626736948577,0.4553866634701114,-0.2912934395566418,0.2653079183785395,0.7067509889602661,-0.1583215892314911,0.6895199418067932,0,0,0,-1,-1,5435.807672916667,unknown,2,2022-06-30T09:59:48.696+02:00,2022-06-30T08:20:05.567+02:00,1493,1.420341,0,0,1178.161,0,0,2022-06-30T09:59:48.695+02:00
2022-06-30T09:59:50.565+02:00,5437.676016416667,0.4661712646484375,0.159454345703125,2.551864624023438,5437.666065416667,-2.051113005942382,2.361918157306014,0.1504681271965286,1.349144101142883,1.604824185371399,0.2967538237571716,-0.3779811263084412,0.3515304327011108,1.481616020202637,XArbitraryZVertical,0.8034301123008057,0.4539313237323946,-0.2879577379713015,0.2559818550302524,0.69510418176651,-0.1499009877443314,0.7031071782112122,0,0,0,-1,-1,5435.807672916667,unknown,2,2022-06-30T09:59:48.696+02:00,2022-06-30T08:20:05.567+02:00,1493,1.420341,0,0,1178.161,0,0,2022-06-30T09:59:48.695+02:00
