loggingTime(txt),accelerometerTimestamp_sinceReboot(s),accelerometerAccelerationX(G),accelerometerAccelerationY(G),accelerometerAccelerationZ(G),motionTimestamp_sinceReboot(s),motionYaw(rad),motionRoll(rad),motionPitch(rad),motionRotationRateX(rad/s),motionRotationRateY(rad/s),motionRotationRateZ(rad/s),motionUserAccelerationX(G),motionUserAccelerationY(G),motionUserAccelerationZ(G),motionAttitudeReferenceFrame(txt),motionQuaternionX(R),motionQuaternionY(R),motionQuaternionZ(R),motionQuaternionW(R),motionGravityX(G),motionGravityY(G),motionGravityZ(G),motionMagneticFieldX(µT),motionMagneticFieldY(µT),motionMagneticFieldZ(µT),motionHeading(°),motionMagneticFieldCalibrationAccuracy(Z),activityTimestamp_sinceReboot(s),activity(txt),activityActivityConfidence(Z),activityActivityStartDate(txt),pedometerStartDate(txt),pedometerNumberofSteps(N),pedometerAverageActivePace(s/m),pedometerCurrentPace(s/m),pedometerCurrentCadence(steps/s),pedometerDistance(m),pedometerFloorAscended(N),pedometerFloorDescended(N),pedometerEndDate(txt)
2022-06-30T10:00:59.502+02:00,5506.556405791667,0.2460784912109375,-0.4168701171875,-0.7912750244140625,5506.546454791667,2.484430834940305,0.06808193211397123,0.2523111041221439,0.303718239068985,0.2451933622360229,0.1857279241085052,-0.3470489680767059,0.08239136636257172,-0.03797948360443115,XArbitraryZVertical,0.00862140626506404,0.129916537844795,0.9398172264940237,0.3158970429231604,0.06587541103363037,-0.249642550945282,-0.9660947322845459,0,0,0,-1,-1,5499.541026125,unknown,2,2022-06-30T10:00:52.429+02:00,2022-06-30T08:20:05.567+02:00,1511,1.425381,0,0,1194.663,0,0,2022-06-30T10:00:57.552+02:00
2022-06-30T10:00:59.504+02:00,5506.566357791667,0.115509033203125,-0.385284423828125,-0.7501068115234375,5506.556405791667,2.485364548870522,0.06924218249780957,0.2549496435244015,0.1872400939464569,0.1020352765917778,-0.006481186952441931,0.1898093223571777,-0.1146852672100067,0.05790162086486816,XArbitraryZVertical,0.008442396709744808,0.1313397957553535,0.9398261097038464,0.3152861560743151,0.0669504702091217,-0.2521966695785522,-0.9653571844100952,0,0,0,-1,-1,5499.541026125,unknown,2,2022-06-30T10:00:52.429+02:00,2022-06-30T08:20:05.567+02:00,1511,1.425381,0,0,1194.663,0,0,2022-06-30T10:00:57.552+02:00
2022-06-30T10:00:59.512+02:00,5506.576308791667,-0.0006256103515625,-0.34869384765625,-0.77740478515625,5506.566357791667,2.484068744834048,0.07039304096315074,0.2559295425359086,0.04825263470411301,0.05779431760311127,-0.2176192551851273,0.178034633398056,-0.1637249290943146,0.1737573742866516,XArbitraryZVertical,0.008145695826208858,0.1319749727204096,0.9395729782993641,0.3157831738608066,0.06804399937391281,-0.253144770860672,-0.9650325179100037,0,0,0,-1,-1,5499.541026125,unknown,2,2022-06-30T10:00:52.429+02:00,2022-06-30T08:20:05.567+02:00,1511,1.425381,0,0,1194.663,0,0,2022-06-30T10:00:57.552+02:00
2022-06-30T10:00:59.522+02:00,5506.586259791667,-0.0756988525390625,-0.278350830078125,-0.826019287109375,5506.576308791667,2.481725339606038,0.0710411579995304,0.25596755174897,-0.003869687672704458,-0.03775917738676071,-0.2145602107048035,0.04684042185544968,-0.1321024596691132,0.2148717045783997,XArbitraryZVertical,0.008002148475469751,0.1320858218848785,0.9392028461521356,0.3168395991519306,0.06866875290870667,-0.2531815469264984,-0.9649785757064819,0,0,0,-1,-1,5499.541026125,unknown,2,2022-06-30T10:00:52.429+02:00,2022-06-30T08:20:05.567+02:00,1511,1.425381,0,0,1194.663,0,0,2022-06-30T10:00:57.552+02:00
2022-06-30T10:00:59.531+02:00,5506.596211791667,-0.0350494384765625,-0.2415313720703125,-0.8901519775390625,5506.586259791667,2.480180890461643,0.07101029496665244,0.2555190304915231,-0.05903680250048637,-0.03281981125473976,-0.09156692028045654,-0.0692724883556366,-0.09594583511352539,0.1876890063285828,XArbitraryZVertical,0.008045495227891646,0.1318647884763097,0.9389822339478964,0.3175835620701685,0.06864702701568604,-0.2527476251125336,-0.9650939106941223,0,0,0,-1,-1,5499.541026125,unknown,2,2022-06-30T10:00:52.429+02:00,2022-06-30T08:20:05.567+02:00,1511,1.425381,0,0,1194.663,0,0,2022-06-30T10:00:57.552+02:00
2022-06-30T10:00:59.541+02:00,5506.606162791667,0.0616607666015625,-0.2265472412109375,-0.9495086669921875,5506.596211791667,2.479751163565323,0.07104049330005521,0.2547249069971766,-0.09005903452634811,0.006044350564479828,-0.01429044082760811,-0.1443891078233719,-0.02637124061584473,0.1392723321914673,XArbitraryZVertical,0.007930072824815402,0.1314962049364325,0.9389572960165702,0.3178129479870873,0.06869039684534073,-0.2519792020320892,-0.9652917385101318,0,0,0,-1,-1,5499.541026125,unknown,2,2022-06-30T10:00:52.429+02:00,2022-06-30T08:20:05.567+02:00,1511,1.425381,0,0,1194.663,0,0,2022-06-30T10:00:57.552+02:00
2022-06-30T10:00:59.551+02:00,5506.616113791667,0.118804931640625,-0.2344512939453125,-1.00079345703125,5506.606162791667,2.479739576818472,0.07110294807617343,0.2535856798438074,-0.136476069688797,0.003500499296933413,-0.01448724791407585,-0.1038203239440918,0.009345591068267822,0.07542109489440918,XArbitraryZVertical,0.007715613307895606,0.1309728977395092,0.9390173729888289,0.3178566739829114,0.06877102702856064,-0.2508765757083893,-0.9655731320381165,0,0,0,-1,-1,5499.541026125,unknown,2,2022-06-30T10:00:52.429+02:00,2022-06-30T08:20:05.567+02:00,1511,1.425381,0,0,1194.663,0,0,2022-06-30T10:00:57.552+02:00
2022-06-30T10:00:59.561+02:00,5506.626065791667,0.134368896484375,-0.232818603515625,-1.024856567382812,5506.616113791667,2.479566481480536,0.07128951498001512,0.2518810783095146,-0.2021520882844925,0.02329983189702034,-0.04289848357439041,-0.007320620119571686,0.02267926931381226,0.01647669076919556,XArbitraryZVertical,0.007361128908029082,0.1302040185943092,0.9390823881385634,0.3179892113730755,0.06898153573274612,-0.2492261230945587,-0.9659854769706726,0,0,0,-1,-1,5499.541026125,unknown,2,2022-06-30T10:00:52.429+02:00,2022-06-30T08:20:05.567+02:00,1511,1.425381,0,0,1194.663,0,0,2022-06-30T10:00:57.552+02:00
2022-06-30T10:00:59.571+02:00,5506.636016791667,0.126983642578125,-0.2320556640625,-1.028640747070312,5506.626065791667,2.479246217444935,0.07178125902773655,0.2493944401242024,-0.2862398028373718,0.05625032261013985,-0.04956730455160141,0.04930429905653,0.01236629486083984,-0.03422695398330688,XArbitraryZVertical,0.006744981582897252,0.1291170856105269,0.939165693950852,0.3181998922737125,0.06950077414512634,-0.2468171864748001,-0.9665665626525879,0,0,0,-1,-1,5499.541026125,unknown,2,2022-06-30T10:00:52.429+02:00,2022-06-30T08:20:05.567+02:00,1511,1.425381,0,0,1194.663,0,0,2022-06-30T10:00:57.552+02:00
2022-06-30T10:00:59.581+02:00,5506.645967791667,0.12420654296875,-0.237335205078125,-1.014358520507812,5506.636016791667,2.478977126321991,0.07256361260448214,0.2462288878712234,-0.333545058965683,0.08471807092428207,-0.04647654294967651,0.06405580043792725,0.01093012094497681,-0.05757033824920654,XArbitraryZVertical,0.005877715331196232,0.1277587532769379,0.9392917379724208,0.3183931431051357,0.07031324505805969,-0.2437483370304108,-0.9672862887382507,0,0,0,-1,-1,5499.541026125,unknown,2,2022-06-30T10:00:52.429+02:00,2022-06-30T08:20:05.567+02:00,1511,1.425381,0,0,1194.663,0,0,2022-06-30T10:00:57.552+02:00
2022-06-30T10:00:59.591+02:00,5506.655919791667,0.1338958740234375,-0.24310302734375,-0.9932708740234375,5506.645967791667,2.478789925688444,0.07362624824193037,0.2429143392520857,-0.3160965442657471,0.1147340312600136,-0.03868173435330391,0.05558367073535919,0.008477151393890381,-0.06062936782836914,XArbitraryZVertical,0.004848755912620002,0.1263754778029835,0.9394362644696951,0.3185361192956156,0.07140011340379715,-0.2405324280261993,-0.9680114388465881,0,0,0,-1,-1,5499.541026125,unknown,2,2022-06-30T10:00:52.429+02:00,2022-06-30T08:20:05.567+02:00,1511,1.425381,0,0,1194.663,0,0,2022-06-30T10:00:57.552+02:00
2022-06-30T10:00:59.601+02:00,5506.665870791667,0.1440887451171875,-0.257171630859375,-0.96844482421875,5506.655919791667,2.478716761516083,0.07479646814244359,0.2399901714944203,-0.2579077482223511,0.1092595979571342,-0.01809659786522388,0.05162159353494644,0.0003582686185836792,-0.04573410749435425,XArbitraryZVertical,0.003825508437582512,0.1251923392701536,0.9395759704847115,0.3186050064598571,0.0725850984454155,-0.2376930862665176,-0.968624472618103,0,0,0,-1,-1,5499.541026125,unknown,2,2022-06-30T10:00:52.429+02:00,2022-06-30T08:20:05.567+02:00,1511,1.425381,0,0,1194.663,0,0,2022-06-30T10:00:57.552+02:00
2022-06-30T10:00:59.611+02:00,5506.675821791667,0.1432342529296875,-0.2723846435546875,-0.937774658203125,5506.665870791667,2.478737682510725,0.07576266771980776,0.2378517623487754,-0.1602869182825089,0.08505546301603317,-0.01003813836723566,0.06033676117658615,-0.0074872225522995,-0.02421241998672485,XArbitraryZVertical,0.003020542320253603,0.1243447529103831,0.9396883836763821,0.3186141372483328,0.07355925440788269,-0.2356154173612595,-0.9690585136413574,0,0,0,-1,-1,5499.541026125,unknown,2,2022-06-30T10:00:52.429+02:00,2022-06-30T08:20:05.567+02:00,1511,1.425381,0,0,1194.663,0,0,2022-06-30T10:00:57.552+02:00
2022-06-30T10:00:59.621+02:00,5506.685773791667,0.1275634765625,-0.3038177490234375,-0.9101715087890625,5506.675821791667,2.478659821062732,0.07641699385514174,0.2366669374941978,-0.07445916533470154,0.04235688969492912,-0.02368520759046078,0.06987430900335312,-0.02270746231079102,0.0008429288864135742,XArbitraryZVertical,0.002524132191822839,0.1238939235844985,0.9397358844046014,0.3186541069320132,0.07421457767486572,-0.2344637811183929,-0.9692878723144531,0,0,0,-1,-1,5499.541026125,unknown,2,2022-06-30T10:00:52.429+02:00,2022-06-30T08:20:05.567+02:00,1511,1.425381,0,0,1194.663,0,0,2022-06-30T10:00:57.552+02:00
2022-06-30T10:00:59.642+02:00,5506.695724791667,0.10894775390625,-0.335357666015625,-0.8928985595703125,5506.685773791667,2.478326382757142,0.07669739695470525,0.2361989071618113,-0.01490449532866478,-0.00372990989126265,-0.04822703450918198,0.0687396302819252,-0.03837546706199646,0.03160154819488525,XArbitraryZVertical,0.002336434684415964,0.1237189879400661,0.9397062450471443,0.3188107747501065,0.07449477165937424,-0.2340087741613388,-0.9693763256072998,0,0,0,-1,-1,5499.541026125,unknown,2,2022-06-30T10:00:52.429+02:00,2022-06-30T08:20:05.567+02:00,1511,1.425381,0,0,1194.663,0,0,2022-06-30T10:00:57.552+02:00
2022-06-30T10:00:59.644+02:00,5506.705675791667,0.096343994140625,-0.3457489013671875,-0.899017333984375,5506.695724791667,2.477783390301693,0.07665181137874801,0.2360353986482556,-0.0108139468356967,-0.03121873177587986,-0.05843756347894669,0.05311010032892227,-0.06996755301952362,0.05924630165100098,XArbitraryZVertical,0.002364654836526395,0.1236345029210326,0.9396276595079907,0.3190747557905492,0.07445351034402847,-0.2338497936725616,-0.9694178104400635,0,0,0,-1,-1,5499.541026125,unknown,2,2022-06-30T10:00:52.429+02:00,2022-06-30T08:20:05.567+02:00,1511,1.425381,0,0,1194.663,0,0,2022-06-30T10:00:57.552+02:00
2022-06-30T10:00:59.651+02:00,5506.715627791667,0.0954132080078125,-0.3352508544921875,-0.912689208984375,5506.705675791667,2.477225582747951,0.07646502649287541,0.2356593088440608,-0.05035549774765968,-0.05047312006354332,-0.04765602201223373,0.03466874361038208,-0.1018731296062469,0.07662075757980347,XArbitraryZVertical,0.002425233124616797,0.1234278847137128,0.9395569989982261,0.3193623410437501,0.07427914440631866,-0.2334841191768646,-0.9695193767547607,0,0,0,-1,-1,5499.541026125,unknown,2,2022-06-30T10:00:52.429+02:00,2022-06-30T08:20:05.567+02:00,1511,1.425381,0,0,1194.663,0,0,2022-06-30T10:00:57.552+02:00
2022-06-30T10:00:59.661+02:00,5506.725578791667,0.101165771484375,-0.315826416015625,-0.93353271484375,5506.715627791667,2.476804572069056,0.07608309705257787,0.234841522258022,-0.09676946699619293,-0.06646692752838135,-0.04134106636047363,0.02242079377174377,-0.1130596548318863,0.07072031497955322,XArbitraryZVertical,0.002496492974377137,0.1229833758348496,0.9395295554581899,0.3196139294019919,0.07392334192991257,-0.2326888591051102,-0.969737708568573,0,0,0,-1,-1,5499.541026125,unknown,2,2022-06-30T10:00:52.429+02:00,2022-06-30T08:20:05.567+02:00,1511,1.425381,0,0,1194.663,0,0,2022-06-30T10:00:57.552+02:00
2022-06-30T10:00:59.671+02:00,5506.735530791667,0.1100921630859375,-0.285797119140625,-0.949188232421875,5506.725578791667,2.476462433190354,0.07558202949343963,0.2337090688592091,-0.1109308302402496,-0.07098524272441864,-0.03473030403256416,0.02195607125759125,-0.1036631166934967,0.05734747648239136,XArbitraryZVertical,0.002567086680409336,0.1223724806514402,0.9395298299052988,0.3198471920951627,0.07345727831125259,-0.2315873354673386,-0.9700367450714111,0,0,0,-1,-1,5499.541026125,unknown,2,2022-06-30T10:00:52.429+02:00,2022-06-30T08:20:05.567+02:00,1511,1.425381,0,0,1194.663,0,0,2022-06-30T10:00:57.552+02:00
2022-06-30T10:00:59.681+02:00,5506.745481791667,0.11383056640625,-0.2640838623046875,-0.9528656005859375,5506.735530791667,2.476198955621645,0.07502922956873345,0.2325179430862305,-0.112223394215107,-0.08645220845937729,-0.02417346462607384,0.02822425961494446,-0.08539758622646332,0.03681880235671997,XArbitraryZVertical,0.002647372079652438,0.1217258589599056,0.9395450683573089,0.3200482995820513,0.07294166088104248,-0.2304284274578094,-0.9703516364097595,0,0,0,-1,-1,5499.541026125,unknown,2,2022-06-30T10:00:52.429+02:00,2022-06-30T08:20:05.567+02:00,1511,1.425381,0,0,1194.663,0,0,2022-06-30T10:00:57.552+02:00
2022-06-30T10:00:59.691+02:00,5506.755432791667,0.1111297607421875,-0.243499755859375,-0.9534454345703125,5506.745481791667,2.476028767879165,0.07438205089463319,0.2314971340258223,-0.08487885445356369,-0.105621375143528,-0.01150374300777912,0.03776121139526367,-0.05636174976825714,0.02144438028335571,XArbitraryZVertical,0.002794172301065879,0.1211439239645516,0.9395665698204151,0.3202047340209339,0.07233109325170517,-0.2294349819421768,-0.9706326723098755,0,0,0,-1,-1,5499.541026125,unknown,2,2022-06-30T10:00:52.429+02:00,2022-06-30T08:20:05.567+02:00,1511,1.425381,0,0,1194.663,0,0,2022-06-30T10:00:57.552+02:00
2022-06-30T10:00:59.701+02:00,5506.765384791667,0.0969696044921875,-0.2322235107421875,-0.9482269287109375,5506.755432791667,2.475852089253194,0.07384311930840677,0.2310686144170947,-0.03895104303956032,-0.124965563416481,-0.006772237829864025,0.04201547801494598,-0.03506559133529663,0.01790380477905273,XArbitraryZVertical,0.002987688963618317,0.1208566547411621,0.9395582715560634,0.3203358633311535,0.07181522250175476,-0.2290178686380386,-0.970769464969635,0,0,0,-1,-1,5499.541026125,unknown,2,2022-06-30T10:00:52.429+02:00,2022-06-30T08:20:05.567+02:00,1511,1.425381,0,0,1194.663,0,0,2022-06-30T10:00:57.552+02:00
2022-06-30T10:00:59.711+02:00,5506.775335791667,0.08770751953125,-0.2307281494140625,-0.9394073486328125,5506.765384791667,2.47563014827318,0.07325330725187143,0.2313818762977795,0.007447614800184965,-0.1332384049892426,-0.004446765407919884,0.03989250957965851,-0.01417654752731323,0.01729458570480347,XArbitraryZVertical,0.00332961650865128,0.1209085433559291,0.9395065814338279,0.3204644551131227,0.07123738527297974,-0.2293227910995483,-0.9707400798797607,0,0,0,-1,-1,5499.541026125,unknown,2,2022-06-30T10:00:52.429+02:00,2022-06-30T08:20:05.567+02:00,1511,1.425381,0,0,1194.663,0,0,2022-06-30T10:00:57.552+02:00
2022-06-30T10:00:59.721+02:00,5506.785286791667,0.08203125,-0.2313690185546875,-0.9260101318359375,5506.775335791667,2.475496997196481,0.07242276809147503,0.2326015327633295,0.04644588008522987,-0.1435122489929199,0.006431981455534697,0.02655890583992004,-0.001713335514068604,0.02229225635528564,XArbitraryZVertical,0.003928121593642018,0.1213464356174103,0.9394243202309268,0.3205334392048909,0.0704108327627182,-0.2305097728967667,-0.9705192446708679,0,0,0,-1,-1,5499.541026125,unknown,2,2022-06-30T10:00:52.429+02:00,2022-06-30T08:20:05.567+02:00,1511,1.425381,0,0,1194.663,0,0,2022-06-30T10:00:57.552+02:00
2022-06-30T10:00:59.731+02:00,5506.795238791667,0.0770721435546875,-0.239654541015625,-0.9228515625,5506.785286791667,2.475557525713159,0.07120826597460089,0.234540357421633,0.04649914428591728,-0.1633240431547165,0.02566000446677208,0.01850750297307968,0.001668199896812439,0.03074896335601807,XArbitraryZVertical,0.004813260132939916,0.122059925791947,0.9393359888222326,0.320509350043157,0.06920015811920166,-0.2323959469795227,-0.9701564311981201,0,0,0,-1,-1,5499.541026125,unknown,2,2022-06-30T10:00:52.429+02:00,2022-06-30T08:20:05.567+02:00,1511,1.425381,0,0,1194.663,0,0,2022-06-30T10:00:57.552+02:00
2022-06-30T10:00:59.740+02:00,5506.805189791667,0.074310302734375,-0.2474822998046875,-0.92724609375,5506.795238791667,2.475768389105365,0.06972256444260054,0.2365360770193151,0.02612948790192604,-0.1724508851766586,0.03468542173504829,0.01430511474609375,0.002967968583106995,0.04378336668014526,XArbitraryZVertical,0.005825699496968373,0.1227570267655834,0.9392664384797458,0.3204298900388312,0.06772627681493759,-0.2343365699052811,-0.9697935581207275,0,0,0,-1,-1,5499.541026125,unknown,2,2022-06-30T10:00:52.429+02:00,2022-06-30T08:20:05.567+02:00,1511,1.425381,0,0,1194.663,0,0,2022-06-30T10:00:57.552+02:00
2022-06-30T10:00:59.751+02:00,5506.815140791667,0.0753631591796875,-0.2565460205078125,-0.9473114013671875,5506.805189791667,2.476085385390427,0.0681717063788649,0.2380649678128606,-0.0101424977183342,-0.1767766624689102,0.0415601059794426,0.01087458431720734,-0.003831535577774048,0.04668718576431274,XArbitraryZVertical,0.006785338224089445,0.123225556691911,0.9392354551531512,0.3203221812845174,0.06619770079851151,-0.2358226180076599,-0.9695388674736023,0,0,0,-1,-1,5499.541026125,unknown,2,2022-06-30T10:00:52.429+02:00,2022-06-30T08:20:05.567+02:00,1511,1.425381,0,0,1194.663,0,0,2022-06-30T10:00:57.552+02:00
2022-06-30T10:00:59.760+02:00,5506.825092791667,0.0790863037109375,-0.2633209228515625,-0.9754791259765625,5506.815140791667,2.476471712694055,0.06666400375189147,0.2388760145200833,-0.05103999748826027,-0.1777775585651398,0.04945764318108559,0.009587362408638,-0.01087118685245514,0.04220020771026611,XArbitraryZVertical,0.007602516172566721,0.1233653440941517,0.9392507259114649,0.3202050894187557,0.06472308188676834,-0.2366107106208801,-0.9694463610649109,0,0,0,-1,-1,5499.541026125,unknown,2,2022-06-30T10:00:52.429+02:00,2022-06-30T08:20:05.567+02:00,1511,1.425381,0,0,1194.663,0,0,2022-06-30T10:00:57.552+02:00
2022-06-30T10:00:59.770+02:00,5506.835043791667,0.0826263427734375,-0.2611083984375,-0.9940185546875,5506.825092791667,2.476927297835949,0.06531965295778923,0.2388815327531107,-0.08954104781150818,-0.1696413457393646,0.05290989950299263,0.01194362342357635,-0.01992954313755035,0.02221977710723877,XArbitraryZVertical,0.008206703940388133,0.1231545435281871,0.9393180328794966,0.3200737572504849,0.06341966241598129,-0.2366160750389099,-0.969531238079071,0,0,0,-1,-1,5499.541026125,unknown,2,2022-06-30T10:00:52.429+02:00,2022-06-30T08:20:05.567+02:00,1511,1.425381,0,0,1194.663,0,0,2022-06-30T10:00:57.552+02:00
2022-06-30T10:00:59.780+02:00,5506.844994791667,0.0758819580078125,-0.2534942626953125,-1.006591796875,5506.835043791667,2.477407569429611,0.06412794362750897,0.238210528530533,-0.1265837550163269,-0.1564370393753052,0.0506087988615036,0.01681206375360489,-0.02735646069049835,-0.005714893341064453,XArbitraryZVertical,0.008627114627959872,0.122651564601881,0.9394240825754779,0.3199446343292165,0.06227438151836395,-0.2359640598297119,-0.9697643518447876,0,0,0,-1,-1,5499.541026125,unknown,2,2022-06-30T10:00:52.429+02:00,2022-06-30T08:20:05.567+02:00,1511,1.425381,0,0,1194.663,0,0,2022-06-30T10:00:57.552+02:00
2022-06-30T10:00:59.790+02:00,5506.854946791667,0.07012939453125,-0.228973388671875,-0.9974365234375,5506.844994791667,2.477778670426994,0.06313184057382445,0.2370727916310606,-0.1315708011388779,-0.1354859471321106,0.03437177091836929,0.02130122482776642,-0.02624969184398651,-0.02392542362213135,XArbitraryZVertical,0.008886292587523038,0.1219608100266664,0.9395369812376159,0.3198702291500625,0.06132526323199272,-0.2348583042621613,-0.9700931906700134,0,0,0,-1,-1,5499.541026125,unknown,2,2022-06-30T10:00:52.429+02:00,2022-06-30T08:20:05.567+02:00,1511,1.425381,0,0,1194.663,0,0,2022-06-30T10:00:57.552+02:00
2022-06-30T10:00:59.800+02:00,5506.864897791667,0.0708465576171875,-0.2178497314453125,-0.98797607421875,5506.854946791667,2.478091775888662,0.06219073573277478,0.2357587448642973,-0.1395228505134583,-0.1233623027801514,0.03240362554788589,0.01545068994164467,-0.01991304755210876,-0.03613418340682983,XArbitraryZVertical,0.009094651051606692,0.1211959570916801,0.9396494001121481,0.3198249109830569,0.06043140590190887,-0.2335808128118515,-0.9704576730728149,0,0,0,-1,-1,5499.541026125,unknown,2,2022-06-30T10:00:52.429+02:00,2022-06-30T08:20:05.567+02:00,1511,1.425381,0,0,1194.663,0,0,2022-06-30T10:00:57.552+02:00
2022-06-30T10:00:59.810+02:00,5506.874848791667,0.077239990234375,-0.2363739013671875,-0.9803466796875,5506.864897791667,2.478413374068744,0.06131050414394919,0.2344963622425206,-0.1272949576377869,-0.1149690896272659,0.02941476181149483,0.01053436100482941,0.003380179405212402,-0.02663260698318481,XArbitraryZVertical,0.009282620696723733,0.1204650510602891,0.9397603895120994,0.3197693108790931,0.05959517508745193,-0.2323531657457352,-0.9708040356636047,0,0,0,-1,-1,5499.541026125,unknown,2,2022-06-30T10:00:52.429+02:00,2022-06-30T08:20:05.567+02:00,1511,1.425381,0,0,1194.663,0,0,2022-06-30T10:00:57.552+02:00
2022-06-30T10:00:59.820+02:00,5506.884800791667,0.0869598388671875,-0.263427734375,-0.9697418212890625,5506.874848791667,2.478549946892255,0.0606455261372523,0.2335229230482924,-0.107463926076889,-0.1033666729927063,0.002332510892301798,0.01188341900706291,0.01355692744255066,-0.01690739393234253,XArbitraryZVertical,0.009427971437003139,0.119903076338321,0.939828039912836,0.3197775430192976,0.05896328017115593,-0.2314062565565109,-0.9710687398910522,0,0,0,-1,-1,5499.541026125,unknown,2,2022-06-30T10:00:52.429+02:00,2022-06-30T08:20:05.567+02:00,1511,1.425381,0,0,1194.663,0,0,2022-06-30T10:00:57.552+02:00
2022-06-30T10:00:59.830+02:00,5506.894751791667,0.08447265625,-0.2806854248046875,-0.9575347900390625,5506.884800791667,2.478348166232445,0.06012267793872735,0.2330186096151524,-0.09748879075050354,-0.1133540570735931,-0.02950264886021614,0.01877757906913757,-0.005457907915115356,-0.009130954742431641,XArbitraryZVertical,0.009603417044491289,0.1195820950561661,0.9398185483704821,0.3199203547161358,0.05846255272626877,-0.2309156060218811,-0.9712157845497131,0,0,0,-1,-1,5499.541026125,unknown,2,2022-06-30T10:00:52.429+02:00,2022-06-30T08:20:05.567+02:00,1511,1.425381,0,0,1194.663,0,0,2022-06-30T10:00:57.552+02:00
2022-06-30T10:00:59.840+02:00,5506.904702791667,0.0687255859375,-0.28082275390625,-0.945220947265625,5506.894751791667,2.477816435982826,0.05956012707231971,0.2327441209724919,-0.1038103327155113,-0.1199919134378433,-0.06075604259967804,0.02904002368450165,-0.03277882933616638,0.001569867134094238,XArbitraryZVertical,0.009854686117914128,0.1193608172354051,0.9397444303313924,0.3202128271754398,0.05791995674371719,-0.2306485176086426,-0.9713117480278015,0,0,0,-1,-1,5499.541026125,unknown,2,2022-06-30T10:00:52.429+02:00,2022-06-30T08:20:05.567+02:00,1511,1.425381,0,0,1194.663,0,0,2022-06-30T10:00:57.552+02:00
2022-06-30T10:00:59.850+02:00,5506.914654791667,0.05389404296875,-0.2822265625,-0.93341064453125,5506.904702791667,2.477014591021968,0.05903446870626482,0.2324388312232468,-0.1205432415008545,-0.1176533922553062,-0.09065881371498108,0.02705927938222885,-0.05033357441425323,0.01387745141983032,XArbitraryZVertical,0.01009956439935368,0.1191295115593916,0.9396285763783941,0.320630882417571,0.05741352215409279,-0.230351448059082,-0.9714123010635376,0,0,0,-1,-1,5499.541026125,unknown,2,2022-06-30T10:00:52.429+02:00,2022-06-30T08:20:05.567+02:00,1511,1.425381,0,0,1194.663,0,0,2022-06-30T10:00:57.552+02:00
2022-06-30T10:00:59.860+02:00,5506.924605791667,0.0415496826171875,-0.29150390625,-0.9296722412109375,5506.914654791667,2.475878239332379,0.05864701296631539,0.2318113247171067,-0.1583615243434906,-0.1135136187076569,-0.1255057156085968,0.01168012619018555,-0.051081582903862,0.02635759115219116,XArbitraryZVertical,0.01024645811586367,0.1187674654925164,0.9394756322355978,0.3212083167350367,0.05704560130834579,-0.2297407686710358,-0.9715785980224609,0,0,0,-1,-1,5499.541026125,unknown,2,2022-06-30T10:00:52.429+02:00,2022-06-30T08:20:05.567+02:00,1511,1.425381,0,0,1194.663,0,0,2022-06-30T10:00:57.552+02:00
2022-06-30T10:00:59.870+02:00,5506.934556791667,0.0414276123046875,-0.277923583984375,-0.922149658203125,5506.924605791667,2.474376545719163,0.05846207503380266,0.2305690110243358,-0.1948886513710022,-0.09852641075849533,-0.1647015810012817,-0.002988364547491074,-0.05369465053081512,0.03846257925033569,XArbitraryZVertical,0.01021854831433576,0.1181479076895508,0.9392950133916252,0.3219651284224586,0.05688254907727242,-0.2285315096378326,-0.9718732833862305,0,0,0,-1,-1,5499.541026125,unknown,2,2022-06-30T10:00:52.429+02:00,2022-06-30T08:20:05.567+02:00,1511,1.425381,0,0,1194.663,0,0,2022-06-30T10:00:57.552+02:00
2022-06-30T10:00:59.880+02:00,5506.944508791667,0.0207672119140625,-0.246673583984375,-0.89251708984375,5506.934556791667,2.472500606715883,0.05817004127556651,0.2286929726457186,-0.2254996746778488,-0.1061663627624512,-0.2164488732814789,-0.01507373154163361,-0.06479878723621368,0.04264384508132935,XArbitraryZVertical,0.01015768443685806,0.1172123516898146,0.9390836181282528,0.3229240861139692,0.05662355199456215,-0.2267047166824341,-0.9723161458969116,0,0,0,-1,-1,5499.541026125,unknown,2,2022-06-30T10:00:52.429+02:00,2022-06-30T08:20:05.567+02:00,1511,1.425381,0,0,1194.663,0,0,2022-06-30T10:00:57.552+02:00
2022-06-30T10:00:59.890+02:00,5506.954459791667,-0.011322021484375,-0.226531982421875,-0.8523406982421875,5506.944508791667,2.469983322368583,0.05800803735555925,0.2261337650769064,-0.253486305475235,-0.07883940637111664,-0.2967764735221863,-0.01507173478603363,-0.05371177196502686,0.05075162649154663,XArbitraryZVertical,0.009958499005780356,0.1159747779380486,0.9388004866687296,0.3241979576882574,0.05649948492646217,-0.2242114096879959,-0.9729013442993164,0,0,0,-1,-1,5499.541026125,unknown,2,2022-06-30T10:00:52.429+02:00,2022-06-30T08:20:05.567+02:00,1511,1.425381,0,0,1194.663,0,0,2022-06-30T10:00:57.552+02:00
2022-06-30T10:00:59.900+02:00,5506.964410791667,-0.0534210205078125,-0.23858642578125,-0.8009490966796875,5506.954459791667,2.466641107999691,0.05832615708077746,0.2229448009035274,-0.324597030878067,-0.04825141653418541,-0.3873533308506012,-0.03608302772045135,-0.02557069063186646,0.08107501268386841,XArbitraryZVertical,0.00947373862846348,0.1145170831535031,0.9384121743552587,0.3258505763840607,0.0568503700196743,-0.2211024910211563,-0.9735921621322632,0,0,0,-1,-1,5499.541026125,unknown,2,2022-06-30T10:00:52.429+02:00,2022-06-30T08:20:05.567+02:00,1511,1.425381,0,0,1194.663,0,0,2022-06-30T10:00:57.552+02:00
2022-06-30T10:00:59.910+02:00,5506.974362791667,-0.0993499755859375,-0.2541046142578125,-0.714111328125,5506.964410791667,2.462277432454557,0.05913381710915866,0.2190180032406741,-0.4464395940303802,-0.01575499027967453,-0.51068514585495,-0.0690094381570816,-0.009260386228561401,0.1220643520355225,XArbitraryZVertical,0.008689007714656319,0.1127915403528166,0.9378876771291981,0.3279775151204551,0.05768755078315735,-0.2172711938619614,-0.9744051098823547,0,0,0,-1,-1,5499.541026125,unknown,2,2022-06-30T10:00:52.429+02:00,2022-06-30T08:20:05.567+02:00,1511,1.425381,0,0,1194.663,0,0,2022-06-30T10:00:57.552+02:00
2022-06-30T10:00:59.920+02:00,5506.984313791667,-0.138580322265625,-0.2593536376953125,-0.5906829833984375,5506.974362791667,2.456616146715962,0.06048023155968013,0.213640110308197,-0.622625470161438,0.01177670806646347,-0.6609910726547241,-0.1124901175498962,-0.02656735479831696,0.1745296716690063,XArbitraryZVertical,0.007471865732930921,0.1104751727306958,0.9372075487071261,0.3307286179771547,0.05906922370195389,-0.2120186537504196,-0.9754788279533386,0,0,0,-1,-1,5499.541026125,unknown,2,2022-06-30T10:00:52.429+02:00,2022-06-30T08:20:05.567+02:00,1511,1.425381,0,0,1194.663,0,0,2022-06-30T10:00:57.552+02:00
2022-06-30T10:00:59.930+02:00,5506.994264791667,-0.1723175048828125,-0.2862548828125,-0.4722747802734375,5506.984313791667,2.449472172138262,0.06211186676230777,0.205878094131983,-0.8534480333328247,0.01704630628228188,-0.8439518213272095,-0.1601109355688095,-0.04967741668224335,0.2628828287124634,XArbitraryZVertical,0.005782393751136066,0.1070954460984094,0.9363677227401515,0.334234508046876,0.06076109409332275,-0.2044267952442169,-0.9769942760467529,0,0,0,-1,-1,5499.541026125,unknown,2,2022-06-30T10:00:52.429+02:00,2022-06-30T08:20:05.567+02:00,1511,1.425381,0,0,1194.663,0,0,2022-06-30T10:00:57.552+02:00
2022-06-30T10:00:59.940+02:00,5507.004216791667,-0.174407958984375,-0.3191070556640625,-0.3767547607421875,5506.994264791667,2.440307387624386,0.06407010133202239,0.1953824283912971,-1.142460227012634,0.008671704679727554,-1.101920485496521,-0.2013882696628571,-0.06521153450012207,0.3882777094841003,XArbitraryZVertical,0.003549313901254234,0.1025037955734299,0.935267858459864,0.3387542765968498,0.0628080815076828,-0.1941417008638382,-0.9789607524871826,0,0,0,-1,-1,5499.541026125,unknown,2,2022-06-30T10:00:52.429+02:00,2022-06-30T08:20:05.567+02:00,1511,1.425381,0,0,1194.663,0,0,2022-06-30T10:00:57.552+02:00
2022-06-30T10:00:59.950+02:00,5507.014167791667,-0.1729583740234375,-0.34588623046875,-0.297454833984375,5507.004216791667,2.428579219332642,0.06619453529449548,0.1813963193557668,-1.523799896240234,-0.02346039935946465,-1.391301393508911,-0.2373783141374588,-0.1058513075113297,0.5091637969017029,XArbitraryZVertical,0.0007101753099166515,0.09633369608754919,0.9338048710175491,0.3445692471102642,0.06506092846393585,-0.1804031580686569,-0.9814386367797852,0,0,0,-1,-1,5499.541026125,unknown,2,2022-06-30T10:00:52.429+02:00,2022-06-30T08:20:05.567+02:00,1511,1.425381,0,0,1194.663,0,0,2022-06-30T10:00:57.552+02:00
2022-06-30T10:00:59.961+02:00,5507.024118791667,-0.19384765625,-0.378082275390625,-0.2334747314453125,5507.014167791667,2.414275061541716,0.06815393030983527,0.1629344129402926,-1.990720748901367,-0.07590644061565399,-1.688342809677124,-0.2416070699691772,-0.1568921953439713,0.6077098846435547,XArbitraryZVertical,-0.002807893480732029,0.08808954234462978,0.9319473446612305,0.3517193812551337,0.0671992152929306,-0.1622144430875778,-0.984464704990387,0,0,0,-1,-1,5499.541026125,unknown,2,2022-06-30T10:00:52.429+02:00,2022-06-30T08:20:05.567+02:00,1511,1.425381,0,0,1194.663,0,0,2022-06-30T10:00:57.552+02:00
2022-06-30T10:00:59.970+02:00,5507.034070791667,-0.2670440673828125,-0.3982696533203125,-0.1709747314453125,5507.024118791667,2.397129814114188,0.06955649125959891,0.1396355235604202,-2.44015908241272,-0.163103923201561,-2.034392356872559,-0.2417822182178497,-0.2067036330699921,0.6904173493385315,XArbitraryZVertical,-0.006954724323639475,0.07755970298220738,0.9295689645022486,0.3603299254195021,0.06882395595312119,-0.1391821950674057,-0.9878722429275513,0,0,0,-1,-1,5499.541026125,unknown,2,2022-06-30T10:00:52.429+02:00,2022-06-30T08:20:05.567+02:00,1511,1.425381,0,0,1194.663,0,0,2022-06-30T10:00:57.552+02:00
2022-06-30T10:00:59.979+02:00,5507.044021791667,-0.381561279296875,-0.505218505859375,-0.158233642578125,5507.034070791667,2.376237703841241,0.069830942045273,0.1111655714696312,-2.988972663879395,-0.29630446434021,-2.560287475585938,-0.2631910741329193,-0.2671450972557068,0.7579305768013,XArbitraryZVertical,-0.01160178187895907,0.06451927667270249,0.9263952106302772,0.3708027362060358,0.06934352219104767,-0.1109367534518242,-0.9914053082466125,0,0,0,-1,-1,5499.541026125,unknown,2,2022-06-30T10:00:52.429+02:00,2022-06-30T08:20:05.567+02:00,1511,1.425381,0,0,1194.663,0,0,2022-06-30T10:00:57.552+02:00
2022-06-30T10:00:59.989+02:00,5507.053972791667,-0.43206787109375,-0.53680419921875,-0.12921142578125,5507.044021791667,2.35028623275666,0.06924490818152006,0.07656124340067709,-3.60116982460022,-0.3069033026695251,-3.063104391098022,-0.336030900478363,-0.3217827677726746,0.8237063884735107,XArbitraryZVertical,-0.01717658374834777,0.04862489801458034,0.9220269756250916,0.3836754072898442,0.06898690015077591,-0.07648646831512451,-0.994681179523468,0,0,0,-1,-1,5499.541026125,unknown,2,2022-06-30T10:00:52.429+02:00,2022-06-30T08:20:05.567+02:00,1511,1.425381,0,0,1194.663,0,0,2022-06-30T10:00:57.552+02:00
2022-06-30T10:00:59.999+02:00,5507.063924791667,-0.5350494384765625,-0.53021240234375,-0.143890380859375,5507.053972791667,2.321178310190116,0.06778570686257522,0.03464748504821427,-4.437113761901855,-0.319386214017868,-3.337870836257935,-0.4492543637752533,-0.4705775082111359,0.8388710021972656,XArbitraryZVertical,-0.02416604167863976,0.02938844673987918,0.9166081836990005,0.3979722548844828,0.06769315898418427,-0.03464055433869362,-0.9971046447753906,0,0,0,-1,-1,5499.541026125,unknown,2,2022-06-30T10:00:52.429+02:00,2022-06-30T08:20:05.567+02:00,1511,1.425381,0,0,1194.663,0,0,2022-06-30T10:00:57.552+02:00
2022-06-30T10:01:00.009+02:00,5507.073875791667,-0.67620849609375,-0.582122802734375,-0.1948089599609375,5507.063924791667,2.289483035724988,0.06482409744705681,-0.01662889840462788,-5.416906356811523,-0.3268406689167023,-3.726315498352051,-0.4968375563621521,-0.5534318685531616,0.8685503005981445,XArbitraryZVertical,-0.03294269456714082,0.005825391844127403,0.9099822337407969,0.4132955510662654,0.06476975232362747,0.01662813127040863,-0.9977616667747498,0,0,0,-1,-1,5499.541026125,unknown,2,2022-06-30T10:00:52.429+02:00,2022-06-30T08:20:05.567+02:00,1511,1.425381,0,0,1194.663,0,0,2022-06-30T10:00:57.552+02:00
2022-06-30T10:01:00.019+02:00,5507.083826791667,-0.7998046875,-0.603912353515625,-0.261260986328125,5507.073875791667,2.253515726995297,0.06013841361236026,-0.07751788019922973,-6.337784767150879,-0.2610751092433929,-4.256521224975586,-0.5949710607528687,-0.6076522469520569,0.8513043522834778,XArbitraryZVertical,-0.04376749007387589,-0.02206990141218113,0.9014375766690705,0.4301251011540679,0.05992168188095093,0.07744026929140091,-0.995194673538208,0,0,0,-1,-1,5499.541026125,unknown,2,2022-06-30T10:00:52.429+02:00,2022-06-30T08:20:05.567+02:00,1511,1.425381,0,0,1194.663,0,0,2022-06-30T10:00:57.552+02:00
2022-06-30T10:01:00.029+02:00,5507.093778791667,-0.9046783447265625,-0.556732177734375,-0.3421173095703125,5507.083826791667,2.212084713669704,0.05364123383202143,-0.1473368897027801,-7.190554141998291,-0.0898202583193779,-4.795139312744141,-0.7292430996894836,-0.7289267778396606,0.7929338812828064,XArbitraryZVertical,-0.05688459520300673,-0.05378431805301044,0.8903019781876954,0.4485909544543704,0.05303461849689484,0.1468043923377991,-0.9877427816390991,0,0,0,-1,-1,5499.541026125,unknown,2,2022-06-30T10:00:52.429+02:00,2022-06-30T08:20:05.567+02:00,1511,1.425381,0,0,1194.663,0,0,2022-06-30T10:00:57.552+02:00
2022-06-30T10:01:00.039+02:00,5507.103729791667,-1.037841796875,-0.46112060546875,-0.3777008056640625,5507.093778791667,2.164963081802082,0.04530126081949656,-0.2250076220851362,-7.918944358825684,0.1756654679775238,-5.265291213989258,-0.8439489006996155,-0.8270257115364075,0.7125314474105835,XArbitraryZVertical,-0.07253024005908727,-0.08856180460732428,0.8761237345142379,0.4682984232357398,0.04414422437548637,0.2231137901544571,-0.9737923145294189,0,0,0,-1,-1,5499.541026125,unknown,2,2022-06-30T10:00:52.429+02:00,2022-06-30T08:20:05.567+02:00,1511,1.425381,0,0,1194.663,0,0,2022-06-30T10:00:57.552+02:00
2022-06-30T10:01:00.049+02:00,5507.113680791667,-1.186981201171875,-0.343658447265625,-0.4383697509765625,5507.103729791667,2.111552031557598,0.03435380800431807,-0.3087071370168898,-8.446953773498535,0.4689998924732208,-5.753827095031738,-0.9374017715454102,-0.8605588674545288,0.6100478768348694,XArbitraryZVertical,-0.09048485002188086,-0.125419189549859,0.8585085341740738,0.4889230398103108,0.03272337093949318,0.3038271367549896,-0.9521650671958923,0,0,0,-1,-1,5499.541026125,unknown,2,2022-06-30T10:00:52.429+02:00,2022-06-30T08:20:05.567+02:00,1511,1.425381,0,0,1194.663,0,0,2022-06-30T10:00:57.552+02:00
2022-06-30T10:01:00.059+02:00,5507.123632791667,-1.337051391601562,-0.197235107421875,-0.524658203125,5507.113680791667,2.050608898237802,0.01975108683886317,-0.3956149462978147,-8.648575782775879,0.8409066200256348,-6.190271377563477,-1.056066155433655,-0.8464958667755127,0.544879138469696,XArbitraryZVertical,-0.1102347835576006,-0.1629674867330046,0.8371542524948389,0.5103555185947231,0.01822432316839695,0.3853757083415985,-0.9225797653198242,0,0,0,-1,-1,5499.541026125,unknown,2,2022-06-30T10:00:52.429+02:00,2022-06-30T08:20:05.567+02:00,1511,1.425381,0,0,1194.663,0,0,2022-06-30T10:00:57.552+02:00
2022-06-30T10:01:00.069+02:00,5507.133583791667,-1.474761962890625,-0.0170135498046875,-0.6521759033203125,5507.123632791667,1.981894148801759,0.001315767261132599,-0.4817042375044396,-8.466533660888672,1.3439701795578,-6.471421241760254,-1.188147306442261,-0.806948184967041,0.4478363394737244,XArbitraryZVertical,-0.1312246352181819,-0.1991912433233624,0.812312281118682,0.532213968451788,0.001166041358374059,0.4632901549339294,-0.8862059116363525,0,0,0,-1,-1,5499.541026125,unknown,2,2022-06-30T10:00:52.429+02:00,2022-06-30T08:20:05.567+02:00,1511,1.425381,0,0,1194.663,0,0,2022-06-30T10:00:57.552+02:00
2022-06-30T10:01:00.079+02:00,5507.143534791667,-1.57843017578125,0.168731689453125,-0.8255767822265625,5507.133583791667,1.905623483552341,-0.0206103894313976,-0.562530802146519,-7.845211029052734,1.912707448005676,-6.648639678955078,-1.319618225097656,-0.7305634617805481,0.3210704326629639,XArbitraryZVertical,-0.1527456250711787,-0.2319581149606984,0.7846362088684189,0.5542654908002623,-0.01743325963616371,0.5333287119865417,-0.8457283973693848,0,0,0,-1,-1,5499.541026125,unknown,2,2022-06-30T10:00:52.429+02:00,2022-06-30T08:20:05.567+02:00,1511,1.425381,0,0,1194.663,0,0,2022-06-30T10:00:57.552+02:00
2022-06-30T10:01:00.089+02:00,5507.153486791667,-1.627151489257812,0.279998779296875,-1.00384521484375,5507.143534791667,1.821733564735926,-0.04604849048448049,-0.6337487735959435,-6.909085750579834,2.485279083251953,-6.78952693939209,-1.437668800354004,-0.6091828942298889,0.1527834534645081,XArbitraryZVertical,-0.1736952262951817,-0.2595196211927503,0.7549016505268846,0.5767174689639788,-0.03709337115287781,0.5921697020530701,-0.8049590587615967,0,0,0,-1,-1,5499.541026125,unknown,2,2022-06-30T10:00:52.429+02:00,2022-06-30T08:20:05.567+02:00,1511,1.425381,0,0,1194.663,0,0,2022-06-30T10:00:57.552+02:00
2022-06-30T10:01:00.099+02:00,5507.163437791667,-1.598098754882812,0.3341064453125,-0.974456787109375,5507.153486791667,1.730135618835427,-0.07510571123284149,-0.6936047029355421,-5.98027515411377,3.024330615997314,-6.949517726898193,-1.520732402801514,-0.4705811142921448,-0.05879771709442139,XArbitraryZVertical,-0.1934198731428193,-0.2814238310692388,0.7235962651146268,0.5998315568944635,-0.05769799277186394,0.6393131613731384,-0.7667787671089172,0,0,0,-1,-1,5499.541026125,unknown,2,2022-06-30T10:00:52.429+02:00,2022-06-30T08:20:05.567+02:00,1511,1.425381,0,0,1194.663,0,0,2022-06-30T10:00:57.552+02:00
2022-06-30T10:01:00.108+02:00,5507.173388791667,-1.57879638671875,0.4355316162109375,-0.9671630859375,5507.163437791667,1.630991578392269,-0.1082028763351798,-0.7438076149076643,-5.532854080200195,3.453670501708984,-7.03759241104126,-1.547680974006653,-0.3970957398414612,-0.2722527384757996,XArbitraryZVertical,-0.2120631993216105,-0.298719190719619,0.6907709754687775,0.6234031367996378,-0.07947075366973877,0.6770948171615601,-0.7315921187400818,0,0,0,-1,-1,5499.541026125,unknown,2,2022-06-30T10:00:52.429+02:00,2022-06-30T08:20:05.567+02:00,1511,1.425381,0,0,1194.663,0,0,2022-06-30T10:00:57.552+02:00
2022-06-30T10:01:00.119+02:00,5507.183340791667,-1.57574462890625,0.6198272705078125,-0.9223785400390625,5507.173388791667,1.524635465805855,-0.1451925371808663,-0.7904551355630017,-5.776290416717529,3.966900587081909,-7.034304618835449,-1.49631142616272,-0.3765667676925659,-0.2783368825912476,XArbitraryZVertical,-0.2314967444546812,-0.3136071876880905,0.6558791277352211,0.6464383055290873,-0.1017876341938972,0.7106735706329346,-0.6961196064949036,0,0,0,-1,-1,5507.172623791667,unknown,2,2022-06-30T10:01:00.107+02:00,2022-06-30T08:20:05.567+02:00,1511,1.425381,0,0,1194.663,0,0,2022-06-30T10:01:00.107+02:00
2022-06-30T10:01:00.129+02:00,5507.193291791667,-1.5771484375,0.968109130859375,-0.923919677734375,5507.183340791667,1.409385580470681,-0.1870852320381644,-0.8392879838651988,-6.589116096496582,4.466464996337891,-7.001102447509766,-1.45455276966095,-0.3086358308792114,-0.3108259439468384,XArbitraryZVertical,-0.2537731189940112,-0.3277663498647392,0.6179986706162307,0.6680166743441079,-0.1242438703775406,0.744167685508728,-0.6563368439674377,0,0,0,-1,-1,5507.172623791667,unknown,2,2022-06-30T10:01:00.107+02:00,2022-06-30T08:20:05.567+02:00,1511,1.425381,0,0,1194.663,0,0,2022-06-30T10:01:00.107+02:00
2022-06-30T10:01:00.139+02:00,5507.203242791667,-1.494247436523438,1.375015258789062,-0.9302825927734375,5507.193291791667,1.282148745171513,-0.2366974471831019,-0.894942000210395,-7.847745418548584,5.072248935699463,-6.788800239562988,-1.429054260253906,-0.1603453159332275,-0.3142562508583069,XArbitraryZVertical,-0.280691016668676,-0.3422740880357154,0.576348188497699,0.6869380845475169,-0.14669069647789,0.7801728248596191,-0.6081219911575317,0,0,0,-1,-1,5507.172623791667,unknown,2,2022-06-30T10:01:00.107+02:00,2022-06-30T08:20:05.567+02:00,1511,1.425381,0,0,1194.663,0,0,2022-06-30T10:01:00.107+02:00
2022-06-30T10:01:00.148+02:00,5507.213194791667,-1.33648681640625,1.869491577148438,-0.7993316650390625,5507.203242791667,1.140249023496745,-0.2962606232399739,-0.9597045968586765,-9.184425354003906,5.776458263397217,-6.247741222381592,-1.40964138507843,0.1490873098373413,-0.3751533031463623,XArbitraryZVertical,-0.313712178622369,-0.3566533578210062,0.5308950988492518,0.7018074267605159,-0.1675074398517609,0.8190221190452576,-0.5487660765647888,0,0,0,-1,-1,5507.172623791667,unknown,2,2022-06-30T10:01:00.107+02:00,2022-06-30T08:20:05.567+02:00,1511,1.425381,0,0,1194.663,0,0,2022-06-30T10:01:00.107+02:00
2022-06-30T10:01:00.159+02:00,5507.223145791667,-1.182998657226562,2.370986938476562,-0.608795166015625,5507.213194791667,0.9809274885890156,-0.3689786274961235,-1.032981989967216,-10.36523532867432,6.492423534393311,-5.356701374053955,-1.309494495391846,0.5161850452423096,-0.4524990320205688,XArbitraryZVertical,-0.3530864925903976,-0.3693755727487057,0.4825525829553522,0.7113612344328067,-0.1847533285617828,0.8588303327560425,-0.4777832329273224,0,0,0,-1,-1,5507.172623791667,unknown,2,2022-06-30T10:01:00.107+02:00,2022-06-30T08:20:05.567+02:00,1511,1.425381,0,0,1194.663,0,0,2022-06-30T10:01:00.107+02:00
2022-06-30T10:01:00.168+02:00,5507.233096791667,-0.982879638671875,2.696578979492188,-0.2825164794921875,5507.223145791667,0.7972098551487842,-0.4624993546613393,-1.112642450193515,-11.34145736694336,7.152488231658936,-4.312746047973633,-1.139142036437988,0.9726210832595825,-0.4035055339336395,XArbitraryZVertical,-0.3981691770635351,-0.3788778149510339,0.4323713707949326,0.7148201637151695,-0.1973450928926468,0.8968705534934998,-0.3958258032798767,0,0,0,-1,-1,5507.172623791667,unknown,2,2022-06-30T10:01:00.107+02:00,2022-06-30T08:20:05.567+02:00,1511,1.425381,0,0,1194.663,0,0,2022-06-30T10:01:00.107+02:00
2022-06-30T10:01:00.180+02:00,5507.243048791667,-0.753173828125,2.9447021484375,0.0493621826171875,5507.233096791667,0.5735833683536908,-0.5933114463626811,-1.194497076215062,-11.92621517181396,7.630357265472412,-3.137109518051147,-0.9775367379188538,1.440955996513367,-0.3041184842586517,XArbitraryZVertical,-0.44746251654406,-0.3839779773152209,0.3813688168605465,0.7119663429916562,-0.2054622918367386,0.9300309419631958,-0.3046764135360718,0,0,0,-1,-1,5507.172623791667,unknown,2,2022-06-30T10:01:00.107+02:00,2022-06-30T08:20:05.567+02:00,1511,1.425381,0,0,1194.663,0,0,2022-06-30T10:01:00.107+02:00
2022-06-30T10:01:00.188+02:00,5507.252999791667,-0.56787109375,3.07781982421875,0.3312530517578125,5507.243048791667,0.2802415747423743,-0.7933231395183249,-1.27296868066691,-12.59504222869873,7.84816312789917,-1.836051464080811,-0.7737455368041992,1.740602731704712,-0.07667052745819092,XArbitraryZVertical,-0.499457215404531,-0.3842130243748789,0.330974459085377,0.7024093270051166,-0.2091344594955444,0.9559761881828308,-0.2058456838130951,0,0,0,-1,-1,5507.172623791667,unknown,2,2022-06-30T10:01:00.107+02:00,2022-06-30T08:20:05.567+02:00,1511,1.425381,0,0,1194.663,0,0,2022-06-30T10:01:00.107+02:00
2022-06-30T10:01:00.199+02:00,5507.262950791667,-0.288818359375,2.931900024414062,0.515716552734375,5507.252999791667,-0.1613166749048365,-1.140816813074044,-1.339445512166467,-13.84066677093506,8.061599731445312,-0.5054718255996704,-0.5447529554367065,1.971344590187073,0.1449435949325562,XArbitraryZVertical,-0.5548988668281327,-0.3798639762011605,0.2809436734105489,0.6847344940565453,-0.2084212899208069,0.9733575582504272,-0.09558121114969254,0,0,0,-1,-1,5507.172623791667,unknown,2,2022-06-30T10:01:00.107+02:00,2022-06-30T08:20:05.567+02:00,1511,1.425381,0,0,1194.663,0,0,2022-06-30T10:01:00.107+02:00
2022-06-30T10:01:00.208+02:00,5507.272902791667,-0.0335693359375,2.65252685546875,0.44879150390625,5507.262950791667,-0.8207019912258092,-1.704827435824553,-1.364063162941082,-14.80153846740723,8.047436714172363,0.9752318859100342,-0.3644481599330902,2.099112987518311,0.303823709487915,XArbitraryZVertical,-0.6136013333845112,-0.3704161950447591,0.2313618202693539,0.6578427431334033,-0.2034233659505844,0.9787067174911499,0.02742950804531574,0,0,0,-1,-1,5507.172623791667,unknown,2,2022-06-30T10:01:00.107+02:00,2022-06-30T08:20:05.567+02:00,1511,1.425381,0,0,1194.663,0,0,2022-06-30T10:01:00.107+02:00
2022-06-30T10:01:00.218+02:00,5507.282853791667,0.1512298583984375,2.278884887695312,0.512420654296875,5507.272902791667,-1.463074860733551,-2.252793190466344,-1.317275503827708,-15.27743530273438,7.688066482543945,2.286050081253052,-0.09410813450813293,1.96386456489563,0.3576176166534424,XArbitraryZVertical,-0.6727755634659505,-0.3555595413474313,0.1840927411258242,0.6221417191852396,-0.1947106570005417,0.9680353403091431,0.1580990850925446,0,0,0,-1,-1,5507.172623791667,unknown,2,2022-06-30T10:01:00.107+02:00,2022-06-30T08:20:05.567+02:00,1511,1.425381,0,0,1194.663,0,0,2022-06-30T10:01:00.107+02:00
2022-06-30T10:01:00.228+02:00,5507.292804791667,0.165008544921875,2.093917846679688,0.676544189453125,5507.282853791667,-1.873111018673772,-2.571851220962452,-1.223495844680614,-14.48855304718018,6.971969127655029,3.474233865737915,0.1500255465507507,1.712231755256653,0.1621942222118378,XArbitraryZVertical,-0.7284986426796983,-0.3355418897821906,0.1412714151171967,0.5802962030150329,-0.1835952997207642,0.9402949213981628,0.2865972518920898,0,0,0,-1,-1,5507.172623791667,unknown,2,2022-06-30T10:01:00.107+02:00,2022-06-30T08:20:05.567+02:00,1511,1.425381,0,0,1194.663,0,0,2022-06-30T10:01:00.107+02:00
2022-06-30T10:01:00.238+02:00,5507.302756791667,0.0467376708984375,2.027984619140625,0.95947265625,5507.292804791667,-2.123223547795398,-2.738040092662983,-1.122898159693086,-12.57679462432861,5.900965213775635,4.350017547607422,0.3212915062904358,1.377525329589844,0.1141368448734283,XArbitraryZVertical,-0.7761195748807868,-0.3110952980676961,0.106144531319311,0.538136928518015,-0.1700620353221893,0.9013593196868896,0.3982837498188019,0,0,0,-1,-1,5507.172623791667,unknown,2,2022-06-30T10:01:00.107+02:00,2022-06-30T08:20:05.567+02:00,1511,1.425381,0,0,1194.663,0,0,2022-06-30T10:01:00.107+02:00
2022-06-30T10:01:00.248+02:00,5507.312707791667,-0.0648956298828125,1.801177978515625,1.164886474609375,5507.302756791667,-2.298247260003824,-2.839288949866501,-1.033058645986806,-9.991982460021973,4.756044864654541,5.038870334625244,0.3174986839294434,1.235048055648804,0.1875764429569244,XArbitraryZVertical,-0.8147624685177529,-0.2839823647221705,0.0803645696294331,0.4990567285287473,-0.1524905562400818,0.8588696122169495,0.4889677166938782,0,0,0,-1,-1,5507.172623791667,unknown,2,2022-06-30T10:01:00.107+02:00,2022-06-30T08:20:05.567+02:00,1511,1.425381,0,0,1194.663,0,0,2022-06-30T10:01:00.107+02:00
2022-06-30T10:01:00.258+02:00,5507.322658791667,-0.162689208984375,1.667205810546875,1.25714111328125,5507.312707791667,-2.432878903725827,-2.910223563359794,-0.9665284786591901,-6.76826286315918,3.76081657409668,5.503785610198975,0.1770221740007401,1.205066442489624,0.4064522385597229,XArbitraryZVertical,-0.8435277201531797,-0.2548945059300464,0.06429945707381611,0.4683539863584735,-0.1302849650382996,0.8229182958602905,0.5530204772949219,0,0,0,-1,-1,5507.172623791667,unknown,2,2022-06-30T10:01:00.107+02:00,2022-06-30T08:20:05.567+02:00,1511,1.425381,0,0,1194.663,0,0,2022-06-30T10:01:00.107+02:00
2022-06-30T10:01:00.268+02:00,5507.332610791667,-0.3244781494140625,1.483505249023438,1.16558837890625,5507.322658791667,-2.54455398784286,-2.967553350098405,-0.9262297201710751,-3.865837097167969,2.933004379272461,5.696708202362061,0.03914865851402283,1.001817584037781,0.5731114149093628,XArbitraryZVertical,-0.8632802530091596,-0.2250214626957873,0.05657424597080357,0.4482318490735246,-0.1040447130799294,0.7993602752685547,0.5917748808860779,0,0,0,-1,-1,5507.172623791667,unknown,2,2022-06-30T10:01:00.107+02:00,2022-06-30T08:20:05.567+02:00,1511,1.425381,0,0,1194.663,0,0,2022-06-30T10:01:00.107+02:00
2022-06-30T10:01:00.278+02:00,5507.342561791667,-0.4964599609375,1.231277465820312,1.123611450195312,5507.332610791667,-2.642893402809159,-3.019401463692988,-0.9089572702962562,-1.41865861415863,2.359937429428101,5.642872333526611,-0.08778149634599686,0.8783424496650696,0.647154688835144,XArbitraryZVertical,-0.8756924922871913,-0.1953350986464268,0.05496705835935383,0.4381614293257035,-0.07490812987089157,0.7888633608818054,0.6099863052368164,0,0,0,-1,-1,5507.172623791667,unknown,2,2022-06-30T10:01:00.107+02:00,2022-06-30T08:20:05.567+02:00,1511,1.425381,0,0,1194.663,0,0,2022-06-30T10:01:00.107+02:00
2022-06-30T10:01:00.288+02:00,5507.352512791667,-0.606048583984375,0.934814453125,1.139007568359375,5507.342561791667,-2.733407756553441,-3.06931895326079,-0.9093895421123397,0.2941079437732697,1.958382248878479,5.486915588378906,-0.2801247239112854,0.6943764090538025,0.5529642105102539,XArbitraryZVertical,-0.8823908699582611,-0.1664284346735875,0.05717143971523474,0.4363706869884116,-0.04435386881232262,0.7891288995742798,0.6126241683959961,0,0,0,-1,-1,5507.172623791667,unknown,2,2022-06-30T10:01:00.107+02:00,2022-06-30T08:20:05.567+02:00,1511,1.425381,0,0,1194.663,0,0,2022-06-30T10:01:00.107+02:00
2022-06-30T10:01:00.298+02:00,5507.362464791667,-0.626312255859375,0.617828369140625,1.228240966796875,5507.352512791667,-2.820153031411922,-3.120646061540854,-0.9191287037252992,1.035547852516174,1.590920805931091,5.185189247131348,-0.4837569296360016,0.4362041354179382,0.5172311067581177,XArbitraryZVertical,-0.8853902555219433,-0.1388317333071562,0.06171260223785041,0.4393193449675195,-0.01270345877856016,0.7950734496116638,0.60638028383255,0,0,0,-1,-1,5507.172623791667,unknown,2,2022-06-30T10:01:00.107+02:00,2022-06-30T08:20:05.567+02:00,1511,1.425381,0,0,1194.663,0,0,2022-06-30T10:01:00.107+02:00
2022-06-30T10:01:00.308+02:00,5507.372415791667,-0.5156707763671875,0.417938232421875,1.451400756835938,5507.362464791667,-2.902876385636402,3.110778370132164,-0.9294896518575275,0.9797796010971069,1.281366586685181,4.835070133209229,-0.6244804859161377,0.1334998607635498,0.5410484075546265,XArbitraryZVertical,-0.8866483195412168,-0.1132887442979945,0.06703689060848275,0.4433131295681133,0.0184315163642168,0.8013147115707397,0.5979591608047485,0,0,0,-1,-1,5507.172623791667,unknown,2,2022-06-30T10:01:00.107+02:00,2022-06-30T08:20:05.567+02:00,1511,1.425381,0,0,1194.663,0,0,2022-06-30T10:01:00.107+02:00
2022-06-30T10:01:00.318+02:00,5507.382367791667,-0.3885650634765625,0.3030548095703125,1.664566040039062,5507.372415791667,-2.981842531086432,3.058375551337314,-0.9333512867064826,0.2789056897163391,0.9227735996246338,4.569047451019287,-0.6757817268371582,-0.1857905387878418,0.6351562738418579,XArbitraryZVertical,-0.8879577370122027,-0.08985187252882118,0.07289824569991381,0.4451331566572343,0.04946902766823769,0.8036189675331116,0.5930845737457275,0,0,0,-1,-1,5507.172623791667,unknown,2,2022-06-30T10:01:00.107+02:00,2022-06-30T08:20:05.567+02:00,1511,1.425381,0,0,1194.663,0,0,2022-06-30T10:01:00.107+02:00
2022-06-30T10:01:00.328+02:00,5507.392318791667,-0.2823944091796875,0.2814788818359375,1.752212524414062,5507.382367791667,-3.054855280486641,3.007108907729091,-0.9271153044138705,-0.5811376571655273,0.5439363718032837,4.2818603515625,-0.5961377024650574,-0.3819537162780762,0.8566756248474121,XArbitraryZVertical,-0.8903043281757833,-0.06870724560292939,0.07938552483285155,0.4430975411593097,0.08046653121709824,0.7998920679092407,0.5947249531745911,0,0,0,-1,-1,5507.172623791667,unknown,2,2022-06-30T10:01:00.107+02:00,2022-06-30T08:20:05.567+02:00,1511,1.425381,0,0,1194.663,0,0,2022-06-30T10:01:00.107+02:00
2022-06-30T10:01:00.338+02:00,5507.402269791667,-0.24200439453125,0.3412017822265625,1.717147827148438,5507.392318791667,-3.119459571923319,2.959149219904967,-0.911316179203447,-1.279417514801025,0.1505140066146851,3.989925622940063,-0.4997305572032928,-0.4872559905052185,1.062028884887695,XArbitraryZVertical,-0.8937396041000579,-0.04998023301107025,0.08664545111645647,0.4372916517018842,0.1111650615930557,0.7903108596801758,0.6025370359420776,0,0,0,-1,-1,5507.172623791667,unknown,2,2022-06-30T10:01:00.107+02:00,2022-06-30T08:20:05.567+02:00,1511,1.425381,0,0,1194.663,0,0,2022-06-30T10:01:00.107+02:00
2022-06-30T10:01:00.347+02:00,5507.412221791667,-0.21429443359375,0.460235595703125,1.623016357421875,5507.402269791667,3.108147882325653,2.915152680861749,-0.8893734785870117,-1.566538453102112,-0.2368084192276001,3.704383850097656,-0.4238132536411285,-0.4951983094215393,1.138393878936768,XArbitraryZVertical,-0.8976528477818265,-0.03359493045539902,0.09482917252423506,0.4290665917899418,0.1414184272289276,0.7766772508621216,0.6138185262680054,0,0,0,-1,-1,5507.172623791667,unknown,2,2022-06-30T10:01:00.107+02:00,2022-06-30T08:20:05.567+02:00,1511,1.425381,0,0,1194.663,0,0,2022-06-30T10:01:00.107+02:00
2022-06-30T10:01:00.358+02:00,5507.422172791667,-0.18682861328125,0.5148773193359375,1.552520751953125,5507.412221791667,3.059930308146698,2.873748297005488,-0.8660239311180528,-1.436483263969421,-0.6195425391197205,3.458013772964478,-0.4134632349014282,-0.420556902885437,1.092387437820435,XArbitraryZVertical,-0.9011155680000261,-0.01925948277135177,0.1041230325057063,0.4204501302287301,0.1714584678411484,0.7617590427398682,0.6247603893280029,0,0,0,-1,-1,5507.172623791667,unknown,2,2022-06-30T10:01:00.107+02:00,2022-06-30T08:20:05.567+02:00,1511,1.425381,0,0,1194.663,0,0,2022-06-30T10:01:00.107+02:00
2022-06-30T10:01:00.368+02:00,5507.432123791667,-0.1957550048828125,0.44573974609375,1.546783447265625,5507.422172791667,3.016145472826802,2.832885396244063,-0.8446249721423026,-1.025958657264709,-0.9426342844963074,3.301263809204102,-0.4160396456718445,-0.2874864339828491,0.9903943538665771,XArbitraryZVertical,-0.9034766446171955,-0.006394568443945459,0.1145722118446833,0.4129917837974134,0.2017448246479034,0.7477221488952637,0.6326218843460083,0,0,0,-1,-1,5507.172623791667,unknown,2,2022-06-30T10:01:00.107+02:00,2022-06-30T08:20:05.567+02:00,1511,1.425381,0,0,1194.663,0,0,2022-06-30T10:01:00.107+02:00
2022-06-30T10:01:00.377+02:00,5507.442074791667,-0.245208740234375,0.3712615966796875,1.55889892578125,5507.432123791667,2.974758554742824,2.791347748000087,-0.8264543436859156,-0.6573168635368347,-1.228034377098083,3.161575317382812,-0.419293999671936,-0.2206563353538513,0.9161638617515564,XArbitraryZVertical,-0.9045159153242232,0.005418922190166039,0.126062047380193,0.407345016531981,0.232464998960495,0.7355338335037231,0.6363568305969238,0,0,0,-1,-1,5507.172623791667,unknown,2,2022-06-30T10:01:00.107+02:00,2022-06-30T08:20:05.567+02:00,1511,1.425381,0,0,1194.663,0,0,2022-06-30T10:01:00.107+02:00
2022-06-30T10:01:00.387+02:00,5507.452026791667,-0.278289794921875,0.32183837890625,1.5718994140625,5507.442074791667,2.935895163881745,2.749754228702019,-0.8095017968022777,-0.630545437335968,-1.424923777580261,3.048646211624146,-0.4592045247554779,-0.278203547000885,0.9092094302177429,XArbitraryZVertical,-0.9047214692996467,0.0163133594487809,0.1383376732470386,0.4025863778361242,0.2634491920471191,0.7239435911178589,0.6375741362571716,0,0,0,-1,-1,5507.172623791667,unknown,2,2022-06-30T10:01:00.107+02:00,2022-06-30T08:20:05.567+02:00,1511,1.425381,0,0,1194.663,0,0,2022-06-30T10:01:00.107+02:00
2022-06-30T10:01:00.397+02:00,5507.461977791667,-0.274505615234375,0.3094635009765625,1.555526733398438,5507.452026791667,2.900839612408497,2.709625602725084,-0.7910752222367933,-0.8139075636863708,-1.573533773422241,2.928217887878418,-0.5395596027374268,-0.3398478031158447,0.9203999638557434,XArbitraryZVertical,-0.904742880684816,0.02626313298635692,0.1511356301696171,0.3973771208620821,0.2943505048751831,0.7111096382141113,0.638498842716217,0,0,0,-1,-1,5507.172623791667,unknown,2,2022-06-30T10:01:00.107+02:00,2022-06-30T08:20:05.567+02:00,1511,1.425381,0,0,1194.663,0,0,2022-06-30T10:01:00.107+02:00
2022-06-30T10:01:00.407+02:00,5507.471929791667,-0.25738525390625,0.33660888671875,1.543777465820312,5507.461977791667,2.870398762342678,2.671804049041238,-0.7702646379798951,-1.057702898979187,-1.724160552024841,2.804808616638184,-0.603203296661377,-0.3744866251945496,0.9319285750389099,XArbitraryZVertical,-0.9048458137491148,0.03520559634343418,0.1643210731392242,0.3911689884978437,0.3249131441116333,0.6963251829147339,0.6399707794189453,0,0,0,-1,-1,5507.172623791667,unknown,2,2022-06-30T10:01:00.107+02:00,2022-06-30T08:20:05.567+02:00,1511,1.425381,0,0,1194.663,0,0,2022-06-30T10:01:00.107+02:00
2022-06-30T10:01:00.417+02:00,5507.481880791667,-0.2465972900390625,0.374114990234375,1.4959716796875,5507.471929791667,2.844633634483208,2.636186043573356,-0.7472394868237034,-1.268884539604187,-1.871749401092529,2.685455083847046,-0.6296725273132324,-0.3701525926589966,0.9136713147163391,XArbitraryZVertical,-0.9050247290173502,0.04310357242443415,0.1779332090428987,0.3839427919917413,0.3551665246486664,0.6796163320541382,0.6418553590774536,0,0,0,-1,-1,5507.172623791667,unknown,2,2022-06-30T10:01:00.107+02:00,2022-06-30T08:20:05.567+02:00,1511,1.425381,0,0,1194.663,0,0,2022-06-30T10:01:00.107+02:00
2022-06-30T10:01:00.427+02:00,5507.491831791667,-0.2100830078125,0.4003143310546875,1.42681884765625,5507.481880791667,2.82292685644275,2.602123447956394,-0.7229881556540559,-1.315568447113037,-2.049398899078369,2.544974327087402,-0.642559826374054,-0.3250191211700439,0.9004355072975159,XArbitraryZVertical,-0.905081318666541,0.0499880001859089,0.1920114693709283,0.3761124895714803,0.3851742148399353,0.661628246307373,0.6433419585227966,0,0,0,-1,-1,5507.172623791667,unknown,2,2022-06-30T10:01:00.107+02:00,2022-06-30T08:20:05.567+02:00,1511,1.425381,0,0,1194.663,0,0,2022-06-30T10:01:00.107+02:00
2022-06-30T10:01:00.437+02:00,5507.501783625,-0.16583251953125,0.3740081787109375,1.411865234375,5507.491831791667,2.804342353534778,2.568503094364699,-0.6992307160828526,-1.246451616287231,-2.27060866355896,2.383940458297729,-0.6615869998931885,-0.2695139050483704,0.8529123067855835,XArbitraryZVertical,-0.9046632054523901,0.05580418649294653,0.2066318592155923,0.3684746751468282,0.4149893522262573,0.6436291337013245,0.643059253692627,0,0,0,-1,-1,5507.172623791667,unknown,2,2022-06-30T10:01:00.107+02:00,2022-06-30T08:20:05.567+02:00,1511,1.425381,0,0,1194.663,0,0,2022-06-30T10:01:00.107+02:00
2022-06-30T10:01:00.447+02:00,5507.511734625,-0.141143798828125,0.2700653076171875,1.393020629882812,5507.501783625,2.788343258384069,2.534841381755462,-0.6762759677028178,-1.214751005172729,-2.449887275695801,2.246121168136597,-0.6547886729240417,-0.2255784273147583,0.7861199378967285,XArbitraryZVertical,-0.9036999886378367,0.06062787427531498,0.2218162089219203,0.3611759783544263,0.4447052776813507,0.6258929371833801,0.6406987905502319,0,0,0,-1,-1,5507.172623791667,unknown,2,2022-06-30T10:01:00.107+02:00,2022-06-30T08:20:05.567+02:00,1511,1.425381,0,0,1194.663,0,0,2022-06-30T10:01:00.107+02:00
2022-06-30T10:01:00.457+02:00,5507.521685625,-0.142242431640625,0.18597412109375,1.383132934570312,5507.511734625,2.775085903052442,2.501381732177593,-0.6539982013074975,-1.202584028244019,-2.624071836471558,2.059584379196167,-0.6399359703063965,-0.2343559861183167,0.7753756046295166,XArbitraryZVertical,-0.9022715416295214,0.06442746253402609,0.2374438472841123,0.3540842435328598,0.4741031527519226,0.608364462852478,0.6364896893501282,0,0,0,-1,-1,5507.172623791667,unknown,2,2022-06-30T10:01:00.107+02:00,2022-06-30T08:20:05.567+02:00,1511,1.425381,0,0,1194.663,0,0,2022-06-30T10:01:00.107+02:00
2022-06-30T10:01:00.467+02:00,5507.531637625,-0.1580810546875,0.145263671875,1.34393310546875,5507.521685625,2.765219556177712,2.46863533920113,-0.6324618019585797,-1.270954847335815,-2.761048793792725,1.844910025596619,-0.643883228302002,-0.3210664987564087,0.7622938752174377,XArbitraryZVertical,-0.9004881568266809,0.06696665608479316,0.2533376573242001,0.3470687100067847,0.5027391910552979,0.5911321640014648,0.6307269334793091,0,0,0,-1,-1,5507.172623791667,unknown,2,2022-06-30T10:01:00.107+02:00,2022-06-30T08:20:05.567+02:00,1511,1.425381,0,0,1194.663,0,0,2022-06-30T10:01:00.107+02:00
2022-06-30T10:01:00.477+02:00,5507.541588625,-0.1715087890625,0.169677734375,1.299789428710938,5507.531637625,2.758994856926582,2.436870967999545,-0.6111106195591172,-1.396817445755005,-2.896188974380493,1.671182870864868,-0.6728161573410034,-0.3878030180931091,0.759216845035553,XArbitraryZVertical,-0.8984978309225699,0.06826211824100173,0.269442347362801,0.3397686747040973,0.5305733680725098,0.573777437210083,0.6239161491394043,0,0,0,-1,-1,5507.172623791667,unknown,2,2022-06-30T10:01:00.107+02:00,2022-06-30T08:20:05.567+02:00,1511,1.425381,0,0,1194.663,0,0,2022-06-30T10:01:00.107+02:00
2022-06-30T10:01:00.487+02:00,5507.551539625,-0.1837005615234375,0.257171630859375,1.276168823242188,5507.541588625,2.756343764663485,2.405831058287257,-0.5897454019692147,-1.537182569503784,-3.044866800308228,1.489029884338379,-0.7158639430999756,-0.4108854532241821,0.7278352975845337,XArbitraryZVertical,-0.8963144499392942,0.0683326407843094,0.2858400081260578,0.3320340614040103,0.5577825903892517,0.556149423122406,0.6160978674888611,0,0,0,-1,-1,5507.172623791667,unknown,2,2022-06-30T10:01:00.107+02:00,2022-06-30T08:20:05.567+02:00,1511,1.425381,0,0,1194.663,0,0,2022-06-30T10:01:00.107+02:00
2022-06-30T10:01:00.497+02:00,5507.561491625001,-0.1772003173828125,0.3692779541015625,1.262847900390625,5507.551539625,2.757172861610693,2.375206466408664,-0.5687227592126175,-1.655707240104675,-3.207168579101562,1.294461011886597,-0.7558755278587341,-0.368878185749054,0.6927696466445923,XArbitraryZVertical,-0.893872218251914,0.06709972519279368,0.3025550678569959,0.3239607466208239,0.584366500377655,0.5385562777519226,0.60701984167099,0,0,0,-1,-1,5507.172623791667,unknown,2,2022-06-30T10:01:00.107+02:00,2022-06-30T08:20:05.567+02:00,1511,1.425381,0,0,1194.663,0,0,2022-06-30T10:01:00.107+02:00
2022-06-30T10:01:00.507+02:00,5507.571442625001,-0.1515960693359375,0.404693603515625,1.220260620117188,5507.561491625001,2.761414687737397,2.34475968977631,-0.5479969262082314,-1.81061315536499,-3.35698938369751,1.132165312767029,-0.7941279411315918,-0.2638065218925476,0.6795448064804077,XArbitraryZVertical,-0.8911471148627526,0.06456678887030443,0.3196384371924637,0.3154667492922668,0.6104270815849304,0.5209785103797913,0.5966240763664246,0,0,0,-1,-1,5507.172623791667,unknown,2,2022-06-30T10:01:00.107+02:00,2022-06-30T08:20:05.567+02:00,1511,1.425381,0,0,1194.663,0,0,2022-06-30T10:01:00.107+02:00
2022-06-30T10:01:00.517+02:00,5507.581393625001,-0.130615234375,0.4109344482421875,1.208892822265625,5507.571442625001,2.768572996192206,2.314382236073347,-0.5277326475085414,-1.874258756637573,-3.485730648040771,0.9743288159370422,-0.8131083250045776,-0.1342974305152893,0.6780120730400085,XArbitraryZVertical,-0.8880922726643133,0.06091068897971257,0.336988601781124,0.3066281445436503,0.6359078288078308,0.5035757422447205,0.5848360061645508,0,0,0,-1,-1,5507.172623791667,unknown,2,2022-06-30T10:01:00.107+02:00,2022-06-30T08:20:05.567+02:00,1511,1.425381,0,0,1194.663,0,0,2022-06-30T10:01:00.107+02:00
2022-06-30T10:01:00.527+02:00,5507.591345625,-0.1431884765625,0.4099578857421875,1.219329833984375,5507.581393625001,2.77804275755969,2.283782337323619,-0.5084535159552234,-1.953011870384216,-3.605803966522217,0.8261385560035706,-0.8123212456703186,-0.08213302493095398,0.6489094495773315,XArbitraryZVertical,-0.8845969343443255,0.05624880194408143,0.3545303732463311,0.2977123112491131,0.6607248783111572,0.4868269860744476,0.5713513493537903,0,0,0,-1,-1,5507.172623791667,unknown,2,2022-06-30T10:01:00.107+02:00,2022-06-30T08:20:05.567+02:00,1511,1.425381,0,0,1194.663,0,0,2022-06-30T10:01:00.107+02:00
2022-06-30T10:01:00.536+02:00,5507.601296625,-0.159515380859375,0.38360595703125,1.204605102539062,5507.591345625,2.790090130243454,2.25329838833997,-0.4896606672579353,-2.102230310440063,-3.66825008392334,0.7042665481567383,-0.8154271245002747,-0.05939173698425293,0.652272641658783,XArbitraryZVertical,-0.880765045809987,0.05062698918525851,0.372182513612494,0.2883921309394625,0.684811532497406,0.4703264534473419,0.5566202998161316,0,0,0,-1,-1,5507.172623791667,unknown,2,2022-06-30T10:01:00.107+02:00,2022-06-30T08:20:05.567+02:00,1511,1.425381,0,0,1194.663,0,0,2022-06-30T10:01:00.107+02:00
2022-06-30T10:01:00.547+02:00,5507.611247625,-0.182861328125,0.3985748291015625,1.200332641601562,5507.601296625,2.804530416836046,2.223177724335061,-0.471569310468267,-2.158854007720947,-3.727670907974243,0.5506319999694824,-0.8510993123054504,-0.04432660341262817,0.6785083413124084,XArbitraryZVertical,-0.8766208584091624,0.04412163279153021,0.3897436425222982,0.2787277542234329,0.7079106569290161,0.4542848765850067,0.5408216714859009,0,0,0,-1,-1,5507.172623791667,unknown,2,2022-06-30T10:01:00.107+02:00,2022-06-30T08:20:05.567+02:00,1511,1.425381,0,0,1194.663,0,0,2022-06-30T10:01:00.107+02:00
2022-06-30T10:01:00.556+02:00,5507.621199625,-0.2045440673828125,0.4237213134765625,1.175857543945312,5507.611247625,2.8209502306173,2.193091325351384,-0.4549423765628837,-2.200788974761963,-3.797035455703735,0.3862764537334442,-0.8894118666648865,-0.05580425262451172,0.6809927225112915,XArbitraryZVertical,-0.8720434978401198,0.03669331439659688,0.4071756068628187,0.269075911044134,0.7298962473869324,0.439410537481308,0.5236124992370605,0,0,0,-1,-1,5507.172623791667,unknown,2,2022-06-30T10:01:00.107+02:00,2022-06-30T08:20:05.567+02:00,1511,1.425381,0,0,1194.663,0,0,2022-06-30T10:01:00.107+02:00
2022-06-30T10:01:00.566+02:00,5507.631150625,-0.2217559814453125,0.48681640625,1.12762451171875,5507.621199625,2.838900768482607,2.16260754190407,-0.4398779526746621,-2.195152521133423,-3.891520977020264,0.2502150237560272,-0.9337868094444275,-0.02725380659103394,0.6955743432044983,XArbitraryZVertical,-0.8669312078245344,0.0284526722904664,0.4245762084549585,0.2595302203652208,0.7509253621101379,0.4258290529251099,0.5047585368156433,0,0,0,-1,-1,5507.172623791667,unknown,2,2022-06-30T10:01:00.107+02:00,2022-06-30T08:20:05.567+02:00,1511,1.425381,0,0,1194.663,0,0,2022-06-30T10:01:00.107+02:00
2022-06-30T10:01:00.576+02:00,5507.641101625,-0.2363128662109375,0.5523223876953125,1.072341918945312,5507.631150625,2.858031270503197,2.131446035580437,-0.4264429328534015,-2.200425863265991,-3.982982635498047,0.1133544072508812,-0.9756074547767639,0.01008671522140503,0.6917420625686646,XArbitraryZVertical,-0.8612071480971147,0.01949769806163169,0.4420006347234553,0.2501552097879838,0.7710630893707275,0.4136349260807037,0.4841158390045166,0,0,0,-1,-1,5507.172623791667,unknown,2,2022-06-30T10:01:00.107+02:00,2022-06-30T08:20:05.567+02:00,1511,1.425381,0,0,1194.663,0,0,2022-06-30T10:01:00.107+02:00
2022-06-30T10:01:00.586+02:00,5507.651053625001,-0.2433013916015625,0.57879638671875,1.022186279296875,5507.641101625,2.878363546569092,2.099657279282988,-0.4146609742129518,-2.217483043670654,-4.084250926971436,-0.01309354975819588,-1.011969566345215,0.08393704891204834,0.6658337116241455,XArbitraryZVertical,-0.8548679221701323,0.009818685133923154,0.4594173882050673,0.240915232556503,0.7902133464813232,0.4028796553611755,0.4617911279201508,0,0,0,-1,-1,5507.172623791667,unknown,2,2022-06-30T10:01:00.107+02:00,2022-06-30T08:20:05.567+02:00,1511,1.425381,0,0,1194.663,0,0,2022-06-30T10:01:00.107+02:00
2022-06-30T10:01:00.596+02:00,5507.661004625001,-0.2691192626953125,0.56964111328125,0.956787109375,5507.651053625001,2.899991320671541,2.067018232773401,-0.4042049459269007,-2.30045223236084,-4.212939739227295,-0.1072471514344215,-1.044835686683655,0.1590347290039062,0.6346024870872498,XArbitraryZVertical,-0.8478617317606281,-0.0005655855198382813,0.4769554138404964,0.2316111029357357,0.8085225224494934,0.3932878971099854,0.4377396702766418,0,0,0,-1,-1,5507.172623791667,unknown,2,2022-06-30T10:01:00.107+02:00,2022-06-30T08:20:05.567+02:00,1511,1.425381,0,0,1194.663,0,0,2022-06-30T10:01:00.107+02:00
2022-06-30T10:01:00.606+02:00,5507.670955625001,-0.3045654296875,0.573577880859375,0.89373779296875,5507.661004625001,2.923622393460402,2.03372718862685,-0.3947871076347188,-2.460594415664673,-4.328504085540771,-0.241714671254158,-1.069223761558533,0.1941850781440735,0.6099651455879211,XArbitraryZVertical,-0.8402204843352583,-0.01184298679738351,0.4946191565231837,0.2219037454090265,0.8259223103523254,0.3846116960048676,0.4122214317321777,0,0,0,-1,-1,5507.172623791667,unknown,2,2022-06-30T10:01:00.107+02:00,2022-06-30T08:20:05.567+02:00,1511,1.425381,0,0,1194.663,0,0,2022-06-30T10:01:00.107+02:00
2022-06-30T10:01:00.616+02:00,5507.680907625,-0.313507080078125,0.60418701171875,0.8474884033203125,5507.670955625001,2.949886640900333,1.999987579637523,-0.3868633059435636,-2.62880277633667,-4.468999862670898,-0.4242781400680542,-1.1112220287323,0.1923559904098511,0.5714054703712463,XArbitraryZVertical,-0.8319241869875896,-0.02435347160809792,0.5123162028243795,0.2117572984018001,0.8421024084091187,0.3772853910923004,0.3853818774223328,0,0,0,-1,-1,5507.172623791667,unknown,2,2022-06-30T10:01:00.107+02:00,2022-06-30T08:20:05.567+02:00,1511,1.425381,0,0,1194.663,0,0,2022-06-30T10:01:00.107+02:00
2022-06-30T10:01:00.631+02:00,5507.690858625,-0.27850341796875,0.656646728515625,0.791534423828125,5507.680907625,2.978333736544908,1.96563933485415,-0.3810162745656192,-2.678045749664307,-4.580079078674316,-0.6256426572799683,-1.16142749786377,0.2017141282558441,0.536659836769104,XArbitraryZVertical,-0.8228548192303911,-0.03806488540391471,0.5299827484625492,0.2014429417155565,0.8568618893623352,0.3718640506267548,0.3570779860019684,0,0,0,-1,-1,5507.172623791667,unknown,2,2022-06-30T10:01:00.107+02:00,2022-06-30T08:20:05.567+02:00,1511,1.425381,0,0,1194.663,0,0,2022-06-30T10:01:00.107+02:00
2022-06-30T10:01:00.641+02:00,5507.700809625,-0.238739013671875,0.6514892578125,0.7980804443359375,5507.690858625,3.007465257010045,1.929986093012355,-0.3782519800198519,-2.567856311798096,-4.778023242950439,-0.8475174903869629,-1.183512091636658,0.2348906993865967,0.5208210945129395,XArbitraryZVertical,-0.8127459804070661,-0.05270532759790975,0.5476554378738041,0.1916760391301202,0.8700048327445984,0.3692965805530548,0.3266677558422089,0,0,0,-1,-1,5507.172623791667,unknown,2,2022-06-30T10:01:00.107+02:00,2022-06-30T08:20:05.567+02:00,1511,1.425381,0,0,1194.663,0,0,2022-06-30T10:01:00.107+02:00
2022-06-30T10:01:00.646+02:00,5507.710761625,-0.2256927490234375,0.629669189453125,0.749237060546875,5507.700809625,3.035791963085742,1.89187039822364,-0.378756727784468,-2.383466720581055,-4.983431816101074,-1.000785708427429,-1.160147666931152,0.2868813872337341,0.4983160197734833,XArbitraryZVertical,-0.8012525764646875,-0.06785057465950355,0.5656493024187835,0.1828426817320972,0.8816439509391785,0.3697656095027924,0.2932187914848328,0,0,0,-1,-1,5507.172623791667,unknown,2,2022-06-30T10:01:00.107+02:00,2022-06-30T08:20:05.567+02:00,1511,1.425381,0,0,1194.663,0,0,2022-06-30T10:01:00.107+02:00
2022-06-30T10:01:00.657+02:00,5507.720712625,-0.2524261474609375,0.633758544921875,0.7481689453125,5507.710761625,3.063129778824757,1.8513639266996,-0.3821784039931578,-2.299393653869629,-5.229400157928467,-1.171239852905273,-1.130313158035278,0.2785469591617584,0.5411568880081177,XArbitraryZVertical,-0.7883625516384216,-0.08334546942782659,0.5839387865268384,0.1747960309247603,0.8915740251541138,0.3729425966739655,0.2569239735603333,0,0,0,-1,-1,5507.172623791667,unknown,2,2022-06-30T10:01:00.107+02:00,2022-06-30T08:20:05.567+02:00,1511,1.425381,0,0,1194.663,0,0,2022-06-30T10:01:00.107+02:00
2022-06-30T10:01:00.666+02:00,5507.730663625,-0.3236846923828125,0.6283111572265625,0.697296142578125,5507.720712625,3.091431314190462,1.808760556116644,-0.38835050879518,-2.540517330169678,-5.476562976837158,-1.36332643032074,-1.125146150588989,0.2510071396827698,0.5310660600662231,XArbitraryZVertical,-0.7740189957011364,-0.09990153308703081,0.602561153972536,0.1668361529604407,0.8994531631469727,0.3786622583866119,0.2181714475154877,0,0,0,-1,-1,5507.172623791667,unknown,2,2022-06-30T10:01:00.107+02:00,2022-06-30T08:20:05.567+02:00,1511,1.425381,0,0,1194.663,0,0,2022-06-30T10:01:00.107+02:00
2022-06-30T10:01:00.676+02:00,5507.740615625,-0.352630615234375,0.6650543212890625,0.6086883544921875,5507.730663625,3.123636254558571,1.765726652429615,-0.3965069363069446,-2.909403085708618,-5.66972541809082,-1.521204113960266,-1.15737247467041,0.2475600838661194,0.569499135017395,XArbitraryZVertical,-0.7585194693448926,-0.1182511200184456,0.6211132424378807,0.1577441218794836,0.9049461483955383,0.3861986398696899,0.1786702275276184,0,0,0,-1,-1,5507.172623791667,unknown,2,2022-06-30T10:01:00.107+02:00,2022-06-30T08:20:05.567+02:00,1511,1.425381,0,0,1194.663,0,0,2022-06-30T10:01:00.107+02:00
2022-06-30T10:01:00.686+02:00,5507.750566625,-0.305999755859375,0.733245849609375,0.4355316162109375,5507.740615625,-3.124212463277525,1.722509365861099,-0.407652387215636,-3.115899324417114,-5.821984767913818,-1.813069224357605,-1.231193780899048,0.2318561971187592,0.5585495233535767,XArbitraryZVertical,-0.7417817109314633,-0.1383236741175172,0.6393102705068685,0.1480163858841283,0.9075089693069458,0.3964551985263824,0.1387470960617065,0,0,0,-1,-1,5507.172623791667,unknown,2,2022-06-30T10:01:00.107+02:00,2022-06-30T08:20:05.567+02:00,1511,1.425381,0,0,1194.663,0,0,2022-06-30T10:01:00.107+02:00
2022-06-30T10:01:00.696+02:00,5507.760517625,-0.234039306640625,0.73101806640625,0.2628173828125,5507.750566625,-3.088631172338881,1.678248713813902,-0.4230431615136023,-2.862549781799316,-6.047945976257324,-2.060862302780151,-1.259215593338013,0.2545173168182373,0.5108973979949951,XArbitraryZVertical,-0.7235062023172671,-0.1594818584033487,0.6571313143385055,0.1388627980646907,0.9065849781036377,0.4105372428894043,0.09779137372970581,0,0,0,-1,-1,5507.172623791667,unknown,2,2022-06-30T10:01:00.107+02:00,2022-06-30T08:20:05.567+02:00,1511,1.425381,0,0,1194.663,0,0,2022-06-30T10:01:00.107+02:00
2022-06-30T10:01:00.706+02:00,5507.770469625,-0.1781158447265625,0.705413818359375,-0.186279296875,5507.760517625,-3.058718593144584,1.631830045963222,-0.4426121863686319,-1.994858860969543,-6.209183216094971,-2.224226474761963,-1.207953333854675,0.304944634437561,0.3804140090942383,XArbitraryZVertical,-0.7037490070695465,-0.1797118500423533,0.6745403144210145,0.132046803338604,0.901953399181366,0.4283013939857483,0.05511802807450294,0,0,0,-1,-1,5507.172623791667,unknown,2,2022-06-30T10:01:00.107+02:00,2022-06-30T08:20:05.567+02:00,1511,1.425381,0,0,1194.663,0,0,2022-06-30T10:01:00.107+02:00
2022-06-30T10:01:00.716+02:00,5507.780420625,-0.1680908203125,0.7033538818359375,-0.47515869140625,5507.770469625,-3.042925061887352,1.576047303608852,-0.4648553672745496,-0.622908890247345,-6.464076042175293,-2.314965486526489,-1.127913475036621,0.2827247679233551,0.2581241130828857,XArbitraryZVertical,-0.681046674005815,-0.196270999872477,0.6935018487676049,0.1292605375554843,0.8938740491867065,0.4482935070991516,0.004693754948675632,0,0,0,-1,-1,5507.172623791667,unknown,2,2022-06-30T10:01:00.107+02:00,2022-06-30T08:20:05.567+02:00,1511,1.425381,0,0,1194.663,0,0,2022-06-30T10:01:00.107+02:00
2022-06-30T10:01:00.726+02:00,5507.790371625,-0.156707763671875,0.754058837890625,-0.6169281005859375,5507.780420625,-3.045426005144342,1.509342416856922,-0.4874342399921203,0.9482339024543762,-6.731101512908936,-2.218807458877563,-1.059985637664795,0.2370534837245941,-0.1320161819458008,XArbitraryZVertical,-0.655586496974971,-0.2075452102054702,0.7140965582345036,0.131138947660655,0.8818696141242981,0.4683604836463928,-0.05426266044378281,0,0,0,-1,-1,5507.172623791667,unknown,2,2022-06-30T10:01:00.107+02:00,2022-06-30T08:20:05.567+02:00,1511,1.425381,0,0,1194.663,0,0,2022-06-30T10:01:00.107+02:00
2022-06-30T10:01:00.736+02:00,5507.800323625001,-0.15338134765625,0.7561798095703125,-0.6856842041015625,5507.790371625,-3.065131973262612,1.432049905400125,-0.5068661288091356,2.027995347976685,-6.92255687713623,-2.015149831771851,-1.03395938873291,0.217914342880249,-0.3542451858520508,XArbitraryZVertical,-0.6277301337800794,-0.2133034167376133,0.7360794633762886,0.1365421595839725,0.8658686876296997,0.4854397773742676,-0.120913065969944,0,0,0,-1,-1,5507.172623791667,unknown,2,2022-06-30T10:01:00.107+02:00,2022-06-30T08:20:05.567+02:00,1511,1.425381,0,0,1194.663,0,0,2022-06-30T10:01:00.107+02:00
2022-06-30T10:01:00.746+02:00,5507.810274625001,-4.796798706054688,4.681961059570312,-14.95634460449219,5507.800323625001,-3.09292017007942,1.34936211555242,-0.5217011801956734,2.108080148696899,-6.941386699676514,-1.78925096988678,-1.002511978149414,0.2557033896446228,-0.4265153110027313,XArbitraryZVertical,-0.5984375287645607,-0.2160238832584898,0.758185794829965,0.1426909639474448,0.8458043336868286,0.4983557462692261,-0.1904124170541763,0,0,0,-1,-1,5507.172623791667,unknown,2,2022-06-30T10:01:00.107+02:00,2022-06-30T08:20:05.567+02:00,1511,1.425381,0,0,1194.663,0,0,2022-06-30T10:01:00.107+02:00
2022-06-30T10:01:00.755+02:00,5507.820225625001,-0.6742706298828125,2.41131591796875,-6.333145141601562,5507.810274625001,-3.078699799413094,1.372816120666135,-0.537117411931382,-4.44809627532959,2.834483861923218,0.1224860548973083,-0.9957849979400635,0.2445186376571655,-0.516690731048584,XArbitraryZVertical,-0.6042897556157193,-0.2243599265055263,0.7507185057446052,0.144631891434408,0.8424038290977478,0.5116614103317261,-0.1689930260181427,0,0,0,-1,-1,5507.172623791667,unknown,2,2022-06-30T10:01:00.107+02:00,2022-06-30T08:20:05.567+02:00,1511,1.425381,0,0,1194.663,0,0,2022-06-30T10:01:00.107+02:00
2022-06-30T10:01:00.766+02:00,5507.830177625,-0.1815643310546875,-0.4986572265625,1.018814086914062,5507.820225625001,-3.032789764222558,1.415962453515738,-0.552128680696524,-2.418354511260986,-2.326276063919067,-0.05881396681070328,-5.638023376464844,4.15746021270752,-14.82504272460938,XArbitraryZVertical,-0.613493473080706,-0.2407804934575769,0.7394684519935472,0.1372481091381781,0.8412247896194458,0.5245007872581482,-0.1313010305166245,0,0,0,-1,-1,5507.172623791667,unknown,2,2022-06-30T10:01:00.107+02:00,2022-06-30T08:20:05.567+02:00,1511,1.425381,0,0,1194.663,0,0,2022-06-30T10:01:00.107+02:00
2022-06-30T10:01:00.776+02:00,5507.840128625,1.316574096679688,1.219635009765625,-0.383056640625,5507.830177625,-3.052674050538759,1.397488650433045,-0.5371273614431825,6.134087562561035,2.239256381988525,1.528870344161987,-1.52058207988739,1.899646162986755,-6.184986114501953,XArbitraryZVertical,-0.6105556003010418,-0.2305267049611093,0.7450609922242223,0.1377082410907322,0.8463114500045776,0.5116699934005737,-0.1481585949659348,0,0,0,-1,-1,5507.172623791667,unknown,2,2022-06-30T10:01:00.107+02:00,2022-06-30T08:20:05.567+02:00,1511,1.425381,0,0,1194.663,0,0,2022-06-30T10:01:00.107+02:00
2022-06-30T10:01:00.785+02:00,5507.850079625,2.0277099609375,-0.6113128662109375,-0.8675384521484375,5507.840128625,-3.098054141813477,1.410256987382824,-0.523644065405109,0.3265421688556671,2.944436550140381,0.5366391539573669,-1.036431431770325,-0.9986962676048279,1.157245635986328,XArbitraryZVertical,-0.6216042999897655,-0.2106953952763481,0.7390528632642426,0.1517115883065622,0.8548669815063477,0.5000392198562622,-0.1384310871362686,0,0,0,-1,-1,5507.172623791667,unknown,2,2022-06-30T10:01:00.107+02:00,2022-06-30T08:20:05.567+02:00,1511,1.425381,0,0,1194.663,0,0,2022-06-30T10:01:00.107+02:00
2022-06-30T10:01:00.796+02:00,5507.860031625,-0.3436279296875,-0.599884033203125,-1.265182495117188,5507.850079625,-3.083009098039169,1.422983717699066,-0.5267179516777244,-1.806792020797729,-0.4155572652816772,-1.021979689598083,0.4615388512611389,0.7169363498687744,-0.2557426691055298,XArbitraryZVertical,-0.6244058496509444,-0.2155471238732433,0.7359393206380651,0.1484928763212786,0.8550351858139038,0.5026988387107849,-0.1273135393857956,0,0,0,-1,-1,5507.172623791667,unknown,2,2022-06-30T10:01:00.107+02:00,2022-06-30T08:20:05.567+02:00,1511,1.425381,0,0,1194.663,0,0,2022-06-30T10:01:00.107+02:00
2022-06-30T10:01:00.805+02:00,5507.869982625,-0.2559967041015625,0.3889007568359375,-0.435333251953125,5507.860031625,-3.065262029909679,1.433238278035945,-0.5432549498393903,-2.081540107727051,0.5118910074234009,-1.483765721321106,1.179765462875366,-1.128237724304199,-0.7501550912857056,XArbitraryZVertical,-0.6245765083950632,-0.2263023028137244,0.7325798930008006,0.1483853666035501,0.8479444980621338,0.516925036907196,-0.1173829063773155,0,0,0,-1,-1,5507.172623791667,unknown,2,2022-06-30T10:01:00.107+02:00,2022-06-30T08:20:05.567+02:00,1511,1.425381,0,0,1194.663,0,0,2022-06-30T10:01:00.107+02:00
2022-06-30T10:01:00.815+02:00,5507.879933625,0.09820556640625,0.5428009033203125,-0.5051727294921875,5507.869982625,-3.037927426668191,1.453357920279871,-0.5577169886914811,-2.594968795776367,0.7245624661445618,-0.947539210319519,-1.186249375343323,-1.1291344165802,-1.165768504142761,XArbitraryZVertical,-0.6272097036774702,-0.2385397344123179,0.7270236075326106,0.1454078952537431,0.842621386051178,0.5292505025863647,-0.09941356629133224,0,0,0,-1,-1,5507.172623791667,unknown,2,2022-06-30T10:01:00.107+02:00,2022-06-30T08:20:05.567+02:00,1511,1.425381,0,0,1194.663,0,0,2022-06-30T10:01:00.107+02:00
2022-06-30T10:01:00.825+02:00,5507.889885625001,0.5480194091796875,0.8697967529296875,-0.7989349365234375,5507.879933625,-3.016144351694696,1.471248241290286,-0.5722323692456199,-1.266629934310913,0.5401366949081421,-1.665812373161316,-1.092528820037842,-0.1526091694831848,-0.3517814874649048,XArbitraryZVertical,-0.6293877168544054,-0.2491895382155322,0.7217444609801966,0.1444322741343764,0.8365321755409241,0.5415101647377014,-0.08355135470628738,0,0,0,-1,-1,5507.172623791667,unknown,2,2022-06-30T10:01:00.107+02:00,2022-06-30T08:20:05.567+02:00,1511,1.425381,0,0,1194.663,0,0,2022-06-30T10:01:00.107+02:00
2022-06-30T10:01:00.835+02:00,5507.899836625001,0.621917724609375,1.102020263671875,-1.046310424804688,5507.889885625001,-3.017817396307965,1.471918490928858,-0.5909988124674979,1.301277637481689,-0.1492024958133698,-2.068800926208496,-0.7281231880187988,-0.01438957452774048,-0.4231993556022644,XArbitraryZVertical,-0.6276230655017325,-0.2551525659577934,0.7197952958627711,0.151265525594872,0.8263286948204041,0.5571907162666321,-0.08197291195392609,0,0,0,-1,-1,5507.172623791667,unknown,2,2022-06-30T10:01:00.107+02:00,2022-06-30T08:20:05.567+02:00,1511,1.425381,0,0,1194.663,0,0,2022-06-30T10:01:00.107+02:00
2022-06-30T10:01:00.845+02:00,5507.909788625,0.4577789306640625,1.178512573242188,-0.94549560546875,5507.899836625001,-3.052186833884948,1.44776859461198,-0.6082558355148762,3.839952707290649,-0.6930237412452698,-1.983916759490967,-0.2664239406585693,0.2983599305152893,-0.6982267498970032,XArbitraryZVertical,-0.6212481276276237,-0.2523824598527669,0.7230040993040626,0.1661895410101321,0.8144432306289673,0.5714370012283325,-0.1007077172398567,0,0,0,-1,-1,5507.172623791667,unknown,2,2022-06-30T10:01:00.107+02:00,2022-06-30T08:20:05.567+02:00,1511,1.425381,0,0,1194.663,0,0,2022-06-30T10:01:00.107+02:00
2022-06-30T10:01:00.855+02:00,5507.919739625,0.390472412109375,0.9214935302734375,-0.7791290283203125,5507.909788625,-3.109609662384377,1.406009494322749,-0.6204449595668924,4.986697196960449,-0.9370147585868835,-1.817058563232422,-0.1806803345680237,0.5206232070922852,-0.9128421545028687,XArbitraryZVertical,-0.6118492268105375,-0.2427067909300258,0.7295494656852071,0.1857189784434231,0.8025980591773987,0.5813972353935242,-0.1334678679704666,0,0,0,-1,-1,5507.172623791667,unknown,2,2022-06-30T10:01:00.107+02:00,2022-06-30T08:20:05.567+02:00,1511,1.425381,0,0,1194.663,0,0,2022-06-30T10:01:00.107+02:00
2022-06-30T10:01:00.865+02:00,5507.929690625,0.3827362060546875,0.70086669921875,-0.6679840087890625,5507.919739625,3.109108344719583,1.358788782459445,-0.6285557992769576,4.865036964416504,-0.9003099799156189,-1.808346629142761,-0.3329882621765137,0.5905356407165527,-0.7752888202667236,XArbitraryZVertical,-0.6013737555001981,-0.2307518447630622,0.7365969629970467,0.2062236434967676,0.7907671928405762,0.5879771709442139,-0.1702063828706741,0,0,0,-1,-1,5507.172623791667,unknown,2,2022-06-30T10:01:00.107+02:00,2022-06-30T08:20:05.567+02:00,1511,1.425381,0,0,1194.663,0,0,2022-06-30T10:01:00.107+02:00
2022-06-30T10:01:00.875+02:00,5507.939642625,0.417938232421875,0.69451904296875,-0.792388916015625,5507.929690625,3.050230322390233,1.316089267040907,-0.6368924466034218,4.030174732208252,-0.6388418078422546,-2.058943033218384,-0.3875377774238586,0.3267937898635864,-0.5765643715858459,XArbitraryZVertical,-0.5915290568579488,-0.2209326926009287,0.7418833168443875,0.2255911571784989,0.7780101299285889,0.5946999788284302,-0.2025642395019531,0,0,0,-1,-1,5507.172623791667,unknown,2,2022-06-30T10:01:00.107+02:00,2022-06-30T08:20:05.567+02:00,1511,1.425381,0,0,1194.663,0,0,2022-06-30T10:01:00.107+02:00
2022-06-30T10:01:00.885+02:00,5507.949593625,0.4604034423828125,0.938720703125,-0.9403076171875,5507.939642625,2.998695659476349,1.28019601025191,-0.6479714647064727,3.379864931106567,-0.3578034639358521,-2.300787925720215,-0.381144106388092,0.09729671478271484,-0.439532458782196,XArbitraryZVertical,-0.5829829234155847,-0.2142553190065246,0.7447970317340367,0.2439323819980589,0.7638802528381348,0.603570282459259,-0.228451132774353,0,0,0,-1,-1,5507.172623791667,unknown,2,2022-06-30T10:01:00.107+02:00,2022-06-30T08:20:05.567+02:00,1511,1.425381,0,0,1194.663,0,0,2022-06-30T10:01:00.107+02:00
2022-06-30T10:01:00.895+02:00,5507.959544625,0.49798583984375,1.116851806640625,-0.8985748291015625,5507.949593625,2.952370816340266,1.249499021651248,-0.6606983408832798,2.92788028717041,-0.1334699392318726,-2.340595722198486,-0.3312211036682129,0.08085101842880249,-0.5430459976196289,XArbitraryZVertical,-0.5756492387831166,-0.2096584869148657,0.7458978439222457,0.2613577325624574,0.7491593360900879,0.6136683821678162,-0.2493425458669662,0,0,0,-1,-1,5507.172623791667,unknown,2,2022-06-30T10:01:00.107+02:00,2022-06-30T08:20:05.567+02:00,1511,1.425381,0,0,1194.663,0,0,2022-06-30T10:01:00.107+02:00
2022-06-30T10:01:00.905+02:00,5507.969496625,0.5628662109375,1.2586669921875,-0.8097381591796875,5507.959544625,2.909096899582809,1.222231223789848,-0.6732179990949726,2.695532321929932,0.04230109602212906,-2.285215854644775,-0.2744003534317017,0.3152158856391907,-0.6732771992683411,XArbitraryZVertical,-0.5693010192749594,-0.2058672311949563,0.7458474814036626,0.2778969141878029,0.7348037362098694,0.6235051155090332,-0.2670300602912903,0,0,0,-1,-1,5507.172623791667,unknown,2,2022-06-30T10:01:00.107+02:00,2022-06-30T08:20:05.567+02:00,1511,1.425381,0,0,1194.663,0,0,2022-06-30T10:01:00.107+02:00
2022-06-30T10:01:00.915+02:00,5507.979447625,0.6625518798828125,1.380340576171875,-0.89349365234375,5507.969496625,2.86855478045807,1.198287646285079,-0.685686163444155,2.331820249557495,0.2804339528083801,-2.294263601303101,-0.2229170203208923,0.4836478233337402,-0.6168801784515381,XArbitraryZVertical,-0.5639561923140715,-0.2027468733699122,0.7447215116479656,0.2936613952075255,0.7209027409553528,0.6332042217254639,-0.281694233417511,0,0,0,-1,-1,5507.172623791667,unknown,2,2022-06-30T10:01:00.107+02:00,2022-06-30T08:20:05.567+02:00,1511,1.425381,0,0,1194.663,0,0,2022-06-30T10:01:00.107+02:00
2022-06-30T10:01:00.925+02:00,5507.989398625,0.737701416015625,1.463958740234375,-0.9554443359375,5507.979447625,2.831889789196823,1.178966560889392,-0.6987904303854068,1.949910044670105,0.5292914509773254,-2.244438886642456,-0.1447297930717468,0.6153751611709595,-0.5173623561859131,XArbitraryZVertical,-0.5599797462819585,-0.2005865783398426,0.7423076388778261,0.3084916819826203,0.7075958847999573,0.6432920694351196,-0.2923754155635834,0,0,0,-1,-1,5507.172623791667,unknown,2,2022-06-30T10:01:00.107+02:00,2022-06-30T08:20:05.567+02:00,1511,1.425381,0,0,1194.663,0,0,2022-06-30T10:01:00.107+02:00
2022-06-30T10:01:00.935+02:00,5507.999350625,0.7327423095703125,1.430099487304688,-0.8391265869140625,5507.989398625,2.799906360017247,1.164349880258173,-0.7119073000922118,1.534927248954773,0.6891308426856995,-2.058199167251587,-0.03288429975509644,0.7270618677139282,-0.5941686630249023,XArbitraryZVertical,-0.5573590283406745,-0.1992199758670374,0.738935344462807,0.3219268254149968,0.6954360604286194,0.6532790064811707,-0.299324631690979,0,0,0,-1,-1,5507.172623791667,unknown,2,2022-06-30T10:01:00.107+02:00,2022-06-30T08:20:05.567+02:00,1511,1.425381,0,0,1194.663,0,0,2022-06-30T10:01:00.107+02:00
2022-06-30T10:01:00.945+02:00,5508.009301625,0.6703033447265625,1.42730712890625,-0.7434844970703125,5507.999350625,2.773469456397574,1.154573448548079,-0.7242844204573126,1.124220252037048,0.8514566421508789,-1.816291570663452,0.05267292261123657,0.8013594150543213,-0.6526272892951965,XArbitraryZVertical,-0.5560678517556638,-0.1984444872588481,0.7349738667273376,0.3334994431170989,0.6850284337997437,0.6625996828079224,-0.3028166592121124,0,0,0,-1,-1,5507.172623791667,unknown,2,2022-06-30T10:01:00.107+02:00,2022-06-30T08:20:05.567+02:00,1511,1.425381,0,0,1194.663,0,0,2022-06-30T10:01:00.107+02:00
2022-06-30T10:01:00.955+02:00,5508.019252625,0.6110076904296875,1.611297607421875,-0.667449951171875,5508.009301625,2.752672001205669,1.150448496583756,-0.7363138496578019,0.7690122127532959,1.136643290519714,-1.659167289733887,0.05629485845565796,0.758538544178009,-0.5367611646652222,XArbitraryZVertical,-0.5563560140552037,-0.1982055937969933,0.7302568918320916,0.3433765603882154,0.676447331905365,0.6715612411499023,-0.3023650646209717,0,0,0,-1,-1,5507.172623791667,unknown,2,2022-06-30T10:01:00.107+02:00,2022-06-30T08:20:05.567+02:00,1511,1.425381,0,0,1194.663,0,0,2022-06-30T10:01:00.107+02:00
2022-06-30T10:01:00.965+02:00,5508.029204625001,0.6464996337890625,2.034393310546875,-0.6458282470703125,5508.019252625,2.734041772221065,1.151315511792184,-0.7479813053668283,0.8277328014373779,1.575075268745422,-1.602033138275146,0.0007959604263305664,0.7471471428871155,-0.4449174106121063,XArbitraryZVertical,-0.5582883891938911,-0.1975618635294898,0.7244480066047903,0.3527869528956962,0.6695073246955872,0.6801603436470032,-0.2985667586326599,0,0,0,-1,-1,5507.172623791667,unknown,2,2022-06-30T10:01:00.107+02:00,2022-06-30T08:20:05.567+02:00,1511,1.425381,0,0,1194.663,0,0,2022-06-30T10:01:00.107+02:00
2022-06-30T10:01:00.975+02:00,5508.039155625001,0.7399444580078125,2.356491088867188,-0.6179962158203125,5508.029204625001,2.713519901766547,1.154501486934789,-0.7581437070832602,1.12973690032959,1.862952351570129,-1.436073660850525,-0.05309128761291504,0.9237231612205505,-0.3738277554512024,XArbitraryZVertical,-0.5612783485819404,-0.1953347782148064,0.7178189113638787,0.362694157283637,0.664098858833313,0.6875747442245483,-0.2936218678951263,0,0,0,-1,-1,5507.172623791667,unknown,2,2022-06-30T10:01:00.107+02:00,2022-06-30T08:20:05.567+02:00,1511,1.425381,0,0,1194.663,0,0,2022-06-30T10:01:00.107+02:00
2022-06-30T10:01:00.985+02:00,5508.049106625001,0.78363037109375,2.472427368164062,-0.5505218505859375,5508.039155625001,2.688723377366632,1.156704507714141,-0.7638153171061949,1.72557544708252,2.03218674659729,-1.022427439689636,-0.01466387510299683,1.342711687088013,-0.3552434742450714,XArbitraryZVertical,-0.5643762598786589,-0.1902293886277196,0.7114633638645207,0.3729776143122218,0.6611634492874146,0.6916819214820862,-0.2905844449996948,0,0,0,-1,-1,5507.172623791667,unknown,2,2022-06-30T10:01:00.107+02:00,2022-06-30T08:20:05.567+02:00,1511,1.425381,0,0,1194.663,0,0,2022-06-30T10:01:00.107+02:00
2022-06-30T10:01:00.995+02:00,5508.059058625,0.7683258056640625,2.438003540039062,-0.4652252197265625,5508.049106625001,2.658360329571568,1.156730177786218,-0.7626639476358784,2.374086141586304,2.205091714859009,-0.4938168823719025,0.07804489135742188,1.66564154624939,-0.3271082639694214,XArbitraryZVertical,-0.5672149099968429,-0.1811723862507665,0.705956026850347,0.3834970131134209,0.6618994474411011,0.6908499002456665,-0.2908876240253448,0,0,0,-1,-1,5507.172623791667,unknown,2,2022-06-30T10:01:00.107+02:00,2022-06-30T08:20:05.567+02:00,1511,1.425381,0,0,1194.663,0,0,2022-06-30T10:01:00.107+02:00
2022-06-30T10:01:01.004+02:00,5508.069009625,0.6284332275390625,2.354827880859375,-0.3641204833984375,5508.059058625,2.62391650791051,1.154878650853898,-0.7541401161079935,2.867688179016113,2.236021041870117,0.1054465398192406,0.1169079542160034,1.787765502929688,-0.2560402750968933,XArbitraryZVertical,-0.5695866518654126,-0.1683164692534477,0.7016057689271841,0.393687749948317,0.666722297668457,0.6846621632575989,-0.2944812178611755,0,0,0,-1,-1,5507.172623791667,unknown,2,2022-06-30T10:01:00.107+02:00,2022-06-30T08:20:05.567+02:00,1511,1.425381,0,0,1194.663,0,0,2022-06-30T10:01:00.107+02:00
2022-06-30T10:01:01.014+02:00,5508.078960625,0.50897216796875,2.33624267578125,-0.2515716552734375,5508.069009625,2.58690480892637,1.152006218979789,-0.7390321845217032,3.321722507476807,2.335948705673218,0.5276927947998047,0.0930783748626709,1.764430999755859,-0.1646574139595032,XArbitraryZVertical,-0.5714342048405904,-0.1522471547005718,0.6982931650533279,0.403324298484157,0.6752472519874573,0.6735728979110718,-0.3005675077438354,0,0,0,-1,-1,5507.172623791667,unknown,2,2022-06-30T10:01:00.107+02:00,2022-06-30T08:20:05.567+02:00,1511,1.425381,0,0,1194.663,0,0,2022-06-30T10:01:00.107+02:00
2022-06-30T10:01:01.024+02:00,5508.088912625,0.5505218505859375,2.34765625,-0.2249603271484375,5508.078960625,2.546487250735274,1.149397428981997,-0.7184481059919445,3.917359590530396,2.569791555404663,0.8047124147415161,-0.0585358738899231,1.696611046791077,-0.05618530511856079,XArbitraryZVertical,-0.5730331752769904,-0.132911813732616,0.6952248100891318,0.4130737932060704,0.686968982219696,0.6582171320915222,-0.3079348504543304,0,0,0,-1,-1,5507.172623791667,unknown,2,2022-06-30T10:01:00.107+02:00,2022-06-30T08:20:05.567+02:00,1511,1.425381,0,0,1194.663,0,0,2022-06-30T10:01:00.107+02:00
2022-06-30T10:01:01.034+02:00,5508.098863625,0.6901702880859375,2.35546875,-0.1999359130859375,5508.088912625,2.499879950655185,1.145466149262889,-0.6922794475788956,4.772510051727295,2.722916126251221,1.096812725067139,-0.1922345161437988,1.697949409484863,0.06606185436248779,XArbitraryZVertical,-0.573695972110048,-0.1098012536954527,0.692244690506273,0.4238088602263962,0.7012065052986145,0.6382935643196106,-0.3176332414150238,0,0,0,-1,-1,5507.172623791667,unknown,2,2022-06-30T10:01:00.107+02:00,2022-06-30T08:20:05.567+02:00,1511,1.425381,0,0,1194.663,0,0,2022-06-30T10:01:00.107+02:00
2022-06-30T10:01:01.044+02:00,5508.108814625,0.71978759765625,2.291015625,-0.0883941650390625,5508.098863625,2.445746958004356,1.139284750529356,-0.6585509926819864,5.792917728424072,2.845199823379517,1.585466265678406,-0.1678618192672729,1.735685110092163,0.105820894241333,XArbitraryZVertical,-0.5726159904320577,-0.0819782430767835,0.6896490313857523,0.4356314534204444,0.7183835506439209,0.6119714975357056,-0.3307809829711914,0,0,0,-1,-1,5507.172623791667,unknown,2,2022-06-30T10:01:00.107+02:00,2022-06-30T08:20:05.567+02:00,1511,1.425381,0,0,1194.663,0,0,2022-06-30T10:01:00.107+02:00
2022-06-30T10:01:01.054+02:00,5508.118766625001,0.614501953125,2.148681640625,0.1169891357421875,5508.108814625,2.384478979109923,1.131267892138893,-0.615405272853656,6.780884742736816,2.865251302719116,2.095328569412231,-0.0487593412399292,1.77817964553833,0.1475123465061188,XArbitraryZVertical,-0.5691155819771578,-0.04882055155549254,0.6876384972638809,0.4481934124994776,0.7389294505119324,0.5772894620895386,-0.3474480211734772,0,0,0,-1,-1,5507.172623791667,unknown,2,2022-06-30T10:01:00.107+02:00,2022-06-30T08:20:05.567+02:00,1511,1.425381,0,0,1194.663,0,0,2022-06-30T10:01:00.107+02:00
2022-06-30T10:01:01.064+02:00,5508.128717625001,0.504058837890625,1.896697998046875,0.2275848388671875,5508.118766625001,2.319470304706785,1.123427080120613,-0.5645613723274991,7.354286670684814,2.849112510681152,2.466737747192383,-0.04189544916152954,1.75597071647644,0.2770725786685944,XArbitraryZVertical,-0.5631428500792434,-0.01169891784299018,0.6858514765274396,0.4608048067730711,0.7616828680038452,0.535045325756073,-0.3654665350914001,0,0,0,-1,-1,5507.172623791667,unknown,2,2022-06-30T10:01:00.107+02:00,2022-06-30T08:20:05.567+02:00,1511,1.425381,0,0,1194.663,0,0,2022-06-30T10:01:00.107+02:00
2022-06-30T10:01:01.074+02:00,5508.138668625001,0.475006103515625,1.648391723632812,0.3333282470703125,5508.128717625001,2.254589355031702,1.119038487440849,-0.5092678310276717,7.50720739364624,2.963554382324219,2.656338930130005,-0.1710113286972046,1.661143898963928,0.4981398582458496,XArbitraryZVertical,-0.5555749986864126,0.02758873529916345,0.6834633552326651,0.4727083652720849,0.785513162612915,0.4875381290912628,-0.3811505734920502,0,0,0,-1,-1,5507.172623791667,unknown,2,2022-06-30T10:01:00.107+02:00,2022-06-30T08:20:05.567+02:00,1511,1.425381,0,0,1194.663,0,0,2022-06-30T10:01:00.107+02:00
2022-06-30T10:01:01.084+02:00,5508.148620625,0.488311767578125,1.43939208984375,0.281494140625,5508.138668625001,2.193260475542893,1.120944831204968,-0.4531341414757832,7.1941819190979,3.144177198410034,2.730695962905884,-0.3055728673934937,1.45891284942627,0.6185333132743835,XArbitraryZVertical,-0.5477263723924214,0.06724313218321218,0.6797757077755079,0.483093424037815,0.8096315860748291,0.4377855360507965,-0.3909483551979065,0,0,0,-1,-1,5507.172623791667,unknown,2,2022-06-30T10:01:00.107+02:00,2022-06-30T08:20:05.567+02:00,1511,1.425381,0,0,1194.663,0,0,2022-06-30T10:01:00.107+02:00
2022-06-30T10:01:01.094+02:00,5508.158571625,0.5016326904296875,1.396530151367188,0.308868408203125,5508.148620625,2.137020316733095,1.130066179481147,-0.3983933055536844,6.861237525939941,3.367995500564575,2.766125917434692,-0.3586036562919617,1.260454177856445,0.7265193462371826,XArbitraryZVertical,-0.5404870952023342,0.1061989333163027,0.6746053626395651,0.4914296023765967,0.8336095809936523,0.3879379630088806,-0.3931909799575806,0,0,0,-1,-1,5507.172623791667,unknown,2,2022-06-30T10:01:00.107+02:00,2022-06-30T08:20:05.567+02:00,1511,1.425381,0,0,1194.663,0,0,2022-06-30T10:01:00.107+02:00
2022-06-30T10:01:01.104+02:00,5508.168522625,0.484344482421875,1.450515747070312,0.4019775390625,5508.158571625,2.084132786343468,1.145067131458131,-0.344882773391416,6.662388324737549,3.505425930023193,2.85517954826355,-0.3687974810600281,1.101306200027466,0.6701606512069702,XArbitraryZVertical,-0.5335993522841033,0.1447014695865926,0.6680989215179167,0.4979730064433432,0.8571091294288635,0.3380863666534424,-0.3886664211750031,0,0,0,-1,-1,5507.172623791667,unknown,2,2022-06-30T10:01:00.107+02:00,2022-06-30T08:20:05.567+02:00,1511,1.425381,0,0,1194.663,0,0,2022-06-30T10:01:00.107+02:00
2022-06-30T10:01:01.114+02:00,5508.178474625,0.482177734375,1.419052124023438,0.4724273681640625,5508.168522625,2.032865452165313,1.164197037737995,-0.2917186035941805,6.624606132507324,3.575630664825439,2.96489429473877,-0.3780340552330017,1.10893189907074,0.6876476407051086,XArbitraryZVertical,-0.5263858797213555,0.1831073989964153,0.6606066552998433,0.5029794648675455,0.8796665668487549,0.2875986397266388,-0.3787791728973389,0,0,0,-1,-1,5507.172623791667,unknown,2,2022-06-30T10:01:00.107+02:00,2022-06-30T08:20:05.567+02:00,1511,1.425381,0,0,1194.663,0,0,2022-06-30T10:01:00.107+02:00
2022-06-30T10:01:01.124+02:00,5508.188425625,0.500579833984375,1.283905029296875,0.5435028076171875,5508.178474625,1.981390875845347,1.1866620950952,-0.2384289092786357,6.729257106781006,3.658886909484863,3.072102069854736,-0.4165507555007935,1.214339971542358,0.7661323547363281,XArbitraryZVertical,-0.5183837478585398,0.2218126880941845,0.6520809620722317,0.5068213826984819,0.9008951783180237,0.2361762672662735,-0.3641548454761505,0,0,0,-1,-1,5507.172623791667,unknown,2,2022-06-30T10:01:00.107+02:00,2022-06-30T08:20:05.567+02:00,1511,1.425381,0,0,1194.663,0,0,2022-06-30T10:01:00.107+02:00
2022-06-30T10:01:01.134+02:00,5508.198376625,0.5001068115234375,1.160293579101562,0.543853759765625,5508.188425625,1.928347814349683,1.212098471186457,-0.185148718862993,6.851267337799072,3.688191175460815,3.125330448150635,-0.4381738305091858,1.234959840774536,0.8174827098846436,XArbitraryZVertical,-0.5093024920514859,0.260927740073687,0.6423480619379882,0.5098203690772213,0.920351505279541,0.184092715382576,-0.3450553715229034,0,0,0,-1,-1,5507.172623791667,unknown,2,2022-06-30T10:01:00.107+02:00,2022-06-30T08:20:05.567+02:00,1511,1.425381,0,0,1194.663,0,0,2022-06-30T10:01:00.107+02:00
2022-06-30T10:01:01.145+02:00,5508.208328625,0.4167022705078125,1.06982421875,0.5158538818359375,5508.198376625,1.874015820367499,1.23966319869413,-0.1326119184737791,6.861456871032715,3.588075637817383,3.171463012695312,-0.436791718006134,1.151681900024414,0.8657630681991577,XArbitraryZVertical,-0.4989917662919594,0.2997950706891442,0.6316593656000109,0.5119927212763317,0.9373714327812195,0.1322235763072968,-0.3222602605819702,0,0,0,-1,-1,5507.172623791667,unknown,2,2022-06-30T10:01:00.107+02:00,2022-06-30T08:20:05.567+02:00,1511,1.425381,0,0,1194.663,0,0,2022-06-30T10:01:00.107+02:00
2022-06-30T10:01:01.154+02:00,5508.218279625,0.2938690185546875,1.033737182617188,0.4462432861328125,5508.208328625,1.819020578414533,1.269274280796087,-0.08125994877420804,6.791390419006348,3.576340675354004,3.22577977180481,-0.4516279697418213,1.079123377799988,0.8398476839065552,XArbitraryZVertical,-0.4876089096174573,0.3379949002813546,0.6202207067764617,0.5131504073264751,0.951734721660614,0.08117055147886276,-0.295993983745575,0,0,0,-1,-1,5507.172623791667,unknown,2,2022-06-30T10:01:00.107+02:00,2022-06-30T08:20:05.567+02:00,1511,1.425381,0,0,1194.663,0,0,2022-06-30T10:01:00.107+02:00
2022-06-30T10:01:01.164+02:00,5508.228230625,0.238250732421875,1.078750610351562,0.47821044921875,5508.218279625,1.763184001996893,1.302044363923,-0.03135212852831135,6.807519912719727,3.652670383453369,3.249797582626343,-0.5469270348548889,1.038477659225464,0.7812516689300537,XArbitraryZVertical,-0.4755537624729453,0.3756989007962721,0.6077854585132823,0.5131235292052685,0.9636291861534119,0.03134699165821075,-0.2653979063034058,0,0,0,-1,-1,5507.172623791667,unknown,2,2022-06-30T10:01:00.107+02:00,2022-06-30T08:20:05.567+02:00,1511,1.425381,0,0,1194.663,0,0,2022-06-30T10:01:00.107+02:00
2022-06-30T10:01:01.174+02:00,5508.238182625,0.2382049560546875,1.082809448242188,0.5067596435546875,5508.228230625,1.705165153529535,1.338244063766153,0.01699131147465337,6.89430046081543,3.723830223083496,3.282843589782715,-0.6790719032287598,1.05072808265686,0.6766717433929443,XArbitraryZVertical,-0.4626712949812102,0.4131839499853677,0.5940606391873547,0.5121585822303949,0.9729410409927368,-0.01699049398303032,-0.2304285913705826,0,0,0,-1,-1,5507.172623791667,unknown,2,2022-06-30T10:01:00.107+02:00,2022-06-30T08:20:05.567+02:00,1511,1.425381,0,0,1194.663,0,0,2022-06-30T10:01:00.107+02:00
2022-06-30T10:01:01.184+02:00,5508.248133625,0.2397918701171875,0.9932861328125,0.5417022705078125,5508.238182625,1.644340824552935,1.377859028628085,0.06396710913857835,7.049383640289307,3.758404016494751,3.370498657226562,-0.7411873340606689,1.142674446105957,0.6695606708526611,XArbitraryZVertical,-0.4486983426372113,0.4505492332555172,0.5790801062024743,0.5102366751268775,0.9794380664825439,-0.06392349302768707,-0.1913503706455231,0,0,0,-1,-1,5507.172623791667,unknown,2,2022-06-30T10:01:00.107+02:00,2022-06-30T08:20:05.567+02:00,1511,1.425381,0,0,1194.663,0,0,2022-06-30T10:01:00.107+02:00
2022-06-30T10:01:01.194+02:00,5508.258084625,0.2098846435546875,0.91119384765625,0.59716796875,5508.248133625,1.580194117586484,1.420576896085021,0.1091288369104251,7.133963108062744,3.728461980819702,3.388638496398926,-0.7446516156196594,1.19172215461731,0.6555243134498596,XArbitraryZVertical,-0.4334424029222447,0.4875912707091992,0.5628486108468077,0.5075273835328722,0.9828567504882812,-0.1089123636484146,-0.1487648785114288,0,0,0,-1,-1,5507.172623791667,unknown,2,2022-06-30T10:01:00.107+02:00,2022-06-30T08:20:05.567+02:00,1511,1.425381,0,0,1194.663,0,0,2022-06-30T10:01:00.107+02:00
2022-06-30T10:01:01.204+02:00,5508.268036625001,0.117584228515625,0.8305511474609375,0.6590576171875,5508.258084625,1.514294768941157,1.465738668836943,0.1516262516570315,6.966979026794434,3.674113750457764,3.415684461593628,-0.7432847023010254,1.144332408905029,0.645363450050354,XArbitraryZVertical,-0.4172718844015887,0.523501174989179,0.5458684601597862,0.5038437185981127,0.9830766916275024,-0.1510459184646606,-0.1036613881587982,0,0,0,-1,-1,5507.172623791667,unknown,2,2022-06-30T10:01:00.107+02:00,2022-06-30T08:20:05.567+02:00,1511,1.425381,0,0,1194.663,0,0,2022-06-30T10:01:00.107+02:00
2022-06-30T10:01:01.213+02:00,5508.277987625001,0.0555572509765625,0.8135986328125,0.7186279296875,5508.268036625001,1.448321724916298,1.513350482790464,0.1906006544959598,6.693314552307129,3.69551944732666,3.333345890045166,-0.770386278629303,1.100642919540405,0.6535422205924988,XArbitraryZVertical,-0.400925194255017,0.5577380487621549,0.5284703091926964,0.4989051545737652,0.9802709221839905,-0.1894486993551254,-0.05637451633810997,0,0,0,-1,-1,5507.172623791667,unknown,2,2022-06-30T10:01:00.107+02:00,2022-06-30T08:20:05.567+02:00,1511,1.425381,0,0,1194.663,0,0,2022-06-30T10:01:00.107+02:00
2022-06-30T10:01:01.223+02:00,5508.287938625001,0.0258331298828125,0.8735809326171875,0.7744903564453125,5508.277987625001,1.382551190957203,1.563022799780556,0.2247557563980516,6.523750305175781,3.720227003097534,3.150782585144043,-0.8572348356246948,1.053419709205627,0.666635274887085,XArbitraryZVertical,-0.3848778010107783,0.5899831444475401,0.5105436130382028,0.4930863551280769,0.9748190641403198,-0.2228682637214661,-0.007577935233712196,0,0,0,-1,-1,5507.172623791667,unknown,2,2022-06-30T10:01:00.107+02:00,2022-06-30T08:20:05.567+02:00,1511,1.425381,0,0,1194.663,0,0,2022-06-30T10:01:00.107+02:00
2022-06-30T10:01:01.233+02:00,5508.297890625,-0.00860595703125,0.9111785888671875,0.80804443359375,5508.287938625001,1.31578302409392,1.615044202477701,0.2538053780963553,6.464513778686523,3.740410089492798,2.995437860488892,-0.91145920753479,1.064688205718994,0.6758112907409668,XArbitraryZVertical,-0.3690359035996975,0.6206614933255443,0.4916543895581506,0.4866906642334951,0.9670165777206421,-0.2510892450809479,0.04281637445092201,0,0,0,-1,-1,5507.172623791667,unknown,2,2022-06-30T10:01:00.107+02:00,2022-06-30T08:20:05.567+02:00,1511,1.425381,0,0,1194.663,0,0,2022-06-30T10:01:00.107+02:00
2022-06-30T10:01:01.243+02:00,5508.307841625,-0.0367584228515625,0.8372344970703125,0.836090087890625,5508.297890625,1.247088772601183,1.670015371861094,0.2782514625883371,6.486340999603271,3.722807168960571,2.873144149780273,-0.9309749603271484,1.148256063461304,0.6792436838150024,XArbitraryZVertical,-0.3531149525819064,0.6503329928199179,0.4715773179886216,0.4795744120451788,0.9568081498146057,-0.2746747732162476,0.09524634480476379,0,0,0,-1,-1,5507.172623791667,unknown,2,2022-06-30T10:01:00.107+02:00,2022-06-30T08:20:05.567+02:00,1511,1.425381,0,0,1194.663,0,0,2022-06-30T10:01:00.107+02:00
2022-06-30T10:01:01.253+02:00,5508.317792625,-0.08428955078125,0.7173004150390625,0.8846893310546875,5508.307841625,1.177137958765356,1.726405178238319,0.2979610823277722,6.358094692230225,3.640315055847168,2.786316156387329,-0.9529926180839539,1.204750537872314,0.6598914861679077,XArbitraryZVertical,-0.3369706830582423,0.6786214633642907,0.4506846004223561,0.4720243641482229,0.9443867206573486,-0.2935717403888702,0.1481526643037796,0,0,0,-1,-1,5507.172623791667,unknown,2,2022-06-30T10:01:00.107+02:00,2022-06-30T08:20:05.567+02:00,1511,1.425381,0,0,1194.663,0,0,2022-06-30T10:01:00.107+02:00
2022-06-30T10:01:01.263+02:00,5508.327744625,-0.1576080322265625,0.6585540771484375,0.9531402587890625,5508.317792625,1.108097106207979,1.78293107810976,0.3135482111738159,6.066081523895264,3.565816164016724,2.702055692672729,-0.9666800498962402,1.145670533180237,0.6358077526092529,XArbitraryZVertical,-0.3208899256607606,0.7051033235833688,0.4298003228464709,0.4638217949107392,0.9299217462539673,-0.3084357976913452,0.2002820819616318,0,0,0,-1,-1,5507.172623791667,unknown,2,2022-06-30T10:01:00.107+02:00,2022-06-30T08:20:05.567+02:00,1511,1.425381,0,0,1194.663,0,0,2022-06-30T10:01:00.107+02:00
2022-06-30T10:01:01.273+02:00,5508.337695625,-0.1332550048828125,0.653961181640625,0.9944610595703125,5508.327744625,1.041872806286097,1.839062137963092,0.3251352350119764,5.660914421081543,3.549990177154541,2.572068452835083,-0.9980029463768005,1.036737561225891,0.6335164308547974,XArbitraryZVertical,-0.3055051975762741,0.7295566099028329,0.4093692433787024,0.4547862663322202,0.9137135148048401,-0.3194369375705719,0.2511725425720215,0,0,0,-1,-1,5507.172623791667,unknown,2,2022-06-30T10:01:00.107+02:00,2022-06-30T08:20:05.567+02:00,1511,1.425381,0,0,1194.663,0,0,2022-06-30T10:01:00.107+02:00
2022-06-30T10:01:01.283+02:00,5508.347647625001,-0.109405517578125,0.6985931396484375,1.047225952148438,5508.337695625,0.9788658847620932,1.894278697761375,0.3331477111419198,5.366891384124756,3.452094554901123,2.470123529434204,-1.053611516952515,0.9855734705924988,0.6527469158172607,XArbitraryZVertical,-0.2908781226145374,0.7520548210230616,0.3895470970794431,0.4450356325185172,0.8960038423538208,-0.3270192742347717,0.3003930747509003,0,0,0,-1,-1,5507.172623791667,unknown,2,2022-06-30T10:01:00.107+02:00,2022-06-30T08:20:05.567+02:00,1511,1.425381,0,0,1194.663,0,0,2022-06-30T10:01:00.107+02:00
2022-06-30T10:01:01.293+02:00,5508.357598625001,-0.095947265625,0.6926422119140625,1.069107055664062,5508.347647625001,0.9176035433473229,1.94794994042978,0.3375208781008845,5.303686141967773,3.288363933563232,2.345094680786133,-1.010515451431274,0.9851101636886597,0.6469637155532837,XArbitraryZVertical,-0.2764744677061293,0.7728585541486821,0.3699239482011478,0.4352100060356901,0.8772606253623962,-0.3311488628387451,0.3474969565868378,0,0,0,-1,-1,5507.172623791667,unknown,2,2022-06-30T10:01:00.107+02:00,2022-06-30T08:20:05.567+02:00,1511,1.425381,0,0,1194.663,0,0,2022-06-30T10:01:00.107+02:00
2022-06-30T10:01:01.303+02:00,5508.367549625001,-0.070098876953125,0.6046295166015625,1.088485717773438,5508.357598625001,0.8558873853759894,2.000103027800981,0.3373100701985064,5.49791145324707,3.080294609069824,2.221426963806152,-0.9674218893051147,1.029543161392212,0.6544408798217773,XArbitraryZVertical,-0.2617596262529287,0.7923851667370114,0.3495399787548492,0.4259454505388246,0.8580166101455688,-0.3309499323368073,0.3927847146987915,0,0,0,-1,-1,5507.172623791667,unknown,2,2022-06-30T10:01:00.107+02:00,2022-06-30T08:20:05.567+02:00,1511,1.425381,0,0,1194.663,0,0,2022-06-30T10:01:00.107+02:00
2022-06-30T10:01:01.313+02:00,5508.377501625,-0.0777740478515625,0.4054718017578125,1.123016357421875,5508.367549625001,0.7929337827002331,2.050037625285309,0.3323474554104522,5.657511234283447,2.807760238647461,2.135328531265259,-0.9347357153892517,1.018905282020569,0.6332327723503113,XArbitraryZVertical,-0.2463137344462231,0.8107197318680808,0.3281018951735323,0.4176268036315687,0.8387885689735413,-0.3262629210948944,0.4358738660812378,0,0,0,-1,-1,5507.172623791667,unknown,2,2022-06-30T10:01:00.107+02:00,2022-06-30T08:20:05.567+02:00,1511,1.425381,0,0,1194.663,0,0,2022-06-30T10:01:00.107+02:00
2022-06-30T10:01:01.323+02:00,5508.387452625,-0.0719451904296875,0.2758331298828125,1.172607421875,5508.377501625,0.7303399021130804,2.097114675118532,0.3234513855540594,5.606671810150146,2.612716436386108,2.032134294509888,-0.8899231553077698,0.9224705100059509,0.6121820211410522,XArbitraryZVertical,-0.2304433876960418,0.8276759562952444,0.3061649686908415,0.4100137357489638,0.8198243975639343,-0.3178408443927765,0.4763032793998718,0,0,0,-1,-1,5507.172623791667,unknown,2,2022-06-30T10:01:00.107+02:00,2022-06-30T08:20:05.567+02:00,1511,1.425381,0,0,1194.663,0,0,2022-06-30T10:01:00.107+02:00
2022-06-30T10:01:01.333+02:00,5508.397403625,-0.039581298828125,0.26812744140625,1.235031127929688,5508.387452625,0.6703899710088594,2.141118982338781,0.311538611260102,5.396249294281006,2.472685813903809,1.893876791000366,-0.8789825439453125,0.7119953632354736,0.6091017127037048,XArbitraryZVertical,-0.214882366776729,0.8430793319651156,0.2844211631290514,0.4026753453018285,0.8012087345123291,-0.3065235316753387,0.5139144062995911,0,0,0,-1,-1,5507.172623791667,unknown,2,2022-06-30T10:01:00.107+02:00,2022-06-30T08:20:05.567+02:00,1511,1.425381,0,0,1194.663,0,0,2022-06-30T10:01:00.107+02:00
2022-06-30T10:01:01.343+02:00,5508.407355625,-0.0062103271484375,0.29095458984375,1.313125610351562,5508.397403625,0.6142774719381859,2.181694704783293,0.2974100465107153,5.130834102630615,2.3056480884552,1.737454175949097,-0.8551169037818909,0.5688781142234802,0.6241854429244995,XArbitraryZVertical,-0.20000691831587,0.8568593844631796,0.2633250012229283,0.3955364570757953,0.7831718921661377,-0.2930449545383453,0.5484215617179871,0,0,0,-1,-1,5507.172623791667,unknown,2,2022-06-30T10:01:00.107+02:00,2022-06-30T08:20:05.567+02:00,1511,1.425381,0,0,1194.663,0,0,2022-06-30T10:01:00.107+02:00
2022-06-30T10:01:01.353+02:00,5508.417306625,0.00445556640625,0.3190460205078125,1.42059326171875,5508.407355625,0.5618923249137441,2.218701730164735,0.2810441923081585,4.973738193511963,2.12030553817749,1.544429302215576,-0.8056477904319763,0.5454863905906677,0.6551913619041443,XArbitraryZVertical,-0.1859026842245783,0.8691144700714561,0.2427275852346897,0.3887977449363354,0.7660669088363647,-0.2773590385913849,0.5798395276069641,0,0,0,-1,-1,5507.172623791667,unknown,2,2022-06-30T10:01:00.107+02:00,2022-06-30T08:20:05.567+02:00,1511,1.425381,0,0,1194.663,0,0,2022-06-30T10:01:00.107+02:00
2022-06-30T10:01:01.363+02:00,5508.427257625,0.0359954833984375,0.2896881103515625,1.590805053710938,5508.417306625,0.5126182725678688,2.251850470923018,0.2620530816581144,4.894086837768555,1.885247826576233,1.31868577003479,-0.7565960288047791,0.5500186681747437,0.7050078511238098,XArbitraryZVertical,-0.1724869526017301,0.8799471600326878,0.2222440119187116,0.3828170363930222,0.7503859400749207,-0.2590640783309937,0.6081175208091736,0,0,0,-1,-1,5507.172623791667,unknown,2,2022-06-30T10:01:00.107+02:00,2022-06-30T08:20:05.567+02:00,1511,1.425381,0,0,1194.663,0,0,2022-06-30T10:01:00.107+02:00
2022-06-30T10:01:01.373+02:00,5508.437209625,0.1290283203125,0.1968841552734375,1.754653930664062,5508.427257625,0.4668846131984212,2.280861037636166,0.2403159603745534,4.730382442474365,1.662440776824951,1.046642780303955,-0.7320718765258789,0.5570554733276367,0.7874433398246765,XArbitraryZVertical,-0.1600646460319703,0.8893559949462178,0.2017985666281098,0.377759905560383,0.736527681350708,-0.238009512424469,0.6331495642662048,0,0,0,-1,-1,5507.172623791667,unknown,2,2022-06-30T10:01:00.107+02:00,2022-06-30T08:20:05.567+02:00,1511,1.425381,0,0,1194.663,0,0,2022-06-30T10:01:00.107+02:00
2022-06-30T10:01:01.383+02:00,5508.447160625,0.1888275146484375,0.108978271484375,1.921127319335938,5508.437209625,0.4252152422900283,2.30563913003758,0.2171653339588517,4.443559169769287,1.418246746063232,0.8595618009567261,-0.6885139346122742,0.5051504373550415,0.936082124710083,XArbitraryZVertical,-0.1487104031054184,0.8973552873964937,0.1819570554103368,0.3735375687574358,0.7245096564292908,-0.215462401509285,0.6547225713729858,0,0,0,-1,-1,5507.172623791667,unknown,2,2022-06-30T10:01:00.107+02:00,2022-06-30T08:20:05.567+02:00,1511,1.425381,0,0,1194.663,0,0,2022-06-30T10:01:00.107+02:00
2022-06-30T10:01:01.393+02:00,5508.457111625,0.2682952880859375,0.1132049560546875,2.1378173828125,5508.447160625,0.3883296333921585,2.326255815239252,0.194179076974907,3.992011547088623,1.220540523529053,0.6626037359237671,-0.5852470993995667,0.3898451328277588,1.081915736198425,XArbitraryZVertical,-0.138589981976533,0.9039700283711106,0.1634580677328574,0.3700169436781361,0.7142757773399353,-0.192961111664772,0.6727380156517029,0,0,0,-1,-1,5507.172623791667,unknown,2,2022-06-30T10:01:00.107+02:00,2022-06-30T08:20:05.567+02:00,1511,1.425381,0,0,1194.663,0,0,2022-06-30T10:01:00.107+02:00
2022-06-30T10:01:01.402+02:00,5508.467063625,0.3980865478515625,0.1535797119140625,2.364990234375,5508.457111625,0.3575647092055374,2.343329222335874,0.173185956195151,3.307568311691284,1.096612334251404,0.5010102987289429,-0.5166044235229492,0.2812996506690979,1.233616590499878,XArbitraryZVertical,-0.1301658758613284,0.909292115198464,0.1472665066962589,0.3668205322213808,0.7054321765899658,-0.1723215132951736,0.68751060962677,0,0,0,-1,-1,5507.172623791667,unknown,2,2022-06-30T10:01:00.107+02:00,2022-06-30T08:20:05.567+02:00,1511,1.425381,0,0,1194.663,0,0,2022-06-30T10:01:00.107+02:00
2022-06-30T10:01:01.412+02:00,5508.477014625,0.5596771240234375,0.1888427734375,2.598526000976562,5508.467063625,0.3335057069545177,2.358010996933597,0.1556428435982528,2.555163145065308,1.075867176055908,0.3497626483440399,-0.4289936423301697,0.2682200074195862,1.437989950180054,XArbitraryZVertical,-0.1236659874982207,0.9135756058583405,0.1340424960637237,0.363481935036188,0.6972894668579102,-0.1550152003765106,0.6998273134231567,0,0,0,-1,-1,5507.172623791667,unknown,2,2022-06-30T10:01:00.107+02:00,2022-06-30T08:20:05.567+02:00,1511,1.425381,0,0,1194.663,0,0,2022-06-30T10:01:00.107+02:00
2022-06-30T10:01:01.422+02:00,5508.486965625,0.6776275634765625,0.2122039794921875,2.867523193359375,5508.477014625,0.3158918897864729,2.371414671820633,0.1418247937672682,1.888116717338562,1.10244607925415,0.1961163580417633,-0.2911855578422546,0.2949293851852417,1.654409885406494,XArbitraryZVertical,-0.119120514219438,0.917115248427257,0.1237828991970666,0.3597052445946097,0.6892725229263306,-0.1413498222827911,0.7105801701545715,0,0,0,-1,-1,5507.172623791667,unknown,2,2022-06-30T10:01:00.107+02:00,2022-06-30T08:20:05.567+02:00,1511,1.425381,0,0,1194.663,0,0,2022-06-30T10:01:00.107+02:00
2022-06-30T10:01:01.432+02:00,5508.496918291667,0.8046875,0.1760406494140625,3.152679443359375,5508.486965625,0.3041428375329893,2.384172044863094,0.1315065635238157,1.204832077026367,1.14478325843811,0.05767339840531349,-0.1214398145675659,0.3199704885482788,1.878189086914062,XArbitraryZVertical,-0.1164352526602248,0.9201147621373564,0.1162323175627282,0.355417687706347,0.6811171770095825,-0.1311278492212296,0.7203366756439209,0,0,0,-1,-1,5507.172623791667,unknown,2,2022-06-30T10:01:00.107+02:00,2022-06-30T08:20:05.567+02:00,1511,1.425381,0,0,1194.663,0,0,2022-06-30T10:01:00.107+02:00
