loggingTime(txt),accelerometerTimestamp_sinceReboot(s),accelerometerAccelerationX(G),accelerometerAccelerationY(G),accelerometerAccelerationZ(G),motionTimestamp_sinceReboot(s),motionYaw(rad),motionRoll(rad),motionPitch(rad),motionRotationRateX(rad/s),motionRotationRateY(rad/s),motionRotationRateZ(rad/s),motionUserAccelerationX(G),motionUserAccelerationY(G),motionUserAccelerationZ(G),motionAttitudeReferenceFrame(txt),motionQuaternionX(R),motionQuaternionY(R),motionQuaternionZ(R),motionQuaternionW(R),motionGravityX(G),motionGravityY(G),motionGravityZ(G),motionMagneticFieldX(µT),motionMagneticFieldY(µT),motionMagneticFieldZ(µT),motionHeading(°),motionMagneticFieldCalibrationAccuracy(Z),activityTimestamp_sinceReboot(s),activity(txt),activityActivityConfidence(Z),activityActivityStartDate(txt),pedometerStartDate(txt),pedometerNumberofSteps(N),pedometerAverageActivePace(s/m),pedometerCurrentPace(s/m),pedometerCurrentCadence(steps/s),pedometerDistance(m),pedometerFloorAscended(N),pedometerFloorDescended(N),pedometerEndDate(txt)
2022-06-30T10:01:09.775+02:00,5516.826194166667,0.074859619140625,-0.2153167724609375,-0.8621826171875,5516.816243166667,2.495310737873845,-0.06475837499688175,0.08114781240456558,0.1696063578128815,0.1042942032217979,-0.007831742987036705,0.08390948921442032,-0.01050879806280136,0.04721713066101074,XArbitraryZVertical,0.04354651329478329,0.02817154969190497,0.9465487202962986,0.3183641091036122,-0.06450017541646957,-0.08105878531932831,-0.994620144367218,0,0,0,-1,-1,5514.807892000001,unknown,2,2022-06-30T10:01:07.742+02:00,2022-06-30T08:20:05.567+02:00,1511,1.425381,0,0,1194.663,0,0,2022-06-30T10:01:07.742+02:00
2022-06-30T10:01:09.776+02:00,5516.836145166667,0.0404815673828125,-0.22747802734375,-0.8779144287109375,5516.826194166667,2.495077577663527,-0.06357787355448088,0.08240266887521489,0.02478086389601231,0.07907389104366302,-0.0477876141667366,0.134547621011734,-0.1199606508016586,0.08045446872711182,XArbitraryZVertical,0.04318937729257669,0.02894883958509176,0.9465065097124385,0.3184685323757103,-0.06331946700811386,-0.08230944722890854,-0.9945932626724243,0,0,0,-1,-1,5514.807892000001,unknown,2,2022-06-30T10:01:07.742+02:00,2022-06-30T08:20:05.567+02:00,1511,1.425381,0,0,1194.663,0,0,2022-06-30T10:01:07.742+02:00
2022-06-30T10:01:09.781+02:00,5516.846097166667,0.0200042724609375,-0.1975860595703125,-0.900604248046875,5516.836145166667,2.494397990255275,-0.06259138197349558,0.08230097773698837,-0.0511903315782547,0.07500031590461731,-0.07823286950588226,0.1371985524892807,-0.1331082582473755,0.1324809789657593,XArbitraryZVertical,0.0427163159557613,0.02904323951774754,0.9464218997574184,0.3187749514123643,-0.06233879923820496,-0.08220809698104858,-0.9946635961532593,0,0,0,-1,-1,5514.807892000001,unknown,2,2022-06-30T10:01:07.742+02:00,2022-06-30T08:20:05.567+02:00,1511,1.425381,0,0,1194.663,0,0,2022-06-30T10:01:07.742+02:00
2022-06-30T10:01:09.791+02:00,5516.856048166667,0.0118408203125,-0.15740966796875,-0.939361572265625,5516.846097166667,2.49360376176773,-0.06169683153993352,0.08158278195076056,-0.08441945910453796,0.0515909306704998,-0.06427467614412308,0.1019343212246895,-0.1459853053092957,0.1168631911277771,XArbitraryZVertical,0.04219084592254254,0.02882890569273191,0.9463317414214143,0.3191319741853194,-0.06145262345671654,-0.08149231225252151,-0.9947776794433594,0,0,0,-1,-1,5514.807892000001,unknown,2,2022-06-30T10:01:07.742+02:00,2022-06-30T08:20:05.567+02:00,1511,1.425381,0,0,1194.663,0,0,2022-06-30T10:01:07.742+02:00
2022-06-30T10:01:09.801+02:00,5516.865999166667,0.0263824462890625,-0.1330718994140625,-0.9755096435546875,5516.856048166667,2.493012450298683,-0.06092017338361652,0.08085855377270772,-0.05007586628198624,0.04105839505791664,-0.04157682508230209,0.0806879848241806,-0.1168151721358299,0.09427946805953979,XArbitraryZVertical,0.04171710353678421,0.02859752532596705,0.9462710968914297,0.3193947649771157,-0.06068357825279236,-0.08077047020196915,-0.9948837161064148,0,0,0,-1,-1,5514.807892000001,unknown,2,2022-06-30T10:01:07.742+02:00,2022-06-30T08:20:05.567+02:00,1511,1.425381,0,0,1194.663,0,0,2022-06-30T10:01:07.742+02:00
2022-06-30T10:01:09.811+02:00,5516.875951166667,0.0383148193359375,-0.12225341796875,-0.99951171875,5516.865999166667,2.492616001807292,-0.06020225960768982,0.08054247083098677,0.01403687335550785,0.03153951838612556,-0.0359400101006031,0.07181181013584137,-0.07695383578538895,0.05559086799621582,XArbitraryZVertical,0.04133298078858663,0.02855430780906737,0.9462301904130835,0.3195695217181903,-0.05997085571289062,-0.08045541495084763,-0.9949524998664856,0,0,0,-1,-1,5514.807892000001,unknown,2,2022-06-30T10:01:07.742+02:00,2022-06-30T08:20:05.567+02:00,1511,1.425381,0,0,1194.663,0,0,2022-06-30T10:01:07.742+02:00
2022-06-30T10:01:09.821+02:00,5516.885902166667,0.0355072021484375,-0.127349853515625,-1.013351440429688,5516.875951166667,2.492163669630608,-0.05961913196487831,0.08087759610012439,0.058741495013237,0.02773758955299854,-0.0549432635307312,0.08577163517475128,-0.05228202790021896,0.01945066452026367,XArbitraryZVertical,0.04111677079387512,0.0287968646068402,0.9461619220916555,0.3197777735437063,-0.05938905104994774,-0.08078945428133011,-0.9949603080749512,0,0,0,-1,-1,5514.807892000001,unknown,2,2022-06-30T10:01:07.742+02:00,2022-06-30T08:20:05.567+02:00,1511,1.425381,0,0,1194.663,0,0,2022-06-30T10:01:07.742+02:00
2022-06-30T10:01:09.831+02:00,5516.895853166667,0.026336669921875,-0.1343841552734375,-1.009552001953125,5516.885902166667,2.491573208934355,-0.05896721824720146,0.08153834839718893,0.06161950528621674,0.03434323519468307,-0.06266825646162033,0.097052201628685,-0.04080498218536377,-0.004566431045532227,XArbitraryZVertical,0.0409218783969768,0.02920185867362375,0.9460650368470508,0.3200526605066304,-0.05873725190758705,-0.0814480260014534,-0.9949452877044678,0,0,0,-1,-1,5514.807892000001,unknown,2,2022-06-30T10:01:07.742+02:00,2022-06-30T08:20:05.567+02:00,1511,1.425381,0,0,1194.663,0,0,2022-06-30T10:01:07.742+02:00
2022-06-30T10:01:09.841+02:00,5516.905805166667,0.0214080810546875,-0.1428680419921875,-1.000534057617188,5516.895853166667,2.491007697427605,-0.05811662464049017,0.08205639993488974,0.02014956250786781,0.04922817647457123,-0.04798199236392975,0.09339581429958344,-0.04538509249687195,-0.01839882135391235,XArbitraryZVertical,0.04061019460226397,0.02957174433899521,0.9459794184741794,0.3203114851611081,-0.05788847804069519,-0.08196434378623962,-0.9949526190757751,0,0,0,-1,-1,5514.807892000001,unknown,2,2022-06-30T10:01:07.742+02:00,2022-06-30T08:20:05.567+02:00,1511,1.425381,0,0,1194.663,0,0,2022-06-30T10:01:07.742+02:00
2022-06-30T10:01:09.851+02:00,5516.915756166667,0.0330810546875,-0.140899658203125,-0.9805450439453125,5516.905805166667,2.49058599863701,-0.05688887299614803,0.08268725152995549,-0.03007033281028271,0.05906574428081512,-0.02709089033305645,0.08300073444843292,-0.05179067701101303,-0.01458084583282471,XArbitraryZVertical,0.04013614089303448,0.03005853481877944,0.9459214640232073,0.3204970883369656,-0.05666392669081688,-0.08259306102991104,-0.9949711561203003,0,0,0,-1,-1,5514.807892000001,unknown,2,2022-06-30T10:01:07.742+02:00,2022-06-30T08:20:05.567+02:00,1511,1.425381,0,0,1194.663,0,0,2022-06-30T10:01:07.742+02:00
2022-06-30T10:01:09.861+02:00,5516.925707166667,0.0496826171875,-0.131561279296875,-0.96917724609375,5516.915756166667,2.490326038748023,-0.05556177532376658,0.08298355123868226,-0.07739736884832382,0.06233024597167969,-0.008746505714952946,0.07675030827522278,-0.05997928231954575,-0.00551307201385498,XArbitraryZVertical,0.03955957551299914,0.03040630221534343,0.9458991016481066,0.3206019605939071,-0.05534209311008453,-0.08288834244012833,-0.9950209856033325,0,0,0,-1,-1,5514.807892000001,unknown,2,2022-06-30T10:01:07.742+02:00,2022-06-30T08:20:05.567+02:00,1511,1.425381,0,0,1194.663,0,0,2022-06-30T10:01:07.742+02:00
2022-06-30T10:01:09.871+02:00,5516.935659166667,0.056304931640625,-0.1296539306640625,-0.962677001953125,5516.925707166667,2.490242536926036,-0.05449177232060103,0.0830800091749338,-0.07918921113014221,0.05294300615787506,0.005355898290872574,0.08735813945531845,-0.05791477859020233,0.01452654600143433,XArbitraryZVertical,0.03907014995927038,0.03062184655701819,0.9459044040052916,0.3206257136802646,-0.05427695065736771,-0.08298446983098984,-0.9950716495513916,0,0,0,-1,-1,5514.807892000001,unknown,2,2022-06-30T10:01:07.742+02:00,2022-06-30T08:20:05.567+02:00,1511,1.425381,0,0,1194.663,0,0,2022-06-30T10:01:07.742+02:00
2022-06-30T10:01:09.881+02:00,5516.945610166667,0.0547332763671875,-0.132598876953125,-0.95928955078125,5516.935659166667,2.490234896995027,-0.05361597774075692,0.0833560108524368,-0.03835256397724152,0.02599554322659969,0.005971887148916721,0.1030869781970978,-0.04830135405063629,0.02591860294342041,XArbitraryZVertical,0.03870001005385348,0.03089273669577121,0.9459135243117689,0.3206174892536542,-0.05340422317385674,-0.08325951546430588,-0.9950959086418152,0,0,0,-1,-1,5514.807892000001,unknown,2,2022-06-30T10:01:07.742+02:00,2022-06-30T08:20:05.567+02:00,1511,1.425381,0,0,1194.663,0,0,2022-06-30T10:01:07.742+02:00
2022-06-30T10:01:09.891+02:00,5516.955561166667,0.0450439453125,-0.1503448486328125,-0.9646453857421875,5516.945610166667,2.490236927922187,-0.0529009628567141,0.08387696392314326,0.007215520367026329,0.009654084220528603,0.003806703723967075,0.1089954674243927,-0.04587487131357193,0.03241336345672607,XArbitraryZVertical,0.0384447709387168,0.03125397403554467,0.945915074941418,0.3206084594033914,-0.05269040167331696,-0.08377864956855774,-0.9950903654098511,0,0,0,-1,-1,5514.807892000001,unknown,2,2022-06-30T10:01:07.742+02:00,2022-06-30T08:20:05.567+02:00,1511,1.425381,0,0,1194.663,0,0,2022-06-30T10:01:07.742+02:00
2022-06-30T10:01:09.901+02:00,5516.965513166667,0.0365142822265625,-0.165802001953125,-0.971282958984375,5516.955561166667,2.490257630453994,-0.05206155044249324,0.0846722406431194,0.03653932362794876,-0.00937553308904171,0.01006060466170311,0.1065850108861923,-0.04802735894918442,0.03577780723571777,XArbitraryZVertical,0.03817408700016844,0.03176533841289143,0.9459153152340285,0.3205900119160507,-0.05185160785913467,-0.08457110077142715,-0.9950674176216125,0,0,0,-1,-1,5514.807892000001,unknown,2,2022-06-30T10:01:07.742+02:00,2022-06-30T08:20:05.567+02:00,1511,1.425381,0,0,1194.663,0,0,2022-06-30T10:01:07.742+02:00
2022-06-30T10:01:09.911+02:00,5516.975464166667,0.033935546875,-0.170440673828125,-0.9822235107421875,5516.965513166667,2.490340030064093,-0.05110869616479258,0.08548022995629211,0.03892138600349426,-0.01102381199598312,0.01881741173565388,0.09594400227069855,-0.06496826559305191,0.03040236234664917,XArbitraryZVertical,0.03785077098306996,0.0323020587011607,0.9459270623802382,0.320540183753217,-0.0508999228477478,-0.08537616580724716,-0.9950478076934814,0,0,0,-1,-1,5514.807892000001,unknown,2,2022-06-30T10:01:07.742+02:00,2022-06-30T08:20:05.567+02:00,1511,1.425381,0,0,1194.663,0,0,2022-06-30T10:01:07.742+02:00
2022-06-30T10:01:09.921+02:00,5516.985415166667,0.0368804931640625,-0.171051025390625,-0.992950439453125,5516.975464166667,2.490509661944436,-0.05021577508211858,0.08618152189633141,0.01060452591627836,-0.004242072347551584,0.02576985955238342,0.08652280271053314,-0.07972671091556549,0.02374982833862305,XArbitraryZVertical,0.03753734343234318,0.03278027603744017,0.9459540128693829,0.3204490510907785,-0.0500083863735199,-0.08607488125562668,-0.995032787322998,0,0,0,-1,-1,5514.807892000001,unknown,2,2022-06-30T10:01:07.742+02:00,2022-06-30T08:20:05.567+02:00,1511,1.425381,0,0,1194.663,0,0,2022-06-30T10:01:07.742+02:00
2022-06-30T10:01:09.931+02:00,5516.995367166667,0.0450439453125,-0.1565704345703125,-0.9971771240234375,5516.985415166667,2.490693606929479,-0.04933923105825413,0.08671874285754358,-0.01387584954500198,0.0002865481656044722,0.02946396358311176,0.0830695703625679,-0.08383016288280487,0.01280641555786133,XArbitraryZVertical,0.03720523292695532,0.03317841641464678,0.9459867457708917,0.3203502299995463,-0.04913388937711716,-0.0866100937128067,-0.9950299263000488,0,0,0,-1,-1,5514.807892000001,unknown,2,2022-06-30T10:01:07.742+02:00,2022-06-30T08:20:05.567+02:00,1511,1.425381,0,0,1194.663,0,0,2022-06-30T10:01:07.742+02:00
2022-06-30T10:01:09.941+02:00,5517.005318166667,0.0501556396484375,-0.14056396484375,-0.989898681640625,5516.995367166667,2.490903676232503,-0.04807656636873231,0.08742323112624065,-0.04103156924247742,0.003648789133876562,0.03799566626548767,0.08475515246391296,-0.08373869210481644,0.002079546451568604,XArbitraryZVertical,0.03671658879322754,0.03371797342159502,0.9460264542646973,0.3202329620184575,-0.04787451401352882,-0.08731191605329514,-0.9950299859046936,0,0,0,-1,-1,5514.807892000001,unknown,2,2022-06-30T10:01:07.742+02:00,2022-06-30T08:20:05.567+02:00,1511,1.425381,0,0,1194.663,0,0,2022-06-30T10:01:07.742+02:00
2022-06-30T10:01:09.951+02:00,5517.015270166667,0.044219970703125,-0.137359619140625,-0.987213134765625,5517.005318166667,2.491086768409875,-0.04560257788193466,0.08858716636141999,-0.06005912274122238,0.003631563158705831,0.04435266554355621,0.09045208990573883,-0.06809867918491364,-0.002133965492248535,XArbitraryZVertical,0.03572839481411444,0.03466829405308235,0.946071945069525,0.320108750815728,-0.04540801420807838,-0.08847134560346603,-0.995043158531189,0,0,0,-1,-1,5514.807892000001,unknown,2,2022-06-30T10:01:07.742+02:00,2022-06-30T08:20:05.567+02:00,1511,1.425381,0,0,1194.663,0,0,2022-06-30T10:01:07.742+02:00
2022-06-30T10:01:09.961+02:00,5517.025221166667,0.0417938232421875,-0.137359619140625,-0.9796905517578125,5517.015270166667,2.490952554506069,-0.0403327482840808,0.0904834584891675,-0.05248536169528961,-0.0007637176895514131,0.02878382615745068,0.09031262993812561,-0.05020350962877274,0.005200505256652832,XArbitraryZVertical,0.03353970117358916,0.03640700713353828,0.9460950143498124,0.3200843158244513,-0.04015686362981796,-0.09036003798246384,-0.9950992465019226,0,0,0,-1,-1,5514.807892000001,unknown,2,2022-06-30T10:01:07.742+02:00,2022-06-30T08:20:05.567+02:00,1511,1.425381,0,0,1194.663,0,0,2022-06-30T10:01:07.742+02:00
2022-06-30T10:01:09.971+02:00,5517.035172166667,0.0366973876953125,-0.138824462890625,-0.9846038818359375,5517.025221166667,2.490683790473977,-0.03524503970903026,0.09231831666238115,-0.02016943134367466,-0.0121721550822258,0.01756615750491619,0.07930779457092285,-0.04517196863889694,0.00791013240814209,XArbitraryZVertical,0.03143015643827878,0.03808541840297214,0.9460893481713334,0.3201196613765788,-0.03508768975734711,-0.09218724071979523,-0.9951232671737671,0,0,0,-1,-1,5514.807892000001,unknown,2,2022-06-30T10:01:07.742+02:00,2022-06-30T08:20:05.567+02:00,1511,1.425381,0,0,1194.663,0,0,2022-06-30T10:01:07.742+02:00
2022-06-30T10:01:09.981+02:00,5517.045124166667,0.0274810791015625,-0.14483642578125,-0.9761962890625,5517.035172166667,2.490471226892847,-0.03078175919705058,0.09453348898483836,0.02229706943035126,-0.01316684670746326,0.02458705008029938,0.07243344187736511,-0.04296644777059555,0.0153728723526001,XArbitraryZVertical,0.02967593994712804,0.03984498656584742,0.9460687234101854,0.320134084160336,-0.03063948079943657,-0.09439275413751602,-0.9950634241104126,0,0,0,-1,-1,5514.807892000001,unknown,2,2022-06-30T10:01:07.742+02:00,2022-06-30T08:20:05.567+02:00,1511,1.425381,0,0,1194.663,0,0,2022-06-30T10:01:07.742+02:00
2022-06-30T10:01:09.990+02:00,5517.055075166667,0.0230865478515625,-0.156585693359375,-0.9757080078125,5517.045124166667,2.490423989702835,-0.0273222190709937,0.09790697173272958,0.05733428150415421,-0.01907831244170666,0.03173930197954178,0.06388550996780396,-0.04107341915369034,0.01023560762405396,XArbitraryZVertical,0.02857817010738625,0.04199450412935004,0.9460268861747915,0.3200829098811417,-0.02718798816204071,-0.09775062650442123,-0.9948394894599915,0,0,0,-1,-1,5514.807892000001,unknown,2,2022-06-30T10:01:07.742+02:00,2022-06-30T08:20:05.567+02:00,1511,1.425381,0,0,1194.663,0,0,2022-06-30T10:01:07.742+02:00
2022-06-30T10:01:10.000+02:00,5517.065026166667,0.0198211669921875,-0.163116455078125,-0.9706878662109375,5517.055075166667,2.490520176487638,-0.02472500413474799,0.1020522940561062,0.07295798510313034,-0.02780389226973057,0.03997459635138512,0.05207507312297821,-0.04296077042818069,0.01829677820205688,XArbitraryZVertical,0.02800836964614606,0.04437305894575255,0.9459722399168513,0.3199736793606527,-0.02459385804831982,-0.1018752455711365,-0.9944931268692017,0,0,0,-1,-1,5514.807892000001,unknown,2,2022-06-30T10:01:07.742+02:00,2022-06-30T08:20:05.567+02:00,1511,1.425381,0,0,1194.663,0,0,2022-06-30T10:01:07.742+02:00
2022-06-30T10:01:10.010+02:00,5517.074978166667,0.0193023681640625,-0.168914794921875,-0.968597412109375,5517.065026166667,2.490725009585315,-0.0225441443209848,0.1060109887194945,0.05344679951667786,-0.02747946046292782,0.04680217429995537,0.04550237208604813,-0.05077274143695831,0.01842540502548218,XArbitraryZVertical,0.02760309789463788,0.04659786935008936,0.9459304135021416,0.3198164981456162,-0.02241568453609943,-0.1058125346899033,-0.9941334128379822,0,0,0,-1,-1,5514.807892000001,unknown,2,2022-06-30T10:01:07.742+02:00,2022-06-30T08:20:05.567+02:00,1511,1.425381,0,0,1194.663,0,0,2022-06-30T10:01:07.742+02:00
2022-06-30T10:01:10.020+02:00,5517.084929166667,0.01885986328125,-0.16619873046875,-0.964447021484375,5517.074978166667,2.490919217244922,-0.02047599468452375,0.1092433052654804,0.02500743418931961,-0.02749836817383766,0.04182073101401329,0.04017381742596626,-0.05408989638090134,0.02314257621765137,XArbitraryZVertical,0.02713531465190153,0.04846051331787807,0.9459018187787689,0.3196641163803872,-0.02035251259803772,-0.1090261489152908,-0.9938305020332336,0,0,0,-1,-1,5514.807892000001,unknown,2,2022-06-30T10:01:07.742+02:00,2022-06-30T08:20:05.567+02:00,1511,1.425381,0,0,1194.663,0,0,2022-06-30T10:01:07.742+02:00
2022-06-30T10:01:10.030+02:00,5517.094880166667,0.014129638671875,-0.136444091796875,-0.949920654296875,5517.084929166667,2.491045867063937,-0.01824504334840542,0.111207357330852,0.01504741050302982,-0.02517954260110855,0.0388910211622715,0.03743384033441544,-0.05793609470129013,0.02505999803543091,XArbitraryZVertical,0.02638994301634429,0.04974795198767947,0.9458975992716027,0.3195411220931256,-0.01813133433461189,-0.1109782829880714,-0.9936574101448059,0,0,0,-1,-1,5514.807892000001,unknown,2,2022-06-30T10:01:07.742+02:00,2022-06-30T08:20:05.567+02:00,1511,1.425381,0,0,1194.663,0,0,2022-06-30T10:01:07.742+02:00
2022-06-30T10:01:10.040+02:00,5517.104832166667,0.008819580078125,-0.1203765869140625,-0.94342041015625,5517.094880166667,2.491127716974724,-0.01591526961277348,0.1123613711915282,0.01566872745752335,-0.03613099455833435,0.03505926206707954,0.03467424213886261,-0.05407322198152542,0.02912122011184692,XArbitraryZVertical,0.02546984421816903,0.05066715212993999,0.9459087556547946,0.319438275681235,-0.01581424102187157,-0.1121250912547112,-0.9935682415962219,0,0,0,-1,-1,5514.807892000001,unknown,2,2022-06-30T10:01:07.742+02:00,2022-06-30T08:20:05.567+02:00,1511,1.425381,0,0,1194.663,0,0,2022-06-30T10:01:07.742+02:00
2022-06-30T10:01:10.050+02:00,5517.114783166667,0.0135955810546875,-0.1336669921875,-0.953857421875,5517.104832166667,2.491208579923624,-0.01423108444890535,0.1133263200501839,0.02530544251203537,-0.04975546896457672,0.0249251052737236,0.02826909720897675,-0.02335978299379349,0.04356414079666138,XArbitraryZVertical,0.02482494672849835,0.05139363760748178,0.9459159169004534,0.3193518200752137,-0.0141393207013607,-0.1130839064717293,-0.9934848546981812,0,0,0,-1,-1,5514.807892000001,unknown,2,2022-06-30T10:01:07.742+02:00,2022-06-30T08:20:05.567+02:00,1511,1.425381,0,0,1194.663,0,0,2022-06-30T10:01:07.742+02:00
2022-06-30T10:01:10.060+02:00,5517.124734166667,0.025299072265625,-0.1509857177734375,-0.9603118896484375,5517.114783166667,2.491197725190116,-0.01303870010491172,0.1143897601759217,0.04389297589659691,-0.05994978547096252,0.01074137538671494,0.0217728391289711,-0.006235718727111816,0.04995971918106079,XArbitraryZVertical,0.02443069089995716,0.05208698370688496,0.9458989924220218,0.3193198108489729,-0.01295312028378248,-0.1141404584050179,-0.9933801889419556,0,0,0,-1,-1,5514.807892000001,unknown,2,2022-06-30T10:01:07.742+02:00,2022-06-30T08:20:05.567+02:00,1511,1.425381,0,0,1194.663,0,0,2022-06-30T10:01:07.742+02:00
2022-06-30T10:01:10.070+02:00,5517.134686166667,0.027099609375,-0.1688995361328125,-0.961639404296875,5517.124734166667,2.491082774771784,-0.01226706033051577,0.1154574119029819,0.0331859327852726,-0.06543416529893875,-0.0005252272821962833,0.02578080072999001,-0.01846551895141602,0.03940999507904053,XArbitraryZVertical,0.02423886438874549,0.0527138502121855,0.9458598890415694,0.3193473443919703,-0.01218508277088404,-0.1152010634541512,-0.9932674765586853,0,0,0,-1,-1,5514.807892000001,unknown,2,2022-06-30T10:01:07.742+02:00,2022-06-30T08:20:05.567+02:00,1511,1.425381,0,0,1194.663,0,0,2022-06-30T10:01:07.742+02:00
2022-06-30T10:01:10.082+02:00,5517.144637166667,0.016845703125,-0.1884002685546875,-0.9604339599609375,5517.134686166667,2.490914200611388,-0.01198289875224628,0.1164151017421232,-0.009930110536515713,-0.07766659557819366,-0.01342318207025528,0.03720071539282799,-0.03483298420906067,0.03284817934036255,XArbitraryZVertical,0.02426155861585888,0.05321019816464273,0.9458092184952079,0.3194134409250495,-0.01190150622278452,-0.1161523312330246,-0.9931601285934448,0,0,0,-1,-1,5514.807892000001,unknown,2,2022-06-30T10:01:07.742+02:00,2022-06-30T08:20:05.567+02:00,1511,1.425381,0,0,1194.663,0,0,2022-06-30T10:01:07.742+02:00
2022-06-30T10:01:10.098+02:00,5517.154588166667,-0.000213623046875,-0.1969757080078125,-0.947845458984375,5517.144637166667,2.490576314235737,-0.01197323470143244,0.1170602734260446,-0.07385862618684769,-0.07475842535495758,-0.03608701750636101,0.03899075463414192,-0.05210601538419724,0.03144562244415283,XArbitraryZVertical,0.02436885330046147,0.05351280012199255,0.9457369024593268,0.3195687633868012,-0.01189100928604603,-0.1167931109666824,-0.9930850863456726,0,0,0,-1,-1,5514.807892000001,unknown,2,2022-06-30T10:01:07.742+02:00,2022-06-30T08:20:05.567+02:00,1511,1.425381,0,0,1194.663,0,0,2022-06-30T10:01:07.742+02:00
2022-06-30T10:01:10.100+02:00,5517.164540166667,-0.024139404296875,-0.2024383544921875,-0.9345855712890625,5517.154588166667,2.49001590286817,-0.01205482652534385,0.117012092374059,-0.1527537107467651,-0.06225701421499252,-0.06125042960047722,0.02881794422864914,-0.07165460288524628,0.03265571594238281,XArbitraryZVertical,0.02441473717627398,0.05347012970814986,0.9456477665457239,0.3198363196479727,-0.01197210419923067,-0.1167452558875084,-0.9930897355079651,0,0,0,-1,-1,5514.807892000001,unknown,2,2022-06-30T10:01:07.742+02:00,2022-06-30T08:20:05.567+02:00,1511,1.425381,0,0,1194.663,0,0,2022-06-30T10:01:07.742+02:00
2022-06-30T10:01:10.110+02:00,5517.174491166667,-0.0428009033203125,-0.18121337890625,-0.9010162353515625,5517.164540166667,2.489170779200138,-0.01204053097555613,0.1161852640766978,-0.2129653841257095,-0.04199716076254845,-0.09536818414926529,0.01174557954072952,-0.08105126023292542,0.04534059762954712,XArbitraryZVertical,0.02429845492603538,0.05307111061111733,0.9455363246108784,0.320240874896849,-0.01195906568318605,-0.1159240454435349,-0.9931860566139221,0,0,0,-1,-1,5514.807892000001,unknown,2,2022-06-30T10:01:07.742+02:00,2022-06-30T08:20:05.567+02:00,1511,1.425381,0,0,1194.663,0,0,2022-06-30T10:01:07.742+02:00
2022-06-30T10:01:10.120+02:00,5517.184442166667,-0.042694091796875,-0.1429901123046875,-0.8498382568359375,5517.174491166667,2.487988293005643,-0.01194707373345245,0.1148207164316666,-0.2303038984537125,-0.04263445734977722,-0.127226248383522,-0.01227114349603653,-0.08786936104297638,0.05875885486602783,XArbitraryZVertical,0.02406722460792346,0.05242657663504111,0.9453865406361044,0.320806150180687,-0.01186812389642,-0.1145685836672783,-0.9933444261550903,0,0,0,-1,-1,5514.807892000001,unknown,2,2022-06-30T10:01:07.742+02:00,2022-06-30T08:20:05.567+02:00,1511,1.425381,0,0,1194.663,0,0,2022-06-30T10:01:07.742+02:00
2022-06-30T10:01:10.130+02:00,5517.194394166667,-0.034332275390625,-0.127899169921875,-0.8262939453125,5517.184442166667,2.486528560785452,-0.01206674943928613,0.1127621891036697,-0.2452905625104904,-0.06777521222829819,-0.1535521298646927,-0.03081094473600388,-0.06868959963321686,0.09256047010421753,XArbitraryZVertical,0.02383179261098572,0.05141669637788226,0.9452080725980204,0.3215121192761146,-0.01198982354253531,-0.1125233769416809,-0.9935767650604248,0,0,0,-1,-1,5514.807892000001,unknown,2,2022-06-30T10:01:07.742+02:00,2022-06-30T08:20:05.567+02:00,1511,1.425381,0,0,1194.663,0,0,2022-06-30T10:01:07.742+02:00
2022-06-30T10:01:10.140+02:00,5517.204345166667,-0.0011444091796875,-0.130706787109375,-0.8258209228515625,5517.194394166667,2.484786969945898,-0.01258887547345475,0.1104196140591459,-0.2490626573562622,-0.1069865301251411,-0.1870286017656326,-0.03018207848072052,-0.03279432654380798,0.1439929008483887,XArbitraryZVertical,0.02374644898144899,0.05020469651488469,0.9449856613740448,0.3223625655505231,-0.01251187827438116,-0.1101953685283661,-0.9938312172889709,0,0,0,-1,-1,5514.807892000001,unknown,2,2022-06-30T10:01:07.742+02:00,2022-06-30T08:20:05.567+02:00,1511,1.425381,0,0,1194.663,0,0,2022-06-30T10:01:07.742+02:00
2022-06-30T10:01:10.150+02:00,5517.214296166667,0.0487823486328125,-0.1279144287109375,-0.858551025390625,5517.204345166667,2.482722595070046,-0.01356901347579835,0.1081847629736352,-0.2338801175355911,-0.1584855616092682,-0.2137719839811325,-0.02084287256002426,-0.01992490142583847,0.1677682399749756,XArbitraryZVertical,0.02390064257434822,0.04896582431680324,0.9447008874031901,0.3233749811317594,-0.01348927151411772,-0.1079738587141037,-0.9940621852874756,0,0,0,-1,-1,5514.807892000001,unknown,2,2022-06-30T10:01:07.742+02:00,2022-06-30T08:20:05.567+02:00,1511,1.425381,0,0,1194.663,0,0,2022-06-30T10:01:07.742+02:00
2022-06-30T10:01:10.160+02:00,5517.224248166667,0.0970458984375,-0.1100921630859375,-0.9187164306640625,5517.214296166667,2.480555381351035,-0.01505354219956464,0.1062485510568171,-0.1958112865686417,-0.2143485695123672,-0.205983579158783,0.01382381096482277,-0.02465761452913284,0.1684272885322571,XArbitraryZVertical,0.02434128516057344,0.04778460563533976,0.9443832655636882,0.324444613837665,-0.01496808882802725,-0.1060487627983093,-0.9942482709884644,0,0,0,-1,-1,5514.807892000001,unknown,2,2022-06-30T10:01:07.742+02:00,2022-06-30T08:20:05.567+02:00,1511,1.425381,0,0,1194.663,0,0,2022-06-30T10:01:07.742+02:00
2022-06-30T10:01:10.170+02:00,5517.234199166667,0.1186065673828125,-0.0825042724609375,-0.978363037109375,5517.224248166667,2.478657611230208,-0.01718538891380396,0.1049265986631733,-0.1123458966612816,-0.2779445052146912,-0.1673818826675415,0.06587251275777817,-0.02317985147237778,0.1358023285865784,XArbitraryZVertical,0.02517840316940044,0.04679046462100803,0.9440833581784106,0.3253973934037172,-0.01709003187716007,-0.1047341749072075,-0.9943534135818481,0,0,0,-1,-1,5514.807892000001,unknown,2,2022-06-30T10:01:07.742+02:00,2022-06-30T08:20:05.567+02:00,1511,1.425381,0,0,1194.663,0,0,2022-06-30T10:01:07.742+02:00
2022-06-30T10:01:10.180+02:00,5517.244150166667,0.111419677734375,-0.0773162841796875,-1.036788940429688,5517.234199166667,2.477210827028441,-0.02006295596078236,0.1045790536200021,-0.01702284067869186,-0.344413548707962,-0.1195768192410469,0.1169980317354202,-0.005703210830688477,0.07561999559402466,XArbitraryZVertical,0.02651370710856667,0.04613896661327459,0.9438195916734805,0.3261484744881579,-0.01995200477540493,-0.1043885350227356,-0.9943364262580872,0,0,0,-1,-1,5514.807892000001,unknown,2,2022-06-30T10:01:07.742+02:00,2022-06-30T08:20:05.567+02:00,1511,1.425381,0,0,1194.663,0,0,2022-06-30T10:01:07.742+02:00
2022-06-30T10:01:10.189+02:00,5517.254102166667,0.08953857421875,-0.0998992919921875,-1.061447143554688,5517.244150166667,2.476180328109721,-0.02355182707936867,0.1051647520935709,0.06817381083965302,-0.3802145421504974,-0.08708784729242325,0.1420262455940247,0.02246715128421783,0.01583641767501831,XArbitraryZVertical,0.02827891072357515,0.04583188800609479,0.9435880306130062,0.3267129068764443,-0.02341954410076141,-0.1049710139632225,-0.9941994547843933,0,0,0,-1,-1,5514.807892000001,unknown,2,2022-06-30T10:01:07.742+02:00,2022-06-30T08:20:05.567+02:00,1511,1.425381,0,0,1194.663,0,0,2022-06-30T10:01:07.742+02:00
2022-06-30T10:01:10.199+02:00,5517.264053166667,0.0484771728515625,-0.1322479248046875,-1.063583374023438,5517.254102166667,2.475478321940212,-0.0273580902099806,0.1064777219157871,0.1064191982150078,-0.3861459195613861,-0.05502152815461159,0.1386195719242096,0.02896077185869217,-0.04282444715499878,XArbitraryZVertical,0.03030435551674046,0.04581910721127442,0.9433819954964713,0.3271278236022731,-0.02719975635409355,-0.1062766388058662,-0.9939644932746887,0,0,0,-1,-1,5514.807892000001,unknown,2,2022-06-30T10:01:07.742+02:00,2022-06-30T08:20:05.567+02:00,1511,1.425381,0,0,1194.663,0,0,2022-06-30T10:01:07.742+02:00
2022-06-30T10:01:10.209+02:00,5517.274004166667,0.043792724609375,-0.1533355712890625,-1.063827514648438,5517.264053166667,2.474951385261126,-0.03124590376991554,0.1077765231072174,0.07221629470586777,-0.3732799887657166,-0.05635660141706467,0.1205982565879822,0.007669113576412201,-0.06773471832275391,XArbitraryZVertical,0.03236167571083642,0.04578752539955357,0.9431989162080652,0.327463021419552,-0.03105955198407173,-0.1075679957866669,-0.9937124252319336,0,0,0,-1,-1,5514.807892000001,unknown,2,2022-06-30T10:01:07.742+02:00,2022-06-30T08:20:05.567+02:00,1511,1.425381,0,0,1194.663,0,0,2022-06-30T10:01:07.742+02:00
2022-06-30T10:01:10.219+02:00,5517.283956166667,0.0558624267578125,-0.09429931640625,-1.037460327148438,5517.274004166667,2.474993588607608,-0.03478168646323311,0.1085919872136738,0.03879841417074203,-0.3301556706428528,0.07172919809818268,0.08304713666439056,-0.02386882901191711,-0.07007497549057007,XArbitraryZVertical,0.03416096032894283,0.04559404616065849,0.9431240470190556,0.32752309509745,-0.03456984087824821,-0.1083786860108376,-0.9935083985328674,0,0,0,-1,-1,5514.807892000001,unknown,2,2022-06-30T10:01:07.742+02:00,2022-06-30T08:20:05.567+02:00,1511,1.425381,0,0,1194.663,0,0,2022-06-30T10:01:07.742+02:00
2022-06-30T10:01:10.229+02:00,5517.293907166667,0.011962890625,-0.0666351318359375,-1.027359008789062,5517.283956166667,2.476065267166902,-0.03828192172386975,0.1086203777605011,-0.003217213321477175,-0.3350551128387451,0.1249820291996002,0.08183986693620682,-0.04492824524641037,-0.07044929265975952,XArbitraryZVertical,0.03579197201304279,0.04505336080385998,0.9432373390340725,0.3270969329911795,-0.03804701566696167,-0.1084069162607193,-0.9933782815933228,0,0,0,-1,-1,5514.807892000001,unknown,2,2022-06-30T10:01:07.742+02:00,2022-06-30T08:20:05.567+02:00,1511,1.425381,0,0,1194.663,0,0,2022-06-30T10:01:07.742+02:00
2022-06-30T10:01:10.239+02:00,5517.303859166667,-0.0019073486328125,-0.0386962890625,-1.023223876953125,5517.293907166667,2.477297227305475,-0.04176418851731212,0.1086893439663363,0.04102241992950439,-0.3232370615005493,0.1189419850707054,0.09736823290586472,0.01417656987905502,-0.04422807693481445,XArbitraryZVertical,0.03741799821095804,0.04453937511724643,0.9433729905353265,0.3265939725568001,-0.04150567576289177,-0.1084754690527916,-0.993232250213623,0,0,0,-1,-1,5514.807892000001,unknown,2,2022-06-30T10:01:07.742+02:00,2022-06-30T08:20:05.567+02:00,1511,1.425381,0,0,1194.663,0,0,2022-06-30T10:01:07.742+02:00
2022-06-30T10:01:10.249+02:00,5517.313810166667,-0.0105743408203125,-0.0585479736328125,-1.048095703125,5517.303859166667,2.478619056078688,-0.04511245181331149,0.1092215451856327,0.08742427825927734,-0.3080740869045258,0.139644056558609,0.05679144710302353,0.04236979782581329,-0.0343291163444519,XArbitraryZVertical,0.03905433454637416,0.04426959981343987,0.9435090638886094,0.3260455040601892,-0.04482842981815338,-0.109004519879818,-0.9930299520492554,0,0,0,-1,-1,5514.807892000001,unknown,2,2022-06-30T10:01:07.742+02:00,2022-06-30T08:20:05.567+02:00,1511,1.425381,0,0,1194.663,0,0,2022-06-30T10:01:07.742+02:00
2022-06-30T10:01:10.259+02:00,5517.323761166667,-0.0235595703125,-0.099456787109375,-1.071090698242188,5517.313810166667,2.480232257185392,-0.04830415448395456,0.1102626055719634,0.1433115154504776,-0.284263551235199,0.1677345484495163,0.046084925532341,0.07134343683719635,-0.03045600652694702,XArbitraryZVertical,0.04069273618816764,0.04427359219093771,0.9436772186651157,0.3253572659500953,-0.04799214750528336,-0.1100393161177635,-0.9927679300308228,0,0,0,-1,-1,5514.807892000001,unknown,2,2022-06-30T10:01:07.742+02:00,2022-06-30T08:20:05.567+02:00,1511,1.425381,0,0,1194.663,0,0,2022-06-30T10:01:07.742+02:00
2022-06-30T10:01:10.269+02:00,5517.333713166667,-0.0294952392578125,-0.144439697265625,-1.081741333007812,5517.323761166667,2.481931421374483,-0.05120131036188662,0.1117053067158234,0.1668527871370316,-0.2457627803087234,0.155205175280571,0.04028575867414474,0.05292557179927826,-0.05563062429428101,XArbitraryZVertical,0.04225468199443486,0.04451948284078983,0.9438496099509219,0.3246237585912621,-0.0508599653840065,-0.1114731431007385,-0.9924651384353638,0,0,0,-1,-1,5514.807892000001,unknown,2,2022-06-30T10:01:07.742+02:00,2022-06-30T08:20:05.567+02:00,1511,1.425381,0,0,1194.663,0,0,2022-06-30T10:01:07.742+02:00
2022-06-30T10:01:10.279+02:00,5517.343664166667,-0.042022705078125,-0.1743011474609375,-1.079833984375,5517.333713166667,2.483511399317222,-0.05367970726462982,0.1130458002206359,0.1197870075702667,-0.1999185979366302,0.1455240547657013,0.02975202724337578,0.01334881037473679,-0.07890480756759644,XArbitraryZVertical,0.04360460486743162,0.0447848520471071,0.944011327171458,0.3239378444969118,-0.05331146344542503,-0.1128051802515984,-0.9921858906745911,0,0,0,-1,-1,5514.807892000001,unknown,2,2022-06-30T10:01:07.742+02:00,2022-06-30T08:20:05.567+02:00,1511,1.425381,0,0,1194.663,0,0,2022-06-30T10:01:07.742+02:00
2022-06-30T10:01:10.289+02:00,5517.353615166667,-0.066802978515625,-0.1839599609375,-1.062210083007812,5517.343664166667,2.484981991740556,-0.05567567575967598,0.1136243189782696,0.0139324776828289,-0.1510003209114075,0.1388219445943832,0.02579298242926598,-0.03105929493904114,-0.08972913026809692,XArbitraryZVertical,0.04460663909560977,0.04476770420889015,0.9441871667104831,0.3232904662222575,-0.05528808757662773,-0.1133799850940704,-0.9920122027397156,0,0,0,-1,-1,5514.807892000001,unknown,2,2022-06-30T10:01:07.742+02:00,2022-06-30T08:20:05.567+02:00,1511,1.425381,0,0,1194.663,0,0,2022-06-30T10:01:07.742+02:00
2022-06-30T10:01:10.299+02:00,5517.363567166667,-0.0890655517578125,-0.1729736328125,-1.035308837890625,5517.353615166667,2.486325176759865,-0.05718348644801714,0.112998468347553,-0.1118859052658081,-0.1054777279496193,0.1312966495752335,0.01476526260375977,-0.06154258549213409,-0.08783566951751709,XArbitraryZVertical,0.04518852272753415,0.04425853627398633,0.9443898833552928,0.3226872576630418,-0.05678783729672432,-0.1127581521868706,-0.9919983744621277,0,0,0,-1,-1,5514.807892000001,unknown,2,2022-06-30T10:01:07.742+02:00,2022-06-30T08:20:05.567+02:00,1511,1.425381,0,0,1194.663,0,0,2022-06-30T10:01:10.290+02:00
2022-06-30T10:01:10.309+02:00,5517.373518166667,-0.1153717041015625,-0.1644134521484375,-1.00177001953125,5517.363567166667,2.487410299491969,-0.05822851148243359,0.1112459401942028,-0.2099826335906982,-0.06748951971530914,0.1002262160181999,-0.008966963738203049,-0.07294291257858276,-0.0700758695602417,XArbitraryZVertical,0.04537842559395772,0.04328609718621574,0.9445956886843805,0.3221894900000293,-0.05783588066697121,-0.1110166236758232,-0.9921342134475708,0,0,0,-1,-1,5514.807892000001,unknown,2,2022-06-30T10:01:07.742+02:00,2022-06-30T08:20:05.567+02:00,1511,1.425381,0,0,1194.663,0,0,2022-06-30T10:01:10.290+02:00
2022-06-30T10:01:10.319+02:00,5517.383469166667,-0.142333984375,-0.1632080078125,-0.96539306640625,5517.373518166667,2.488040489085671,-0.05887558717812065,0.1088093701537544,-0.2563743591308594,-0.03733321651816368,0.04906343296170235,-0.0305718258023262,-0.06437843292951584,-0.04294520616531372,XArbitraryZVertical,0.04528199411993274,0.04204403550757543,0.944757425753751,0.3218935094133967,-0.05849359557032585,-0.1085947901010513,-0.9923636913299561,0,0,0,-1,-1,5514.807892000001,unknown,2,2022-06-30T10:01:07.742+02:00,2022-06-30T08:20:05.567+02:00,1511,1.425381,0,0,1194.663,0,0,2022-06-30T10:01:10.290+02:00
2022-06-30T10:01:10.329+02:00,5517.393421166667,-0.1617279052734375,-0.1670379638671875,-0.9187164306640625,5517.383469166667,2.488104624265816,-0.05927223717582422,0.1061248751238706,-0.2701630294322968,-0.02526742592453957,-0.004774034488946199,-0.05646730214357376,-0.05848725885152817,-0.009142220020294189,XArbitraryZVertical,0.04504004379322081,0.04071213818022442,0.944839624040021,0.3218569202339852,-0.05890426784753799,-0.1059257835149765,-0.9926278591156006,0,0,0,-1,-1,5514.807892000001,unknown,2,2022-06-30T10:01:07.742+02:00,2022-06-30T08:20:05.567+02:00,1511,1.425381,0,0,1194.663,0,0,2022-06-30T10:01:10.290+02:00
2022-06-30T10:01:10.339+02:00,5517.403372166667,-0.1845245361328125,-0.18963623046875,-0.8632965087890625,5517.393421166667,2.487710177849048,-0.05951670969546517,0.1033022544856697,-0.293793797492981,-0.01958637125790119,-0.04293100908398628,-0.0831693634390831,-0.06008897721767426,0.02751481533050537,XArbitraryZVertical,0.04471321877823654,0.03932904526125117,0.9448540900554432,0.3220323379571421,-0.05916448682546616,-0.1031186208128929,-0.9929078817367554,0,0,0,-1,-1,5514.807892000001,unknown,2,2022-06-30T10:01:07.742+02:00,2022-06-30T08:20:05.567+02:00,1511,1.425381,0,0,1194.663,0,0,2022-06-30T10:01:10.290+02:00
2022-06-30T10:01:10.349+02:00,5517.413323166667,-0.2049560546875,-0.2381439208984375,-0.799957275390625,5517.403372166667,2.486786429560218,-0.05969776296696178,0.1002074131562185,-0.3291487693786621,-0.01828126423060894,-0.1144073531031609,-0.1023647636175156,-0.06699776649475098,0.07449454069137573,XArbitraryZVertical,0.04432236156948956,0.03781576731192512,0.9447905087505124,0.3224538851864628,-0.05936301127076149,-0.1000397950410843,-0.9932109713554382,0,0,0,-1,-1,5514.807892000001,unknown,2,2022-06-30T10:01:07.742+02:00,2022-06-30T08:20:05.567+02:00,1511,1.425381,0,0,1194.663,0,0,2022-06-30T10:01:10.290+02:00
2022-06-30T10:01:10.359+02:00,5517.423275166667,-0.2232513427734375,-0.2913665771484375,-0.71044921875,5517.413323166667,2.484854557281637,-0.05978228156406715,0.0966740054487527,-0.3985957503318787,-0.02021205611526966,-0.2366349995136261,-0.1250566989183426,-0.09311231970787048,0.1302561163902283,XArbitraryZVertical,0.04383242371915408,0.03608889858079747,0.944575960999501,0.3233460256608059,-0.05946770310401917,-0.09652349352836609,-0.9935526251792908,0,0,0,-1,-1,5514.807892000001,unknown,2,2022-06-30T10:01:07.742+02:00,2022-06-30T08:20:05.567+02:00,1511,1.425381,0,0,1194.663,0,0,2022-06-30T10:01:10.290+02:00
2022-06-30T10:01:10.369+02:00,5517.433226166667,-0.243194580078125,-0.348785400390625,-0.6060638427734375,5517.423275166667,2.481466095125525,-0.05981079914824047,0.09226420014509802,-0.5227627158164978,-0.03646675497293472,-0.393921285867691,-0.1454350203275681,-0.146010160446167,0.1940088272094727,XArbitraryZVertical,0.04319641068802178,0.03392631588275725,0.9441459334654541,0.3249178161414174,-0.0595209002494812,-0.09213335067033768,-0.9939661622047424,0,0,0,-1,-1,5514.807892000001,unknown,2,2022-06-30T10:01:07.742+02:00,2022-06-30T08:20:05.567+02:00,1511,1.425381,0,0,1194.663,0,0,2022-06-30T10:01:10.290+02:00
2022-06-30T10:01:10.379+02:00,5517.443177166667,-0.2675628662109375,-0.4015655517578125,-0.50286865234375,5517.433226166667,2.476272678666479,-0.05996598554489822,0.08642151153233853,-0.7107070684432983,-0.07330786436796188,-0.5823116898536682,-0.1635448336601257,-0.2050521820783615,0.2840279936790466,XArbitraryZVertical,0.04240864121594717,0.03103015858376673,0.9434475404889687,0.3273309586508142,-0.05970639362931252,-0.08631397783756256,-0.9944772720336914,0,0,0,-1,-1,5514.807892000001,unknown,2,2022-06-30T10:01:07.742+02:00,2022-06-30T08:20:05.567+02:00,1511,1.425381,0,0,1194.663,0,0,2022-06-30T10:01:10.290+02:00
2022-06-30T10:01:10.389+02:00,5517.453129166667,-0.3253173828125,-0.455963134765625,-0.4135589599609375,5517.443177166667,2.46877281277809,-0.06040946725842262,0.07838214767112303,-0.9961996674537659,-0.1280373930931091,-0.8306669592857361,-0.1830070912837982,-0.2704830765724182,0.3890473246574402,XArbitraryZVertical,0.04141318510477825,0.02700648841563504,0.9424001735510108,0.3308134029707854,-0.06018736958503723,-0.07830191403627396,-0.9951111674308777,0,0,0,-1,-1,5514.807892000001,unknown,2,2022-06-30T10:01:07.742+02:00,2022-06-30T08:20:05.567+02:00,1511,1.425381,0,0,1194.663,0,0,2022-06-30T10:01:10.290+02:00
2022-06-30T10:01:10.398+02:00,5517.463080166667,-0.385162353515625,-0.50341796875,-0.345550537109375,5517.453129166667,2.458099860481179,-0.06130632710967921,0.06715419050391362,-1.380223274230957,-0.1881534606218338,-1.17258095741272,-0.2064329087734222,-0.3344613909721375,0.4930028915405273,XArbitraryZVertical,0.04010510957514652,0.02134906569832457,0.9408526357672691,0.3357561998695155,-0.06112983450293541,-0.06710372865200043,-0.9958716034889221,0,0,0,-1,-1,5514.807892000001,unknown,2,2022-06-30T10:01:07.742+02:00,2022-06-30T08:20:05.567+02:00,1511,1.425381,0,0,1194.663,0,0,2022-06-30T10:01:10.290+02:00
2022-06-30T10:01:10.409+02:00,5517.473031166667,-0.443145751953125,-0.4816131591796875,-0.25225830078125,5517.463080166667,2.443932207992527,-0.06262136423462093,0.05227746935302371,-1.774250984191895,-0.2378963679075241,-1.47537624835968,-0.2628223299980164,-0.4037090539932251,0.5831174850463867,XArbitraryZVertical,0.03833886927084949,0.01385309514345507,0.9387121101366914,0.3422834964512875,-0.06249494850635529,-0.05225365981459618,-0.9966764450073242,0,0,0,-1,-1,5514.807892000001,unknown,2,2022-06-30T10:01:07.742+02:00,2022-06-30T08:20:05.567+02:00,1511,1.425381,0,0,1194.663,0,0,2022-06-30T10:01:10.290+02:00
2022-06-30T10:01:10.418+02:00,5517.482983166667,-0.5221710205078125,-0.46209716796875,-0.178070068359375,5517.473031166667,2.426456253168071,-0.06462855241791801,0.03367579159019549,-2.1702880859375,-0.3048088252544403,-1.798172116279602,-0.320615291595459,-0.4697481095790863,0.6517959833145142,XArbitraryZVertical,0.0361507237391548,0.004457591981350789,0.9359386141041509,0.3502746190628002,-0.06454695016145706,-0.03366942703723907,-0.9973465204238892,0,0,0,-1,-1,5514.807892000001,unknown,2,2022-06-30T10:01:07.742+02:00,2022-06-30T08:20:05.567+02:00,1511,1.425381,0,0,1194.663,0,0,2022-06-30T10:01:10.290+02:00
2022-06-30T10:01:10.428+02:00,5517.492934166667,-0.574798583984375,-0.4670257568359375,-0.094757080078125,5517.482983166667,2.405315940404029,-0.06752501331360064,0.01155600405669757,-2.542604923248291,-0.3573562204837799,-2.150090456008911,-0.3756764531135559,-0.4700569808483124,0.7453961372375488,XArbitraryZVertical,0.03357205521013441,-0.006760144849811451,0.932381514592551,0.3598501029285636,-0.06746920198202133,-0.01155574712902308,-0.9976544380187988,0,0,0,-1,-1,5514.807892000001,unknown,2,2022-06-30T10:01:07.742+02:00,2022-06-30T08:20:05.567+02:00,1511,1.425381,0,0,1194.663,0,0,2022-06-30T10:01:10.290+02:00
2022-06-30T10:01:10.438+02:00,5517.502885166667,-0.6018524169921875,-0.522247314453125,-0.028717041015625,5517.492934166667,2.380189354640224,-0.07138063144327313,-0.01420635766536019,-2.984153985977173,-0.3955587446689606,-2.536416292190552,-0.4508581161499023,-0.4763026237487793,0.8192827701568604,XArbitraryZVertical,0.03048952431070256,-0.01984873712139673,0.927883745185453,0.3710907561226578,-0.07131283730268478,0.01420587953180075,-0.9973528385162354,0,0,0,-1,-1,5514.807892000001,unknown,2,2022-06-30T10:01:07.742+02:00,2022-06-30T08:20:05.567+02:00,1511,1.425381,0,0,1194.663,0,0,2022-06-30T10:01:10.290+02:00
2022-06-30T10:01:10.449+02:00,5517.51283725,-0.6288299560546875,-0.5980987548828125,0.056732177734375,5517.502885166667,2.350545782565689,-0.07644271736413419,-0.04459755138896154,-3.571358919143677,-0.4394853115081787,-2.953631639480591,-0.4985061585903168,-0.5116081237792969,0.9013311862945557,XArbitraryZVertical,0.02666859145066622,-0.03527957759888233,0.9222200465875874,0.384127864919462,-0.07629235833883286,0.04458276927471161,-0.9960882663726807,0,0,0,-1,-1,5514.807892000001,unknown,2,2022-06-30T10:01:07.742+02:00,2022-06-30T08:20:05.567+02:00,1511,1.425381,0,0,1194.663,0,0,2022-06-30T10:01:10.290+02:00
2022-06-30T10:01:10.458+02:00,5517.52278825,-0.7007598876953125,-0.67474365234375,0.1037139892578125,5517.51283725,2.315827724471379,-0.08336870920646165,-0.08150751303300319,-4.403194904327393,-0.5042334198951721,-3.402716636657715,-0.5188566446304321,-0.6036641597747803,0.9645014405250549,XArbitraryZVertical,0.02180501609983229,-0.05399355873307293,0.9150937609310504,0.3990146858370928,-0.0829957127571106,0.08141729235649109,-0.9932184815406799,0,0,0,-1,-1,5514.807892000001,unknown,2,2022-06-30T10:01:07.742+02:00,2022-06-30T08:20:05.567+02:00,1511,1.425381,0,0,1194.663,0,0,2022-06-30T10:01:10.290+02:00
2022-06-30T10:01:10.468+02:00,5517.53273925,-0.841156005859375,-0.7017669677734375,0.10137939453125,5517.52278825,2.27512319025255,-0.0929519026597381,-0.1268992482489154,-5.415256977081299,-0.5585221648216248,-3.903542518615723,-0.5367581248283386,-0.7246572375297546,1.044409036636353,XArbitraryZVertical,0.01549201898209421,-0.0769516470622819,0.9060447910043308,0.4158380163442777,-0.0920717641711235,0.126558929681778,-0.9876768589019775,0,0,0,-1,-1,5514.807892000001,unknown,2,2022-06-30T10:01:07.742+02:00,2022-06-30T08:20:05.567+02:00,1511,1.425381,0,0,1194.663,0,0,2022-06-30T10:01:10.290+02:00
2022-06-30T10:01:10.478+02:00,5517.542691250001,-1.041030883789062,-0.70391845703125,0.0878753662109375,5517.53273925,2.227314277510906,-0.1059894797516657,-0.1820596591848179,-6.562178134918213,-0.5639445781707764,-4.452203273773193,-0.5967171192169189,-0.8557987809181213,1.081668138504028,XArbitraryZVertical,0.007266923045510869,-0.1047387298044665,0.8944744655983462,0.4346174953821594,-0.10404272377491,0.1810555756092072,-0.9779539704322815,0,0,0,-1,-1,5514.807892000001,unknown,2,2022-06-30T10:01:07.742+02:00,2022-06-30T08:20:05.567+02:00,1511,1.425381,0,0,1194.663,0,0,2022-06-30T10:01:10.290+02:00
2022-06-30T10:01:10.488+02:00,5517.552642250001,-1.226089477539062,-0.65960693359375,0.106201171875,5517.542691250001,2.170935545917007,-0.1232337627149116,-0.2472033165608007,-7.696465969085693,-0.4659945964813232,-5.047567367553711,-0.7219706773757935,-0.9464597702026367,1.063627004623413,XArbitraryZVertical,-0.003352739987382649,-0.1373501202477524,0.8796495289293054,0.4553464925884326,-0.1191853210330009,0.244693249464035,-0.9622474312782288,0,0,0,-1,-1,5514.807892000001,unknown,2,2022-06-30T10:01:07.742+02:00,2022-06-30T08:20:05.567+02:00,1511,1.425381,0,0,1194.663,0,0,2022-06-30T10:01:10.290+02:00
2022-06-30T10:01:10.498+02:00,5517.56259425,-1.399612426757812,-0.5977325439453125,0.1296234130859375,5517.552642250001,2.104776599219057,-0.1456315629183208,-0.3215083745594766,-8.817259788513184,-0.2843534350395203,-5.584066867828369,-0.9033493995666504,-1.01991605758667,1.026592254638672,XArbitraryZVertical,-0.01672276663404693,-0.1742469265766297,0.8609079254842165,0.4776986059289145,-0.1376814991235733,0.3159980177879333,-0.9387167096138,0,0,0,-1,-1,5514.807892000001,unknown,2,2022-06-30T10:01:07.742+02:00,2022-06-30T08:20:05.567+02:00,1511,1.425381,0,0,1194.663,0,0,2022-06-30T10:01:10.290+02:00
2022-06-30T10:01:10.508+02:00,5517.57254525,-1.535537719726562,-0.505615234375,0.1409149169921875,5517.56259425,2.027849937436437,-0.1744516290751663,-0.4041208431418546,-9.837221145629883,0.008291235193610191,-6.025599002838135,-1.066502571105957,-1.052817106246948,1.011694312095642,XArbitraryZVertical,-0.03321839578307886,-0.2148256733289445,0.8377204965665607,0.5009699109466683,-0.1595869362354279,0.3932105600833893,-0.9054929614067078,0,0,0,-1,-1,5514.807892000001,unknown,2,2022-06-30T10:01:07.742+02:00,2022-06-30T08:20:05.567+02:00,1511,1.425381,0,0,1194.663,0,0,2022-06-30T10:01:10.290+02:00
2022-06-30T10:01:10.518+02:00,5517.58249625,-1.690444946289062,-0.2732086181640625,0.1571807861328125,5517.57254525,1.939221767056307,-0.2109697810536599,-0.4923196858388493,-10.59513664245605,0.394540399312973,-6.311829566955566,-1.215073823928833,-1.070403456687927,0.9913238883018494,XArbitraryZVertical,-0.05285395154214646,-0.2575972410967564,0.8098729844764391,0.5243625185146775,-0.1845387071371078,0.4726713597774506,-0.8617002367973328,0,0,0,-1,-1,5514.807892000001,unknown,2,2022-06-30T10:01:07.742+02:00,2022-06-30T08:20:05.567+02:00,1511,1.425381,0,0,1194.663,0,0,2022-06-30T10:01:10.290+02:00
2022-06-30T10:01:10.528+02:00,5517.59244825,-1.867355346679688,0.0341033935546875,0.162078857421875,5517.58249625,1.837880942345746,-0.2565675520339077,-0.5826998628507793,-11.07964992523193,0.9050650596618652,-6.49190616607666,-1.323651671409607,-1.055895090103149,0.9485635757446289,XArbitraryZVertical,-0.07541434390581485,-0.3008130448152502,0.777493974526874,0.5471081975924942,-0.2118861675262451,0.5502802729606628,-0.8076483607292175,0,0,0,-1,-1,5514.807892000001,unknown,2,2022-06-30T10:01:07.742+02:00,2022-06-30T08:20:05.567+02:00,1511,1.425381,0,0,1194.663,0,0,2022-06-30T10:01:10.290+02:00
2022-06-30T10:01:10.538+02:00,5517.60239925,-2.024658203125,0.3521728515625,0.12847900390625,5517.59244825,1.721974285569471,-0.3125024670074512,-0.670959145547149,-11.17125988006592,1.560156106948853,-6.627437591552734,-1.449649453163147,-0.8949458003044128,0.9024730324745178,XArbitraryZVertical,-0.1004839224361976,-0.3424281803549556,0.7408650003099032,0.5690034270095738,-0.2407955676317215,0.6217374801635742,-0.7452918291091919,0,0,0,-1,-1,5514.807892000001,unknown,2,2022-06-30T10:01:07.742+02:00,2022-06-30T08:20:05.567+02:00,1511,1.425381,0,0,1194.663,0,0,2022-06-30T10:01:10.290+02:00
2022-06-30T10:01:10.548+02:00,5517.61235025,-2.09747314453125,0.58978271484375,0.093170166015625,5517.60239925,1.589687248208354,-0.3798215482901857,-0.7520282312472291,-10.94691753387451,2.32567834854126,-6.773071765899658,-1.596591472625732,-0.6490176916122437,0.8403358459472656,XArbitraryZVertical,-0.1272496121765171,-0.3803672363726048,0.7005035270412923,0.5902737435810319,-0.2707639932632446,0.683121383190155,-0.678256630897522,0,0,0,-1,-1,5514.807892000001,unknown,2,2022-06-30T10:01:07.742+02:00,2022-06-30T08:20:05.567+02:00,1511,1.425381,0,0,1194.663,0,0,2022-06-30T10:01:10.290+02:00
2022-06-30T10:01:10.558+02:00,5517.622302250001,-2.085220336914062,0.6876220703125,0.0363006591796875,5517.61235025,1.439982215426264,-0.4590419003097204,-0.8221615486979144,-10.51341247558594,3.107146263122559,-6.87162971496582,-1.723074316978455,-0.3804455995559692,0.7386571168899536,XArbitraryZVertical,-0.1550277702169678,-0.4133733688996378,0.6569434097372132,0.6111580966870059,-0.301584005355835,0.7326187491416931,-0.6101776957511902,0,0,0,-1,-1,5514.807892000001,unknown,2,2022-06-30T10:01:07.742+02:00,2022-06-30T08:20:05.567+02:00,1511,1.425381,0,0,1194.663,0,0,2022-06-30T10:01:10.290+02:00
2022-06-30T10:01:10.568+02:00,5517.632253250001,-2.009002685546875,0.7863922119140625,-0.0354766845703125,5517.622302250001,1.274102759049028,-0.5492462188399398,-0.8781848547894153,-9.953400611877441,3.832104206085205,-6.931058883666992,-1.764122247695923,-0.1797981858253479,0.6378008127212524,XArbitraryZVertical,-0.1829211383180121,-0.4407093590059291,0.6108983444422849,0.6317581842129698,-0.3333510458469391,0.7695810794830322,-0.544630229473114,0,0,0,-1,-1,5514.807892000001,unknown,2,2022-06-30T10:01:07.742+02:00,2022-06-30T08:20:05.567+02:00,1511,1.425381,0,0,1194.663,0,0,2022-06-30T10:01:10.290+02:00
2022-06-30T10:01:10.580+02:00,5517.642204250001,-1.930435180664062,0.936370849609375,-0.10406494140625,5517.632253250001,1.094863950292413,-0.6484622686388978,-0.9194868236103598,-9.55178165435791,4.432704448699951,-6.891452312469482,-1.719081878662109,-0.107668399810791,0.5194732546806335,XArbitraryZVertical,-0.2105320074145975,-0.4626987808056698,0.5628491938447336,0.6517568385911793,-0.3661386370658875,0.7952906489372253,-0.4831722378730774,0,0,0,-1,-1,5514.807892000001,unknown,2,2022-06-30T10:01:07.742+02:00,2022-06-30T08:20:05.567+02:00,1511,1.425381,0,0,1194.663,0,0,2022-06-30T10:01:10.290+02:00
2022-06-30T10:01:10.590+02:00,5517.65215625,-1.914657592773438,1.1865234375,-0.198638916015625,5517.642204250001,0.9051367281814763,-0.754597732596982,-0.9474526576570433,-9.389541625976562,4.90471076965332,-6.794073104858398,-1.609134435653687,-0.02553880214691162,0.3898155093193054,XArbitraryZVertical,-0.2380636953819192,-0.480291354142054,0.5129025963314223,0.6705049162151395,-0.3998684585094452,0.8119311332702637,-0.4252917766571045,0,0,0,-1,-1,5514.807892000001,unknown,2,2022-06-30T10:01:07.742+02:00,2022-06-30T08:20:05.567+02:00,1511,1.425381,0,0,1194.663,0,0,2022-06-30T10:01:10.290+02:00
2022-06-30T10:01:10.598+02:00,5517.66210725,-1.935958862304688,1.444976806640625,-0.1867523193359375,5517.65215625,0.7078255872458694,-0.8648947892878195,-0.9633603643285065,-9.388143539428711,5.319614887237549,-6.654443740844727,-1.496068716049194,0.1152567267417908,0.2662015557289124,XArbitraryZVertical,-0.2658336951875197,-0.4941653477880614,0.4609833536518493,0.6874790210175521,-0.4343667924404144,0.821114182472229,-0.3702661097049713,0,0,0,-1,-1,5514.807892000001,unknown,2,2022-06-30T10:01:07.742+02:00,2022-06-30T08:20:05.567+02:00,1511,1.425381,0,0,1194.663,0,0,2022-06-30T10:01:10.290+02:00
2022-06-30T10:01:10.607+02:00,5517.67205825,-1.928070068359375,1.681411743164062,-0.134033203125,5517.66210725,0.5070106400127982,-0.9751475770243726,-0.9680737553003704,-9.445260047912598,5.745858669281006,-6.462499141693115,-1.445397138595581,0.3627281785011292,0.1194113790988922,XArbitraryZVertical,-0.2939913965853887,-0.5045236408453382,0.4071640415941564,0.7023122340900344,-0.4692608118057251,0.8237952589988708,-0.3180499076843262,0,0,0,-1,-1,5514.807892000001,unknown,2,2022-06-30T10:01:07.742+02:00,2022-06-30T08:20:05.567+02:00,1511,1.425381,0,0,1194.663,0,0,2022-06-30T10:01:10.290+02:00
2022-06-30T10:01:10.620+02:00,5517.682010250001,-1.85589599609375,1.922088623046875,-0.0515594482421875,5517.67205825,0.3077339456969281,-1.079661680657553,-0.9631879894174755,-9.569165229797363,6.200801372528076,-6.114619731903076,-1.432535648345947,0.6239609718322754,0.08250236511230469,XArbitraryZVertical,-0.3228158656299445,-0.5110408830184999,0.3517770106366582,0.7147587198592616,-0.5034234523773193,0.8210157752037048,-0.2692542672157288,0,0,0,-1,-1,5514.807892000001,unknown,2,2022-06-30T10:01:07.742+02:00,2022-06-30T08:20:05.567+02:00,1511,1.425381,0,0,1194.663,0,0,2022-06-30T10:01:10.290+02:00
2022-06-30T10:01:10.629+02:00,5517.691961250001,-1.757110595703125,2.062698364257812,0.1032867431640625,5517.682010250001,0.1110867608374796,-1.176725781083432,-0.952104643362502,-10.08561325073242,6.619496822357178,-5.584604263305664,-1.392553091049194,0.8667736053466797,0.08864668011665344,XArbitraryZVertical,-0.3532426246915129,-0.5136924227830957,0.2949951569345658,0.7240977564849331,-0.5355173349380493,0.8146379590034485,-0.2226794809103012,0,0,0,-1,-1,5514.807892000001,unknown,2,2022-06-30T10:01:07.742+02:00,2022-06-30T08:20:05.567+02:00,1511,1.425381,0,0,1194.663,0,0,2022-06-30T10:01:10.290+02:00
2022-06-30T10:01:10.638+02:00,5517.701912250001,-1.6763916015625,2.158950805664062,0.3502349853515625,5517.691961250001,-0.08796896856311134,-1.270134696124779,-0.9386636640044739,-11.08362865447998,7.046825885772705,-4.888842582702637,-1.291535377502441,1.11531925201416,0.1234273910522461,XArbitraryZVertical,-0.3870200954470993,-0.5125643315550228,0.2364835377964434,0.7290876860093138,-0.5643609166145325,0.8067692518234253,-0.1749864965677261,0,0,0,-1,-1,5514.807892000001,unknown,2,2022-06-30T10:01:07.742+02:00,2022-06-30T08:20:05.567+02:00,1511,1.425381,0,0,1194.663,0,0,2022-06-30T10:01:10.290+02:00
2022-06-30T10:01:10.648+02:00,5517.71186425,-1.628692626953125,2.254196166992188,0.6305999755859375,5517.701912250001,-0.297925426623708,-1.366165684768887,-0.9250427190953063,-12.66019725799561,7.547465801239014,-3.993171691894531,-1.167866230010986,1.264051675796509,0.2255761623382568,XArbitraryZVertical,-0.4260917059452199,-0.5072487172914025,0.1755021615581026,0.7282469606610481,-0.5892446637153625,0.7986464500427246,-0.1222891956567764,0,0,0,-1,-1,5514.807892000001,unknown,2,2022-06-30T10:01:07.742+02:00,2022-06-30T08:20:05.567+02:00,1511,1.425381,0,0,1194.663,0,0,2022-06-30T10:01:10.290+02:00
2022-06-30T10:01:10.657+02:00,5517.72181525,-1.601287841796875,2.474288940429688,1.116439819335938,5517.71186425,-0.5254566849078058,-1.469059348924744,-0.9120595273191654,-14.40986728668213,8.098505020141602,-2.769833564758301,-1.067438364028931,1.368184566497803,0.4124029278755188,XArbitraryZVertical,-0.4718992574774222,-0.4962128797036849,0.1119854330093301,0.7200995248126094,-0.6089536547660828,0.7907661199569702,-0.06216773763298988,0,0,0,-1,-1,5514.807892000001,unknown,2,2022-06-30T10:01:07.742+02:00,2022-06-30T08:20:05.567+02:00,1511,1.425381,0,0,1194.663,0,0,2022-06-30T10:01:10.290+02:00
2022-06-30T10:01:10.667+02:00,5517.73176625,-1.482879638671875,2.792144775390625,1.6307373046875,5517.72181525,-0.7758323408286601,-1.583064603658808,-0.8978698378186918,-16.53310012817383,8.559695243835449,-1.433291435241699,-1.005462527275085,1.472195029258728,0.6229537725448608,XArbitraryZVertical,-0.5247789766425462,-0.4779437206695017,0.04633983351711375,0.7028724199300556,-0.6232305765151978,0.7820010185241699,0.007646348793059587,0,0,0,-1,-1,5514.807892000001,unknown,2,2022-06-30T10:01:07.742+02:00,2022-06-30T08:20:05.567+02:00,1511,1.425381,0,0,1194.663,0,0,2022-06-30T10:01:10.290+02:00
2022-06-30T10:01:10.677+02:00,5517.74171825,-1.172317504882812,2.987060546875,2.004348754882812,5517.73176625,-1.051968779280247,-1.710740629449335,-0.8781347841526109,-18.59579467773438,8.804727554321289,0.2073328942060471,-0.9689435958862305,1.704739451408386,1.027364611625671,XArbitraryZVertical,-0.5841663094640899,-0.4508739926496661,-0.02059057102099626,0.6745652801533248,-0.6323445439338684,0.7695491313934326,0.08907526731491089,0,0,0,-1,-1,5514.807892000001,unknown,2,2022-06-30T10:01:07.742+02:00,2022-06-30T08:20:05.567+02:00,1511,1.425381,0,0,1194.663,0,0,2022-06-30T10:01:10.290+02:00
2022-06-30T10:01:10.687+02:00,5517.75166925,-0.84210205078125,2.935287475585938,1.908279418945312,5517.74171825,-1.344307054036275,-1.847104144970068,-0.8495305635652438,-19.67879295349121,8.383131980895996,2.06240177154541,-0.8475912809371948,2.041173934936523,1.450594186782837,XArbitraryZVertical,-0.6470380397857529,-0.414020941333195,-0.08485276845422624,0.6346088621380319,-0.6352886557579041,0.7509704828262329,0.1801431328058243,0,0,0,-1,-1,5514.807892000001,unknown,2,2022-06-30T10:01:07.742+02:00,2022-06-30T08:20:05.567+02:00,1511,1.425381,0,0,1194.663,0,0,2022-06-30T10:01:10.290+02:00
2022-06-30T10:01:10.698+02:00,5517.76162025,-0.5956268310546875,2.815277099609375,1.646987915039062,5517.75166925,-1.627071528502556,-1.977843642425644,-0.8117614350923675,-18.70043563842773,7.257093906402588,3.589914798736572,-0.5403281450271606,2.261559724807739,1.731881976127625,XArbitraryZVertical,-0.7068613018272722,-0.3695679190020822,-0.1403630513584865,0.5865704603712668,-0.6319896578788757,0.7255005836486816,0.2724666893482208,0,0,0,-1,-1,5514.807892000001,unknown,2,2022-06-30T10:01:07.742+02:00,2022-06-30T08:20:05.567+02:00,1511,1.425381,0,0,1194.663,0,0,2022-06-30T10:01:10.290+02:00
2022-06-30T10:01:10.707+02:00,5517.771572250001,-0.480865478515625,2.512374877929688,1.286224365234375,5517.76162025,-1.87594121699182,-2.088715843481602,-0.771426831351643,-16.33525657653809,6.024899959564209,4.81571102142334,-0.2192084789276123,2.238128423690796,1.553352832794189,XArbitraryZVertical,-0.7577583909063611,-0.3213494994428748,-0.1830146633951346,0.5376266484421403,-0.6228939294815063,0.6971588730812073,0.3549265563488007,0,0,0,-1,-1,5514.807892000001,unknown,2,2022-06-30T10:01:07.742+02:00,2022-06-30T08:20:05.567+02:00,1511,1.425381,0,0,1194.663,0,0,2022-06-30T10:01:10.290+02:00
2022-06-30T10:01:10.717+02:00,5517.781523250001,-0.72467041015625,1.956451416015625,1.075592041015625,5517.771572250001,-2.086663317705275,-2.178011333795305,-0.7382945178266732,-13.39675903320312,4.966552734375,5.908424377441406,0.01177656650543213,2.142249584197998,1.224974870681763,XArbitraryZVertical,-0.7982966288622633,-0.2715307583861103,-0.2124739870635721,0.493810135118053,-0.6074038147926331,0.673027515411377,0.4220129251480103,0,0,0,-1,-1,5514.807892000001,unknown,2,2022-06-30T10:01:07.742+02:00,2022-06-30T08:20:05.567+02:00,1511,1.425381,0,0,1194.663,0,0,2022-06-30T10:01:10.290+02:00
2022-06-30T10:01:10.727+02:00,5517.791474250001,-1.171310424804688,1.357940673828125,1.22906494140625,5517.781523250001,-2.263611815707413,-2.250978253082253,-0.7166986764360905,-10.52607536315918,3.978971242904663,6.465863704681396,0.1053211688995361,1.855475664138794,0.8120209574699402,XArbitraryZVertical,-0.8292233963564237,-0.2224639181665962,-0.2305948641663311,0.4579569309091633,-0.5861871242523193,0.6568991541862488,0.4742032587528229,0,0,0,-1,-1,5514.807892000001,unknown,2,2022-06-30T10:01:07.742+02:00,2022-06-30T08:20:05.567+02:00,1511,1.425381,0,0,1194.663,0,0,2022-06-30T10:01:10.290+02:00
2022-06-30T10:01:10.737+02:00,5517.80142625,-1.426239013671875,0.78228759765625,1.41778564453125,5517.791474250001,-2.412929490726433,-2.313657960615792,-0.7054685759059579,-8.28067684173584,3.002511978149414,6.617650508880615,-0.1639400720596313,1.308060765266418,0.5606443881988525,XArbitraryZVertical,-0.8522861008797988,-0.1763012751199346,-0.2400023099370283,0.430029339322636,-0.5607306957244873,0.6483906507492065,0.5149474740028381,0,0,0,-1,-1,5514.807892000001,unknown,2,2022-06-30T10:01:07.742+02:00,2022-06-30T08:20:05.567+02:00,1511,1.425381,0,0,1194.663,0,0,2022-06-30T10:01:10.290+02:00
2022-06-30T10:01:10.747+02:00,5517.81137725,-1.367218017578125,0.342926025390625,1.537811279296875,5517.80142625,-2.54253004080436,-2.37217889047253,-0.7009788472971249,-6.686050891876221,2.07200813293457,6.546542167663574,-0.6396380662918091,0.7129746675491333,0.6801174879074097,XArbitraryZVertical,-0.8698176209307061,-0.133756970063826,-0.2428679148289946,0.4080950867992007,-0.5316727161407471,0.6449660658836365,0.5489472150802612,0,0,0,-1,-1,5514.807892000001,unknown,2,2022-06-30T10:01:07.742+02:00,2022-06-30T08:20:05.567+02:00,1511,1.425381,0,0,1194.663,0,0,2022-06-30T10:01:10.290+02:00
2022-06-30T10:01:10.757+02:00,5517.82132825,-1.23150634765625,0.0734100341796875,1.620880126953125,5517.81137725,-2.657181808316581,-2.430137024046093,-0.6996272190540478,-5.429675102233887,1.143931269645691,6.227484703063965,-0.9266886711120605,0.1383552551269531,0.8383025527000427,XArbitraryZVertical,-0.8835455287714485,-0.09533509112345262,-0.2405764869333348,0.3903609174816445,-0.4995507597923279,0.6439325213432312,0.5794829726219177,0,0,0,-1,-1,5514.807892000001,unknown,2,2022-06-30T10:01:07.742+02:00,2022-06-30T08:20:05.567+02:00,1511,1.425381,0,0,1194.663,0,0,2022-06-30T10:01:10.290+02:00
2022-06-30T10:01:10.767+02:00,5517.83128025,-1.147613525390625,-0.04840087890625,1.720474243164062,5517.82132825,-2.757883766198077,-2.487803506797667,-0.6999910201218643,-4.312755107879639,0.3194791376590729,5.812940120697021,-0.9020388126373291,-0.3012844920158386,0.9306859970092773,XArbitraryZVertical,-0.8943009437096976,-0.06154994612110272,-0.2341818126244432,0.3762931145579295,-0.4651796817779541,0.6442108154296875,0.6071251630783081,0,0,0,-1,-1,5514.807892000001,unknown,2,2022-06-30T10:01:07.742+02:00,2022-06-30T08:20:05.567+02:00,1511,1.425381,0,0,1194.663,0,0,2022-06-30T10:01:10.290+02:00
2022-06-30T10:01:10.777+02:00,5517.84123125,-1.089691162109375,-0.0829925537109375,1.838272094726562,5517.83128025,-2.845707159950668,-2.545108802903997,-0.7024838209729016,-3.192737817764282,-0.4325914084911346,5.394590377807617,-0.8027665615081787,-0.5727052688598633,0.9894393682479858,XArbitraryZVertical,-0.9025946074589302,-0.03229869900648391,-0.2244089140327611,0.3659514778959257,-0.4287400543689728,0.6461154222488403,0.6314404606819153,0,0,0,-1,-1,5514.807892000001,unknown,2,2022-06-30T10:01:07.742+02:00,2022-06-30T08:20:05.567+02:00,1511,1.425381,0,0,1194.663,0,0,2022-06-30T10:01:10.290+02:00
2022-06-30T10:01:10.787+02:00,5517.85118225,-1.060043334960938,-0.11004638671875,1.948074340820312,5517.84123125,-2.921585948804368,-2.602091046927057,-0.70805532717917,-2.118477582931519,-1.119746804237366,4.974892616271973,-0.7573864459991455,-0.6987584233283997,1.068739652633667,XArbitraryZVertical,-0.9087420507611323,-0.007421264108015447,-0.2117711293478813,0.3595635263611076,-0.3902274966239929,0.6503577828407288,0.6517343521118164,0,0,0,-1,-1,5514.807892000001,unknown,2,2022-06-30T10:01:07.742+02:00,2022-06-30T08:20:05.567+02:00,1511,1.425381,0,0,1194.663,0,0,2022-06-30T10:01:10.290+02:00
2022-06-30T10:01:10.797+02:00,5517.861134250001,-1.069259643554688,-0.125732421875,2.078399658203125,5517.85118225,-2.986590715280812,-2.658926120370371,-0.7172628028719277,-1.163673400878906,-1.756579160690308,4.547506332397461,-0.739909827709198,-0.7403167486190796,1.170755863189697,XArbitraryZVertical,-0.9130075448453187,0.01323802464576921,-0.1967327038629846,0.3571250110911992,-0.3497816324234009,0.6573243737220764,0.6675160527229309,0,0,0,-1,-1,5514.807892000001,unknown,2,2022-06-30T10:01:07.742+02:00,2022-06-30T08:20:05.567+02:00,1511,1.425381,0,0,1194.663,0,0,2022-06-30T10:01:10.290+02:00
2022-06-30T10:01:10.806+02:00,5517.871085250001,-1.085357666015625,-0.180023193359375,2.165740966796875,5517.861134250001,-3.043680313376495,-2.717062314763824,-0.7288787700121595,-0.5700024962425232,-2.323420763015747,4.203190326690674,-0.7528037428855896,-0.7760798335075378,1.268366098403931,XArbitraryZVertical,-0.9159343828215449,0.03030344633088455,-0.1795518638627974,0.3576411344851794,-0.3072399199008942,0.6660336852073669,0.6797081828117371,0,0,0,-1,-1,5514.807892000001,unknown,2,2022-06-30T10:01:07.742+02:00,2022-06-30T08:20:05.567+02:00,1511,1.425381,0,0,1194.663,0,0,2022-06-30T10:01:10.290+02:00
2022-06-30T10:01:10.816+02:00,5517.88103725,-1.062789916992188,-0.295684814453125,2.179275512695312,5517.871085250001,-3.096291636759151,-2.777989469707774,-0.7401290953924243,-0.4124999344348907,-2.819627046585083,3.909368753433228,-0.8066588044166565,-0.8001155257225037,1.388292193412781,XArbitraryZVertical,-0.9181850461983383,0.04460745207300477,-0.160462538236802,0.3594414827722786,-0.2626010775566101,0.6743832230567932,0.6901072263717651,0,0,0,-1,-1,5514.807892000001,unknown,2,2022-06-30T10:01:07.742+02:00,2022-06-30T08:20:05.567+02:00,1511,1.425381,0,0,1194.663,0,0,2022-06-30T10:01:10.290+02:00
2022-06-30T10:01:10.826+02:00,5517.89098825,-1.041854858398438,-0.3639068603515625,2.152572631835938,5517.88103725,3.136582407564708,-2.842208850391129,-0.7480319351971557,-0.5512346029281616,-3.213535070419312,3.636852741241455,-0.8691647052764893,-0.8602206110954285,1.465318202972412,XArbitraryZVertical,-0.9203183235262252,0.05679260122453927,-0.1397280923694284,0.3609220685459841,-0.2161932438611984,0.6801974177360535,0.7004224061965942,0,0,0,-1,-1,5514.807892000001,unknown,2,2022-06-30T10:01:07.742+02:00,2022-06-30T08:20:05.567+02:00,1511,1.425381,0,0,1194.663,0,0,2022-06-30T10:01:10.290+02:00
2022-06-30T10:01:10.836+02:00,5517.90093925,-1.036117553710938,-0.410003662109375,2.087417602539062,5517.89098825,3.087957346550751,-2.908872758214552,-0.7501998552478308,-0.9392041563987732,-3.514165878295898,3.379899501800537,-0.894075870513916,-0.9774695038795471,1.467443227767944,XArbitraryZVertical,-0.9227062226081592,0.06730019220609729,-0.1177440363571044,0.3608605693756257,-0.1687143445014954,0.681784987449646,0.7118321657180786,0,0,0,-1,-1,5514.807892000001,unknown,2,2022-06-30T10:01:07.742+02:00,2022-06-30T08:20:05.567+02:00,1511,1.425381,0,0,1194.663,0,0,2022-06-30T10:01:10.290+02:00
2022-06-30T10:01:10.846+02:00,5517.910891250001,-1.034622192382812,-0.400970458984375,2.014663696289062,5517.90093925,3.041655089452167,-2.976829798358521,-0.7457203958045687,-1.275589108467102,-3.802828073501587,3.120701789855957,-0.921367347240448,-1.042407751083374,1.427921533584595,XArbitraryZVertical,-0.925475148133113,0.07629688128550915,-0.09467191618517933,0.3587642770128778,-0.1204878240823746,0.6785011887550354,0.7246509194374084,0,0,0,-1,-1,5514.807892000001,unknown,2,2022-06-30T10:01:07.742+02:00,2022-06-30T08:20:05.567+02:00,1511,1.425381,0,0,1194.663,0,0,2022-06-30T10:01:10.290+02:00
2022-06-30T10:01:10.856+02:00,5517.920842250001,-1.034408569335938,-0.34832763671875,1.96112060546875,5517.910891250001,2.999465771570482,-3.044617895378753,-0.7362967074330148,-1.394015908241272,-4.094148635864258,2.828823566436768,-0.9643759727478027,-1.081552028656006,1.349938154220581,XArbitraryZVertical,-0.92830820378293,0.08356739657441875,-0.07062999982887126,0.3553473921381561,-0.07174190133810043,0.6715485453605652,0.7374792695045471,0,0,0,-1,-1,5514.807892000001,unknown,2,2022-06-30T10:01:07.742+02:00,2022-06-30T08:20:05.567+02:00,1511,1.425381,0,0,1194.663,0,0,2022-06-30T10:01:10.290+02:00
2022-06-30T10:01:10.866+02:00,5517.930793250001,-1.047195434570312,-0.2930908203125,1.893478393554688,5517.920842250001,2.962751331561646,-3.11140739614806,-0.72453304125149,-1.309632897377014,-4.400993824005127,2.502962827682495,-1.012022972106934,-1.063755989074707,1.266195297241211,XArbitraryZVertical,-0.9307763246417613,0.08882320069815247,-0.04570051894767336,0.3516781110344553,-0.02259957045316696,0.6627858281135559,0.748468279838562,0,0,0,-1,-1,5514.807892000001,unknown,2,2022-06-30T10:01:07.742+02:00,2022-06-30T08:20:05.567+02:00,1511,1.425381,0,0,1194.663,0,0,2022-06-30T10:01:10.290+02:00
2022-06-30T10:01:10.876+02:00,5517.94074525,-1.062255859375,-0.2068328857421875,1.8157958984375,5517.930793250001,2.931787402329921,3.105973212832282,-0.7125705305677105,-1.081806898117065,-4.722589492797852,2.18376636505127,-1.061355829238892,-1.002108335494995,1.204916477203369,XArbitraryZVertical,-0.9325496112702375,0.09194139273047994,-0.01991804987348857,0.348570421012223,0.02694696001708508,0.653780996799469,0.7562040090560913,0,0,0,-1,-1,5514.807892000001,unknown,2,2022-06-30T10:01:07.742+02:00,2022-06-30T08:20:05.567+02:00,1511,1.425381,0,0,1194.663,0,0,2022-06-30T10:01:10.290+02:00
2022-06-30T10:01:10.886+02:00,5517.95069625,-1.051971435546875,-0.122314453125,1.7413330078125,5517.94074525,2.905979123675608,3.040542406250297,-0.7019551346658582,-0.7707910537719727,-5.046720027923584,1.893746852874756,-1.124224543571472,-0.9388023018836975,1.133792161941528,XArbitraryZVertical,-0.9333793270804385,0.09298479314640633,0.006737425583591676,0.3465711967042028,0.07702884823083878,0.6457118391990662,0.759686291217804,0,0,0,-1,-1,5514.807892000001,unknown,2,2022-06-30T10:01:07.742+02:00,2022-06-30T08:20:05.567+02:00,1511,1.425381,0,0,1194.663,0,0,2022-06-30T10:01:10.290+02:00
2022-06-30T10:01:10.896+02:00,5517.96064725,-1.036056518554688,-0.0801849365234375,1.69525146484375,5517.95069625,2.884182360879719,2.974897508759956,-0.6935605587337851,-0.4724799692630768,-5.320456504821777,1.661260366439819,-1.189847707748413,-0.8461117148399353,1.057480096817017,XArbitraryZVertical,-0.9330871070386439,0.09223000909664678,0.03417663785084188,0.3459395305397523,0.1275915652513504,0.6392791867256165,0.7583158612251282,0,0,0,-1,-1,5514.807892000001,unknown,2,2022-06-30T10:01:07.742+02:00,2022-06-30T08:20:05.567+02:00,1511,1.425381,0,0,1194.663,0,0,2022-06-30T10:01:10.290+02:00
2022-06-30T10:01:10.906+02:00,5517.97059925,-1.019912719726562,-0.0384674072265625,1.622665405273438,5517.96064725,2.865215803117762,2.908724704764668,-0.6867201440010285,-0.3242305815219879,-5.543026447296143,1.494728446006775,-1.230432271957397,-0.7563181519508362,0.9888764023780823,XArbitraryZVertical,-0.9317250036325649,0.09009376435612981,0.06228763275066874,0.3462543342887091,0.1784605979919434,0.6340041756629944,0.7524567246437073,0,0,0,-1,-1,5514.807892000001,unknown,2,2022-06-30T10:01:07.742+02:00,2022-06-30T08:20:05.567+02:00,1511,1.425381,0,0,1194.663,0,0,2022-06-30T10:01:10.290+02:00
2022-06-30T10:01:10.916+02:00,5517.98055025,-0.99383544921875,0.02093505859375,1.564407348632812,5517.97059925,2.848699892309626,2.842293270997622,-0.6799529235121435,-0.338153064250946,-5.699728488922119,1.347854018211365,-1.265333533287048,-0.7089412212371826,0.9522187113761902,XArbitraryZVertical,-0.9295017845120626,0.08684890549955628,0.09093705113289974,0.3467190678864159,0.229276642203331,0.6287564039230347,0.7430325746536255,0,0,0,-1,-1,5514.807892000001,unknown,2,2022-06-30T10:01:07.742+02:00,2022-06-30T08:20:05.567+02:00,1511,1.425381,0,0,1194.663,0,0,2022-06-30T10:01:10.290+02:00
2022-06-30T10:01:10.926+02:00,5517.99050125,-0.988861083984375,0.083465576171875,1.53466796875,5517.98055025,2.834725870275357,2.776274901499233,-0.6719383637669843,-0.4931917190551758,-5.803772926330566,1.254372119903564,-1.299499750137329,-0.6609712839126587,0.8916935324668884,XArbitraryZVertical,-0.9266314092749388,0.08270515085007044,0.1199265579579262,0.3466001868195083,0.2795866727828979,0.6225041747093201,0.7309718132019043,0,0,0,-1,-1,5514.807892000001,unknown,2,2022-06-30T10:01:07.742+02:00,2022-06-30T08:20:05.567+02:00,1511,1.425381,0,0,1194.663,0,0,2022-06-30T10:01:10.290+02:00
2022-06-30T10:01:10.936+02:00,5518.000453250001,-0.97576904296875,0.2044677734375,1.50653076171875,5517.99050125,2.823498457543641,2.711301746716016,-0.6617443382340435,-0.7183161973953247,-5.852380752563477,1.169637441635132,-1.322922825813293,-0.5935584902763367,0.8474001288414001,XArbitraryZVertical,-0.9232781291541244,0.07785310294174541,0.1490958420767783,0.3453504745236889,0.3290870785713196,0.6144939064979553,0.7170072197914124,0,0,0,-1,-1,5514.807892000001,unknown,2,2022-06-30T10:01:07.742+02:00,2022-06-30T08:20:05.567+02:00,1511,1.425381,0,0,1194.663,0,0,2022-06-30T10:01:10.290+02:00
2022-06-30T10:01:10.946+02:00,5518.010404250001,-0.9119873046875,0.3438873291015625,1.468643188476562,5518.000453250001,2.81566873400102,2.648128483195429,-0.6493276156081247,-0.9637778997421265,-5.876778125762939,1.070178508758545,-1.366142868995667,-0.5211851000785828,0.8332008123397827,XArbitraryZVertical,-0.9195194958647631,0.07223237524421815,0.1782239824145547,0.3427866840445312,0.3772814571857452,0.6046509742736816,0.7014672160148621,0,0,0,-1,-1,5514.807892000001,unknown,2,2022-06-30T10:01:07.742+02:00,2022-06-30T08:20:05.567+02:00,1511,1.425381,0,0,1194.663,0,0,2022-06-30T10:01:10.290+02:00
2022-06-30T10:01:10.956+02:00,5518.020355250001,-0.836273193359375,0.4463653564453125,1.41217041015625,5518.010404250001,2.811167306553502,2.58694693314014,-0.6348720555790378,-1.193703889846802,-5.868866443634033,1.019261956214905,-1.399794101715088,-0.3886064291000366,0.8220852017402649,XArbitraryZVertical,-0.9153518593681036,0.0659831947894354,0.207189148474414,0.3388950940577903,0.4240247011184692,0.5930745005607605,0.6844456195831299,0,0,0,-1,-1,5514.807892000001,unknown,2,2022-06-30T10:01:07.742+02:00,2022-06-30T08:20:05.567+02:00,1511,1.425381,0,0,1194.663,0,0,2022-06-30T10:01:10.290+02:00
2022-06-30T10:01:10.966+02:00,5518.03030725,-0.7710418701171875,0.5131683349609375,1.358322143554688,5518.020355250001,2.809748445007024,2.52793457645291,-0.6185431364710905,-1.429227232933044,-5.814944744110107,0.9885254502296448,-1.381156206130981,-0.2359613180160522,0.8025680184364319,XArbitraryZVertical,-0.9107797288735862,0.05931106024584734,0.2358343408739865,0.3336833181706343,0.469168484210968,0.5798488259315491,0.6660750508308411,0,0,0,-1,-1,5514.807892000001,unknown,2,2022-06-30T10:01:07.742+02:00,2022-06-30T08:20:05.567+02:00,1511,1.425381,0,0,1194.663,0,0,2022-06-30T10:01:10.290+02:00
2022-06-30T10:01:10.976+02:00,5518.04025825,-0.7027130126953125,0.5223388671875,1.308456420898438,5518.03030725,2.811648236073326,2.471489852044347,-0.6001580733151929,-1.720979452133179,-5.734567165374756,0.9761502742767334,-1.348806500434875,-0.1184073686599731,0.7653771638870239,XArbitraryZVertical,-0.9059044849396062,0.05228485878098451,0.2640141887159358,0.3269554510830951,0.5125328898429871,0.56477290391922,0.6467933058738708,0,0,0,-1,-1,5514.807892000001,unknown,2,2022-06-30T10:01:07.742+02:00,2022-06-30T08:20:05.567+02:00,1511,1.425381,0,0,1194.663,0,0,2022-06-30T10:01:10.290+02:00
2022-06-30T10:01:10.986+02:00,5518.05020925,-0.655242919921875,0.5467987060546875,1.283096313476562,5518.04025825,2.817022134272999,2.417945373358648,-0.5798124802381636,-2.002815008163452,-5.624346256256104,0.9612321853637695,-1.324950933456421,-0.03469854593276978,0.7314037084579468,XArbitraryZVertical,-0.9007991390118234,0.04494648495314169,0.2915546677191215,0.3186480559260437,0.5539085865020752,0.5478670597076416,0.6269185543060303,0,0,0,-1,-1,5514.807892000001,unknown,2,2022-06-30T10:01:07.742+02:00,2022-06-30T08:20:05.567+02:00,1511,1.425381,0,0,1194.663,0,0,2022-06-30T10:01:10.290+02:00
2022-06-30T10:01:10.995+02:00,5518.06016125,-0.632598876953125,0.52020263671875,1.259017944335938,5518.05020925,2.826371445005138,2.367704334181198,-0.557584103883675,-2.355485200881958,-5.477798938751221,0.9192272424697876,-1.295773386955261,-0.00679856538772583,0.7015848159790039,XArbitraryZVertical,-0.8955743288133859,0.0371817288285246,0.3182924442578313,0.3086327278192699,0.5930600762367249,0.5291377902030945,0.6068717241287231,0,0,0,-1,-1,5514.807892000001,unknown,2,2022-06-30T10:01:07.742+02:00,2022-06-30T08:20:05.567+02:00,1511,1.425381,0,0,1194.663,0,0,2022-06-30T10:01:10.290+02:00
2022-06-30T10:01:11.006+02:00,5518.07011225,-0.5867462158203125,0.5166168212890625,1.258834838867188,5518.06016125,2.839828655530617,2.320958544162778,-0.5341251670590463,-2.578518390655518,-5.320947170257568,0.8327521085739136,-1.284923195838928,0.03771072626113892,0.6962979435920715,XArbitraryZVertical,-0.8902614776913039,0.02887394355150766,0.3440136994488581,0.2970780667383996,0.6296799182891846,0.5090882778167725,0.5867984294891357,0,0,0,-1,-1,5514.807892000001,unknown,2,2022-06-30T10:01:07.742+02:00,2022-06-30T08:20:05.567+02:00,1511,1.425381,0,0,1194.663,0,0,2022-06-30T10:01:10.290+02:00
2022-06-30T10:01:11.015+02:00,5518.08006325,-0.5025177001953125,0.5947723388671875,1.163909912109375,5518.07011225,2.856645285789133,2.276953432472994,-0.5108319744787412,-2.707874298095703,-5.208497524261475,0.7129966616630554,-1.296327590942383,0.03129985928535461,0.6929450631141663,XArbitraryZVertical,-0.8846683068987908,0.01996431895195878,0.3687049262924098,0.2846406164719053,0.6637284159660339,0.4889031648635864,0.5660731792449951,0,0,0,-1,-1,5514.807892000001,unknown,2,2022-06-30T10:01:07.742+02:00,2022-06-30T08:20:05.567+02:00,1511,1.425381,0,0,1194.663,0,0,2022-06-30T10:01:10.290+02:00
2022-06-30T10:01:11.025+02:00,5518.090015250001,-0.5081787109375,0.7049713134765625,1.113555908203125,5518.08006325,2.875649654856847,2.234780319591647,-0.4887939054074483,-2.683470726013184,-5.107748985290527,0.6112868785858154,-1.282068490982056,0.04705575108528137,0.7147397398948669,XArbitraryZVertical,-0.878598643913816,0.01058738983040983,0.39242235790514,0.271950582618809,0.6953219771385193,0.469561368227005,0.5440953373908997,0,0,0,-1,-1,5514.807892000001,unknown,2,2022-06-30T10:01:07.742+02:00,2022-06-30T08:20:05.567+02:00,1511,1.425381,0,0,1194.663,0,0,2022-06-30T10:01:10.290+02:00
2022-06-30T10:01:11.035+02:00,5518.099966250001,-0.5712432861328125,0.779876708984375,1.087081909179688,5518.090015250001,2.895315702878802,2.193316933698875,-0.4684078519568488,-2.587078332901001,-5.035203456878662,0.5641654133796692,-1.227423191070557,0.1433064639568329,0.6436303853988647,XArbitraryZVertical,-0.8718592699600298,0.001140975733655008,0.4153841918639065,0.2594536213634893,0.7249051928520203,0.4514662027359009,0.5202797651290894,0,0,0,-1,-1,5514.807892000001,unknown,2,2022-06-30T10:01:07.742+02:00,2022-06-30T08:20:05.567+02:00,1511,1.425381,0,0,1194.663,0,0,2022-06-30T10:01:10.290+02:00
2022-06-30T10:01:11.046+02:00,5518.109917250001,-0.5790863037109375,0.7866973876953125,1.053359985351562,5518.099966250001,2.915530369308331,2.152684855694927,-0.4496110611451027,-2.564158916473389,-4.931814193725586,0.4917001128196716,-1.260577440261841,0.2703562676906586,0.6185750365257263,XArbitraryZVertical,-0.8645352360340269,-0.008327070385505453,0.4375265922034712,0.2471435721107929,0.7523983716964722,0.434615284204483,0.4949810206890106,0,0,0,-1,-1,5514.807892000001,unknown,2,2022-06-30T10:01:07.742+02:00,2022-06-30T08:20:05.567+02:00,1511,1.425381,0,0,1194.663,0,0,2022-06-30T10:01:10.290+02:00
2022-06-30T10:01:11.055+02:00,5518.11986925,-0.556793212890625,0.7535858154296875,1.012298583984375,5518.109917250001,2.93684044517797,2.11316833746574,-0.4321158679875629,-2.59330415725708,-4.838277816772461,0.4241016209125519,-1.349003553390503,0.3610839247703552,0.6183584928512573,XArbitraryZVertical,-0.8567605497105143,-0.01797848754744693,0.4588224335062556,0.2347769471315684,0.7777600288391113,0.418793112039566,0.4687237441539764,0,0,0,-1,-1,5514.807892000001,unknown,2,2022-06-30T10:01:07.742+02:00,2022-06-30T08:20:05.567+02:00,1511,1.425381,0,0,1194.663,0,0,2022-06-30T10:01:10.290+02:00
2022-06-30T10:01:11.065+02:00,5518.12982025,-0.5487213134765625,0.761566162109375,1.009841918945312,5518.11986925,2.959092068903478,2.074460422265938,-0.4161394747118745,-2.525946855545044,-4.791743755340576,0.3154082894325256,-1.380160927772522,0.3824653327465057,0.6119125485420227,XArbitraryZVertical,-0.8484973072944277,-0.0278614713578778,0.4793597406709579,0.2224645156201732,0.8010745048522949,0.4042324125766754,0.4414478838443756,0,0,0,-1,-1,5514.807892000001,unknown,2,2022-06-30T10:01:07.742+02:00,2022-06-30T08:20:05.567+02:00,1511,1.425381,0,0,1194.663,0,0,2022-06-30T10:01:10.290+02:00
2022-06-30T10:01:11.075+02:00,5518.13977125,-0.506561279296875,0.79058837890625,1.00347900390625,5518.12982025,2.981794148255431,2.035783846732307,-0.4026202915923819,-2.475592613220215,-4.792009353637695,0.1490853279829025,-1.379148006439209,0.3617557287216187,0.5997434258460999,XArbitraryZVertical,-0.8395382781303041,-0.0381221133173848,0.4993330148521164,0.2106867552867211,0.8223547339439392,0.3918304443359375,0.4125556349754333,0,0,0,-1,-1,5514.807892000001,unknown,2,2022-06-30T10:01:07.742+02:00,2022-06-30T08:20:05.567+02:00,1511,1.425381,0,0,1194.663,0,0,2022-06-30T10:01:10.290+02:00
2022-06-30T10:01:11.090+02:00,5518.149723250001,-0.4693603515625,0.7276153564453125,0.9530029296875,5518.13977125,3.005922809110671,1.997421627145514,-0.3910326628991274,-2.567389965057373,-4.79179573059082,0.03718899562954903,-1.390370845794678,0.3804231882095337,0.627276599407196,XArbitraryZVertical,-0.8299872612146282,-0.04903064848602315,0.5187789912493043,0.1989616023157102,0.8416494727134705,0.38114333152771,0.3825657069683075,0,0,0,-1,-1,5514.807892000001,unknown,2,2022-06-30T10:01:07.742+02:00,2022-06-30T08:20:05.567+02:00,1511,1.425381,0,0,1194.663,0,0,2022-06-30T10:01:10.290+02:00
2022-06-30T10:01:11.095+02:00,5518.159674250001,-0.494049072265625,0.72998046875,0.9309844970703125,5518.149723250001,3.031581370941267,1.959245453858092,-0.3811845030779878,-2.604228734970093,-4.830703735351562,-0.1146751046180725,-1.365631222724915,0.4185684621334076,0.6519109010696411,XArbitraryZVertical,-0.8198241712558009,-0.06060138957302287,0.5377686145804528,0.1871383982072839,0.8590697050094604,0.3720202147960663,0.3515684008598328,0,0,0,-1,-1,5514.807892000001,unknown,2,2022-06-30T10:01:07.742+02:00,2022-06-30T08:20:05.567+02:00,1511,1.425381,0,0,1194.663,0,0,2022-06-30T10:01:10.290+02:00
2022-06-30T10:01:11.105+02:00,5518.16962625,-0.5720672607421875,0.816314697265625,0.84381103515625,5518.159674250001,3.05866493745683,1.920843821664834,-0.3738531061022237,-2.660602807998657,-4.900704383850098,-0.3338860869407654,-1.343832969665527,0.3624105751514435,0.6337487697601318,XArbitraryZVertical,-0.8088823755481118,-0.07305164962784942,0.5563932602813867,0.175497830393666,0.8744726181030273,0.3652051091194153,0.3192544877529144,0,0,0,-1,-1,5514.807892000001,unknown,2,2022-06-30T10:01:07.742+02:00,2022-06-30T08:20:05.567+02:00,1511,1.425381,0,0,1194.663,0,0,2022-06-30T10:01:10.290+02:00
2022-06-30T10:01:11.115+02:00,5518.17957725,-0.6526641845703125,0.911224365234375,0.69476318359375,5518.16962625,3.087297285978289,1.882025396402364,-0.3696064722180674,-2.672268152236938,-5.00120735168457,-0.5909895896911621,-1.381721138954163,0.3687322735786438,0.6454355716705322,XArbitraryZVertical,-0.7970390531439759,-0.08662187130245096,0.5746970235515921,0.1641612434204074,0.8876720070838928,0.3612484931945801,0.2855491936206818,0,0,0,-1,-1,5514.807892000001,unknown,2,2022-06-30T10:01:07.742+02:00,2022-06-30T08:20:05.567+02:00,1511,1.425381,0,0,1194.663,0,0,2022-06-30T10:01:10.290+02:00
2022-06-30T10:01:11.125+02:00,5518.18952825,-0.6835174560546875,0.9803924560546875,0.5695343017578125,5518.17957725,3.116146655171493,1.841813050669312,-0.3693897160121225,-2.50562310218811,-5.193367481231689,-0.9127660989761353,-1.470576524734497,0.4552685618400574,0.5941579341888428,XArbitraryZVertical,-0.7839602832879305,-0.1011584387955017,0.5928990661145508,0.1537660118536419,0.8985092043876648,0.3610463738441467,0.2496535181999207,0,0,0,-1,-1,5514.807892000001,unknown,2,2022-06-30T10:01:07.742+02:00,2022-06-30T08:20:05.567+02:00,1511,1.425381,0,0,1194.663,0,0,2022-06-30T10:01:10.290+02:00
2022-06-30T10:01:11.135+02:00,5518.19947925,-0.5809478759765625,0.993133544921875,0.3863372802734375,5518.18952825,-3.13957630435775,1.798768099283526,-0.373892188921173,-2.255998373031616,-5.48827600479126,-1.205453395843506,-1.559491515159607,0.5459831357002258,0.4843751192092896,XArbitraryZVertical,-0.7691852358119644,-0.1163970372057026,0.6113996931530501,0.1449008911312523,0.9068271517753601,0.3652414679527283,0.2103883922100067,0,0,0,-1,-1,5514.807892000001,unknown,2,2022-06-30T10:01:07.742+02:00,2022-06-30T08:20:05.567+02:00,1511,1.425381,0,0,1194.663,0,0,2022-06-30T10:01:10.290+02:00
2022-06-30T10:01:11.146+02:00,5518.20943125,-0.4593048095703125,0.904296875,0.298187255859375,5518.19947925,-3.113877924272265,1.751807906944918,-0.382611088476199,-2.119359016418457,-5.86251974105835,-1.457443356513977,-1.596054077148438,0.6070486903190613,0.4025269746780396,XArbitraryZVertical,-0.7523501879351435,-0.1321856219445836,0.6305851669792059,0.1373266373161377,0.9125365018844604,0.3733440339565277,0.1670076847076416,0,0,0,-1,-1,5514.807892000001,unknown,2,2022-06-30T10:01:07.742+02:00,2022-06-30T08:20:05.567+02:00,1511,1.425381,0,0,1194.663,0,0,2022-06-30T10:01:10.290+02:00
2022-06-30T10:01:11.155+02:00,5518.21938225,-0.3000335693359375,0.745147705078125,0.32769775390625,5518.20943125,-3.087985773751826,1.701924147341793,-0.3947563235741073,-2.287327527999878,-6.158218383789062,-1.627175092697144,-1.496113657951355,0.6085504293441772,0.265641450881958,XArbitraryZVertical,-0.7335863173166669,-0.1489940877128163,0.6501794371250209,0.1300715922645939,0.9151656627655029,0.3845832645893097,0.1206962466239929,0,0,0,-1,-1,5514.807892000001,unknown,2,2022-06-30T10:01:07.742+02:00,2022-06-30T08:20:05.567+02:00,1511,1.425381,0,0,1194.663,0,0,2022-06-30T10:01:10.290+02:00
2022-06-30T10:01:11.165+02:00,5518.229334250001,-0.215087890625,0.78656005859375,0.3043212890625,5518.21938225,-3.059898416246623,1.65018565770557,-0.4094452159924829,-2.568698406219482,-6.561779499053955,-1.692590713500977,-1.373757481575012,0.5061966180801392,0.2254370450973511,XArbitraryZVertical,-0.713037606367855,-0.167190657275482,0.6698646776943986,0.1220904968043764,0.9144526124000549,0.3981004655361176,0.07275068759918213,0,0,0,-1,-1,5514.807892000001,unknown,2,2022-06-30T10:01:07.742+02:00,2022-06-30T08:20:05.567+02:00,1511,1.425381,0,0,1194.663,0,0,2022-06-30T10:01:10.290+02:00
2022-06-30T10:01:11.177+02:00,5518.239285250001,-0.370880126953125,1.057205200195312,-0.021881103515625,5518.229334250001,-3.02857055551539,1.595995066164818,-0.4262547761127923,-2.940266847610474,-6.927682876586914,-1.843520402908325,-1.210265398025513,0.3316842913627625,0.3047566413879395,XArbitraryZVertical,-0.6903028150069579,-0.1869566734010123,0.6898100007648114,0.1126566754957097,0.9102317094802856,0.4134635925292969,0.02294154837727547,0,0,0,-1,-1,5514.807892000001,unknown,2,2022-06-30T10:01:07.742+02:00,2022-06-30T08:20:05.567+02:00,1511,1.425381,0,0,1194.663,0,0,2022-06-30T10:01:10.290+02:00
2022-06-30T10:01:11.186+02:00,5518.249236250001,-0.557281494140625,1.39349365234375,-0.438385009765625,5518.239285250001,-2.9965070986516,1.540019619434991,-0.4469355857899115,-2.800008773803711,-7.053665637969971,-2.258687019348145,-1.116436719894409,0.3543560206890106,0.33207106590271,XArbitraryZVertical,-0.6655160117887983,-0.2078792562574018,0.7093934141241084,0.1031288505151451,0.9013486504554749,0.4322041571140289,-0.02774930559098721,0,0,0,-1,-1,5514.807892000001,unknown,2,2022-06-30T10:01:07.742+02:00,2022-06-30T08:20:05.567+02:00,1511,1.425381,0,0,1194.663,0,0,2022-06-30T10:01:10.290+02:00
2022-06-30T10:01:11.195+02:00,5518.25918825,-0.5445556640625,1.621383666992188,-0.86700439453125,5518.249236250001,-2.973165228194274,1.479776807617271,-0.4726067745215337,-1.542280793190002,-7.188516616821289,-2.570231676101685,-1.257579207420349,0.6019965410232544,0.05904990434646606,XArbitraryZVertical,-0.6386030309159576,-0.2274222958339112,0.7287516088407779,0.09688345306993491,0.8866990804672241,0.4552088677883148,-0.08093053847551346,0,0,0,-1,-1,5514.807892000001,unknown,2,2022-06-30T10:01:07.742+02:00,2022-06-30T08:20:05.567+02:00,1511,1.425381,0,0,1194.663,0,0,2022-06-30T10:01:10.290+02:00
2022-06-30T10:01:11.205+02:00,5518.26913925,-0.5446624755859375,1.903701782226562,-1.316940307617188,5518.25918825,-2.971926673770684,1.407251884660939,-0.4983198676779442,0.7429130673408508,-7.510414123535156,-2.468576908111572,-1.42394757270813,0.9155434370040894,-0.2953687906265259,XArbitraryZVertical,-0.608821279529515,-0.2404761252082891,0.7498158885693904,0.09635403092658076,0.8666660785675049,0.477950394153595,-0.1430157721042633,0,0,0,-1,-1,5514.807892000001,unknown,2,2022-06-30T10:01:07.742+02:00,2022-06-30T08:20:05.567+02:00,1511,1.425381,0,0,1194.663,0,0,2022-06-30T10:01:10.290+02:00
2022-06-30T10:01:11.215+02:00,5518.27909025,-4.243011474609375,5.009536743164062,-11.0841064453125,5518.26913925,-2.996994415693063,1.319590012237146,-0.5163207012052783,2.729075193405151,-7.622119426727295,-1.92771327495575,-1.38690185546875,1.127700090408325,-0.6508349180221558,XArbitraryZVertical,-0.5765227150005019,-0.2440021384794264,0.7732428041480085,0.1008963022774933,0.8423462510108948,0.4936838150024414,-0.2161690294742584,0,0,0,-1,-1,5514.807892000001,unknown,2,2022-06-30T10:01:07.742+02:00,2022-06-30T08:20:05.567+02:00,1511,1.425381,0,0,1194.663,0,0,2022-06-30T10:01:10.290+02:00
2022-06-30T10:01:11.224+02:00,5518.28904225,-1.989334106445312,4.743408203125,-10.311767578125,5518.27909025,-3.014701541246518,1.279567943761997,-0.5252019500842362,-4.71215295791626,4.742963790893555,0.4209780097007751,-1.373452186584473,1.402314186096191,-1.068509221076965,XArbitraryZVertical,-0.5621912350376234,-0.2443884374543826,0.782990558253601,0.1055513330269288,0.8287898302078247,0.5013877749443054,-0.248430609703064,0,0,0,-1,-1,5514.807892000001,unknown,2,2022-06-30T10:01:07.742+02:00,2022-06-30T08:20:05.567+02:00,1511,1.425381,0,0,1194.663,0,0,2022-06-30T10:01:10.290+02:00
2022-06-30T10:01:11.234+02:00,5518.29899325,0.6420745849609375,-2.49884033203125,2.582046508789062,5518.28904225,-2.946981593574171,1.34730492861115,-0.5193192709904717,-5.806785106658936,2.141875982284546,0.7257890105247498,-5.089577198028564,4.513247489929199,-10.89169120788574,XArbitraryZVertical,-0.5805847822259657,-0.2582906283576034,0.7673369430398793,0.08603169922146822,0.8465659618377686,0.4962892830371857,-0.1924145221710205,0,0,0,-1,-1,5514.807892000001,unknown,2,2022-06-30T10:01:07.742+02:00,2022-06-30T08:20:05.567+02:00,1511,1.425381,0,0,1194.663,0,0,2022-06-30T10:01:10.290+02:00
2022-06-30T10:01:11.244+02:00,5518.30894425,0.161102294921875,1.970260620117188,-1.531784057617188,5518.29899325,-2.951492003706116,1.318950566910827,-0.506573692775267,6.879182815551758,-2.117426872253418,1.148961782455444,-2.836162090301514,4.258224487304688,-10.09387111663818,XArbitraryZVertical,-0.5716802557804964,-0.2534432244085283,0.7762162383677027,0.08022894171919429,0.8468280434608459,0.4851841032505035,-0.217896431684494,0,0,0,-1,-1,5514.807892000001,unknown,2,2022-06-30T10:01:07.742+02:00,2022-06-30T08:20:05.567+02:00,1511,1.425381,0,0,1194.663,0,0,2022-06-30T10:01:10.290+02:00
2022-06-30T10:01:11.254+02:00,5518.318896250001,1.606063842773438,0.752197265625,-0.9775543212890625,5518.30894425,-3.000577483976201,1.296067324296264,-0.4845552238937347,0.7566614747047424,3.130816221237183,1.041034579277039,-0.2096234560012817,-2.964654922485352,2.822103261947632,XArbitraryZVertical,-0.5710592872559561,-0.2320843517641782,0.7822664461842638,0.0899304426191162,0.8516981601715088,0.4658148288726807,-0.2400562912225723,0,0,0,-1,-1,5514.807892000001,unknown,2,2022-06-30T10:01:07.742+02:00,2022-06-30T08:20:05.567+02:00,1511,1.425381,0,0,1194.663,0,0,2022-06-30T10:01:10.290+02:00
2022-06-30T10:01:11.264+02:00,5518.328847250001,0.42120361328125,-0.079681396484375,-2.046249389648438,5518.318896250001,-2.986196035669099,1.325095408811992,-0.472103420489851,-0.9818457961082458,0.9216334223747253,1.259039998054504,-0.7027636766433716,1.51550018787384,-1.315154075622559,XArbitraryZVertical,-0.5819529241565859,-0.2302520926838219,0.7754171648223634,0.08392240271582692,0.8638659715652466,0.4547606110572815,-0.2166295349597931,0,0,0,-1,-1,5514.807892000001,unknown,2,2022-06-30T10:01:07.742+02:00,2022-06-30T08:20:05.567+02:00,1511,1.425381,0,0,1194.663,0,0,2022-06-30T10:01:10.290+02:00
2022-06-30T10:01:11.275+02:00,5518.338798250001,-0.2889556884765625,1.070724487304688,-0.9427337646484375,5518.328847250001,-2.994456334326772,1.315084103562856,-0.4678137775902786,2.126757383346558,-0.9555673003196716,-0.8938193917274475,0.7425305247306824,0.3012614250183105,-0.7517955303192139,XArbitraryZVertical,-0.5794376632091637,-0.2266557725247418,0.7782725093488611,0.08468221053690356,0.8635333776473999,0.4509360492229462,-0.2257583141326904,0,0,0,-1,-1,5514.807892000001,unknown,2,2022-06-30T10:01:07.742+02:00,2022-06-30T08:20:05.567+02:00,1511,1.425381,0,0,1194.663,0,0,2022-06-30T10:01:10.290+02:00
2022-06-30T10:01:11.284+02:00,5518.34875025,0.1148681640625,0.872589111328125,-0.7003326416015625,5518.338798250001,-3.017620540420537,1.29930459699629,-0.4688072932837648,1.60347044467926,0.287414014339447,-0.1495181620121002,-0.4382280111312866,-0.5315036773681641,-1.807013392448425,XArbitraryZVertical,-0.5757801730985741,-0.2210416683979979,0.7817339434306426,0.09224964559753759,0.8594318032264709,0.4518225789070129,-0.2392355501651764,0,0,0,-1,-1,5514.807892000001,unknown,2,2022-06-30T10:01:07.742+02:00,2022-06-30T08:20:05.567+02:00,1511,1.425381,0,0,1194.663,0,0,2022-06-30T10:01:10.290+02:00
2022-06-30T10:01:11.294+02:00,5518.35870125,0.189239501953125,0.7735748291015625,-0.8385467529296875,5518.34875025,-3.031393484434889,1.29486744639737,-0.4608389439443313,1.47291111946106,0.1358854621648788,0.656546413898468,-1.15075421333313,0.6260249614715576,-0.6987136006355286,XArbitraryZVertical,-0.5762773640199108,-0.214230133965654,0.7829608898218151,0.09477385600214661,0.8617984652519226,0.4446996748447418,-0.2440197020769119,0,0,0,-1,-1,5514.807892000001,unknown,2,2022-06-30T10:01:07.742+02:00,2022-06-30T08:20:05.567+02:00,1511,1.425381,0,0,1194.663,0,0,2022-06-30T10:01:10.290+02:00
2022-06-30T10:01:11.304+02:00,5518.36865225,0.341339111328125,0.9436798095703125,-0.915863037109375,5518.35870125,-3.052625638521657,1.282679456421261,-0.4528657465311803,2.730485916137695,-0.4743534028530121,-0.2972277700901031,-0.7472644448280334,0.4350451231002808,-0.4448278546333313,XArbitraryZVertical,-0.5744213631153851,-0.2056403092029356,0.7860410257073412,0.09945726765594486,0.8621326684951782,0.437544196844101,-0.255504310131073,0,0,0,-1,-1,5514.807892000001,unknown,2,2022-06-30T10:01:07.742+02:00,2022-06-30T08:20:05.567+02:00,1511,1.425381,0,0,1194.663,0,0,2022-06-30T10:01:10.290+02:00
2022-06-30T10:01:11.314+02:00,5518.378604250001,0.5013427734375,1.076797485351562,-0.87237548828125,5518.36865225,-3.090989992676909,1.260366728524925,-0.4482484552369038,4.141013622283936,-0.561147928237915,-0.7142345905303955,-0.6688925623893738,0.3401873707771301,-0.5632564425468445,XArbitraryZVertical,-0.5698275956006676,-0.1940401460500699,0.7907740825744143,0.1110018699689922,0.8581321239471436,0.4333876967430115,-0.2752898633480072,0,0,0,-1,-1,5514.807892000001,unknown,2,2022-06-30T10:01:07.742+02:00,2022-06-30T08:20:05.567+02:00,1511,1.425381,0,0,1194.663,0,0,2022-06-30T10:01:10.290+02:00
2022-06-30T10:01:11.324+02:00,5518.388555250001,0.4216461181640625,1.136764526367188,-0.743072509765625,5518.378604250001,-3.14117097244507,1.232618347957567,-0.4388137718099563,5.035571098327637,-0.6899155974388123,-0.3543118536472321,-0.5126441717147827,0.5188141465187073,-0.6155267357826233,XArbitraryZVertical,-0.5641326336712259,-0.177725754448451,0.796481423967966,0.12564013433499,0.8539833426475525,0.4248659312725067,-0.3003358542919159,0,0,0,-1,-1,5514.807892000001,unknown,2,2022-06-30T10:01:07.742+02:00,2022-06-30T08:20:05.567+02:00,1511,1.425381,0,0,1194.663,0,0,2022-06-30T10:01:10.290+02:00
2022-06-30T10:01:11.334+02:00,5518.398506250001,0.363433837890625,1.189926147460938,-0.5545501708984375,5518.388555250001,3.085691044748336,1.20191176156801,-0.4228414550318306,5.716675758361816,-0.7493802309036255,-0.2213719189167023,-0.3492386937141418,0.6664444208145142,-0.5435568690299988,XArbitraryZVertical,-0.5574623307962056,-0.1575647265013581,0.8027994473436717,0.1411463566466758,0.8505815267562866,0.4103533029556274,-0.3288182020187378,0,0,0,-1,-1,5514.807892000001,unknown,2,2022-06-30T10:01:07.742+02:00,2022-06-30T08:20:05.567+02:00,1511,1.425381,0,0,1194.663,0,0,2022-06-30T10:01:10.290+02:00
2022-06-30T10:01:11.344+02:00,5518.40845825,0.4541168212890625,1.219802856445312,-0.4228363037109375,5518.398506250001,3.024531622470816,1.170800027776455,-0.4032639646194609,6.150469779968262,-0.5886533856391907,-0.3094914555549622,-0.4255333542823792,0.7443422079086304,-0.3848940432071686,XArbitraryZVertical,-0.5501765431148603,-0.1349694176520424,0.8087341730079917,0.158234492717424,0.8471795320510864,0.3924225866794586,-0.358178049325943,0,0,0,-1,-1,5514.807892000001,unknown,2,2022-06-30T10:01:07.742+02:00,2022-06-30T08:20:05.567+02:00,1511,1.425381,0,0,1194.663,0,0,2022-06-30T10:01:10.290+02:00
2022-06-30T10:01:11.354+02:00,5518.41840925,0.590667724609375,1.110382080078125,-0.3196563720703125,5518.40845825,2.962012963768799,1.142257546448087,-0.3811735944744482,6.239641189575195,-0.390622079372406,-0.2288525402545929,-0.4808587431907654,0.8179163932800293,-0.1688316166400909,XArbitraryZVertical,-0.5429461814857881,-0.11113221804295,0.8135479586331558,0.1760646981909892,0.8442925810813904,0.3720100820064545,-0.3857181370258331,0,0,0,-1,-1,5514.807892000001,unknown,2,2022-06-30T10:01:07.742+02:00,2022-06-30T08:20:05.567+02:00,1511,1.425381,0,0,1194.663,0,0,2022-06-30T10:01:10.290+02:00
2022-06-30T10:01:11.364+02:00,5518.42836025,0.7131195068359375,0.969573974609375,-0.270050048828125,5518.41840925,2.901047922125571,1.117024809697176,-0.3559870242099605,6.277694702148438,-0.3138687014579773,-0.03424544259905815,-0.3883312344551086,0.87128746509552,-0.01196125149726868,XArbitraryZVertical,-0.5358006750894122,-0.08648864818150752,0.8173590762231882,0.1932912013957137,0.8424481153488159,0.3485156893730164,-0.4108746945858002,0,0,0,-1,-1,5514.807892000001,unknown,2,2022-06-30T10:01:07.742+02:00,2022-06-30T08:20:05.567+02:00,1511,1.425381,0,0,1194.663,0,0,2022-06-30T10:01:10.290+02:00
2022-06-30T10:01:11.374+02:00,5518.43831225,0.82208251953125,0.9644775390625,-0.235443115234375,5518.42836025,2.841422647122374,1.093948382036382,-0.3277398658457794,6.336927890777588,-0.3334347009658813,0.06942156702280045,-0.2504883408546448,0.7884783744812012,0.1148945093154907,XArbitraryZVertical,-0.5282029270786139,-0.06104428312475705,0.8205004201251545,0.2098912072396682,0.8411561250686646,0.3219040334224701,-0.4345505237579346,0,0,0,-1,-1,5514.807892000001,unknown,2,2022-06-30T10:01:07.742+02:00,2022-06-30T08:20:05.567+02:00,1511,1.425381,0,0,1194.663,0,0,2022-06-30T10:01:10.290+02:00
2022-06-30T10:01:11.384+02:00,5518.44826325,0.90960693359375,1.027938842773438,-0.24090576171875,5518.43831225,2.783621125496158,1.072947877580416,-0.297955516110333,6.226705074310303,-0.3150433897972107,0.07984910160303116,-0.1267796754837036,0.6760079264640808,0.1864456534385681,XArbitraryZVertical,-0.5200849448153582,-0.03555203701112683,0.8229108842119855,0.2259766469448072,0.8398992419242859,0.2935664057731628,-0.4564954042434692,0,0,0,-1,-1,5514.807892000001,unknown,2,2022-06-30T10:01:07.742+02:00,2022-06-30T08:20:05.567+02:00,1511,1.425381,0,0,1194.663,0,0,2022-06-30T10:01:10.290+02:00
2022-06-30T10:01:11.394+02:00,5518.45821425,0.986907958984375,1.065444946289062,-0.304107666015625,5518.44826325,2.728282703398645,1.054989762818811,-0.267623021713675,6.070427417755127,-0.16720812022686,0.1087806224822998,-0.01684623956680298,0.7000380754470825,0.2402356863021851,XArbitraryZVertical,-0.5119094250303122,-0.01046322865179248,0.8243463387104505,0.2414383895725268,0.8389288783073425,0.2644398212432861,-0.4756785333156586,0,0,0,-1,-1,5514.807892000001,unknown,2,2022-06-30T10:01:07.742+02:00,2022-06-30T08:20:05.567+02:00,1511,1.425381,0,0,1194.663,0,0,2022-06-30T10:01:10.290+02:00
2022-06-30T10:01:11.404+02:00,5518.468166250001,1.086318969726562,1.026199340820312,-0.3970184326171875,5518.45821425,2.675477011214042,1.041117595489913,-0.2366345843035797,5.975552558898926,0.02188128605484962,0.1881902515888214,0.07068639993667603,0.7935068607330322,0.2502703964710236,XArbitraryZVertical,-0.5041863839308184,0.01442796263093776,0.8246266181473821,0.2560835662283369,0.838920533657074,0.2344323247671127,-0.4911758601665497,0,0,0,-1,-1,5514.807892000001,unknown,2,2022-06-30T10:01:07.742+02:00,2022-06-30T08:20:05.567+02:00,1511,1.425381,0,0,1194.663,0,0,2022-06-30T10:01:10.290+02:00
2022-06-30T10:01:11.413+02:00,5518.478117250001,1.152191162109375,1.031265258789062,-0.478515625,5518.468166250001,2.623501668213872,1.030272345602443,-0.2041018251534665,6.153247833251953,0.08546878397464752,0.2643814384937286,0.1472663283348083,0.8627576231956482,0.1997969746589661,XArbitraryZVertical,-0.4964475838658268,0.0398452045131202,0.8239578591564062,0.2702694680169226,0.8396416902542114,0.2026877105236053,-0.5039042830467224,0,0,0,-1,-1,5514.807892000001,unknown,2,2022-06-30T10:01:07.742+02:00,2022-06-30T08:20:05.567+02:00,1511,1.425381,0,0,1194.663,0,0,2022-06-30T10:01:10.290+02:00
2022-06-30T10:01:11.423+02:00,5518.48806925,1.147537231445312,1.072158813476562,-0.503936767578125,5518.478117250001,2.570677165945,1.021202421610898,-0.1693998304079673,6.384495258331299,0.09771651774644852,0.3191365599632263,0.2457882761955261,0.85760897397995,0.1178461313247681,XArbitraryZVertical,-0.4880285600337342,0.06630212976521883,0.8225020792791465,0.2844690890537859,0.8405308127403259,0.1685907989740372,-0.5148643255233765,0,0,0,-1,-1,5514.807892000001,unknown,2,2022-06-30T10:01:07.742+02:00,2022-06-30T08:20:05.567+02:00,1511,1.425381,0,0,1194.663,0,0,2022-06-30T10:01:10.290+02:00
2022-06-30T10:01:11.433+02:00,5518.49802025,1.087493896484375,1.080810546875,-0.483734130859375,5518.48806925,2.51712260411853,1.014040113084322,-0.1326716239332154,6.541823863983154,0.1236106976866722,0.4032066762447357,0.310678243637085,0.8989828824996948,0.04527580738067627,XArbitraryZVertical,-0.4788809842675449,0.09368764817369349,0.8202102936751694,0.2985813944987132,0.8415129780769348,0.1322827637195587,-0.5237912535667419,0,0,0,-1,-1,5514.807892000001,unknown,2,2022-06-30T10:01:07.742+02:00,2022-06-30T08:20:05.567+02:00,1511,1.425381,0,0,1194.663,0,0,2022-06-30T10:01:10.290+02:00
2022-06-30T10:01:11.443+02:00,5518.50797125,1.012527465820312,1.060165405273438,-0.4714813232421875,5518.49802025,2.463669030193731,1.009196760798299,-0.09422813729830458,6.607996463775635,0.1770354509353638,0.5157012343406677,0.3048877120018005,0.9780704975128174,0.0262417197227478,XArbitraryZVertical,-0.4691498163842485,0.1216935103647738,0.8170734815436036,0.3122177909095828,0.842649519443512,0.09408875554800034,-0.5301782488822937,0,0,0,-1,-1,5514.807892000001,unknown,2,2022-06-30T10:01:07.742+02:00,2022-06-30T08:20:05.567+02:00,1511,1.425381,0,0,1194.663,0,0,2022-06-30T10:01:10.290+02:00
2022-06-30T10:01:11.453+02:00,5518.51792325,0.9954833984375,1.029937744140625,-0.449951171875,5518.50797125,2.41076317438247,1.007605860709262,-0.05426103879400343,6.666241645812988,0.3756026029586792,0.6518598794937134,0.243182361125946,1.026576519012451,0.04936689138412476,XArbitraryZVertical,-0.4592087839590531,0.1502559771143335,0.8129513064759846,0.3250547599549107,0.8443115949630737,0.05423441529273987,-0.5331008434295654,0,0,0,-1,-1,5514.807892000001,unknown,2,2022-06-30T10:01:07.742+02:00,2022-06-30T08:20:05.567+02:00,1511,1.425381,0,0,1194.663,0,0,2022-06-30T10:01:10.290+02:00
2022-06-30T10:01:11.463+02:00,5518.52787425,1.077407836914062,1.020919799804688,-0.3839263916015625,5518.51792325,2.357821040370455,1.010896466089932,-0.01273825739868924,6.797765731811523,0.7056447267532349,0.7775611877441406,0.165287971496582,1.047427892684937,0.05957704782485962,XArbitraryZVertical,-0.4496120205780461,0.1797773537532827,0.8074331595422326,0.3370175757650253,0.8472395539283752,0.01273791305720806,-0.5310582518577576,0,0,0,-1,-1,5514.807892000001,unknown,2,2022-06-30T10:01:07.742+02:00,2022-06-30T08:20:05.567+02:00,1511,1.425381,0,0,1194.663,0,0,2022-06-30T10:01:10.290+02:00
2022-06-30T10:01:11.473+02:00,5518.53782525,1.18017578125,0.9958648681640625,-0.297576904296875,5518.52787425,2.304021378728996,1.019298626071359,0.03045700586368059,7.016539573669434,0.946222722530365,0.9364637732505798,0.1441377401351929,1.060390472412109,0.07376939058303833,XArbitraryZVertical,-0.4402538510967349,0.2105144213559556,0.8004099008921876,0.3481438677065918,0.8513457179069519,-0.0304522980004549,-0.5237204432487488,0,0,0,-1,-1,5514.807892000001,unknown,2,2022-06-30T10:01:07.742+02:00,2022-06-30T08:20:05.567+02:00,1511,1.425381,0,0,1194.663,0,0,2022-06-30T10:01:10.290+02:00
2022-06-30T10:01:11.483+02:00,5518.547777250001,1.21038818359375,0.9718475341796875,-0.1897430419921875,5518.53782525,2.248137948276741,1.031585475917517,0.07616900213378275,7.368691921234131,0.9980143308639526,1.126386880874634,0.221781849861145,1.097015619277954,0.1280438899993896,XArbitraryZVertical,-0.4301907006263452,0.2427979799515658,0.7920790435059387,0.3586026050028467,0.8556260466575623,-0.07609537243843079,-0.5119702219963074,0,0,0,-1,-1,5514.807892000001,unknown,2,2022-06-30T10:01:07.742+02:00,2022-06-30T08:20:05.567+02:00,1511,1.425381,0,0,1194.663,0,0,2022-06-30T10:01:10.290+02:00
2022-06-30T10:01:11.493+02:00,5518.557728250001,1.16778564453125,0.9198760986328125,-0.1060943603515625,5518.547777250001,2.189155438606488,1.046817895621382,0.124501249025838,7.75229549407959,0.9784982204437256,1.288924694061279,0.3210421204566956,1.120045185089111,0.1988792419433594,XArbitraryZVertical,-0.4186602605343415,0.2765782721716101,0.7825148892664071,0.3686442239629875,0.8591337203979492,-0.1241798549890518,-0.4964560866355896,0,0,0,-1,-1,5514.807892000001,unknown,2,2022-06-30T10:01:07.742+02:00,2022-06-30T08:20:05.567+02:00,1511,1.425381,0,0,1194.663,0,0,2022-06-30T10:01:10.290+02:00
2022-06-30T10:01:11.503+02:00,5518.567679250001,1.110885620117188,0.844390869140625,-0.031494140625,5518.557728250001,2.126425536036491,1.065564831161016,0.1748491322705381,8.092328071594238,1.012131214141846,1.39561927318573,0.3486680388450623,1.145807504653931,0.2868871986865997,XArbitraryZVertical,-0.4056397799751489,0.3116749171776382,0.7714752573040105,0.3783398680878923,0.8617202043533325,-0.1739595681428909,-0.4766302406787872,0,0,0,-1,-1,5514.807892000001,unknown,2,2022-06-30T10:01:07.742+02:00,2022-06-30T08:20:05.567+02:00,1511,1.425381,0,0,1194.663,0,0,2022-06-30T10:01:10.290+02:00
2022-06-30T10:01:11.513+02:00,5518.57763125,1.0623779296875,0.7418975830078125,0.050811767578125,5518.567679250001,2.060253783733029,1.088619781928875,0.2258094112937927,8.24069881439209,1.070438027381897,1.459623217582703,0.3042903542518616,1.143771767616272,0.345842182636261,XArbitraryZVertical,-0.3915309373707158,0.3474697212120071,0.7588210489549125,0.3875037058077179,0.8634954690933228,-0.2238952964544296,-0.4519366323947906,0,0,0,-1,-1,5514.807892000001,unknown,2,2022-06-30T10:01:07.742+02:00,2022-06-30T08:20:05.567+02:00,1511,1.425381,0,0,1194.663,0,0,2022-06-30T10:01:10.290+02:00
2022-06-30T10:01:11.523+02:00,5518.58758225,1.012725830078125,0.590667724609375,0.139801025390625,5518.57763125,1.992051643039967,1.116035265739705,0.2756390791025406,8.127350807189941,1.123655319213867,1.479705810546875,0.2464316487312317,1.11655330657959,0.3911724984645844,XArbitraryZVertical,-0.3768510841228393,0.3829489508290999,0.7447943577723558,0.3957458278062998,0.8644540309906006,-0.2721619606018066,-0.4226667284965515,0,0,0,-1,-1,5514.807892000001,unknown,2,2022-06-30T10:01:07.742+02:00,2022-06-30T08:20:05.567+02:00,1511,1.425381,0,0,1194.663,0,0,2022-06-30T10:01:10.290+02:00
2022-06-30T10:01:11.533+02:00,5518.59753325,0.9793701171875,0.4006500244140625,0.2265472412109375,5518.58758225,1.923494131724336,1.147442144797909,0.3225102503345408,7.80526876449585,1.211131572723389,1.441557884216309,0.1976674795150757,1.058846354484558,0.4404516816139221,XArbitraryZVertical,-0.3622470644865978,0.4170815704487588,0.7297860995622113,0.4027807373206163,0.8647105693817139,-0.3169483840465546,-0.3896400630474091,0,0,0,-1,-1,5514.807892000001,unknown,2,2022-06-30T10:01:07.742+02:00,2022-06-30T08:20:05.567+02:00,1511,1.425381,0,0,1194.663,0,0,2022-06-30T10:01:10.290+02:00
2022-06-30T10:01:11.543+02:00,5518.607485250001,0.973541259765625,0.2202911376953125,0.2521820068359375,5518.59753325,1.856020920617796,1.182519778960196,0.3647448695558678,7.279179096221924,1.326592683792114,1.305222272872925,0.1480513215065002,0.9473791122436523,0.4934888780117035,XArbitraryZVertical,-0.3485072562765683,0.449108802957835,0.7141247069105248,0.4084971259367411,0.8646745681762695,-0.3567109704017639,-0.3536879420280457,0,0,0,-1,-1,5514.807892000001,unknown,2,2022-06-30T10:01:07.742+02:00,2022-06-30T08:20:05.567+02:00,1511,1.425381,0,0,1194.663,0,0,2022-06-30T10:01:10.290+02:00
2022-06-30T10:01:11.553+02:00,5518.617436250001,0.9734039306640625,0.111907958984375,0.2768402099609375,5518.607485250001,1.790972891018091,1.220531054637099,0.400991084754882,6.689259052276611,1.490049004554749,1.098764419555664,0.1145973801612854,0.7909814119338989,0.5424737930297852,XArbitraryZVertical,-0.3363132657676053,0.4784663206067117,0.6981632715421413,0.4129546040731437,0.8647728562355042,-0.3903310000896454,-0.315926730632782,0,0,0,-1,-1,5514.807892000001,unknown,2,2022-06-30T10:01:07.742+02:00,2022-06-30T08:20:05.567+02:00,1511,1.425381,0,0,1194.663,0,0,2022-06-30T10:01:10.290+02:00
2022-06-30T10:01:11.563+02:00,5518.627387250001,0.9378814697265625,0.13995361328125,0.29827880859375,5518.617436250001,1.728524424364647,1.261370374139202,0.4312008414838839,6.159769535064697,1.682629346847534,0.9365997314453125,0.108221173286438,0.6382535099983215,0.5288200974464417,XArbitraryZVertical,-0.3259819575352069,0.505387596914685,0.6819708689740606,0.4162150782002303,0.8653202652931213,-0.4179620146751404,-0.2766382694244385,0,0,0,-1,-1,5514.807892000001,unknown,2,2022-06-30T10:01:07.742+02:00,2022-06-30T08:20:05.567+02:00,1511,1.425381,0,0,1194.663,0,0,2022-06-30T10:01:10.290+02:00
2022-06-30T10:01:11.573+02:00,5518.63733925,0.8978424072265625,0.1960906982421875,0.2990570068359375,5518.627387250001,1.669174814756382,1.304427967753195,0.4564256498580262,5.636319160461426,1.881742477416992,0.8614181876182556,0.1074271202087402,0.5526508092880249,0.5131237506866455,XArbitraryZVertical,-0.3173658641930613,0.5302235691776722,0.6658540672710785,0.4180672807924792,0.8659769296646118,-0.4407424628734589,-0.2362837493419647,0,0,0,-1,-1,5514.807892000001,unknown,2,2022-06-30T10:01:07.742+02:00,2022-06-30T08:20:05.567+02:00,1511,1.425381,0,0,1194.663,0,0,2022-06-30T10:01:10.290+02:00
2022-06-30T10:01:11.583+02:00,5518.64729025,0.889892578125,0.2382659912109375,0.28924560546875,5518.63733925,1.612622682316838,1.349345818732661,0.4776269730739863,5.283004760742188,2.045841455459595,0.8279312252998352,0.07148057222366333,0.5996269583702087,0.4933426976203918,XArbitraryZVertical,-0.3101736541342222,0.5534078616229784,0.6498920190109087,0.418536015404029,0.8664010167121887,-0.4596730172634125,-0.1950640827417374,0,0,0,-1,-1,5514.807892000001,unknown,2,2022-06-30T10:01:07.742+02:00,2022-06-30T08:20:05.567+02:00,1511,1.425381,0,0,1194.663,0,0,2022-06-30T10:01:10.290+02:00
2022-06-30T10:01:11.593+02:00,5518.65724125,0.8421783447265625,0.2607269287109375,0.3028564453125,5518.64729025,1.557200875868153,1.395863648243614,0.4959542166124205,5.132196426391602,2.109376907348633,0.8423306941986084,0.03175032138824463,0.6719620823860168,0.4521292448043823,XArbitraryZVertical,-0.303632728862013,0.5755614171456647,0.6338995561660797,0.4179805303951875,0.8660922646522522,-0.4758711159229279,-0.1530724465847015,0,0,0,-1,-1,5514.807892000001,unknown,2,2022-06-30T10:01:07.742+02:00,2022-06-30T08:20:05.567+02:00,1511,1.425381,0,0,1194.663,0,0,2022-06-30T10:01:10.290+02:00
2022-06-30T10:01:11.603+02:00,5518.66719325,0.73101806640625,0.228363037109375,0.293670654296875,5518.65724125,1.501600737666527,1.443520418306587,0.5119325990375796,5.044439315795898,2.097204208374023,0.8490440249443054,0.02514493465423584,0.7281292676925659,0.3999051451683044,XArbitraryZVertical,-0.297111904074094,0.5969879769486911,0.6177266707642075,0.4168257619511613,0.8647478222846985,-0.4898630082607269,-0.1106597408652306,0,0,0,-1,-1,5514.807892000001,unknown,2,2022-06-30T10:01:07.742+02:00,2022-06-30T08:20:05.567+02:00,1511,1.425381,0,0,1194.663,0,0,2022-06-30T10:01:10.290+02:00
2022-06-30T10:01:11.613+02:00,5518.67714425,0.608306884765625,0.1720428466796875,0.24639892578125,5518.66719325,1.445274270385452,1.492429558273505,0.5253513877944526,5.02533483505249,2.157071113586426,0.8066068291664124,-0.02031409740447998,0.7622442841529846,0.3705856204032898,XArbitraryZVertical,-0.290567118160247,0.6178236139875707,0.6011785548633684,0.4152699355098548,0.862492561340332,-0.5015170574188232,-0.06772946566343307,0,0,0,-1,-1,5514.807892000001,unknown,2,2022-06-30T10:01:07.742+02:00,2022-06-30T08:20:05.567+02:00,1511,1.425381,0,0,1194.663,0,0,2022-06-30T10:01:10.290+02:00
2022-06-30T10:01:11.622+02:00,5518.68709525,0.540283203125,0.1951141357421875,0.25408935546875,5518.67714425,1.387742118971711,1.543484639584111,0.5358114723857517,5.054446697235107,2.267131805419922,0.7671192288398743,-0.1285157799720764,0.7389021515846252,0.3171515464782715,XArbitraryZVertical,-0.2842294312826599,0.6383361552827437,0.5839112944378297,0.4132654817763813,0.8595341444015503,-0.5105389356613159,-0.02348116599023342,0,0,0,-1,-1,5514.807892000001,unknown,2,2022-06-30T10:01:07.742+02:00,2022-06-30T08:20:05.567+02:00,1511,1.425381,0,0,1194.663,0,0,2022-06-30T10:01:10.290+02:00
2022-06-30T10:01:11.632+02:00,5518.697047250001,0.499908447265625,0.2610931396484375,0.3216705322265625,5518.68709525,1.329319797911812,1.596395347980414,0.5436990337716816,5.024065494537354,2.350620746612549,0.8064040541648865,-0.24721360206604,0.6893481612205505,0.2244933843612671,XArbitraryZVertical,-0.2779385332046261,0.658561168663889,0.56605961353831,0.4106386369696297,0.8555209040641785,-0.5173051357269287,0.02190528251230717,0,0,0,-1,-1,5514.807892000001,unknown,2,2022-06-30T10:01:07.742+02:00,2022-06-30T08:20:05.567+02:00,1511,1.425381,0,0,1194.663,0,0,2022-06-30T10:01:10.290+02:00
2022-06-30T10:01:11.642+02:00,5518.706998250001,0.5096282958984375,0.3268280029296875,0.3883056640625,5518.697047250001,1.270353961678762,1.650914897159994,0.5491940775718862,5.04897403717041,2.462980508804321,0.8181379437446594,-0.3099260926246643,0.7171143293380737,0.1858253479003906,XArbitraryZVertical,-0.2716327937175341,0.6784891111851368,0.5477262832019738,0.4072642416811975,0.8502095341682434,-0.5220000147819519,0.0682636946439743,0,0,0,-1,-1,5514.807892000001,unknown,2,2022-06-30T10:01:07.742+02:00,2022-06-30T08:20:05.567+02:00,1511,1.425381,0,0,1194.663,0,0,2022-06-30T10:01:10.290+02:00
2022-06-30T10:01:11.652+02:00,5518.716949250001,0.5417022705078125,0.37786865234375,0.4331207275390625,5518.706998250001,1.209951794640765,1.707466582046359,0.5517568836509601,5.209560871124268,2.554606914520264,0.8110427260398865,-0.3437552452087402,0.7852775454521179,0.2056431621313095,XArbitraryZVertical,-0.2652353612405839,0.6983292470323663,0.5285020990315276,0.4033261946318278,0.8436638712882996,-0.5241842269897461,0.1160270646214485,0,0,0,-1,-1,5514.807892000001,unknown,2,2022-06-30T10:01:07.742+02:00,2022-06-30T08:20:05.567+02:00,1511,1.425381,0,0,1194.663,0,0,2022-06-30T10:01:10.290+02:00
2022-06-30T10:01:11.662+02:00,5518.72690125,0.5258026123046875,0.4047393798828125,0.47357177734375,5518.716949250001,1.14699518017409,1.765872790977877,0.5511084145984739,5.454509735107422,2.554882526397705,0.8469733595848083,-0.3261572122573853,0.8504601120948792,0.2231631129980087,XArbitraryZVertical,-0.2582785322213101,0.7182362627091792,0.5080554492150076,0.3991346747492525,0.8357856273651123,-0.5236318707466125,0.1651422530412674,0,0,0,-1,-1,5514.807892000001,unknown,2,2022-06-30T10:01:07.742+02:00,2022-06-30T08:20:05.567+02:00,1511,1.425381,0,0,1194.663,0,0,2022-06-30T10:01:10.290+02:00
2022-06-30T10:01:11.672+02:00,5518.73685225,0.43499755859375,0.4183807373046875,0.535736083984375,5518.72690125,1.081490866092412,1.825207105363066,0.5472213174518397,5.651585102081299,2.501248598098755,0.8838264346122742,-0.2847833037376404,0.898185133934021,0.2181963920593262,XArbitraryZVertical,-0.2503873763201195,0.7380841161609825,0.4864327477847863,0.3948686495944451,0.826485812664032,-0.5203163027763367,0.2149240076541901,0,0,0,-1,-1,5514.807892000001,unknown,2,2022-06-30T10:01:07.742+02:00,2022-06-30T08:20:05.567+02:00,1511,1.425381,0,0,1194.663,0,0,2022-06-30T10:01:10.290+02:00
2022-06-30T10:01:11.683+02:00,5518.74680325,0.3473968505859375,0.3681640625,0.6264495849609375,5518.73685225,1.015626622836538,1.883873863231885,0.5396392562250635,5.639208316802979,2.453973531723022,0.8031305074691772,-0.290389358997345,0.9185659289360046,0.2093504071235657,XArbitraryZVertical,-0.2420068824715677,0.7573263967804648,0.4640474075964967,0.3905759935245982,0.8161923289299011,-0.5138265490531921,0.26422119140625,0,0,0,-1,-1,5514.807892000001,unknown,2,2022-06-30T10:01:07.742+02:00,2022-06-30T08:20:05.567+02:00,1511,1.425381,0,0,1194.663,0,0,2022-06-30T10:01:10.290+02:00
2022-06-30T10:01:11.692+02:00,5518.75675525,0.32916259765625,0.344268798828125,0.7397308349609375,5518.74680325,0.9520676006717315,1.940572228301088,0.5278722310525055,5.507545948028564,2.452028751373291,0.6562619209289551,-0.3704918622970581,0.9220772981643677,0.2235236763954163,XArbitraryZVertical,-0.2339659916824861,0.775477887050345,0.4412873102254318,0.386211595133275,0.8054895401000977,-0.5036963224411011,0.3122120797634125,0,0,0,-1,-1,5514.807892000001,unknown,2,2022-06-30T10:01:07.742+02:00,2022-06-30T08:20:05.567+02:00,1511,1.425381,0,0,1194.663,0,0,2022-06-30T10:01:10.290+02:00
