loggingTime(txt),accelerometerTimestamp_sinceReboot(s),accelerometerAccelerationX(G),accelerometerAccelerationY(G),accelerometerAccelerationZ(G),motionTimestamp_sinceReboot(s),motionYaw(rad),motionRoll(rad),motionPitch(rad),motionRotationRateX(rad/s),motionRotationRateY(rad/s),motionRotationRateZ(rad/s),motionUserAccelerationX(G),motionUserAccelerationY(G),motionUserAccelerationZ(G),motionAttitudeReferenceFrame(txt),motionQuaternionX(R),motionQuaternionY(R),motionQuaternionZ(R),motionQuaternionW(R),motionGravityX(G),motionGravityY(G),motionGravityZ(G),motionMagneticFieldX(µT),motionMagneticFieldY(µT),motionMagneticFieldZ(µT),motionHeading(°),motionMagneticFieldCalibrationAccuracy(Z),activityTimestamp_sinceReboot(s),activity(txt),activityActivityConfidence(Z),activityActivityStartDate(txt),pedometerStartDate(txt),pedometerNumberofSteps(N),pedometerAverageActivePace(s/m),pedometerCurrentPace(s/m),pedometerCurrentCadence(steps/s),pedometerDistance(m),pedometerFloorAscended(N),pedometerFloorDescended(N),pedometerEndDate(txt)
2022-06-30T10:02:25.935+02:00,5592.938031375001,0.1002655029296875,-0.182403564453125,-1.019332885742188,5592.933055375001,2.643081388602617,0.03222121355840686,0.1229342885650255,-0.1543022096157074,0.1122216060757637,0.03540521115064621,0.01804600283503532,-0.07378587126731873,-0.09081047773361206,XArbitraryZVertical,-0.0004312047657430747,0.06348888554598824,0.9673847540510828,0.2452258211037632,0.03197250887751579,-0.1226248741149902,-0.9919379353523254,0,0,0,-1,-1,5591.198884916667,unknown,2,2022-06-30T10:02:24.180+02:00,2022-06-30T08:20:05.567+02:00,1524,1.458745,0,0,1205.903,0,0,2022-06-30T10:02:24.180+02:00
2022-06-30T10:02:25.937+02:00,5592.947982375001,0.073486328125,-0.16180419921875,-0.984161376953125,5592.943007375,2.643466427372518,0.03340496055496866,0.1205928356003454,-0.298130601644516,0.1539912074804306,0.01603943482041359,0.06710951775312424,-0.06210242211818695,-0.0271492600440979,XArbitraryZVertical,-0.001305181424867965,0.0625017717001681,0.9674957565086703,0.245038450113912,0.03315619006752968,-0.120300754904747,-0.9921836256980896,0,0,0,-1,-1,5591.198884916667,unknown,2,2022-06-30T10:02:24.180+02:00,2022-06-30T08:20:05.567+02:00,1524,1.458745,0,0,1205.903,0,0,2022-06-30T10:02:24.180+02:00
2022-06-30T10:02:25.940+02:00,5592.957933375001,0.058990478515625,-0.15472412109375,-0.9766693115234375,5592.952958375,2.64345298602306,0.03501111140692254,0.1176431291501274,-0.272729367017746,0.1703294366598129,-0.03640193492174149,0.03872451931238174,-0.04443186521530151,0.008318006992340088,XArbitraryZVertical,-0.002446073927536437,0.06127233596062155,0.9675715133636825,0.2450413335931473,0.03476201370358467,-0.117371954023838,-0.9924794435501099,0,0,0,-1,-1,5591.198884916667,unknown,2,2022-06-30T10:02:24.180+02:00,2022-06-30T08:20:05.567+02:00,1524,1.458745,0,0,1205.903,0,0,2022-06-30T10:02:24.180+02:00
2022-06-30T10:02:25.950+02:00,5592.967885375,0.04742431640625,-0.1304931640625,-0.96484375,5592.962909375,2.643131687352606,0.03653046422876119,0.1153450791745786,-0.1817023307085037,0.1367789655923843,-0.03702667728066444,0.02271102741360664,-0.03963425755500793,0.01602303981781006,XArbitraryZVertical,-0.003455317078857594,0.06034783920634602,0.9675895586025804,0.245186875016202,0.03627965226769447,-0.1150894835591316,-0.9926924109458923,0,0,0,-1,-1,5591.198884916667,unknown,2,2022-06-30T10:02:24.180+02:00,2022-06-30T08:20:05.567+02:00,1524,1.458745,0,0,1205.903,0,0,2022-06-30T10:02:24.180+02:00
2022-06-30T10:02:25.960+02:00,5592.977836375,0.046905517578125,-0.1327362060546875,-0.972869873046875,5592.972860375,2.642919708924592,0.03778034545546552,0.1139628756966582,-0.08893963694572449,0.1230674162507057,-0.021048778668046,0.009898170828819275,-0.01677642017602921,0.02796053886413574,XArbitraryZVertical,-0.004224539907969237,0.0598331560962145,0.9675964041416112,0.2452740922079837,0.03752634674310684,-0.1137163564562798,-0.9928042888641357,0,0,0,-1,-1,5591.198884916667,unknown,2,2022-06-30T10:02:24.180+02:00,2022-06-30T08:20:05.567+02:00,1524,1.458745,0,0,1205.903,0,0,2022-06-30T10:02:24.180+02:00
2022-06-30T10:02:25.970+02:00,5592.987787375,0.0621185302734375,-0.1466827392578125,-0.9786529541015625,5592.982812375,2.642745968407593,0.03890986143734589,0.113468839058937,-0.01029995642602444,0.1093989536166191,-0.01921825483441353,0.008255831897258759,-0.01951031386852264,0.01994740962982178,XArbitraryZVertical,-0.004826917793707665,0.05973320765990597,0.9675849540486734,0.2453324142575951,0.03864989057183266,-0.1132255047559738,-0.9928172826766968,0,0,0,-1,-1,5591.198884916667,unknown,2,2022-06-30T10:02:24.180+02:00,2022-06-30T08:20:05.567+02:00,1524,1.458745,0,0,1205.903,0,0,2022-06-30T10:02:24.180+02:00
2022-06-30T10:02:25.980+02:00,5592.997739375,0.077301025390625,-0.1465301513671875,-0.9885711669921875,5592.992763375,2.642532723928589,0.04003096449283243,0.1135695685712779,0.009635934606194496,0.08769712597131729,-0.01754898391664028,0.02235627546906471,-0.03335676342248917,0.01410895586013794,XArbitraryZVertical,-0.005350444282933613,0.0599199943307774,0.9675534162681867,0.2454003753762649,0.0397624596953392,-0.1133255884051323,-0.9927619099617004,0,0,0,-1,-1,5591.198884916667,unknown,2,2022-06-30T10:02:24.180+02:00,2022-06-30T08:20:05.567+02:00,1524,1.458745,0,0,1205.903,0,0,2022-06-30T10:02:24.180+02:00
2022-06-30T10:02:25.990+02:00,5593.007690375,0.0792236328125,-0.1416015625,-0.9976959228515625,5593.002714375,2.642447322606289,0.04048823946647866,0.1134884753779453,-0.005558731500059366,0.07913032174110413,-0.008489843457937241,0.0370844379067421,-0.0332847535610199,0.004181623458862305,XArbitraryZVertical,-0.005579139527123371,0.05993712391278522,0.9675438169517583,0.2454294317055743,0.04021679237484932,-0.1132450178265572,-0.9927528500556946,0,0,0,-1,-1,5591.198884916667,unknown,2,2022-06-30T10:02:24.180+02:00,2022-06-30T08:20:05.567+02:00,1524,1.458745,0,0,1205.903,0,0,2022-06-30T10:02:24.180+02:00
2022-06-30T10:02:26.000+02:00,5593.017641375,0.0794830322265625,-0.1309814453125,-1.000823974609375,5593.012666375001,2.642379677077296,0.04127328394064993,0.1137874198289308,-0.0346340611577034,0.07441519200801849,-0.006884489674121141,0.03822910040616989,-0.02805914729833603,-0.005008876323699951,XArbitraryZVertical,-0.005919869401194145,0.06017819572625691,0.967525696701877,0.245433453278957,0.04099473729729652,-0.1135420352220535,-0.9926871061325073,0,0,0,-1,-1,5591.198884916667,unknown,2,2022-06-30T10:02:24.180+02:00,2022-06-30T08:20:05.567+02:00,1524,1.458745,0,0,1205.903,0,0,2022-06-30T10:02:24.180+02:00
2022-06-30T10:02:26.010+02:00,5593.027593375,0.0841217041015625,-0.1161041259765625,-0.9969635009765625,5593.022617375001,2.642363199624277,0.04243565069016782,0.1139298942994643,-0.05080384016036987,0.06082265451550484,0.008309177123010159,0.0373353511095047,-0.01729747653007507,-0.008201420307159424,XArbitraryZVertical,-0.006464032449183557,0.06038976139883497,0.967516520487868,0.2454039481600468,0.04214788973331451,-0.1136835888028145,-0.9926226139068604,0,0,0,-1,-1,5591.198884916667,unknown,2,2022-06-30T10:02:24.180+02:00,2022-06-30T08:20:05.567+02:00,1524,1.458745,0,0,1205.903,0,0,2022-06-30T10:02:24.180+02:00
2022-06-30T10:02:26.020+02:00,5593.037544375,0.0738372802734375,-0.1114349365234375,-0.9811553955078125,5593.032568375001,2.642498737388021,0.04319916130959174,0.1139314811009709,-0.0434708259999752,0.04342502355575562,0.02016050927340984,0.0412161573767662,-0.002418570220470428,-0.004373550415039062,XArbitraryZVertical,-0.00683728777682798,0.06048374341123886,0.9675305960638667,0.2453153026314648,0.04290574416518211,-0.1136851608753204,-0.9925899505615234,0,0,0,-1,-1,5591.198884916667,unknown,2,2022-06-30T10:02:24.180+02:00,2022-06-30T08:20:05.567+02:00,1524,1.458745,0,0,1205.903,0,0,2022-06-30T10:02:24.180+02:00
2022-06-30T10:02:26.029+02:00,5593.047495375,0.071197509765625,-0.1183319091796875,-0.9576416015625,5593.042520375,2.642812332142231,0.04365745647835351,0.1140012297556268,-0.02921938709914684,0.02909749746322632,0.03946426883339882,0.03047718852758408,0.002319902181625366,0.01140683889389038,XArbitraryZVertical,-0.007059853777402169,0.06057256934496467,0.9675657199848897,0.2451485026117168,0.04336029291152954,-0.1137544587254524,-0.9925622344017029,0,0,0,-1,-1,5591.198884916667,unknown,2,2022-06-30T10:02:24.180+02:00,2022-06-30T08:20:05.567+02:00,1524,1.458745,0,0,1205.903,0,0,2022-06-30T10:02:24.180+02:00
2022-06-30T10:02:26.039+02:00,5593.057446375,0.0672607421875,-0.14251708984375,-0.9485931396484375,5593.052471375,2.643264653949733,0.04382925321361813,0.1139038001373746,-0.03267030790448189,0.01104073133319616,0.05013928189873695,0.02766641601920128,-0.004673868417739868,0.0349242091178894,XArbitraryZVertical,-0.007168716110291214,0.06054489771836728,0.9676230224310276,0.2449262426683755,0.04353129863739014,-0.1136576607823372,-0.9925658702850342,0,0,0,-1,-1,5591.198884916667,unknown,2,2022-06-30T10:02:24.180+02:00,2022-06-30T08:20:05.567+02:00,1524,1.458745,0,0,1205.903,0,0,2022-06-30T10:02:24.180+02:00
2022-06-30T10:02:26.050+02:00,5593.067398375,0.07025146484375,-0.1515045166015625,-0.9520721435546875,5593.062422375,2.643856414870104,0.04376796481201545,0.1138237279998671,-0.04661715030670166,-0.016523202881217,0.06945832073688507,0.02379008010029793,-0.02893859148025513,0.04398447275161743,XArbitraryZVertical,-0.007166868630684485,0.06049656193100979,0.967697616373416,0.2446431579084006,0.04347086325287819,-0.1135781034827232,-0.9925776124000549,0,0,0,-1,-1,5591.198884916667,unknown,2,2022-06-30T10:02:24.180+02:00,2022-06-30T08:20:05.567+02:00,1524,1.458745,0,0,1205.903,0,0,2022-06-30T10:02:24.180+02:00
2022-06-30T10:02:26.059+02:00,5593.077349375,0.071258544921875,-0.151153564453125,-0.9620361328125,5593.072373375,2.644701164435266,0.04371006202325458,0.1139891389736974,-0.08294426649808884,-0.0492747575044632,0.1034836620092392,0.02683909609913826,-0.03776167333126068,0.04048919677734375,XArbitraryZVertical,-0.007144004203987587,0.06056645358735883,0.9677968994462071,0.2442332071652145,0.04341256991028786,-0.1137424483895302,-0.9925613403320312,0,0,0,-1,-1,5591.198884916667,unknown,2,2022-06-30T10:02:24.180+02:00,2022-06-30T08:20:05.567+02:00,1524,1.458745,0,0,1205.903,0,0,2022-06-30T10:02:24.180+02:00
2022-06-30T10:02:26.069+02:00,5593.087300375,0.065277099609375,-0.159637451171875,-0.967926025390625,5593.082325375,2.64575723767441,0.04389006654863084,0.1140387490217295,-0.09449392557144165,-0.05924293398857117,0.114528626203537,0.02766776457428932,-0.03736145049333572,0.03051167726516724,XArbitraryZVertical,-0.007256994155170095,0.06060860181492658,0.9679238498763731,0.2437158218469021,0.04359098523855209,-0.1137917339801788,-0.992547869682312,0,0,0,-1,-1,5591.198884916667,unknown,2,2022-06-30T10:02:24.180+02:00,2022-06-30T08:20:05.567+02:00,1524,1.458745,0,0,1205.903,0,0,2022-06-30T10:02:24.180+02:00
2022-06-30T10:02:26.079+02:00,5593.097252375001,0.06854248046875,-0.163360595703125,-0.9706268310546875,5593.092276375,2.646674352214724,0.04523840113428459,0.1147853704813395,-0.09681247174739838,-0.06653174012899399,0.1088441088795662,0.02035192772746086,-0.04510359466075897,0.02447700500488281,XArbitraryZVertical,-0.007845667443190832,0.06113039560738528,0.9680117573004587,0.2432176403368917,0.04492537677288055,-0.1145334765315056,-0.9924030303955078,0,0,0,-1,-1,5591.198884916667,unknown,2,2022-06-30T10:02:24.180+02:00,2022-06-30T08:20:05.567+02:00,1524,1.458745,0,0,1205.903,0,0,2022-06-30T10:02:24.180+02:00
2022-06-30T10:02:26.089+02:00,5593.107203375001,0.069976806640625,-0.152374267578125,-0.97088623046875,5593.102227375,2.64767676349149,0.04601379762101891,0.1145136080819621,-0.1089753285050392,-0.07477448135614395,0.1191610246896744,0.02284638211131096,-0.04909671097993851,0.02177214622497559,XArbitraryZVertical,-0.00828497470286144,0.06108909296701451,0.9681372161929529,0.2427136659392506,0.04569629952311516,-0.1142634972929955,-0.9923989772796631,0,0,0,-1,-1,5591.198884916667,unknown,2,2022-06-30T10:02:24.180+02:00,2022-06-30T08:20:05.567+02:00,1524,1.458745,0,0,1205.903,0,0,2022-06-30T10:02:24.180+02:00
2022-06-30T10:02:26.099+02:00,5593.117154375001,0.058013916015625,-0.1373138427734375,-0.9659423828125,5593.112179375001,2.648757389860816,0.04675273138206447,0.1134441679464958,-0.1131612882018089,-0.07401041686534882,0.120048388838768,0.02354172617197037,-0.03917288780212402,0.02160018682479858,XArbitraryZVertical,-0.008806602815715167,0.06065667665794761,0.9682915259130795,0.2421874469545423,0.04643528908491135,-0.1132009923458099,-0.9924864172935486,0,0,0,-1,-1,5591.198884916667,unknown,2,2022-06-30T10:02:24.180+02:00,2022-06-30T08:20:05.567+02:00,1524,1.458745,0,0,1205.903,0,0,2022-06-30T10:02:24.180+02:00
2022-06-30T10:02:26.109+02:00,5593.127106375,0.0495452880859375,-0.10748291015625,-0.965972900390625,5593.122130375001,2.649836382588805,0.04703755047214522,0.1125245057515017,-0.06683486700057983,-0.06613197922706604,0.1142441928386688,0.01129128038883209,-0.02502626180648804,0.0266343355178833,XArbitraryZVertical,-0.009089547056179982,0.06024131301902316,0.9684433310789254,0.2416731784224272,0.04672284051775932,-0.1122871935367584,-0.9925767183303833,0,0,0,-1,-1,5591.198884916667,unknown,2,2022-06-30T10:02:24.180+02:00,2022-06-30T08:20:05.567+02:00,1524,1.458745,0,0,1205.903,0,0,2022-06-30T10:02:24.180+02:00
2022-06-30T10:02:26.134+02:00,5593.137057375,0.0369110107421875,-0.09130859375,-0.941558837890625,5593.132081375001,2.650816277229479,0.04723373187168096,0.1126974430076088,0.02088352851569653,-0.07310439646244049,0.09651872515678406,0.00262884795665741,0.004976503551006317,0.02657520771026611,XArbitraryZVertical,-0.009192989011934462,0.06034420486540711,0.9685565094370001,0.2411896024616414,0.0469166487455368,-0.1124590411782265,-0.9925481081008911,0,0,0,-1,-1,5591.198884916667,unknown,2,2022-06-30T10:02:24.180+02:00,2022-06-30T08:20:05.567+02:00,1524,1.458745,0,0,1205.903,0,0,2022-06-30T10:02:24.180+02:00
2022-06-30T10:02:26.137+02:00,5593.147008375,0.031341552734375,-0.114288330078125,-0.9281768798828125,5593.142033375,2.651398418351467,0.04704553461356244,0.1143802365392452,0.07560449838638306,-0.08016934245824814,0.03841578215360641,-0.009809665381908417,0.0228227823972702,0.0508076548576355,XArbitraryZVertical,-0.008914539050653402,0.06113329767007275,0.96858598523054,0.2408825671046001,0.04672088474035263,-0.1141309961676598,-0.9923664927482605,0,0,0,-1,-1,5591.198884916667,unknown,2,2022-06-30T10:02:24.180+02:00,2022-06-30T08:20:05.567+02:00,1524,1.458745,0,0,1205.903,0,0,2022-06-30T10:02:24.180+02:00
2022-06-30T10:02:26.139+02:00,5593.156959375,0.044036865234375,-0.1726837158203125,-0.9287872314453125,5593.151984375,2.651403478544533,0.04676583892577698,0.1161210017186853,0.0593554861843586,-0.08651911467313766,-0.01236617378890514,-0.01509220898151398,0.001572273671627045,0.06400269269943237,XArbitraryZVertical,-0.008567310749064801,0.06194203813194,0.9685442051298807,0.2408568435917563,0.04643396660685539,-0.115860216319561,-0.9921795725822449,0,0,0,-1,-1,5591.198884916667,unknown,2,2022-06-30T10:02:24.180+02:00,2022-06-30T08:20:05.567+02:00,1524,1.458745,0,0,1205.903,0,0,2022-06-30T10:02:24.180+02:00
2022-06-30T10:02:26.149+02:00,5593.166911375,0.0731964111328125,-0.1992340087890625,-0.92608642578125,5593.161935375,2.651145155502525,0.04631312696787691,0.1171126852162736,-0.01101188641041517,-0.1037230640649796,-0.01886788196861744,-0.001942373812198639,-0.05583817511796951,0.06329798698425293,XArbitraryZVertical,-0.008219291152816695,0.06236849291077688,0.9684897740077157,0.2409778355722592,0.04597944766283035,-0.1168451607227325,-0.9920852184295654,0,0,0,-1,-1,5591.198884916667,unknown,2,2022-06-30T10:02:24.180+02:00,2022-06-30T08:20:05.567+02:00,1524,1.458745,0,0,1205.903,0,0,2022-06-30T10:02:24.180+02:00
2022-06-30T10:02:26.159+02:00,5593.176862375,0.08892822265625,-0.1837921142578125,-0.9383087158203125,5593.171886375,2.651064293642812,0.04546728412390684,0.1172609744806764,-0.09514673799276352,-0.1266475468873978,0.006771966814994812,0.02805712446570396,-0.08224119991064072,0.06602001190185547,XArbitraryZVertical,-0.007789116239309905,0.0623386509409378,0.9684795753580826,0.2410406279806443,0.04513949528336525,-0.1169924363493919,-0.9921064376831055,0,0,0,-1,-1,5591.198884916667,unknown,2,2022-06-30T10:02:24.180+02:00,2022-06-30T08:20:05.567+02:00,1524,1.458745,0,0,1205.903,0,0,2022-06-30T10:02:24.180+02:00
2022-06-30T10:02:26.169+02:00,5593.186813375,0.088592529296875,-0.1622161865234375,-0.95513916015625,5593.181838375001,2.6512096890186,0.0443715656741891,0.1167670982824798,-0.1228269636631012,-0.1483755260705948,0.01652825810015202,0.04487347602844238,-0.067289799451828,0.05390417575836182,XArbitraryZVertical,-0.007323184600503929,0.06196705468462661,0.9685138508422879,0.2410131088643923,0.04405495524406433,-0.1165019348263741,-0.9922128915786743,0,0,0,-1,-1,5591.198884916667,unknown,2,2022-06-30T10:02:24.180+02:00,2022-06-30T08:20:05.567+02:00,1524,1.458745,0,0,1205.903,0,0,2022-06-30T10:02:24.180+02:00
2022-06-30T10:02:26.179+02:00,5593.196765375001,0.0846710205078125,-0.1458282470703125,-0.956695556640625,5593.191789375001,2.651393383008416,0.04303378878419124,0.1160572053703456,-0.1053206771612167,-0.1775086522102356,0.01441051252186298,0.0458616316318512,-0.04641895741224289,0.03721415996551514,XArbitraryZVertical,-0.006767425486113252,0.06146164811754737,0.9685588559315081,0.240977961399391,0.04273110628128052,-0.1157968491315842,-0.9923533201217651,0,0,0,-1,-1,5591.198884916667,unknown,2,2022-06-30T10:02:24.180+02:00,2022-06-30T08:20:05.567+02:00,1524,1.458745,0,0,1205.903,0,0,2022-06-30T10:02:24.180+02:00
2022-06-30T10:02:26.189+02:00,5593.206716375001,0.067230224609375,-0.1565704345703125,-0.9488525390625,5593.201740375001,2.651420405722635,0.04139325145071619,0.1153850903220827,-0.09127330034971237,-0.1853220015764236,-0.01910736784338951,0.04356496036052704,-0.03069864213466644,0.03580403327941895,XArbitraryZVertical,-0.006055548201694324,0.06093857537490367,0.9685845406865664,0.2410266906034688,0.04110626876354218,-0.1151292249560356,-0.9924996495246887,0,0,0,-1,-1,5591.198884916667,unknown,2,2022-06-30T10:02:24.180+02:00,2022-06-30T08:20:05.567+02:00,1524,1.458745,0,0,1205.903,0,0,2022-06-30T10:02:24.180+02:00
2022-06-30T10:02:26.199+02:00,5593.216667375001,0.0245513916015625,-0.20294189453125,-0.919647216796875,5593.211692375,2.650846120041221,0.03976267937367874,0.1142007978413332,-0.1365523636341095,-0.1725998222827911,-0.1139641031622887,0.02773717045783997,-0.04261732846498489,0.04384833574295044,XArbitraryZVertical,-0.005392665917498008,0.06017037596362251,0.9685499350055899,0.2413740180712007,0.03949326276779175,-0.1139527261257172,-0.9927008748054504,0,0,0,-1,-1,5591.198884916667,unknown,2,2022-06-30T10:02:24.180+02:00,2022-06-30T08:20:05.567+02:00,1524,1.458745,0,0,1205.903,0,0,2022-06-30T10:02:24.180+02:00
2022-06-30T10:02:26.209+02:00,5593.226619375,-0.0201416015625,-0.25030517578125,-0.8697967529296875,5593.221643375,2.649121623066925,0.03839989868658881,0.1122608871001508,-0.2104056179523468,-0.1408380568027496,-0.2437879741191864,-0.01359720900654793,-0.09091627597808838,0.07332557439804077,XArbitraryZVertical,-0.004917990637980252,0.05907118475621271,0.9683936197047739,0.2422814679023207,0.03814880922436714,-0.1120252385735512,-0.9929727911949158,0,0,0,-1,-1,5591.198884916667,unknown,2,2022-06-30T10:02:24.180+02:00,2022-06-30T08:20:05.567+02:00,1524,1.458745,0,0,1205.903,0,0,2022-06-30T10:02:24.180+02:00
2022-06-30T10:02:26.219+02:00,5593.236570375,-0.0431671142578125,-0.2515106201171875,-0.7996063232421875,5593.231594375,2.646225208963321,0.0374524468127377,0.1094768291189684,-0.3579010665416718,-0.1139513105154037,-0.348308265209198,-0.0573609322309494,-0.1410465091466904,0.1235195994377136,XArbitraryZVertical,-0.004715937177350138,0.05761591670457474,0.9681122562325566,0.2437557154867032,0.03721953183412552,-0.1092582792043686,-0.9933163523674011,0,0,0,-1,-1,5591.198884916667,unknown,2,2022-06-30T10:02:24.180+02:00,2022-06-30T08:20:05.567+02:00,1524,1.458745,0,0,1205.903,0,0,2022-06-30T10:02:24.180+02:00
2022-06-30T10:02:26.228+02:00,5593.246521375,-0.0637054443359375,-0.2395782470703125,-0.747955322265625,5593.241545375,2.642400367800868,0.03665187894942926,0.1052743747062918,-0.5580219626426697,-0.1375665068626404,-0.4544656872749329,-0.07960771769285202,-0.1464301943778992,0.1941895484924316,XArbitraryZVertical,-0.004738606324763858,0.05549418324631938,0.9677458495475055,0.2456948706507623,0.03644080460071564,-0.1050800308585167,-0.9937958717346191,0,0,0,-1,-1,5591.198884916667,unknown,2,2022-06-30T10:02:24.180+02:00,2022-06-30T08:20:05.567+02:00,1524,1.458745,0,0,1205.903,0,0,2022-06-30T10:02:24.180+02:00
2022-06-30T10:02:26.238+02:00,5593.256472375,-0.10198974609375,-0.2442779541015625,-0.6870880126953125,5593.251497375,2.637253134063133,0.03591771750752932,0.09868123406711389,-0.818473219871521,-0.1373944729566574,-0.6294596195220947,-0.09944053739309311,-0.141056701540947,0.2465378046035767,XArbitraryZVertical,-0.005064993030340642,0.05222819028642157,0.9672599273952079,0.2483042380486671,0.03573529049754143,-0.0985211506485939,-0.9944931268692017,0,0,0,-1,-1,5591.198884916667,unknown,2,2022-06-30T10:02:24.180+02:00,2022-06-30T08:20:05.567+02:00,1524,1.458745,0,0,1205.903,0,0,2022-06-30T10:02:24.180+02:00
2022-06-30T10:02:26.248+02:00,5593.266424375,-0.1650543212890625,-0.2888946533203125,-0.643402099609375,5593.261448375,2.63005838072793,0.03534050299887179,0.08937356271124886,-0.9848190546035767,-0.1088613644242287,-0.8907570242881775,-0.1371816694736481,-0.1550229340791702,0.3082988858222961,XArbitraryZVertical,-0.005777797456259303,0.04767762559603705,0.9665524710969443,0.2519319879260951,0.03519212827086449,-0.08925463259220123,-0.9953868985176086,0,0,0,-1,-1,5591.198884916667,unknown,2,2022-06-30T10:02:24.180+02:00,2022-06-30T08:20:05.567+02:00,1524,1.458745,0,0,1205.903,0,0,2022-06-30T10:02:24.180+02:00
2022-06-30T10:02:26.258+02:00,5593.276375375,-0.191741943359375,-0.323822021484375,-0.6264190673828125,5593.271399375,2.619894625200217,0.03516102740062881,0.07862885410112259,-1.074136734008789,-0.0883781909942627,-1.204809904098511,-0.200099304318428,-0.2103464007377625,0.3528921008110046,XArbitraryZVertical,-0.006836737890860737,0.04249911220128864,0.9654538635700077,0.2569943076474567,0.03504516929388046,-0.07854785770177841,-0.9962941408157349,0,0,0,-1,-1,5591.198884916667,unknown,2,2022-06-30T10:02:24.180+02:00,2022-06-30T08:20:05.567+02:00,1524,1.458745,0,0,1205.903,0,0,2022-06-30T10:02:24.180+02:00
2022-06-30T10:02:26.268+02:00,5593.286326375,-0.1739349365234375,-0.260833740234375,-0.5748291015625,5593.281351375001,2.607625372337434,0.03492212270628063,0.0670573826515205,-1.172299385070801,-0.1311080902814865,-1.315369129180908,-0.2265783101320267,-0.2568144798278809,0.3707250952720642,XArbitraryZVertical,-0.007989472463679788,0.03693362494713583,0.964036447769125,0.2630701423910352,0.0348365530371666,-0.06700713932514191,-0.9971441626548767,0,0,0,-1,-1,5591.198884916667,unknown,2,2022-06-30T10:02:24.180+02:00,2022-06-30T08:20:05.567+02:00,1524,1.458745,0,0,1205.903,0,0,2022-06-30T10:02:24.180+02:00
2022-06-30T10:02:26.278+02:00,5593.296278375,-0.1833953857421875,-0.2299041748046875,-0.586669921875,5593.291302375001,2.594434715217075,0.03414664654500981,0.05445789681084415,-1.24760377407074,-0.1734840422868729,-1.425948619842529,-0.2080241441726685,-0.2064023613929749,0.42310631275177,XArbitraryZVertical,-0.009076765058792799,0.03082016503065273,0.9624385636828884,0.269592040012445,0.03408940136432648,-0.05443098396062851,-0.9979354739189148,0,0,0,-1,-1,5591.198884916667,unknown,2,2022-06-30T10:02:24.180+02:00,2022-06-30T08:20:05.567+02:00,1524,1.458745,0,0,1205.903,0,0,2022-06-30T10:02:24.180+02:00
2022-06-30T10:02:26.289+02:00,5593.306229375,-0.1424102783203125,-0.2071533203125,-0.606048583984375,5593.301253375001,2.5800817015505,0.03289912633155063,0.04153551092650973,-1.236334085464478,-0.2137197405099869,-1.538572072982788,-0.2162600308656693,-0.1883802115917206,0.4119269251823425,XArbitraryZVertical,-0.01004820901697222,0.02450717053769112,0.9606039348746871,0.2766562564006532,0.03286482393741608,-0.04152356833219528,-0.9985968470573425,0,0,0,-1,-1,5591.198884916667,unknown,2,2022-06-30T10:02:24.180+02:00,2022-06-30T08:20:05.567+02:00,1524,1.458745,0,0,1205.903,0,0,2022-06-30T10:02:24.180+02:00
2022-06-30T10:02:26.298+02:00,5593.316180375,-0.1034393310546875,-0.229095458984375,-0.6220703125,5593.311205375,2.56460720262568,0.0308297597232713,0.02917552612931464,-1.136719346046448,-0.3170293569564819,-1.653086185455322,-0.1732218712568283,-0.1779815256595612,0.3930508494377136,XArbitraryZVertical,-0.01062599324397867,0.01836775718804511,0.9585219553201957,0.2842280112083442,0.03081175871193409,-0.02917138673365116,-0.9990994334220886,0,0,0,-1,-1,5591.198884916667,unknown,2,2022-06-30T10:02:24.180+02:00,2022-06-30T08:20:05.567+02:00,1524,1.458745,0,0,1205.903,0,0,2022-06-30T10:02:24.180+02:00
2022-06-30T10:02:26.308+02:00,5593.326132375,-0.1041717529296875,-0.283660888671875,-0.64404296875,5593.321156375,2.547818952596953,0.02748446902481296,0.01786491980811408,-1.043466687202454,-0.4231669306755066,-1.790401816368103,-0.1309157907962799,-0.2112310826778412,0.3773925304412842,XArbitraryZVertical,-0.01052723669274287,0.01256069161781642,0.9561593575599767,0.2923880355698745,0.02747662365436554,-0.01786397024989128,-0.9994627833366394,0,0,0,-1,-1,5591.198884916667,unknown,2,2022-06-30T10:02:24.180+02:00,2022-06-30T08:20:05.567+02:00,1524,1.458745,0,0,1205.903,0,0,2022-06-30T10:02:24.180+02:00
2022-06-30T10:02:26.318+02:00,5593.336083375,-0.154937744140625,-0.3985595703125,-0.6095733642578125,5593.331107375,2.529284273923694,0.02308981126439699,0.006964865365837442,-1.067827701568604,-0.4984816610813141,-2.007113456726074,-0.1272587925195694,-0.2766956686973572,0.3556662797927856,XArbitraryZVertical,-0.00995824123417951,0.006799736294309928,0.9534425098928785,0.3013336432201338,0.02308719977736473,-0.006964809261262417,-0.9997091889381409,0,0,0,-1,-1,5591.198884916667,unknown,2,2022-06-30T10:02:24.180+02:00,2022-06-30T08:20:05.567+02:00,1524,1.458745,0,0,1205.903,0,0,2022-06-30T10:02:24.180+02:00
2022-06-30T10:02:26.328+02:00,5593.346034375,-0.2525634765625,-0.542816162109375,-0.535400390625,5593.341059375,2.50782441263306,0.01766183653434935,-0.00517121069432388,-1.31621253490448,-0.5905071496963501,-2.373350381851196,-0.1725982874631882,-0.4037303328514099,0.3902573585510254,XArbitraryZVertical,-0.009196759290455219,0.0002949620509360677,0.9501636344327544,0.3116158580659708,0.01766068302094936,0.005171187687665224,-0.9998306632041931,0,0,0,-1,-1,5591.198884916667,unknown,2,2022-06-30T10:02:24.180+02:00,2022-06-30T08:20:05.567+02:00,1524,1.458745,0,0,1205.903,0,0,2022-06-30T10:02:24.180+02:00
2022-06-30T10:02:26.338+02:00,5593.355985375,-0.3724517822265625,-0.6813507080078125,-0.438873291015625,5593.351010375,2.482254334077113,0.01104008013418122,-0.02120100038287388,-1.876327753067017,-0.6594987511634827,-2.81849479675293,-0.2636007070541382,-0.5640151500701904,0.4643139839172363,XArbitraryZVertical,-0.008654046504092201,-0.008242423036540656,0.9460630399154168,0.3237623336858151,0.01103737484663725,0.02119941264390945,-0.9997143149375916,0,0,0,-1,-1,5591.198884916667,unknown,2,2022-06-30T10:02:24.180+02:00,2022-06-30T08:20:05.567+02:00,1524,1.458745,0,0,1205.903,0,0,2022-06-30T10:02:24.180+02:00
2022-06-30T10:02:26.348+02:00,5593.365937375001,-0.5140380859375,-0.8242340087890625,-0.3469085693359375,5593.360961375,2.451799183065757,0.003224543864130759,-0.04461045588702752,-2.835711240768433,-0.7049875259399414,-3.345061779022217,-0.3756729960441589,-0.7259459495544434,0.5601266622543335,XArbitraryZVertical,-0.009057699221601869,-0.0204449390952372,0.9408629405513471,0.3380488623760284,0.003221330232918262,0.04459566250443459,-0.9989999532699585,0,0,0,-1,-1,5591.198884916667,unknown,2,2022-06-30T10:02:24.180+02:00,2022-06-30T08:20:05.567+02:00,1524,1.458745,0,0,1205.903,0,0,2022-06-30T10:02:24.180+02:00
2022-06-30T10:02:26.358+02:00,5593.375888375001,-0.6623077392578125,-0.9461212158203125,-0.2574462890625,5593.370912375,2.415370695216398,-0.006023853247500851,-0.07937472422779421,-4.205604076385498,-0.6776166558265686,-3.958070516586304,-0.5080331563949585,-0.9035249948501587,0.6499248743057251,XArbitraryZVertical,-0.01127923858716676,-0.03815863911281385,0.9340985070990445,0.3547910930668598,-0.006004850845783949,0.07929140329360962,-0.9968333840370178,0,0,0,-1,-1,5591.198884916667,unknown,2,2022-06-30T10:02:24.180+02:00,2022-06-30T08:20:05.567+02:00,1524,1.458745,0,0,1205.903,0,0,2022-06-30T10:02:24.180+02:00
2022-06-30T10:02:26.368+02:00,5593.385839375001,-0.77679443359375,-0.9899139404296875,-0.130584716796875,5593.380864375001,2.372352500642902,-0.0167405972808101,-0.1289009133397559,-5.876185417175293,-0.5724889039993286,-4.505733489990234,-0.6457067131996155,-1.074665069580078,0.7341185808181763,XArbitraryZVertical,-0.01642210373575631,-0.0628323681443011,0.9251863959432439,0.3739151762787977,-0.01660093851387501,0.1285442560911179,-0.9915648102760315,0,0,0,-1,-1,5591.198884916667,unknown,2,2022-06-30T10:02:24.180+02:00,2022-06-30T08:20:05.567+02:00,1524,1.458745,0,0,1205.903,0,0,2022-06-30T10:02:24.180+02:00
2022-06-30T10:02:26.378+02:00,5593.395791375,-0.938140869140625,-0.9363861083984375,-0.1112518310546875,5593.390815375001,2.323153027180803,-0.02950693531768545,-0.195139385021991,-7.636215686798096,-0.370237797498703,-4.934021949768066,-0.7478516697883606,-1.18381679058075,0.850009024143219,XArbitraryZVertical,-0.02528614418798211,-0.09520401234475856,0.9135405335256852,0.3946396061792546,-0.02894271165132523,0.1939032822847366,-0.9805936217308044,0,0,0,-1,-1,5591.198884916667,unknown,2,2022-06-30T10:02:24.180+02:00,2022-06-30T08:20:05.567+02:00,1524,1.458745,0,0,1205.903,0,0,2022-06-30T10:02:24.180+02:00
2022-06-30T10:02:26.388+02:00,5593.405742375,-1.148788452148438,-0.7886962890625,-0.17169189453125,5593.400766375001,2.267441651951305,-0.04434987224750577,-0.2767425890810932,-9.104900360107422,0.03330783173441887,-5.344213008880615,-0.8954924345016479,-1.209609270095825,0.8497529625892639,XArbitraryZVertical,-0.0384736517524621,-0.1342290734769287,0.8984079344667782,0.4163720455591499,-0.04264840111136436,0.2732236385345459,-0.9610046744346619,0,0,0,-1,-1,5591.198884916667,unknown,2,2022-06-30T10:02:24.180+02:00,2022-06-30T08:20:05.567+02:00,1524,1.458745,0,0,1205.903,0,0,2022-06-30T10:02:24.180+02:00
2022-06-30T10:02:26.398+02:00,5593.415693375,-1.3431396484375,-0.5733184814453125,-0.2422637939453125,5593.410718375,2.203709770141907,-0.06150151161238962,-0.3695030681611586,-10.07256031036377,0.6116247177124023,-5.791515350341797,-1.091473937034607,-1.149847984313965,0.7590522170066833,XArbitraryZVertical,-0.05602353163899092,-0.1774525513087141,0.8790043321914474,0.4390026836606032,-0.0573144368827343,0.3611520826816559,-0.930743932723999,0,0,0,-1,-1,5591.198884916667,unknown,2,2022-06-30T10:02:24.180+02:00,2022-06-30T08:20:05.567+02:00,1524,1.458745,0,0,1205.903,0,0,2022-06-30T10:02:24.180+02:00
2022-06-30T10:02:26.408+02:00,5593.425645375,-1.472015380859375,-0.2812957763671875,-0.294952392578125,5593.420669375,2.131240023335099,-0.0817391735649132,-0.467076765491467,-10.36178779602051,1.251774787902832,-6.039286613464355,-1.270236968994141,-1.023596167564392,0.6476436257362366,XArbitraryZVertical,-0.07712155056010055,-0.2215821981084885,0.8551988136682152,0.4621563263349798,-0.07290270924568176,0.450278103351593,-0.88990718126297,0,0,0,-1,-1,5591.198884916667,unknown,2,2022-06-30T10:02:24.180+02:00,2022-06-30T08:20:05.567+02:00,1524,1.458745,0,0,1205.903,0,0,2022-06-30T10:02:24.180+02:00
2022-06-30T10:02:26.418+02:00,5593.435596375,-1.607025146484375,0.00372314453125,-0.294921875,5593.430620375,2.050935275416374,-0.1058916193689546,-0.5636144744472666,-10.23475170135498,1.864056348800659,-6.123374938964844,-1.38266932964325,-0.8155404925346375,0.545642614364624,XArbitraryZVertical,-0.1005834743252755,-0.2637908314602749,0.8277154852713021,0.4849583487463346,-0.08934613317251205,0.5342450737953186,-0.8405947089195251,0,0,0,-1,-1,5591.198884916667,unknown,2,2022-06-30T10:02:24.180+02:00,2022-06-30T08:20:05.567+02:00,1524,1.458745,0,0,1205.903,0,0,2022-06-30T10:02:24.180+02:00
2022-06-30T10:02:26.427+02:00,5593.445547375,-1.747177124023438,0.1578521728515625,-0.27740478515625,5593.440572375001,1.961072720365462,-0.1357652150135934,-0.6559659058221184,-9.954465866088867,2.500724315643311,-6.351960182189941,-1.499767065048218,-0.6062014698982239,0.4902454614639282,XArbitraryZVertical,-0.1255302093244986,-0.3027518151065534,0.7968596885690679,0.5075413127367753,-0.107258178293705,0.6099249720573425,-0.7851670384407043,0,0,0,-1,-1,5591.198884916667,unknown,2,2022-06-30T10:02:24.180+02:00,2022-06-30T08:20:05.567+02:00,1524,1.458745,0,0,1205.903,0,0,2022-06-30T10:02:24.180+02:00
2022-06-30T10:02:26.437+02:00,5593.455498375,-1.819747924804688,0.197540283203125,-0.2751312255859375,5593.450523375001,1.857925904053902,-0.1740700674218593,-0.7423755648257266,-9.635123252868652,3.169900894165039,-6.618390560150146,-1.619557857513428,-0.5181877613067627,0.4483247399330139,XArbitraryZVertical,-0.1514421284030658,-0.3379359122585947,0.7624995155434672,0.530527239135525,-0.1276193112134933,0.6760402917861938,-0.72572922706604,0,0,0,-1,-1,5591.198884916667,unknown,2,2022-06-30T10:02:24.180+02:00,2022-06-30T08:20:05.567+02:00,1524,1.458745,0,0,1205.903,0,0,2022-06-30T10:02:24.180+02:00
2022-06-30T10:02:26.447+02:00,5593.465450375001,-1.809051513671875,0.2377471923828125,-0.2157440185546875,5593.460474375001,1.740413017479038,-0.2223022396219238,-0.8217315875262374,-9.289468765258789,3.799265146255493,-6.61616849899292,-1.66961407661438,-0.5347855091094971,0.3890666961669922,XArbitraryZVertical,-0.1781550162410336,-0.3690013366017596,0.7250757844092124,0.5535016519024156,-0.1501339226961136,0.7323260307312012,-0.6641976237297058,0,0,0,-1,-1,5591.198884916667,unknown,2,2022-06-30T10:02:24.180+02:00,2022-06-30T08:20:05.567+02:00,1524,1.458745,0,0,1205.903,0,0,2022-06-30T10:02:24.180+02:00
2022-06-30T10:02:26.457+02:00,5593.475401375001,-1.813674926757812,0.3544464111328125,-0.2016143798828125,5593.470425375001,1.609845066890715,-0.2803652401235958,-0.8936519337327899,-8.974676132202148,4.399753570556641,-6.39843225479126,-1.635675549507141,-0.5416176915168762,0.3863616585731506,XArbitraryZVertical,-0.2057605836782797,-0.3957397605813303,0.6854873148116325,0.5754648333420553,-0.1733760833740234,0.7793651223182678,-0.6021052598953247,0,0,0,-1,-1,5591.198884916667,unknown,2,2022-06-30T10:02:24.180+02:00,2022-06-30T08:20:05.567+02:00,1524,1.458745,0,0,1205.903,0,0,2022-06-30T10:02:24.180+02:00
2022-06-30T10:02:26.467+02:00,5593.485352375001,-1.774810791015625,0.5970458984375,-0.13763427734375,5593.480377375,1.465760500626492,-0.3489095915284968,-0.9582290920109638,-8.742319107055664,4.970366954803467,-6.106027603149414,-1.617108225822449,-0.4637279510498047,0.338711678981781,XArbitraryZVertical,-0.2343864801816803,-0.4182106269446244,0.6441445842379989,0.5960207519575801,-0.1965668648481369,0.8181746602058411,-0.5403257012367249,0,0,0,-1,-1,5591.198884916667,unknown,2,2022-06-30T10:02:24.180+02:00,2022-06-30T08:20:05.567+02:00,1524,1.458745,0,0,1205.903,0,0,2022-06-30T10:02:24.180+02:00
2022-06-30T10:02:26.477+02:00,5593.495304375,-1.714035034179688,0.9432830810546875,-0.0377197265625,5593.490328375,1.307638471061173,-0.429403233879274,-1.016109756553993,-8.678354263305664,5.367259502410889,-5.669620990753174,-1.555540442466736,-0.2530194520950317,0.3412284851074219,XArbitraryZVertical,-0.2640668436739327,-0.4368495527508679,0.6014700141282042,0.6145446743462702,-0.2192705571651459,0.8500655293464661,-0.4788623452186584,0,0,0,-1,-1,5591.198884916667,unknown,2,2022-06-30T10:02:24.180+02:00,2022-06-30T08:20:05.567+02:00,1524,1.458745,0,0,1205.903,0,0,2022-06-30T10:02:24.180+02:00
2022-06-30T10:02:26.487+02:00,5593.505255375,-1.68121337890625,1.261001586914062,0.0555419921875,5593.500279375,1.132142504152368,-0.5260509476299793,-1.068781016008026,-8.890884399414062,5.696892261505127,-5.254294872283936,-1.47241735458374,0.06666862964630127,0.3784151077270508,XArbitraryZVertical,-0.2950830152034036,-0.4526132833019341,0.5574401307419411,0.6303395216587495,-0.2416178584098816,0.8766145706176758,-0.4161344468593597,0,0,0,-1,-1,5591.198884916667,unknown,2,2022-06-30T10:02:24.180+02:00,2022-06-30T08:20:05.567+02:00,1524,1.458745,0,0,1205.903,0,0,2022-06-30T10:02:24.180+02:00
2022-06-30T10:02:26.497+02:00,5593.515206375,-1.66070556640625,1.564544677734375,-0.0845489501953125,5593.510231375,0.9331113573370924,-0.6438058088274566,-1.115928421990582,-9.16211986541748,6.121936798095703,-4.865509986877441,-1.417500257492065,0.3626826405525208,0.4069370627403259,XArbitraryZVertical,-0.3278589456444558,-0.4656298661919784,0.5115952631589785,0.6434032210317904,-0.2637133300304413,0.8983190655708313,-0.3513946831226349,0,0,0,-1,-1,5591.198884916667,unknown,2,2022-06-30T10:02:24.180+02:00,2022-06-30T08:20:05.567+02:00,1524,1.458745,0,0,1205.903,0,0,2022-06-30T10:02:24.180+02:00
2022-06-30T10:02:26.507+02:00,5593.525158375001,-1.45855712890625,1.869644165039062,0.014678955078125,5593.520182375,0.7047769125042211,-0.7876454094646407,-1.156369861496751,-9.649579048156738,6.53746223449707,-4.348068237304688,-1.37533962726593,0.6491972208023071,0.1995379626750946,XArbitraryZVertical,-0.3627470955448093,-0.475784914300698,0.463733022910256,0.6534484577317186,-0.2853662371635437,0.9153473973274231,-0.2840865254402161,0,0,0,-1,-1,5591.198884916667,unknown,2,2022-06-30T10:02:24.180+02:00,2022-06-30T08:20:05.567+02:00,1524,1.458745,0,0,1205.903,0,0,2022-06-30T10:02:24.180+02:00
2022-06-30T10:02:26.517+02:00,5593.535109375001,-1.284698486328125,2.064178466796875,0.002838134765625,5593.530133375,0.4430745722489099,-0.9624608462703693,-1.188908141969713,-10.10656642913818,6.826004981994629,-3.726587533950806,-1.152741312980652,0.9416815638542175,0.2276631593704224,XArbitraryZVertical,-0.4000569128308531,-0.4831796347936293,0.4142593309779611,0.6594552583746243,-0.3058160841464996,0.927962601184845,-0.2129838168621063,0,0,0,-1,-1,5591.198884916667,unknown,2,2022-06-30T10:02:24.180+02:00,2022-06-30T08:20:05.567+02:00,1524,1.458745,0,0,1205.903,0,0,2022-06-30T10:02:24.180+02:00
2022-06-30T10:02:26.527+02:00,5593.545060375001,-1.119140625,2.287017822265625,0.1703948974609375,5593.540085375001,0.1509536489104944,-1.165210793428759,-1.208046431806872,-10.40773773193359,7.124141216278076,-3.271588087081909,-0.9586403965950012,1.12925386428833,0.142845630645752,XArbitraryZVertical,-0.4387661578070032,-0.48731988907341,0.3634261920480367,0.6617590436725969,-0.3260584473609924,0.9349245429039001,-0.1400071680545807,0,0,0,-1,-1,5591.198884916667,unknown,2,2022-06-30T10:02:24.180+02:00,2022-06-30T08:20:05.567+02:00,1524,1.458745,0,0,1205.903,0,0,2022-06-30T10:02:24.180+02:00
2022-06-30T10:02:26.537+02:00,5593.555011375001,-0.93231201171875,2.471420288085938,0.3885650634765625,5593.550036375001,-0.1639853570747171,-1.387633872240942,-1.210871202102252,-11.11499309539795,7.409433841705322,-2.602837562561035,-0.772828221321106,1.351094484329224,0.2345457077026367,XArbitraryZVertical,-0.479140339850039,-0.4882102994086132,0.3109420426229617,0.6598411046317584,-0.3463127017021179,0.9359232187271118,-0.06415047496557236,0,0,0,-1,-1,5591.198884916667,unknown,2,2022-06-30T10:02:24.180+02:00,2022-06-30T08:20:05.567+02:00,1524,1.458745,0,0,1205.903,0,0,2022-06-30T10:02:24.180+02:00
2022-06-30T10:02:26.547+02:00,5593.564963375,-0.7501220703125,2.5845947265625,0.7433929443359375,5593.559987375001,-0.4876054993296813,-1.615149640073876,-1.197891678356732,-11.92473411560059,7.587169647216797,-1.54792320728302,-0.56834876537323,1.540147066116333,0.3724117279052734,XArbitraryZVertical,-0.5222553670783799,-0.485104238798689,0.2575226883671523,0.6523842509804144,-0.3639635145664215,0.9312730431556702,0.01615358144044876,0,0,0,-1,-1,5591.198884916667,unknown,2,2022-06-30T10:02:24.180+02:00,2022-06-30T08:20:05.567+02:00,1524,1.458745,0,0,1205.903,0,0,2022-06-30T10:02:24.180+02:00
2022-06-30T10:02:26.557+02:00,5593.574914375,-0.6116485595703125,2.682525634765625,1.241409301757812,5593.569938375001,-0.8081625229514672,-1.836470301605623,-1.168804908726427,-13.01005840301514,7.606465816497803,-0.4171932339668274,-0.3725974559783936,1.664310932159424,0.6406662464141846,XArbitraryZVertical,-0.5685714055471119,-0.4775877064294346,0.2039183631093474,0.6380076976219466,-0.3775249719619751,0.9202836751937866,0.1027269214391708,0,0,0,-1,-1,5591.198884916667,unknown,2,2022-06-30T10:02:24.180+02:00,2022-06-30T08:20:05.567+02:00,1524,1.458745,0,0,1205.903,0,0,2022-06-30T10:02:24.180+02:00
2022-06-30T10:02:26.567+02:00,5593.584865375,-0.46502685546875,2.836166381835938,1.649887084960938,5593.579890375,-1.119874573602681,-2.044346742808294,-1.120697418476058,-14.56181621551514,7.727784633636475,0.8613183498382568,-0.2244700789451599,1.782121300697327,1.043003439903259,XArbitraryZVertical,-0.6187267415467116,-0.4651669323235191,0.1495989657317244,0.6151561272422217,-0.3871788084506989,0.9004040956497192,0.1984061151742935,0,0,0,-1,-1,5591.198884916667,unknown,2,2022-06-30T10:02:24.180+02:00,2022-06-30T08:20:05.567+02:00,1524,1.458745,0,0,1205.903,0,0,2022-06-30T10:02:24.180+02:00
2022-06-30T10:02:26.577+02:00,5593.594817375,-0.2800445556640625,3.001861572265625,1.768203735351562,5593.589841375,-1.415358688550814,-2.22855388313748,-1.052053661019291,-16.03787422180176,7.814263820648193,2.384777307510376,-0.07267734408378601,1.96772289276123,1.346789836883545,XArbitraryZVertical,-0.6728055858301525,-0.4459611129613464,0.09463354684195523,0.5826627265877854,-0.3923498690128326,0.8684432506561279,0.3030973374843597,0,0,0,-1,-1,5591.198884916667,unknown,2,2022-06-30T10:02:24.180+02:00,2022-06-30T08:20:05.567+02:00,1524,1.458745,0,0,1205.903,0,0,2022-06-30T10:02:24.180+02:00
2022-06-30T10:02:26.587+02:00,5593.604768375,-0.1160125732421875,3.072128295898438,1.592819213867188,5593.599792375,-1.679970325348262,-2.376014453543683,-0.9658947683243904,-16.33283424377441,7.54167652130127,3.704200267791748,0.1140249371528625,2.179303169250488,1.358195066452026,XArbitraryZVertical,-0.727517743364551,-0.4191924417928069,0.04121770697753544,0.5415687714676011,-0.3940698504447937,0.8225581049919128,0.4100087285041809,0,0,0,-1,-1,5591.198884916667,unknown,2,2022-06-30T10:02:24.180+02:00,2022-06-30T08:20:05.567+02:00,1524,1.458745,0,0,1205.903,0,0,2022-06-30T10:02:24.180+02:00
2022-06-30T10:02:26.597+02:00,5593.614719375,-0.0819854736328125,3.008758544921875,1.36956787109375,5593.609744375,-1.905555686812517,-2.484654010842095,-0.8751659653424034,-15.21072673797607,6.661761283874512,5.226037979125977,0.2753631174564362,2.304478168487549,1.085336804389954,XArbitraryZVertical,-0.777973775850277,-0.3853543435004844,-0.005746729673442199,0.4962114105742947,-0.3913760483264923,0.7676498889923096,0.5074823498725891,0,0,0,-1,-1,5591.198884916667,unknown,2,2022-06-30T10:02:24.180+02:00,2022-06-30T08:20:05.567+02:00,1524,1.458745,0,0,1205.903,0,0,2022-06-30T10:02:24.180+02:00
2022-06-30T10:02:26.607+02:00,5593.624671375001,-0.6041412353515625,2.511672973632812,1.08599853515625,5593.619695375,-2.095905808650905,-2.563268091664333,-0.7935548518729856,-12.88661670684814,5.918797969818115,6.164232730865479,0.3013685345649719,2.295907497406006,0.7823003530502319,XArbitraryZVertical,-0.8209427271945677,-0.3459577355765631,-0.04290121782772096,0.4522452275799237,-0.3833543658256531,0.7128508687019348,0.5872674584388733,0,0,0,-1,-1,5591.198884916667,unknown,2,2022-06-30T10:02:24.180+02:00,2022-06-30T08:20:05.567+02:00,1524,1.458745,0,0,1205.903,0,0,2022-06-30T10:02:24.180+02:00
2022-06-30T10:02:26.624+02:00,5593.634622375001,-1.014556884765625,1.782806396484375,0.931396484375,5593.629646375,-2.254225771450975,-2.616852807624349,-0.72996739925622,-10.14312362670898,5.224036693572998,6.73741626739502,-0.2308072745800018,1.844827651977539,0.4410650134086609,XArbitraryZVertical,-0.8545523840665835,-0.3036560489444262,-0.07084918421140263,0.4153478015757268,-0.3733344376087189,0.6668453216552734,0.6449335217475891,0,0,0,-1,-1,5591.198884916667,unknown,2,2022-06-30T10:02:24.180+02:00,2022-06-30T08:20:05.567+02:00,1524,1.458745,0,0,1205.903,0,0,2022-06-30T10:02:24.180+02:00
2022-06-30T10:02:26.627+02:00,5593.644573375001,-1.35223388671875,0.791107177734375,0.918243408203125,5593.639597375,-2.391237429814132,-2.659180565496527,-0.6845096836559936,-7.934952259063721,4.141783714294434,7.107898235321045,-0.6551470160484314,1.150513052940369,0.2450804710388184,XArbitraryZVertical,-0.8804805954609025,-0.26059899446832,-0.089946837727303,0.3856833072762737,-0.3594102561473846,0.6322932243347168,0.6863158345222473,0,0,0,-1,-1,5591.198884916667,unknown,2,2022-06-30T10:02:24.180+02:00,2022-06-30T08:20:05.567+02:00,1524,1.458745,0,0,1205.903,0,0,2022-06-30T10:02:24.180+02:00
2022-06-30T10:02:26.637+02:00,5593.654524291667,-1.519744873046875,-0.0651702880859375,1.165176391601562,5593.649549291667,-2.510242765324647,-2.697726461605145,-0.6534885564486229,-6.131982803344727,2.954625606536865,6.798502922058105,-1.011277318000793,0.1831473112106323,0.2012124061584473,XArbitraryZVertical,-0.9001463611360113,-0.2196633812399201,-0.100967699504365,0.3623398046755727,-0.34095698595047,0.6079599261283875,0.717030942440033,0,0,0,-1,-1,5591.198884916667,unknown,2,2022-06-30T10:02:24.180+02:00,2022-06-30T08:20:05.567+02:00,1524,1.458745,0,0,1205.903,0,0,2022-06-30T10:02:24.180+02:00
2022-06-30T10:02:26.646+02:00,5593.664476291667,-1.289962768554688,-0.4101409912109375,1.639617919921875,5593.659500291667,-2.612767483599317,-2.735936855833154,-0.6326751857668205,-4.552701473236084,1.712218284606934,6.449220657348633,-1.201503396034241,-0.6564744114875793,0.4241757988929749,XArbitraryZVertical,-0.9149240623471256,-0.1827956836141515,-0.1051575835765777,0.3441536853075189,-0.3182420134544373,0.5913042426109314,0.7410005927085876,0,0,0,-1,-1,5591.198884916667,unknown,2,2022-06-30T10:02:24.180+02:00,2022-06-30T08:20:05.567+02:00,1524,1.458745,0,0,1205.903,0,0,2022-06-30T10:02:24.180+02:00
2022-06-30T10:02:26.656+02:00,5593.674427291667,-1.06561279296875,-0.3618316650390625,2.156784057617188,5593.669451291667,-2.700185029446989,-2.776327066934906,-0.6220025355011448,-2.79538893699646,0.4920409023761749,5.863437175750732,-0.9996640682220459,-0.9928046464920044,0.8805199861526489,XArbitraryZVertical,-0.9256526476620638,-0.1507188214148384,-0.1028355295897883,0.3314754817163217,-0.2902991473674774,0.5826638340950012,0.7590979933738708,0,0,0,-1,-1,5591.198884916667,unknown,2,2022-06-30T10:02:24.180+02:00,2022-06-30T08:20:05.567+02:00,1524,1.458745,0,0,1205.903,0,0,2022-06-30T10:02:24.180+02:00
2022-06-30T10:02:26.666+02:00,5593.684378291667,-0.89910888671875,-0.247833251953125,2.446487426757812,5593.679403291667,-2.771430095802995,-2.818124347393855,-0.6260733915887053,-0.3970956206321716,-0.4763768911361694,5.301943778991699,-0.8080427050590515,-0.9477988481521606,1.388474225997925,XArbitraryZVertical,-0.9320756410786302,-0.1240562482433279,-0.0946566638297289,0.3269331860049255,-0.2575705647468567,0.5859674215316772,0.7683098912239075,0,0,0,-1,-1,5591.198884916667,unknown,2,2022-06-30T10:02:24.180+02:00,2022-06-30T08:20:05.567+02:00,1524,1.458745,0,0,1205.903,0,0,2022-06-30T10:02:24.180+02:00
2022-06-30T10:02:26.677+02:00,5593.694330291667,-0.7401580810546875,-0.30963134765625,2.520843505859375,5593.689354291667,-2.828261974738954,-2.860514445911094,-0.6488779762813158,1.901846766471863,-1.200998783111572,4.778290748596191,-0.6780940294265747,-0.8521260619163513,1.680992364883423,XArbitraryZVertical,-0.9339581507122872,-0.1023208540962262,-0.08189614176889345,0.3324839372866593,-0.2210152149200439,0.6042928099632263,0.7654947638511658,0,0,0,-1,-1,5591.198884916667,unknown,2,2022-06-30T10:02:24.180+02:00,2022-06-30T08:20:05.567+02:00,1524,1.458745,0,0,1205.903,0,0,2022-06-30T10:02:24.180+02:00
2022-06-30T10:02:26.686+02:00,5593.704281291667,-0.6734161376953125,-0.388916015625,2.478469848632812,5593.699305291667,-2.875449814192415,-2.904781768443601,-0.6877143952452364,3.391907930374146,-1.750675201416016,4.330973148345947,-0.5588804483413696,-0.9444040060043335,1.769709587097168,XArbitraryZVertical,-0.9318881405447234,-0.08456590846135778,-0.06581492015300659,0.3465566984334594,-0.1812780499458313,0.634772777557373,0.7511337995529175,0,0,0,-1,-1,5591.198884916667,unknown,2,2022-06-30T10:02:24.180+02:00,2022-06-30T08:20:05.567+02:00,1524,1.458745,0,0,1205.903,0,0,2022-06-30T10:02:24.180+02:00
2022-06-30T10:02:26.696+02:00,5593.714232291667,-0.63018798828125,-0.3553009033203125,2.482772827148438,5593.709257291667,-2.920621045721545,-2.955203625152956,-0.7354519023063045,3.601785659790039,-2.170760631561279,4.026049613952637,-0.5360027551651001,-1.059838056564331,1.749785184860229,XArbitraryZVertical,-0.9271216773900514,-0.06919299282526754,-0.04684266100612278,0.3653267454081262,-0.1374137997627258,0.6709223389625549,0.7286845445632935,0,0,0,-1,-1,5591.198884916667,unknown,2,2022-06-30T10:02:24.180+02:00,2022-06-30T08:20:05.567+02:00,1524,1.458745,0,0,1205.903,0,0,2022-06-30T10:02:24.180+02:00
2022-06-30T10:02:26.706+02:00,5593.724184291667,-0.5668182373046875,-0.3343048095703125,2.481414794921875,5593.719208291667,-2.967159246610075,-3.011301681256518,-0.7758518133054497,2.882048845291138,-2.536073923110962,3.790594816207886,-0.5374463796615601,-1.055625200271606,1.774998068809509,XArbitraryZVertical,-0.9223659775459416,-0.05593126109614612,-0.02715350283208148,0.3812813195625405,-0.09274202585220337,0.7003243565559387,0.7077745795249939,0,0,0,-1,-1,5591.198884916667,unknown,2,2022-06-30T10:02:24.180+02:00,2022-06-30T08:20:05.567+02:00,1524,1.458745,0,0,1205.903,0,0,2022-06-30T10:02:24.180+02:00
2022-06-30T10:02:26.716+02:00,5593.734135291667,-0.5238189697265625,-0.2995452880859375,2.507125854492188,5593.729159291667,-3.016283509216556,-3.073394618546403,-0.8034917684628559,1.792590260505676,-2.851732730865479,3.601493835449219,-0.5195123553276062,-1.054088830947876,1.788830518722534,XArbitraryZVertical,-0.9188746563634198,-0.04428994708134936,-0.006847109080991421,0.3919963199125166,-0.04730626195669174,0.7197844386100769,0.6925844550132751,0,0,0,-1,-1,5591.198884916667,unknown,2,2022-06-30T10:02:24.180+02:00,2022-06-30T08:20:05.567+02:00,1524,1.458745,0,0,1205.903,0,0,2022-06-30T10:02:24.180+02:00
2022-06-30T10:02:26.726+02:00,5593.744086291667,-0.4776763916015625,-0.252593994140625,2.566375732421875,5593.739110291667,-3.066224198852588,-3.139566424715284,-0.8175938338284312,0.7134175300598145,-3.127079725265503,3.364278793334961,-0.5224334597587585,-1.02904748916626,1.823148727416992,XArbitraryZVertical,-0.9169628930899951,-0.03416839514871858,0.01404716687154271,0.3972582993165587,-0.001385895535349846,0.7295022010803223,0.6839768290519714,0,0,0,-1,-1,5591.198884916667,unknown,2,2022-06-30T10:02:24.180+02:00,2022-06-30T08:20:05.567+02:00,1524,1.458745,0,0,1205.903,0,0,2022-06-30T10:02:24.180+02:00
2022-06-30T10:02:26.736+02:00,5593.754037291667,-0.420562744140625,-0.2249603271484375,2.513580322265625,5593.749062291667,-3.113738893710037,3.076244666608809,-0.8194874991172628,-0.168622687458992,-3.4275963306427,3.112691640853882,-0.522251307964325,-0.9833899736404419,1.885236740112305,XArbitraryZVertical,-0.9164632200666929,-0.02577972380559588,0.03550606794055232,0.3977057701497266,0.04457452148199081,0.7307960987091064,0.6811388731002808,0,0,0,-1,-1,5593.747569291667,walking,2,2022-06-30T10:02:26.729+02:00,2022-06-30T08:20:05.567+02:00,1524,1.460561,0,0,1205.903,0,0,2022-06-30T10:02:26.728+02:00
2022-06-30T10:02:26.746+02:00,5593.763989291667,-0.4256591796875,-0.172515869140625,2.40850830078125,5593.759013291667,3.126924075709846,3.00963327710785,-0.8117880822018557,-0.8157705664634705,-3.685508251190186,2.844391345977783,-0.5111145377159119,-0.9504790306091309,1.831361055374146,XArbitraryZVertical,-0.9169169980032921,-0.0193081895210954,0.05768368386647894,0.3944148501471517,0.09055142849683762,0.7255188822746277,0.6822191476821899,0,0,0,-1,-1,5593.747569291667,walking,2,2022-06-30T10:02:26.729+02:00,2022-06-30T08:20:05.567+02:00,1524,1.460561,0,0,1205.903,0,0,2022-06-30T10:02:26.728+02:00
2022-06-30T10:02:26.756+02:00,5593.773940291667,-0.4761505126953125,-0.117462158203125,2.192337036132812,5593.768964291667,3.090656370184646,2.945607418120995,-0.7974734267900471,-1.183161377906799,-3.904603481292725,2.60060453414917,-0.5616838932037354,-0.8881091475486755,1.723363399505615,XArbitraryZVertical,-0.9178010630068059,-0.01461779015111969,0.08029201499359964,0.3885624933962758,0.1360243409872055,0.7155935168266296,0.6851449608802795,0,0,0,-1,-1,5593.747569291667,walking,2,2022-06-30T10:02:26.729+02:00,2022-06-30T08:20:05.567+02:00,1524,1.460561,0,0,1205.903,0,0,2022-06-30T10:02:26.728+02:00
2022-06-30T10:02:26.766+02:00,5593.783891291667,-0.5652618408203125,-0.0357208251953125,1.983718872070312,5593.778916291667,3.060252467986114,2.884067713885017,-0.7800140875800949,-1.286224484443665,-4.102736949920654,2.380664110183716,-0.6572094559669495,-0.8207513689994812,1.504876613616943,XArbitraryZVertical,-0.9184760729246895,-0.01148496028355789,0.1033358771100248,0.3815645491238355,0.1810585558414459,0.7032894492149353,0.6874604225158691,0,0,0,-1,-1,5593.747569291667,walking,2,2022-06-30T10:02:26.729+02:00,2022-06-30T08:20:05.567+02:00,1524,1.460561,0,0,1205.903,0,0,2022-06-30T10:02:26.728+02:00
2022-06-30T10:02:26.776+02:00,5593.793843291667,-0.6327972412109375,0.0005645751953125,1.841033935546875,5593.788867291667,3.034667530783294,2.824350982632756,-0.7608889631842021,-1.41325318813324,-4.287674427032471,2.238245725631714,-0.7911815643310547,-0.7252861857414246,1.295634627342224,XArbitraryZVertical,-0.9186676935987845,-0.009577246440005991,0.1268591458225294,0.3739848519352169,0.2259193062782288,0.6895655393600464,0.6880841255187988,0,0,0,-1,-1,5593.747569291667,walking,2,2022-06-30T10:02:26.729+02:00,2022-06-30T08:20:05.567+02:00,1524,1.460561,0,0,1205.903,0,0,2022-06-30T10:02:26.728+02:00
2022-06-30T10:02:26.786+02:00,5593.803794291667,-0.64434814453125,0.06396484375,1.809494018554688,5593.798818291667,3.01396314759978,2.766673596924756,-0.739332812003218,-1.655922532081604,-4.448609828948975,2.088259935379028,-0.9033874273300171,-0.6732303500175476,1.153442978858948,XArbitraryZVertical,-0.9185414947344599,-0.008775103095076602,0.1507833264292415,0.3653339504032254,0.2705897986888885,0.6737950444221497,0.6875909566879272,0,0,0,-1,-1,5593.747569291667,walking,2,2022-06-30T10:02:26.729+02:00,2022-06-30T08:20:05.567+02:00,1524,1.460561,0,0,1205.903,0,0,2022-06-30T10:02:26.728+02:00
2022-06-30T10:02:26.796+02:00,5593.813745291667,-0.683868408203125,0.1312255859375,1.811126708984375,5593.808770291667,2.998764575440345,2.711479216683594,-0.7156792010465534,-1.818950891494751,-4.586454391479492,1.856413602828979,-0.9590169787406921,-0.5921650528907776,1.123580574989319,XArbitraryZVertical,-0.9180800304580231,-0.009260178074278928,0.1749595974259551,0.3555734739012705,0.3146684765815735,0.6561301350593567,0.6859133839607239,0,0,0,-1,-1,5593.747569291667,walking,2,2022-06-30T10:02:26.729+02:00,2022-06-30T08:20:05.567+02:00,1524,1.460561,0,0,1205.903,0,0,2022-06-30T10:02:26.728+02:00
2022-06-30T10:02:26.806+02:00,5593.823697291667,-0.683563232421875,0.1761474609375,1.827880859375,5593.818721291667,2.988540847577938,2.658492820008472,-0.6916318193196104,-1.848515868186951,-4.710128307342529,1.683295249938965,-1.041650056838989,-0.5065688490867615,1.129063367843628,XArbitraryZVertical,-0.9170117990716327,-0.01100846606522594,0.1992260655090999,0.3453655243001558,0.3577814102172852,0.6377948522567749,0.6820636391639709,0,0,0,-1,-1,5593.747569291667,walking,2,2022-06-30T10:02:26.729+02:00,2022-06-30T08:20:05.567+02:00,1524,1.460561,0,0,1205.903,0,0,2022-06-30T10:02:26.728+02:00
2022-06-30T10:02:26.816+02:00,5593.833648291667,-0.7434539794921875,0.270111083984375,1.863067626953125,5593.828672291667,2.982184229190724,2.607074404764452,-0.6678598655955588,-1.868239283561707,-4.793796539306641,1.49590802192688,-1.083539366722107,-0.4431594014167786,1.152249097824097,XArbitraryZVertical,-0.91521982711558,-0.01373126982653418,0.2235393109370238,0.3349840700201197,0.3999757170677185,0.6193071007728577,0.6756317615509033,0,0,0,-1,-1,5593.747569291667,walking,2,2022-06-30T10:02:26.729+02:00,2022-06-30T08:20:05.567+02:00,1524,1.460561,0,0,1205.903,0,0,2022-06-30T10:02:26.728+02:00
2022-06-30T10:02:26.826+02:00,5593.843599291667,-0.80908203125,0.36395263671875,1.753677368164062,5593.838623291667,2.979649121157462,2.557583972752726,-0.6452530777057059,-1.761646747589111,-4.818368911743164,1.257234930992126,-1.183972239494324,-0.3312891721725464,1.196538209915161,XArbitraryZVertical,-0.9126654393197841,-0.01751036618774957,0.2475661735024989,0.3247250741350318,0.4405180811882019,0.6014006733894348,0.666529655456543,0,0,0,-1,-1,5593.747569291667,walking,2,2022-06-30T10:02:26.729+02:00,2022-06-30T08:20:05.567+02:00,1524,1.460561,0,0,1205.903,0,0,2022-06-30T10:02:26.728+02:00
2022-06-30T10:02:26.836+02:00,5593.853550291667,-0.786865234375,0.4756317138671875,1.638076782226562,5593.848575291667,2.979197312199625,2.509081222743332,-0.6250926578111405,-1.563272714614868,-4.864176273345947,1.14040207862854,-1.288469314575195,-0.2212193608283997,1.099642515182495,XArbitraryZVertical,-0.9091398019945838,-0.02196362205699418,0.2712653079679161,0.3152741051683207,0.4793870449066162,0.5851724147796631,0.6540351510047913,0,0,0,-1,-1,5593.747569291667,walking,2,2022-06-30T10:02:26.729+02:00,2022-06-30T08:20:05.567+02:00,1524,1.460561,0,0,1205.903,0,0,2022-06-30T10:02:26.728+02:00
2022-06-30T10:02:26.846+02:00,5593.863502291667,-0.7847137451171875,0.5658111572265625,1.573287963867188,5593.858526291667,2.980314671120166,2.46103354634747,-0.6059044020018239,-1.667495250701904,-4.9000244140625,1.067649960517883,-1.304082870483398,-0.09387367963790894,0.9992108941078186,XArbitraryZVertical,-0.9048294456906469,-0.02677242425386852,0.2948627711112607,0.305978842930596,0.5172174572944641,0.5695056915283203,0.6388661861419678,0,0,0,-1,-1,5593.747569291667,walking,2,2022-06-30T10:02:26.729+02:00,2022-06-30T08:20:05.567+02:00,1524,1.460561,0,0,1205.903,0,0,2022-06-30T10:02:26.728+02:00
2022-06-30T10:02:26.855+02:00,5593.873453291667,-0.7988128662109375,0.59686279296875,1.524871826171875,5593.868477291667,2.985259715526583,2.414787072634956,-0.5852974801236827,-2.074323177337646,-4.938035011291504,0.9891180992126465,-1.338594913482666,0.01336395740509033,0.9503771066665649,XArbitraryZVertical,-0.9002272232733155,-0.03234834506430703,0.3182486476958485,0.2954019400735271,0.5538806915283203,0.5524473786354065,0.6229109168052673,0,0,0,-1,-1,5593.747569291667,walking,2,2022-06-30T10:02:26.729+02:00,2022-06-30T08:20:05.567+02:00,1524,1.460561,0,0,1205.903,0,0,2022-06-30T10:02:26.728+02:00
2022-06-30T10:02:26.865+02:00,5593.883404291667,-0.85296630859375,0.6466522216796875,1.504714965820312,5593.878429291667,2.996160989533407,2.371333802138336,-0.5618403112247762,-2.658590078353882,-4.96231746673584,0.8734673261642456,-1.388093113899231,0.06411856412887573,0.9174737930297852,XArbitraryZVertical,-0.8956357976336102,-0.03918724580986988,0.341332356642419,0.2824768516664646,0.5892799496650696,0.5327445268630981,0.6073982715606689,0,0,0,-1,-1,5593.747569291667,walking,2,2022-06-30T10:02:26.729+02:00,2022-06-30T08:20:05.567+02:00,1524,1.460561,0,0,1205.903,0,0,2022-06-30T10:02:26.728+02:00
2022-06-30T10:02:26.875+02:00,5593.893356291667,-0.878173828125,0.7386627197265625,1.48455810546875,5593.888380291667,3.013613000785136,2.330944913056172,-0.5360758099811884,-3.093022584915161,-4.979341983795166,0.7064935564994812,-1.47603440284729,0.1358863115310669,0.9123432040214539,XArbitraryZVertical,-0.8910246774925538,-0.04755042885676224,0.3638948812402877,0.2671977143258865,0.6230679154396057,0.5107662081718445,0.5923720598220825,0,0,0,-1,-1,5593.747569291667,walking,2,2022-06-30T10:02:26.729+02:00,2022-06-30T08:20:05.567+02:00,1524,1.460561,0,0,1205.903,0,0,2022-06-30T10:02:26.728+02:00
2022-06-30T10:02:26.885+02:00,5593.903307291667,-0.8696136474609375,0.8155059814453125,1.502471923828125,5593.898331291667,3.035480680877229,2.291453834016451,-0.510475868344278,-3.165607213973999,-5.166876792907715,0.546724796295166,-1.533755421638489,0.2500706017017365,0.9088059663772583,XArbitraryZVertical,-0.8857774695055389,-0.05722368535626684,0.386265199627257,0.2508448689883728,0.6555814743041992,0.4885925054550171,0.5757525563240051,0,0,0,-1,-1,5593.747569291667,walking,2,2022-06-30T10:02:26.729+02:00,2022-06-30T08:20:05.567+02:00,1524,1.460561,0,0,1205.903,0,0,2022-06-30T10:02:26.728+02:00
2022-06-30T10:02:26.895+02:00,5593.913258291667,-0.8724212646484375,0.85577392578125,1.453216552734375,5593.908283291667,3.059831491511481,2.251499942538692,-0.4867451862230153,-3.199014186859131,-5.190195560455322,0.3623312711715698,-1.556488275527954,0.3477547466754913,0.9462236762046814,XArbitraryZVertical,-0.8795000319496826,-0.06785284716793422,0.4085750586736693,0.2343977227033052,0.6868744492530823,0.4677515625953674,0.5562486052513123,0,0,0,-1,-1,5593.747569291667,walking,2,2022-06-30T10:02:26.729+02:00,2022-06-30T08:20:05.567+02:00,1524,1.460561,0,0,1205.903,0,0,2022-06-30T10:02:26.728+02:00
2022-06-30T10:02:26.905+02:00,5593.923210291667,-0.809417724609375,0.767669677734375,1.402572631835938,5593.918234291667,3.085934085490144,2.211667651823884,-0.4651602661765873,-3.173041820526123,-5.217646598815918,0.2229809612035751,-1.588829040527344,0.4072081446647644,0.9188491106033325,XArbitraryZVertical,-0.8723107061705772,-0.0791067575615268,0.430414802822037,0.2180808990673429,0.7164075374603271,0.4485660493373871,0.5343676805496216,0,0,0,-1,-1,5593.747569291667,walking,2,2022-06-30T10:02:26.729+02:00,2022-06-30T08:20:05.567+02:00,1524,1.460561,0,0,1205.903,0,0,2022-06-30T10:02:26.728+02:00
2022-06-30T10:02:26.915+02:00,5593.933161291667,-0.7597808837890625,0.7451171875,1.28192138671875,5593.928185291667,3.113186276299341,2.17147878182831,-0.445852598604252,-3.139366149902344,-5.240503311157227,0.1095444187521935,-1.553723812103271,0.3364427089691162,0.8926199078559875,XArbitraryZVertical,-0.8641345523234857,-0.09081866522735273,0.4518974298027197,0.202020532924257,0.7443059086799622,0.4312272965908051,0.5099530816078186,0,0,0,-1,-1,5593.747569291667,walking,2,2022-06-30T10:02:26.729+02:00,2022-06-30T08:20:05.567+02:00,1524,1.460561,0,0,1205.903,0,0,2022-06-30T10:02:26.728+02:00
2022-06-30T10:02:26.925+02:00,5593.943112291667,-0.8857574462890625,0.793670654296875,1.229949951171875,5593.938136291667,-3.141010082192265,2.131976170056388,-0.4280207153479705,-3.304315567016602,-5.140022277832031,0.03542668372392654,-1.530033946037292,0.3300465941429138,0.7977451682090759,XArbitraryZVertical,-0.8552698892559435,-0.1029647428101071,0.4726605901490256,0.1857519695688637,0.7702529430389404,0.4150708913803101,0.4841766357421875,0,0,0,-1,-1,5593.747569291667,walking,2,2022-06-30T10:02:26.729+02:00,2022-06-30T08:20:05.567+02:00,1524,1.460561,0,0,1205.903,0,0,2022-06-30T10:02:26.728+02:00
2022-06-30T10:02:26.935+02:00,5593.953063291667,-0.964324951171875,0.8148345947265625,1.245773315429688,5593.948088291667,-3.1089728146077,2.094043151233129,-0.4117404830532273,-3.500102043151855,-5.110240936279297,-0.1584434658288956,-1.679566860198975,0.3934659957885742,0.7720168232917786,XArbitraryZVertical,-0.8458716208901002,-0.1160516290092745,0.4924128144057502,0.1690057516435756,0.7938092947006226,0.4002049565315247,0.4579335451126099,0,0,0,-1,-1,5593.747569291667,walking,2,2022-06-30T10:02:26.729+02:00,2022-06-30T08:20:05.567+02:00,1524,1.460561,0,0,1205.903,0,0,2022-06-30T10:02:26.728+02:00
2022-06-30T10:02:26.945+02:00,5593.963015291667,-0.9430084228515625,0.8843994140625,1.287002563476562,5593.958039291667,-3.074343739296772,2.056481198108687,-0.3985848815910019,-3.454467535018921,-5.180297374725342,-0.4415583312511444,-1.779357075691223,0.4267202019691467,0.8155525326728821,XArbitraryZVertical,-0.8355302938777227,-0.1303827976176912,0.5115203669638942,0.1524347060535283,0.8150318264961243,0.3881145417690277,0.4302210807800293,0,0,0,-1,-1,5593.747569291667,walking,2,2022-06-30T10:02:26.729+02:00,2022-06-30T08:20:05.567+02:00,1524,1.460561,0,0,1205.903,0,0,2022-06-30T10:02:26.728+02:00
2022-06-30T10:02:26.955+02:00,5593.972966291667,-0.9188995361328125,0.9390411376953125,1.229660034179688,5593.967990291667,-3.03860267444176,2.017948696337942,-0.3882711414312388,-3.413037300109863,-5.325285911560059,-0.6496905088424683,-1.777574062347412,0.5058107376098633,0.8867889046669006,XArbitraryZVertical,-0.8239975369345589,-0.1453789389305907,0.5304322393389997,0.1361420686761239,0.8345653414726257,0.3785888254642487,0.4002139568328857,0,0,0,-1,-1,5593.747569291667,walking,2,2022-06-30T10:02:26.729+02:00,2022-06-30T08:20:05.567+02:00,1524,1.460561,0,0,1205.903,0,0,2022-06-30T10:02:26.728+02:00
2022-06-30T10:02:26.965+02:00,5593.982917291667,-0.942230224609375,0.954742431640625,1.193603515625,5593.977942291667,-3.003274393966949,1.977130959402398,-0.3823512986237367,-3.073138952255249,-5.560274600982666,-0.9653686881065369,-1.771145105361938,0.5659382939338684,0.8629560470581055,XArbitraryZVertical,-0.8108405468769208,-0.1609031029560757,0.5495471266183715,0.1210196843963277,0.8522452712059021,0.3731030225753784,0.3667044043540955,0,0,0,-1,-1,5593.747569291667,walking,2,2022-06-30T10:02:26.729+02:00,2022-06-30T08:20:05.567+02:00,1524,1.460561,0,0,1205.903,0,0,2022-06-30T10:02:26.728+02:00
2022-06-30T10:02:26.975+02:00,5593.992869291667,-0.9029998779296875,1.000381469726562,1.138290405273438,5593.987893291667,-2.969570785291206,1.933201908862067,-0.3814080965967729,-2.836242437362671,-5.793478488922119,-1.181816339492798,-1.810086011886597,0.5825148820877075,0.8645550012588501,XArbitraryZVertical,-0.7958024615492383,-0.1767000438970295,0.569139464923742,0.1074976656712896,0.8678554892539978,0.3722277581691742,0.3290489315986633,0,0,0,-1,-1,5593.747569291667,walking,2,2022-06-30T10:02:26.729+02:00,2022-06-30T08:20:05.567+02:00,1524,1.460561,0,0,1205.903,0,0,2022-06-30T10:02:26.728+02:00
2022-06-30T10:02:26.985+02:00,5594.002820291667,-0.8350067138671875,0.9158172607421875,0.9354400634765625,5593.997844291667,-2.937850228578781,1.886131989372526,-0.3848372613417612,-2.509756326675415,-6.068300724029541,-1.430539488792419,-1.78415834903717,0.6249733567237854,0.8508386611938477,XArbitraryZVertical,-0.7788851631639329,-0.192520092559991,0.5892217343834705,0.09535055177746117,0.8811583518981934,0.3754082918167114,0.2874521613121033,0,0,0,-1,-1,5593.747569291667,walking,2,2022-06-30T10:02:26.729+02:00,2022-06-30T08:20:05.567+02:00,1524,1.460561,0,0,1205.903,0,0,2022-06-30T10:02:26.728+02:00
2022-06-30T10:02:26.995+02:00,5594.012771291667,-0.8095855712890625,0.912567138671875,0.7716522216796875,5594.007796291667,-2.908509602561508,1.835359874416475,-0.3928183627682933,-2.308387994766235,-6.37695837020874,-1.632401466369629,-1.726697564125061,0.5330238342285156,0.6938689947128296,XArbitraryZVertical,-0.7598520201931748,-0.2083523055734038,0.6099600474606213,0.08463520736336877,0.8916908502578735,0.3827936351299286,0.2415715456008911,0,0,0,-1,-1,5593.747569291667,walking,2,2022-06-30T10:02:26.729+02:00,2022-06-30T08:20:05.567+02:00,1524,1.460561,0,0,1205.903,0,0,2022-06-30T10:02:26.728+02:00
2022-06-30T10:02:27.005+02:00,5594.022723291667,-0.8202972412109375,1.013916015625,0.51953125,5594.017747291667,-2.878971389270794,1.781856616268172,-0.4033876905319708,-2.543201208114624,-6.670363903045654,-1.710613369941711,-1.70891261100769,0.5200309753417969,0.5789707899093628,XArbitraryZVertical,-0.7388421328817342,-0.2246179840406507,0.6310412786742425,0.07379785667605754,0.8993270993232727,0.3925363719463348,0.1926818788051605,0,0,0,-1,-1,5593.747569291667,walking,2,2022-06-30T10:02:26.729+02:00,2022-06-30T08:20:05.567+02:00,1524,1.460561,0,0,1205.903,0,0,2022-06-30T10:02:26.728+02:00
2022-06-30T10:02:27.015+02:00,5594.032674291667,-0.8367156982421875,1.152542114257812,0.1883697509765625,5594.027698291667,-2.847450650579758,1.727187493036405,-0.4164235285192983,-2.657611846923828,-6.839107990264893,-1.934480547904968,-1.723677635192871,0.6094239950180054,0.3770878314971924,XArbitraryZVertical,-0.7160539781926519,-0.2418442959775606,0.651842316803576,0.06228826731841655,0.9033804535865784,0.4044922292232513,0.1424439251422882,0,0,0,-1,-1,5593.747569291667,walking,2,2022-06-30T10:02:26.729+02:00,2022-06-30T08:20:05.567+02:00,1524,1.460561,0,0,1205.903,0,0,2022-06-30T10:02:26.728+02:00
2022-06-30T10:02:27.025+02:00,5594.042625291667,-0.7952728271484375,1.398193359375,-0.21728515625,5594.037649291667,-2.816587796632879,1.671005750628556,-0.433470684125944,-2.470095872879028,-7.016864776611328,-2.170234441757202,-1.739676475524902,0.732519268989563,0.0975809171795845,XArbitraryZVertical,-0.6914029265919808,-0.2595315843842229,0.6722829832629637,0.05139237919187636,0.9029609560966492,0.4200230240821838,0.0907893031835556,0,0,0,-1,-1,5593.747569291667,walking,2,2022-06-30T10:02:26.729+02:00,2022-06-30T08:20:05.567+02:00,1524,1.460561,0,0,1205.903,0,0,2022-06-30T10:02:26.728+02:00
2022-06-30T10:02:27.035+02:00,5594.052576291667,-0.7549591064453125,1.57421875,-0.5715789794921875,5594.047601291667,-2.790776164152868,1.611355531585985,-0.4543992898917465,-1.845105528831482,-7.189743518829346,-2.346630096435547,-1.693058848381042,0.9592708349227905,-0.2537181377410889,XArbitraryZVertical,-0.6647540090572974,-0.27625864992497,0.6928211688607746,0.04221633702519866,0.897786021232605,0.438922643661499,0.03643346950411797,0,0,0,-1,-1,5593.747569291667,walking,2,2022-06-30T10:02:26.729+02:00,2022-06-30T08:20:05.567+02:00,1524,1.460561,0,0,1205.903,0,0,2022-06-30T10:02:26.728+02:00
2022-06-30T10:02:27.045+02:00,5594.062528291667,-0.687591552734375,1.554244995117188,-1.006744384765625,5594.057552291667,-2.77615450818634,1.546204985838668,-0.4785490450452854,-0.6480734348297119,-7.205805778503418,-2.520876884460449,-1.642354846000671,1.113727211952209,-0.5497518181800842,XArbitraryZVertical,-0.6363462830413933,-0.2900863359754406,0.7138543901559478,0.03640540735781081,0.8873957395553589,0.4604916870594025,-0.02182665094733238,0,0,0,-1,-1,5593.747569291667,walking,2,2022-06-30T10:02:26.729+02:00,2022-06-30T08:20:05.567+02:00,1524,1.460561,0,0,1205.903,0,0,2022-06-30T10:02:26.728+02:00
2022-06-30T10:02:27.054+02:00,5594.072479291667,-0.5687255859375,1.458465576171875,-1.505645751953125,5594.067503291667,-2.778273890963284,1.473165828633478,-0.5033060533462157,0.6411263346672058,-7.291323184967041,-2.432212114334106,-1.559412717819214,1.071920871734619,-0.9213560819625854,XArbitraryZVertical,-0.6065720378977663,-0.298958958163945,0.7358501503685283,0.03490620795646288,0.8718212246894836,0.4823242425918579,-0.08538781106472015,0,0,0,-1,-1,5593.747569291667,walking,2,2022-06-30T10:02:26.729+02:00,2022-06-30T08:20:05.567+02:00,1524,1.460561,0,0,1205.903,0,0,2022-06-30T10:02:26.728+02:00
2022-06-30T10:02:27.064+02:00,5594.082430291667,-0.603485107421875,1.079940795898438,-1.684707641601562,5594.077455291667,-2.794157583366438,1.392622310696939,-0.5243709240901693,1.536738872528076,-7.269202709197998,-2.121675968170166,-1.420660734176636,0.957797110080719,-1.352225661277771,XArbitraryZVertical,-0.5757780000091394,-0.3029354301339874,0.7585762580095315,0.03566418052612431,0.8519351482391357,0.5006685256958008,-0.1534196436405182,0,0,0,-1,-1,5593.747569291667,walking,2,2022-06-30T10:02:26.729+02:00,2022-06-30T08:20:05.567+02:00,1524,1.460561,0,0,1205.903,0,0,2022-06-30T10:02:26.728+02:00
2022-06-30T10:02:27.074+02:00,5594.092382291667,-0.7069854736328125,0.9320831298828125,-1.88299560546875,5594.087406291667,-2.821210659656076,1.30798366468132,-0.5388765175441396,2.350579977035522,-6.955371856689453,-1.749511361122131,-1.432299971580505,0.5667688846588135,-1.461726546287537,XArbitraryZVertical,-0.5452040732892695,-0.3020963313216107,0.7810624935153639,0.03783887639435925,0.8288149237632751,0.5131720304489136,-0.2229806482791901,0,0,0,-1,-1,5593.747569291667,walking,2,2022-06-30T10:02:26.729+02:00,2022-06-30T08:20:05.567+02:00,1524,1.460561,0,0,1205.903,0,0,2022-06-30T10:02:26.728+02:00
2022-06-30T10:02:27.085+02:00,5594.102333291667,-4.404464721679688,4.49676513671875,-12.89088439941406,5594.097357291667,-2.848457047058674,1.241392257859265,-0.5479952716711081,0.4453340172767639,-0.7159551382064819,-1.402147889137268,-1.514664053916931,0.4111061096191406,-1.606882810592651,XArbitraryZVertical,-0.5217569576740183,-0.2995221376239182,0.7977150902010325,0.04131276161664811,0.8076786398887634,0.5209770798683167,-0.2761123180389404,0,0,0,-1,-1,5593.747569291667,walking,2,2022-06-30T10:02:26.729+02:00,2022-06-30T08:20:05.567+02:00,1524,1.460561,0,0,1205.903,0,0,2022-06-30T10:02:26.728+02:00
2022-06-30T10:02:27.094+02:00,5594.112284291667,-2.980880737304688,2.37457275390625,-9.444305419921875,5594.107309291667,-2.811151567676084,1.265249137519627,-0.5640603206231053,1.829310417175293,2.856680154800415,-0.1566662043333054,-5.210413455963135,3.962143421173096,-12.63666725158691,XArbitraryZVertical,-0.5232554674369214,-0.314794542847792,0.7911317445011109,0.03491031421668706,0.8059488534927368,0.5346219539642334,-0.2542162239551544,0,0,0,-1,-1,5593.747569291667,walking,2,2022-06-30T10:02:26.729+02:00,2022-06-30T08:20:05.567+02:00,1524,1.460561,0,0,1205.903,0,0,2022-06-30T10:02:26.728+02:00
2022-06-30T10:02:27.104+02:00,5594.122236291667,0.9892425537109375,2.589248657226562,1.77752685546875,5594.117260291667,-2.821381846932694,1.264697809850098,-0.5671472518349187,0.3930551111698151,-0.7975577712059021,1.977410435676575,-3.785111665725708,1.837344884872437,-9.190142631530762,XArbitraryZVertical,-0.5241988540985193,-0.3132643377221206,0.790884250923113,0.03979068461808487,0.8042312264442444,0.5372281074523926,-0.2541620433330536,0,0,0,-1,-1,5593.747569291667,walking,2,2022-06-30T10:02:26.729+02:00,2022-06-30T08:20:05.567+02:00,1524,1.460561,0,0,1205.903,0,0,2022-06-30T10:02:26.728+02:00
2022-06-30T10:02:27.115+02:00,5594.132187291667,0.3303985595703125,1.29425048828125,-3.239669799804688,5594.127211291667,-2.846150498097846,1.255929473042954,-0.5274345762491361,5.964037418365479,0.9388282895088196,3.100106716156006,0.1676227450370789,2.085930585861206,2.045130729675293,XArbitraryZVertical,-0.5299632356676766,-0.2921254156643329,0.7952801300468786,0.03648850958170245,0.8216200470924377,0.503318190574646,-0.2676034271717072,0,0,0,-1,-1,5593.747569291667,walking,2,2022-06-30T10:02:26.729+02:00,2022-06-30T08:20:05.567+02:00,1524,1.460561,0,0,1205.903,0,0,2022-06-30T10:02:26.728+02:00
2022-06-30T10:02:27.124+02:00,5594.142138291667,0.5120697021484375,0.76519775390625,-1.97796630859375,5594.137162291667,-2.898159151633548,1.238799342063039,-0.4912888237720322,4.390557765960693,0.6197894811630249,0.9527800679206848,-0.5031788349151611,0.8224879503250122,-2.952287197113037,XArbitraryZVertical,-0.5349117314390796,-0.2649119108471504,0.8010829363582037,0.04424079986635119,0.8335775136947632,0.4717626571655273,-0.2873822450637817,0,0,0,-1,-1,5593.747569291667,walking,2,2022-06-30T10:02:26.729+02:00,2022-06-30T08:20:05.567+02:00,1524,1.460561,0,0,1205.903,0,0,2022-06-30T10:02:26.728+02:00
2022-06-30T10:02:27.135+02:00,5594.152089291667,-0.535430908203125,0.0239410400390625,-2.231735229492188,5594.147114291667,-2.939731007361033,1.223165838340796,-0.471697090006355,4.068359851837158,0.2050192207098007,0.461279571056366,-0.3254433870315552,0.3107992112636566,-1.674496650695801,XArbitraryZVertical,-0.5361514491525209,-0.246590809766157,0.8055414692381546,0.05326895767380704,0.8375132083892822,0.4543986916542053,-0.303469181060791,0,0,0,-1,-1,5593.747569291667,walking,2,2022-06-30T10:02:26.729+02:00,2022-06-30T08:20:05.567+02:00,1524,1.460561,0,0,1205.903,0,0,2022-06-30T10:02:26.728+02:00
2022-06-30T10:02:27.144+02:00,5594.162041291667,-0.8111114501953125,0.6722259521484375,-1.3060302734375,5594.157065291667,-2.973570852296203,1.212500131417003,-0.4559273103588279,2.594964265823364,0.6808622479438782,0.4920670986175537,-1.376266479492188,-0.4163539111614227,-1.916876435279846,XArbitraryZVertical,-0.5375068414843371,-0.2316402798021773,0.8085115517645174,0.06114099605270153,0.8408355712890625,0.4402951002120972,-0.3148583471775055,0,0,0,-1,-1,5593.747569291667,walking,2,2022-06-30T10:02:26.729+02:00,2022-06-30T08:20:05.567+02:00,1524,1.460561,0,0,1205.903,0,0,2022-06-30T10:02:26.728+02:00
2022-06-30T10:02:27.154+02:00,5594.171992291667,-0.27947998046875,1.001724243164062,-1.032684326171875,5594.167016291667,-2.991648969729293,1.212820849724245,-0.4437617956055419,1.471760988235474,0.7787837386131287,0.7010011672973633,-1.657002449035645,0.2428862154483795,-0.989587664604187,XArbitraryZVertical,-0.540844142782668,-0.2219606561298093,0.8086979613638497,0.06502952359218131,0.8458911180496216,0.4293399453163147,-0.3164421617984772,0,0,0,-1,-1,5593.747569291667,walking,2,2022-06-30T10:02:26.729+02:00,2022-06-30T08:20:05.567+02:00,1524,1.460561,0,0,1205.903,0,0,2022-06-30T10:02:26.728+02:00
2022-06-30T10:02:27.164+02:00,5594.181943291667,0.0094146728515625,1.179534912109375,-1.414230346679688,5594.176968291667,-3.005966581371028,1.213525309931226,-0.4325708956229684,1.992526888847351,0.4861051142215729,0.5027135014533997,-1.130041837692261,0.5825182199478149,-0.7151771783828735,XArbitraryZVertical,-0.5436997361033338,-0.2136287716526945,0.8088063500495869,0.06771905451351243,0.8505620956420898,0.419206291437149,-0.3175067007541656,0,0,0,-1,-1,5593.747569291667,walking,2,2022-06-30T10:02:26.729+02:00,2022-06-30T08:20:05.567+02:00,1524,1.460561,0,0,1205.903,0,0,2022-06-30T10:02:26.728+02:00
2022-06-30T10:02:27.174+02:00,5594.191895291667,0.0680389404296875,1.4256591796875,-1.689529418945312,5594.186919291667,-3.034334534636625,1.206531610350347,-0.4195418291294548,3.879211902618408,0.3934793174266815,0.2181164026260376,-0.8439372777938843,0.7721930742263794,-1.088864088058472,XArbitraryZVertical,-0.5449084346244663,-0.2009774160293277,0.8106099899636631,0.07479555459272245,0.8533520102500916,0.4073420464992523,-0.3253657519817352,0,0,0,-1,-1,5593.747569291667,walking,2,2022-06-30T10:02:26.729+02:00,2022-06-30T08:20:05.567+02:00,1524,1.460561,0,0,1205.903,0,0,2022-06-30T10:02:26.728+02:00
2022-06-30T10:02:27.184+02:00,5594.201846291667,0.0570220947265625,1.678863525390625,-1.454421997070312,5594.196870291667,-3.082292147799837,1.191640223105119,-0.3998098624655942,5.717215538024902,0.3838949799537659,0.3532752692699432,-0.7876745462417603,1.036416172981262,-1.348583221435547,XArbitraryZVertical,-0.5448976170321174,-0.1805925710266002,0.8141526414509902,0.08734059993421961,0.8557135462760925,0.3892432153224945,-0.3409458100795746,0,0,0,-1,-1,5593.747569291667,walking,2,2022-06-30T10:02:26.729+02:00,2022-06-30T08:20:05.567+02:00,1524,1.460561,0,0,1205.903,0,0,2022-06-30T10:02:26.728+02:00
2022-06-30T10:02:27.194+02:00,5594.211797291667,0.1208648681640625,1.742645263671875,-1.03070068359375,5594.206822291667,3.139562790364971,1.172775265002353,-0.3717152662158569,6.906592845916748,0.4114256799221039,0.5777493715286255,-0.8018519878387451,1.315649747848511,-1.093297243118286,XArbitraryZVertical,-0.5439818475898014,-0.1533674396444156,0.8184959983012345,0.1030850735895521,0.8588741421699524,0.3632140755653381,-0.3611243665218353,0,0,0,-1,-1,5593.747569291667,walking,2,2022-06-30T10:02:26.729+02:00,2022-06-30T08:20:05.567+02:00,1524,1.460561,0,0,1205.903,0,0,2022-06-30T10:02:26.728+02:00
2022-06-30T10:02:27.204+02:00,5594.221749291667,0.275054931640625,1.671279907226562,-0.71942138671875,5594.216773291667,3.072278945907827,1.153966468022339,-0.33755956134019,7.355236530303955,0.4897886514663696,0.7232226133346558,-0.7419098615646362,1.411460161209106,-0.6486846208572388,XArbitraryZVertical,-0.5423020721314312,-0.1220683110185867,0.822531716741236,0.1202053783928832,0.8627747893333435,0.33118537068367,-0.382015585899353,0,0,0,-1,-1,5593.747569291667,walking,2,2022-06-30T10:02:26.729+02:00,2022-06-30T08:20:05.567+02:00,1524,1.460561,0,0,1205.903,0,0,2022-06-30T10:02:26.728+02:00
2022-06-30T10:02:27.214+02:00,5594.231700291667,0.4418182373046875,1.508804321289062,-0.6252899169921875,5594.226724291667,3.006496700079621,1.138820659560734,-0.3009688403620183,7.046721458435059,0.608343243598938,0.820792555809021,-0.5922642350196838,1.374834537506104,-0.3195743560791016,XArbitraryZVertical,-0.5403492293440445,-0.08999651738912126,0.8253463633005825,0.1368457949659093,0.8673192262649536,0.2964456379413605,-0.3998466730117798,0,0,0,-1,-1,5593.747569291667,walking,2,2022-06-30T10:02:26.729+02:00,2022-06-30T08:20:05.567+02:00,1524,1.460561,0,0,1205.903,0,0,2022-06-30T10:02:26.728+02:00
2022-06-30T10:02:27.224+02:00,5594.241651291667,0.622344970703125,1.345703125,-0.5574951171875,5594.236675291667,2.945693911982239,1.128532502200235,-0.2649378151833599,6.66078519821167,0.7362569570541382,0.760366678237915,-0.4304326176643372,1.246955394744873,-0.2122359275817871,XArbitraryZVertical,-0.5384838984963001,-0.05923069330842735,0.8266558232311496,0.1522073909042116,0.8722509741783142,0.2618492543697357,-0.4130536317825317,0,0,0,-1,-1,5593.747569291667,walking,2,2022-06-30T10:02:26.729+02:00,2022-06-30T08:20:05.567+02:00,1524,1.460561,0,0,1205.903,0,0,2022-06-30T10:02:26.728+02:00
2022-06-30T10:02:27.237+02:00,5594.251602291667,0.8236541748046875,1.424362182617188,-0.47412109375,5594.246627291667,2.88904923554482,1.122120577642445,-0.2314109547506005,6.162888050079346,0.77414870262146,0.5776439905166626,-0.2546594738960266,1.116352319717407,-0.1352847814559937,XArbitraryZVertical,-0.5366285982642022,-0.03040939873830689,0.8265982030982238,0.1668550532410678,0.8770045638084412,0.2293510884046555,-0.4222100377082825,0,0,0,-1,-1,5593.747569291667,walking,2,2022-06-30T10:02:26.729+02:00,2022-06-30T08:20:05.567+02:00,1524,1.460561,0,0,1205.903,0,0,2022-06-30T10:02:26.728+02:00
2022-06-30T10:02:27.243+02:00,5594.261554291667,0.9350738525390625,1.46307373046875,-0.458831787109375,5594.256578291667,2.837977494287005,1.119245669168898,-0.2016396178681011,5.463183403015137,0.8818421959877014,0.4741518199443817,-0.05788755416870117,1.22408652305603,-0.046600341796875,XArbitraryZVertical,-0.5349953745231154,-0.004441926301204375,0.8253751326591789,0.1803225746145954,0.8815417885780334,0.2002760022878647,-0.4275204241275787,0,0,0,-1,-1,5593.747569291667,walking,2,2022-06-30T10:02:26.729+02:00,2022-06-30T08:20:05.567+02:00,1524,1.460561,0,0,1205.903,0,0,2022-06-30T10:02:26.728+02:00
2022-06-30T10:02:27.253+02:00,5594.271505291667,1.019210815429688,1.427291870117188,-0.4945068359375,5594.266529291667,2.792468047378597,1.120879015703157,-0.1749468098496784,5.016967296600342,1.19381582736969,0.4502981305122375,0.04833602905273438,1.289018392562866,-0.03057867288589478,XArbitraryZVertical,-0.5343304349367486,0.0190937382587509,0.8228946753167341,0.1922780523526203,0.8867379426956177,0.1740557551383972,-0.4282528162002563,0,0,0,-1,-1,5593.747569291667,walking,2,2022-06-30T10:02:26.729+02:00,2022-06-30T08:20:05.567+02:00,1524,1.460561,0,0,1205.903,0,0,2022-06-30T10:02:26.728+02:00
2022-06-30T10:02:27.263+02:00,5594.281456291667,1.127426147460938,1.509384155273438,-0.4673919677734375,5594.276481291667,2.749710125439667,1.127877973010198,-0.1500663728287446,4.807808399200439,1.630884528160095,0.4040906131267548,0.1258605122566223,1.277788519859314,-0.07074522972106934,XArbitraryZVertical,-0.535150705315438,0.04162976641754085,0.8188506350305916,0.2033827843727296,0.8933505415916443,0.1495037525892258,-0.4237613677978516,0,0,0,-1,-1,5593.747569291667,walking,2,2022-06-30T10:02:26.729+02:00,2022-06-30T08:20:05.567+02:00,1524,1.460561,0,0,1205.903,0,0,2022-06-30T10:02:26.728+02:00
2022-06-30T10:02:27.274+02:00,5594.291408291667,1.26483154296875,1.624908447265625,-0.3332977294921875,5594.286432291667,2.707822689874372,1.140303441665738,-0.1262568369211292,4.808313369750977,2.026881217956543,0.4298425614833832,0.2258995771408081,1.383462905883789,-0.053394615650177,XArbitraryZVertical,-0.537492693190342,0.06405555672346062,0.8131322851419138,0.2140428610397052,0.9015265703201294,0.1259216666221619,-0.4139969944953918,0,0,0,-1,-1,5593.747569291667,walking,2,2022-06-30T10:02:26.729+02:00,2022-06-30T08:20:05.567+02:00,1524,1.460561,0,0,1205.903,0,0,2022-06-30T10:02:26.728+02:00
2022-06-30T10:02:27.283+02:00,5594.301359291667,1.339340209960938,1.66473388671875,-0.10028076171875,5594.296383291667,2.664899154970628,1.156524006036776,-0.1016879961009109,5.059404850006104,2.209587335586548,0.5766372084617615,0.3541508913040161,1.523396015167236,0.06714710593223572,XArbitraryZVertical,-0.5404793195961107,0.08752035846202072,0.8061300769251483,0.2244474622560345,0.9106807112693787,0.1015128344297409,-0.4004445970058441,0,0,0,-1,-1,5593.747569291667,walking,2,2022-06-30T10:02:26.729+02:00,2022-06-30T08:20:05.567+02:00,1524,1.460561,0,0,1205.903,0,0,2022-06-30T10:02:26.728+02:00
2022-06-30T10:02:27.293+02:00,5594.311310291667,1.300323486328125,1.629241943359375,0.2237396240234375,5594.306335291667,2.619521230303324,1.174418132848703,-0.07519942637198583,5.366882801055908,2.180964231491089,0.7353290915489197,0.4194819331169128,1.589605689048767,0.2847082912921906,XArbitraryZVertical,-0.5429687346584124,0.1126523788163355,0.7983446672176665,0.234819619443493,0.9198583364486694,0.07512857019901276,-0.3849887847900391,0,0,0,-1,-1,5593.747569291667,walking,2,2022-06-30T10:02:26.729+02:00,2022-06-30T08:20:05.567+02:00,1524,1.460561,0,0,1205.903,0,0,2022-06-30T10:02:26.728+02:00
2022-06-30T10:02:27.303+02:00,5594.321262291667,1.201705932617188,1.517471313476562,0.554168701171875,5594.316286291667,2.572331244159457,1.192245357984452,-0.04745182721527059,5.514564514160156,2.004846096038818,0.8674683570861816,0.3721683621406555,1.58180832862854,0.5928982496261597,XArbitraryZVertical,-0.5442099293045187,0.1387672434391702,0.7902601722184343,0.2450878407057185,0.9281551837921143,0.04743402078747749,-0.3691584169864655,0,0,0,-1,-1,5593.747569291667,walking,2,2022-06-30T10:02:26.729+02:00,2022-06-30T08:20:05.567+02:00,1524,1.460561,0,0,1205.903,0,0,2022-06-30T10:02:26.728+02:00
2022-06-30T10:02:27.313+02:00,5594.331213291667,1.062271118164062,1.37591552734375,0.7439422607421875,5594.326237291667,2.523487839011138,1.209452504880316,-0.01845030276048495,5.730630874633789,1.79957389831543,1.014737963676453,0.266442596912384,1.499022483825684,0.9076403379440308,XArbitraryZVertical,-0.5438860631951365,0.1656871271692526,0.7820535632072982,0.2552020461039781,0.935263454914093,0.01844925619661808,-0.3534714579582214,0,0,0,-1,-1,5593.747569291667,walking,2,2022-06-30T10:02:26.729+02:00,2022-06-30T08:20:05.567+02:00,1524,1.460561,0,0,1205.903,0,0,2022-06-30T10:02:26.728+02:00
2022-06-30T10:02:27.323+02:00,5594.341164291667,0.95947265625,1.28106689453125,0.8096771240234375,5594.336188291667,2.472960326514634,1.226190767439847,0.01127058941032263,5.872890949249268,1.641259908676147,1.082776546478271,0.1211221814155579,1.387186288833618,1.081746459007263,XArbitraryZVertical,-0.5420237460332575,0.1931534751678469,0.773641022614999,0.2652951604093566,0.9411489963531494,-0.01127035077661276,-0.337803989648819,0,0,0,-1,-1,5593.747569291667,walking,2,2022-06-30T10:02:26.729+02:00,2022-06-30T08:20:05.567+02:00,1524,1.460561,0,0,1205.903,0,0,2022-06-30T10:02:26.728+02:00
2022-06-30T10:02:27.333+02:00,5594.351115291667,0.93927001953125,1.280670166015625,0.7622528076171875,5594.346140291667,2.420814481928368,1.243468222919044,0.04117364148914613,5.984633922576904,1.586813688278198,1.148972511291504,0.01337045431137085,1.322229385375977,1.130918979644775,XArbitraryZVertical,-0.5390128677703139,0.221007435686294,0.7647176128247157,0.2753687026246964,0.9461023211479187,-0.04116201028227806,-0.3212416768074036,0,0,0,-1,-1,5593.747569291667,walking,2,2022-06-30T10:02:26.729+02:00,2022-06-30T08:20:05.567+02:00,1524,1.460561,0,0,1205.903,0,0,2022-06-30T10:02:26.728+02:00
2022-06-30T10:02:27.343+02:00,5594.361067291667,0.96221923828125,1.31787109375,0.7870635986328125,5594.356091291667,2.367996607926922,1.262224861010323,0.07124644066629778,5.971611022949219,1.630714178085327,1.286446928977966,-0.01108121871948242,1.351856827735901,1.06518030166626,XArbitraryZVertical,-0.5352580429870756,0.2490685220429145,0.7551772300282512,0.2849051745287486,0.9503511786460876,-0.07118617743253708,-0.3029274046421051,0,0,0,-1,-1,5593.747569291667,walking,2,2022-06-30T10:02:26.729+02:00,2022-06-30T08:20:05.567+02:00,1524,1.460561,0,0,1205.903,0,0,2022-06-30T10:02:26.728+02:00
2022-06-30T10:02:27.353+02:00,5594.371018291667,0.9737091064453125,1.314773559570312,0.7625885009765625,5594.366042291667,2.314702571640183,1.283400259970067,0.1015665794969558,6.036762714385986,1.713409543037415,1.40021800994873,0.008176147937774658,1.419263601303101,1.069058895111084,XArbitraryZVertical,-0.5310809507511935,0.2774083221172166,0.7448435338914243,0.293608293502533,0.9540432095527649,-0.1013920456171036,-0.2819952964782715,0,0,0,-1,-1,5593.747569291667,walking,2,2022-06-30T10:02:26.729+02:00,2022-06-30T08:20:05.567+02:00,1524,1.460561,0,0,1205.903,0,0,2022-06-30T10:02:26.728+02:00
2022-06-30T10:02:27.363+02:00,5594.380969291667,0.9757843017578125,1.307220458984375,0.728240966796875,5594.375994291667,2.260077109148824,1.306914119851543,0.1316218224149339,6.122623443603516,1.754380226135254,1.446037888526917,0.0166746973991394,1.446016073226929,1.021162867546082,XArbitraryZVertical,-0.5263670907798372,0.306023769576931,0.7336064575209794,0.3018425010494185,0.9570345282554626,-0.131242111325264,-0.2585742771625519,0,0,0,-1,-1,5593.747569291667,walking,2,2022-06-30T10:02:26.729+02:00,2022-06-30T08:20:05.567+02:00,1524,1.460561,0,0,1205.903,0,0,2022-06-30T10:02:26.728+02:00
2022-06-30T10:02:27.373+02:00,5594.390921291667,0.939697265625,1.219802856445312,0.7052459716796875,5594.385945291667,2.202390793524485,1.333218442088101,0.161525631320985,6.5188889503479,1.872237324714661,1.536028027534485,0.01652485132217407,1.468044996261597,0.960526704788208,XArbitraryZVertical,-0.5209006412597084,0.3354394827363382,0.7211352141525432,0.3100114065627637,0.9592597484588623,-0.1608241647481918,-0.2322857528924942,0,0,0,-1,-1,5593.747569291667,walking,2,2022-06-30T10:02:26.729+02:00,2022-06-30T08:20:05.567+02:00,1524,1.460561,0,0,1205.903,0,0,2022-06-30T10:02:26.728+02:00
2022-06-30T10:02:27.383+02:00,5594.400872291667,0.8740692138671875,1.02874755859375,0.77593994140625,5594.395896291667,2.139744794998485,1.363559305441185,0.1912362787655023,6.861317157745361,2.029126167297363,1.533627986907959,-0.02106589078903198,1.409876108169556,0.9072519540786743,XArbitraryZVertical,-0.5146271803596943,0.3662730198762916,0.7068390330248163,0.3184046291818574,0.9607632160186768,-0.190072774887085,-0.2020058780908585,0,0,0,-1,-1,5593.747569291667,walking,2,2022-06-30T10:02:26.729+02:00,2022-06-30T08:20:05.567+02:00,1524,1.460561,0,0,1205.903,0,0,2022-06-30T10:02:26.728+02:00
2022-06-30T10:02:27.393+02:00,5594.410823291667,0.8224334716796875,0.7471771240234375,0.8162841796875,5594.405848291667,2.07300998035751,1.39796640325626,0.218764470581451,7.075070381164551,2.168902158737183,1.414362788200378,-0.08755415678024292,1.245771646499634,0.9438120126724243,XArbitraryZVertical,-0.5079000163802736,0.3976198266953614,0.6906407843471267,0.3270340819410513,0.9616234302520752,-0.2170237004756927,-0.1678720861673355,0,0,0,-1,-1,5593.747569291667,walking,2,2022-06-30T10:02:26.729+02:00,2022-06-30T08:20:05.567+02:00,1524,1.460561,0,0,1205.903,0,0,2022-06-30T10:02:26.728+02:00
2022-06-30T10:02:27.403+02:00,5594.420775291667,0.7588043212890625,0.49853515625,0.92901611328125,5594.415799291667,2.002984619077581,1.43616832270301,0.2432336260557932,7.201496601104736,2.294582843780518,1.357964158058167,-0.1393483877182007,0.9880198240280151,0.9465548992156982,XArbitraryZVertical,-0.5008294074903209,0.4289924377267243,0.6726326360087624,0.3357094266164399,0.9617820382118225,-0.2408423274755478,-0.130270779132843,0,0,0,-1,-1,5593.747569291667,walking,2,2022-06-30T10:02:26.729+02:00,2022-06-30T08:20:05.567+02:00,1524,1.460561,0,0,1205.903,0,0,2022-06-30T10:02:26.728+02:00
2022-06-30T10:02:27.413+02:00,5594.430726291667,0.6883544921875,0.3780975341796875,0.9700164794921875,5594.425750291667,1.931916168166224,1.477268502768189,0.2646127743023587,6.954546451568604,2.388148307800293,1.332994699478149,-0.2021710872650146,0.7600710988044739,1.019156932830811,XArbitraryZVertical,-0.4935302184182523,0.4597362863762636,0.6534065355807942,0.3437011916970268,0.9609755873680115,-0.2615355253219604,-0.0901409387588501,0,0,0,-1,-1,5593.747569291667,walking,2,2022-06-30T10:02:26.729+02:00,2022-06-30T08:20:05.567+02:00,1524,1.460561,0,0,1205.903,0,0,2022-06-30T10:02:26.728+02:00
2022-06-30T10:02:27.423+02:00,5594.440677291667,0.5963134765625,0.28466796875,0.91558837890625,5594.435701291667,1.864402805868288,1.519802501794737,0.2825737632687215,6.317653656005859,2.512920141220093,1.324620842933655,-0.2707380056381226,0.656926155090332,1.018966674804688,XArbitraryZVertical,-0.4867436530560675,0.4884726131261104,0.6340701680921061,0.3499003654113321,0.9590927362442017,-0.2788282632827759,-0.04895024374127388,0,0,0,-1,-1,5593.747569291667,walking,2,2022-06-30T10:02:26.729+02:00,2022-06-30T08:20:05.567+02:00,1524,1.460561,0,0,1205.903,0,0,2022-06-30T10:02:26.728+02:00
2022-06-30T10:02:27.433+02:00,5594.450628291667,0.5079803466796875,0.3371429443359375,0.9551239013671875,5594.445653291667,1.801194425160409,1.563743524653004,0.2975739508530179,6.130390167236328,2.688983201980591,1.340915203094482,-0.3597133159637451,0.5778700113296509,0.9223310947418213,XArbitraryZVertical,-0.4807619766000162,0.5152635555009822,0.6148432638606963,0.354032788580518,0.9560269117355347,-0.2932016551494598,-0.006742780562490225,0,0,0,-1,-1,5593.747569291667,walking,2,2022-06-30T10:02:26.729+02:00,2022-06-30T08:20:05.567+02:00,1524,1.460561,0,0,1205.903,0,0,2022-06-30T10:02:26.728+02:00
2022-06-30T10:02:27.443+02:00,5594.460580291667,0.510101318359375,0.755584716796875,0.967742919921875,5594.455604291667,1.739559196658723,1.610622431200214,0.310320375589911,5.500363349914551,2.98936128616333,1.411700487136841,-0.4435002207756042,0.6425070762634277,0.9172099828720093,XArbitraryZVertical,-0.4753301088008739,0.5413115519708893,0.595005412243229,0.3563869348691668,0.9514806866645813,-0.3053637146949768,0.03791381791234016,0,0,0,-1,-1,5593.747569291667,walking,2,2022-06-30T10:02:26.729+02:00,2022-06-30T08:20:05.567+02:00,1524,1.460561,0,0,1205.903,0,0,2022-06-30T10:02:26.728+02:00
2022-06-30T10:02:27.453+02:00,5594.470531291667,0.4892120361328125,0.8082122802734375,0.8148040771484375,5594.465555291667,1.683154578090718,1.658878524346477,0.32123276620544,5.289602279663086,3.177482128143311,1.432710647583008,-0.4350670576095581,1.071321606636047,0.8842742443084717,XArbitraryZVertical,-0.4709535372324707,0.5656297495514816,0.575670105951936,0.356187757969131,0.9451685547828674,-0.3157365024089813,0.08346849679946899,0,0,0,-1,-1,5593.747569291667,walking,2,2022-06-30T10:02:26.729+02:00,2022-06-30T08:20:05.567+02:00,1524,1.460561,0,0,1205.903,0,0,2022-06-30T10:02:26.728+02:00
2022-06-30T10:02:27.463+02:00,5594.480482291667,0.4578704833984375,0.908203125,0.6712646484375,5594.475507291667,1.623799970055083,1.709918554414228,0.3282615066878902,5.788388252258301,3.245326280593872,1.247243881225586,-0.4482461214065552,1.130610466003418,0.6835346221923828,XArbitraryZVertical,-0.4663505772233099,0.5900438879967702,0.5546098944044713,0.3560524225787309,0.9374583959579468,-0.3223978579044342,0.1312693059444427,0,0,0,-1,-1,5593.747569291667,walking,2,2022-06-30T10:02:26.729+02:00,2022-06-30T08:20:05.567+02:00,1524,1.460561,0,0,1205.903,0,0,2022-06-30T10:02:26.728+02:00
2022-06-30T10:02:27.472+02:00,5594.490434291667,0.3532562255859375,0.8227996826171875,0.571685791015625,5594.485458291667,1.559078873664704,1.762995426146664,0.3301559562605202,6.29403829574585,3.222186088562012,1.195956230163574,-0.4707022309303284,1.232393980026245,0.4905630350112915,XArbitraryZVertical,-0.4607546816702811,0.6148624631798011,0.5311901187006662,0.3570524370253313,0.928572952747345,-0.3241905570030212,0.1807014495134354,0,0,0,-1,-1,5593.747569291667,walking,2,2022-06-30T10:02:26.729+02:00,2022-06-30T08:20:05.567+02:00,1524,1.460561,0,0,1205.903,0,0,2022-06-30T10:02:26.728+02:00
2022-06-30T10:02:27.482+02:00,5594.500385291667,0.134552001953125,0.670654296875,0.574798583984375,5594.495409291667,1.489925018882789,1.817469444599484,0.3287879471876415,6.518280506134033,3.253510236740112,1.413318037986755,-0.5645295977592468,1.14569616317749,0.3405860066413879,XArbitraryZVertical,-0.4535469352755691,0.6401913302543811,0.5060308158088327,0.3583057447802657,0.9177859425544739,-0.3228961229324341,0.2310995310544968,0,0,0,-1,-1,5593.747569291667,walking,2,2022-06-30T10:02:26.729+02:00,2022-06-30T08:20:05.567+02:00,1524,1.460561,0,0,1205.903,0,0,2022-06-30T10:02:26.728+02:00
2022-06-30T10:02:27.492+02:00,5594.510336291667,-0.1188812255859375,0.5764312744140625,0.629638671875,5594.505361291667,1.420969460481005,1.873039666049853,0.3260263543188596,6.245810508728027,3.492723703384399,1.56987464427948,-0.769829273223877,0.9909358024597168,0.2928159534931183,XArbitraryZVertical,-0.4454799272599331,0.6652359756983572,0.4804640043201272,0.3579988894717731,0.9043816328048706,-0.3202812373638153,0.2819825410842896,0,0,0,-1,-1,5593.747569291667,walking,2,2022-06-30T10:02:26.729+02:00,2022-06-30T08:20:05.567+02:00,1524,1.460561,0,0,1205.903,0,0,2022-06-30T10:02:26.728+02:00
2022-06-30T10:02:27.502+02:00,5594.520288291667,-0.2021331787109375,0.6909942626953125,0.853179931640625,5594.515312291667,1.355100281972623,1.929943183797384,0.3212180042193585,5.916983604431152,3.705090761184692,1.589202880859375,-1.007193088531494,0.8921539783477783,0.296140193939209,XArbitraryZVertical,-0.4377394432761995,0.6892991447403229,0.454801118523227,0.355537465370786,0.8883121013641357,-0.3157224953174591,0.3334982693195343,0,0,0,-1,-1,5593.747569291667,walking,2,2022-06-30T10:02:26.729+02:00,2022-06-30T08:20:05.567+02:00,1524,1.460561,0,0,1205.903,0,0,2022-06-30T10:02:26.728+02:00
2022-06-30T10:02:27.512+02:00,5594.530239291667,-0.10357666015625,0.8225555419921875,1.062286376953125,5594.525263291667,1.293168384716997,1.985982135555129,0.3145406896575935,5.591633796691895,3.647678136825562,1.627641558647156,-1.072281122207642,1.0003741979599,0.4696090221405029,XArbitraryZVertical,-0.4301557217594235,0.7118647034403537,0.4297111904785388,0.3515154106992375,0.8701483011245728,-0.3093797266483307,0.3835706114768982,0,0,0,-1,-1,5593.747569291667,walking,2,2022-06-30T10:02:26.729+02:00,2022-06-30T08:20:05.567+02:00,1524,1.460561,0,0,1205.903,0,0,2022-06-30T10:02:26.728+02:00
2022-06-30T10:02:27.522+02:00,5594.540190291667,0.085723876953125,0.9075164794921875,1.350967407226562,5594.535214291667,1.232810778143839,2.039208620018058,0.3056399545523631,5.611513614654541,3.313630342483521,1.69940972328186,-0.9545093178749084,1.123459339141846,0.6317394971847534,XArbitraryZVertical,-0.4216998795507946,0.7331046860645389,0.4050424112935609,0.3473719834644236,0.8509327173233032,-0.3009035289287567,0.4305465519428253,0,0,0,-1,-1,5593.747569291667,walking,2,2022-06-30T10:02:26.729+02:00,2022-06-30T08:20:05.567+02:00,1524,1.460561,0,0,1205.903,0,0,2022-06-30T10:02:26.728+02:00
2022-06-30T10:02:27.532+02:00,5594.550141291667,0.16058349609375,0.82440185546875,1.72821044921875,5594.545166291667,1.173711882015054,2.087230937990643,0.2947649787550785,5.397022724151611,2.843177556991577,1.725504636764526,-0.7463563680648804,1.198031663894653,0.8784809112548828,XArbitraryZVertical,-0.4118561559202223,0.7527400906396574,0.3812461558406304,0.3441050406398716,0.8320804834365845,-0.2905149757862091,0.472486287355423,0,0,0,-1,-1,5593.747569291667,walking,2,2022-06-30T10:02:26.729+02:00,2022-06-30T08:20:05.567+02:00,1524,1.460561,0,0,1205.903,0,0,2022-06-30T10:02:26.728+02:00
2022-06-30T10:02:27.542+02:00,5594.560093291667,0.125762939453125,0.624908447265625,1.991302490234375,5594.555117291667,1.118598606923372,2.129605222770798,0.2829470517434379,4.899978160858154,2.543139934539795,1.654625773429871,-0.6535887718200684,1.103588819503784,1.219115018844604,XArbitraryZVertical,-0.4015416491167744,0.7702674099254717,0.3591374717355199,0.3412809809948641,0.8141725659370422,-0.2791867256164551,0.5090951323509216,0,0,0,-1,-1,5593.747569291667,walking,2,2022-06-30T10:02:26.729+02:00,2022-06-30T08:20:05.567+02:00,1524,1.460561,0,0,1205.903,0,0,2022-06-30T10:02:26.728+02:00
2022-06-30T10:02:27.552+02:00,5594.570044291667,0.1238555908203125,0.492584228515625,2.115737915039062,5594.565068291667,1.070071800414701,2.167176810535719,0.2713992152898871,4.222879886627197,2.345838308334351,1.522716999053955,-0.6713261604309082,0.892988383769989,1.450208902359009,XArbitraryZVertical,-0.3919196862175096,0.7854587734817016,0.3393438695445445,0.3380814364805602,0.797089159488678,-0.2680796980857849,0.5410930514335632,0,0,0,-1,-1,5593.747569291667,walking,2,2022-06-30T10:02:26.729+02:00,2022-06-30T08:20:05.567+02:00,1524,1.460561,0,0,1205.903,0,0,2022-06-30T10:02:26.728+02:00
2022-06-30T10:02:27.562+02:00,5594.579995291667,0.1732330322265625,0.43548583984375,2.122238159179688,5594.575020291667,1.028490766712279,2.200474462038437,0.2611575187788703,3.556851148605347,2.147833347320557,1.432088494300842,-0.6569560766220093,0.7507833242416382,1.546820998191833,XArbitraryZVertical,-0.3832866955982569,0.7984670971085132,0.3221574924341654,0.3342997872991774,0.78081214427948,-0.258199006319046,0.5689167976379395,0,0,0,-1,-1,5593.747569291667,walking,2,2022-06-30T10:02:26.729+02:00,2022-06-30T08:20:05.567+02:00,1524,1.460561,0,0,1205.903,0,0,2022-06-30T10:02:26.728+02:00
2022-06-30T10:02:27.572+02:00,5594.589947291667,0.210479736328125,0.34246826171875,2.040878295898438,5594.584971291667,0.9925870393610126,2.229810417870452,0.2524809253726124,3.13306736946106,1.926203370094299,1.366250276565552,-0.5922977328300476,0.6852929592132568,1.529313921928406,XArbitraryZVertical,-0.3753917347535326,0.8096561822452646,0.3073792902945677,0.3302364804458938,0.7655313014984131,-0.2498070001602173,0.592924177646637,0,0,0,-1,-1,5593.747569291667,walking,2,2022-06-30T10:02:26.729+02:00,2022-06-30T08:20:05.567+02:00,1524,1.460561,0,0,1205.903,0,0,2022-06-30T10:02:26.728+02:00
2022-06-30T10:02:27.582+02:00,5594.599898291667,0.217010498046875,0.383453369140625,1.991958618164062,5594.594922291667,0.9595757577607958,2.256347717462252,0.243871106631044,2.997603416442871,1.776184320449829,1.274481773376465,-0.540685772895813,0.5839293003082275,1.426511287689209,XArbitraryZVertical,-0.3677962835879511,0.819700828566981,0.2937385605737522,0.3263960306442202,0.7511661052703857,-0.241460993885994,0.6143671274185181,0,0,0,-1,-1,5593.747569291667,walking,2,2022-06-30T10:02:26.729+02:00,2022-06-30T08:20:05.567+02:00,1524,1.460561,0,0,1205.903,0,0,2022-06-30T10:02:26.728+02:00
2022-06-30T10:02:27.592+02:00,5594.609849291667,0.279937744140625,0.3974151611328125,1.958709716796875,5594.604874291667,0.9279467666095357,2.28074277983918,0.2339179599964663,3.046794176101685,1.632222890853882,1.164789915084839,-0.5207316875457764,0.6152440309524536,1.357916355133057,XArbitraryZVertical,-0.3603656300324943,0.828949769335941,0.2802863908551586,0.3231386523804305,0.7377426028251648,-0.2317905426025391,0.6340422034263611,0,0,0,-1,-1,5593.747569291667,walking,2,2022-06-30T10:02:26.729+02:00,2022-06-30T08:20:05.567+02:00,1524,1.460561,0,0,1205.903,0,0,2022-06-30T10:02:26.728+02:00
2022-06-30T10:02:27.602+02:00,5594.619801291667,0.3748626708984375,0.2914886474609375,1.991073608398438,5594.614825291667,0.8964668814967509,2.303738861045933,0.2222041482798593,3.12616229057312,1.555944800376892,1.154759764671326,-0.4449984431266785,0.6177953481674194,1.306099414825439,XArbitraryZVertical,-0.3528117589298272,0.8377523184267986,0.2664815435579,0.3204413433364002,0.7249366044998169,-0.220380112528801,0.652610182762146,0,0,0,-1,-1,5593.747569291667,walking,2,2022-06-30T10:02:26.729+02:00,2022-06-30T08:20:05.567+02:00,1524,1.460561,0,0,1205.903,0,0,2022-06-30T10:02:26.728+02:00
2022-06-30T10:02:27.612+02:00,5594.629752291667,0.3946075439453125,0.154571533203125,2.136123657226562,5594.624776291667,0.8653373236200265,2.325279104529812,0.2099256243260126,3.018224716186523,1.430370092391968,1.155799150466919,-0.3377670049667358,0.4998759031295776,1.321197628974915,XArbitraryZVertical,-0.3449804417815514,0.8461243151169134,0.2528121479770829,0.3180381073581407,0.712630033493042,-0.2083871513605118,0.6698757410049438,0,0,0,-1,-1,5593.747569291667,walking,2,2022-06-30T10:02:26.729+02:00,2022-06-30T08:20:05.567+02:00,1524,1.460561,0,0,1205.903,0,0,2022-06-30T10:02:26.728+02:00
2022-06-30T10:02:27.622+02:00,5594.639703291667,0.429656982421875,0.1085662841796875,2.374755859375,5594.634727291667,0.836203278796079,2.345081394703052,0.1986449842785575,2.641282558441162,1.383105397224426,1.181782484054565,-0.3062542676925659,0.3519127368927002,1.450668096542358,XArbitraryZVertical,-0.3372631885146498,0.8538039556098642,0.2402114574033961,0.3155485820580999,0.7008622288703918,-0.1973411440849304,0.685455322265625,0,0,0,-1,-1,5593.747569291667,walking,2,2022-06-30T10:02:26.729+02:00,2022-06-30T08:20:05.567+02:00,1524,1.460561,0,0,1205.903,0,0,2022-06-30T10:02:26.728+02:00
2022-06-30T10:02:27.632+02:00,5594.64965425,0.510040283203125,0.0777740478515625,2.633880615234375,5594.644679291667,0.8112186397217164,2.363493506725688,0.1906337516316523,1.981952309608459,1.347983598709106,1.112083077430725,-0.2595536708831787,0.2980475425720215,1.675409317016602,XArbitraryZVertical,-0.3302638157520596,0.8605805983310448,0.229903292188137,0.3122040802973055,0.6892110109329224,-0.1894811987876892,0.6993463039398193,0,0,0,-1,-1,5593.747569291667,walking,2,2022-06-30T10:02:26.729+02:00,2022-06-30T08:20:05.567+02:00,1524,1.460561,0,0,1205.903,0,0,2022-06-30T10:02:26.728+02:00
2022-06-30T10:02:27.642+02:00,5594.65960625,0.5993499755859375,0.0775909423828125,2.869155883789062,5594.65463025,0.7924721306150332,2.380729659301812,0.1858801939327401,1.275663018226624,1.429656505584717,0.8855347633361816,-0.1676279902458191,0.2625858187675476,1.922114849090576,XArbitraryZVertical,-0.3250176553851948,0.8661675300784691,0.2221870355369152,0.3078152087628648,0.6776685118675232,-0.1848116368055344,0.7117653489112854,0,0,0,-1,-1,5593.747569291667,walking,2,2022-06-30T10:02:26.729+02:00,2022-06-30T08:20:05.567+02:00,1524,1.460561,0,0,1205.903,0,0,2022-06-30T10:02:26.728+02:00
2022-06-30T10:02:27.652+02:00,5594.66955725,0.6779937744140625,0.0514984130859375,2.921478271484375,5594.66458125,0.7797057060297354,2.397748067727473,0.1842829179307589,0.7295461297035217,1.519703030586243,0.7400028705596924,-0.0663067102432251,0.260832667350769,2.145744800567627,XArbitraryZVertical,-0.3216378453117332,0.870778146967659,0.2168161279651895,0.3021346131725334,0.6656569838523865,-0.1832416355609894,0.723410964012146,0,0,0,-1,-1,5593.747569291667,walking,2,2022-06-30T10:02:26.729+02:00,2022-06-30T08:20:05.567+02:00,1524,1.460561,0,0,1205.903,0,0,2022-06-30T10:02:26.728+02:00
2022-06-30T10:02:27.661+02:00,5594.67950825,0.7087860107421875,0.014373779296875,3.0147705078125,5594.67453325,0.7707305586710365,2.414999064483271,0.1850769860680911,0.3275769352912903,1.618587732315063,0.6963463425636292,0.02501195669174194,0.2355206906795502,2.186801195144653,XArbitraryZVertical,-0.3194304870150314,0.874815783349275,0.2130471099032353,0.2954191146002605,0.6529821157455444,-0.1840222030878067,0.7346769571304321,0,0,0,-1,-1,5593.747569291667,walking,2,2022-06-30T10:02:26.729+02:00,2022-06-30T08:20:05.567+02:00,1524,1.460561,0,0,1205.903,0,0,2022-06-30T10:02:26.728+02:00
2022-06-30T10:02:27.671+02:00,5594.689460250001,0.6963348388671875,-0.112701416015625,3.1329345703125,5594.68448425,0.7653186271517652,2.432875159698275,0.1896319393028023,-0.3448488712310791,1.792081475257874,0.6969479322433472,0.06959325075149536,0.2028713226318359,2.269182682037354,XArbitraryZVertical,-0.3181420108184764,0.8783959274787289,0.2113497783776993,0.2872932809183543,0.6391929984092712,-0.1884974390268326,0.7455874681472778,0,0,0,-1,-1,5593.747569291667,walking,2,2022-06-30T10:02:26.729+02:00,2022-06-30T08:20:05.567+02:00,1524,1.460561,0,0,1205.903,0,0,2022-06-30T10:02:26.728+02:00
2022-06-30T10:02:27.681+02:00,5594.699411250001,0.71295166015625,-0.20947265625,3.238525390625,5594.69443525,0.7650396153180814,2.452234856943273,0.1997855364999767,-1.174343705177307,2.097204446792603,0.6468483209609985,0.07294481992721558,0.08575785160064697,2.376628398895264,XArbitraryZVertical,-0.3182927192383741,0.8813867267735603,0.2125710997653598,0.2768765090828503,0.6233901977539062,-0.1984591335058212,0.7563056349754333,0,0,0,-1,-1,5593.747569291667,walking,2,2022-06-30T10:02:26.729+02:00,2022-06-30T08:20:05.567+02:00,1524,1.460561,0,0,1205.903,0,0,2022-06-30T10:02:26.728+02:00
2022-06-30T10:02:27.691+02:00,5594.709362250001,0.7386016845703125,-0.192138671875,3.388580322265625,5594.704387250001,0.7702276335892815,2.474065083410974,0.2155681411480583,-1.901859402656555,2.520733118057251,0.5388323664665222,0.108233630657196,0.004429906606674194,2.471347570419312,XArbitraryZVertical,-0.3202136283992669,0.8837714658066415,0.2165486576817692,0.2636624114834151,0.6047182679176331,-0.2139024585485458,0.7671775221824646,0,0,0,-1,-1,5593.747569291667,walking,2,2022-06-30T10:02:26.729+02:00,2022-06-30T08:20:05.567+02:00,1524,1.460561,0,0,1205.903,0,0,2022-06-30T10:02:26.728+02:00
2022-06-30T10:02:27.701+02:00,5594.71931425,0.7690277099609375,-0.2303466796875,3.515106201171875,5594.714338250001,0.7800892849861111,2.499095514955386,0.2355186173763499,-2.401484727859497,2.948652267456055,0.3313292860984802,0.155947208404541,0.04120871424674988,2.610080003738403,XArbitraryZVertical,-0.323968718293595,0.8856039741461725,0.2223307322681963,0.2476267523225779,0.5826548933982849,-0.2333473116159439,0.7785002589225769,0,0,0,-1,-1,5593.747569291667,walking,2,2022-06-30T10:02:26.729+02:00,2022-06-30T08:20:05.567+02:00,1524,1.460561,0,0,1205.903,0,0,2022-06-30T10:02:26.728+02:00
2022-06-30T10:02:27.711+02:00,5594.72926525,0.833038330078125,-0.2783050537109375,3.729293823242188,5594.724289250001,0.7936239195006854,2.526880809514404,0.2568947827641462,-2.617522716522217,3.283402919769287,0.0847083106637001,0.2112308144569397,0.02373191714286804,2.724975347518921,XArbitraryZVertical,-0.3295912850920112,0.8868116567155484,0.2285670210843684,0.2295469231974276,0.5577971935272217,-0.2540784776210785,0.7901306748390198,0,0,0,-1,-1,5593.747569291667,walking,2,2022-06-30T10:02:26.729+02:00,2022-06-30T08:20:05.567+02:00,1524,1.460561,0,0,1205.903,0,0,2022-06-30T10:02:26.728+02:00
2022-06-30T10:02:27.721+02:00,5594.73921625,0.85150146484375,-0.2895965576171875,3.912429809570312,5594.73424125,0.8101126692984267,2.556796845052115,0.2799970421105989,-3.03342604637146,3.628849267959595,-0.1335226595401764,0.3025076389312744,-0.001952230930328369,2.927941083908081,XArbitraryZVertical,-0.3366845491036696,0.8873104905224077,0.2352856170770605,0.2096769618797441,0.5305312275886536,-0.2763527929782867,0.8013527989387512,0,0,0,-1,-1,5593.747569291667,walking,2,2022-06-30T10:02:26.729+02:00,2022-06-30T08:20:05.567+02:00,1524,1.460561,0,0,1205.903,0,0,2022-06-30T10:02:26.728+02:00
2022-06-30T10:02:27.732+02:00,5594.74916725,0.92431640625,-0.367523193359375,4.033615112304688,5594.74419225,0.8309809393541038,2.58864152889362,0.3051601112888842,-3.328871250152588,3.952667951583862,-0.5372951626777649,0.3505658507347107,0.01084944605827332,3.100767612457275,XArbitraryZVertical,-0.3458406043676502,0.8866934951284406,0.2426762762066324,0.1878221591155914,0.500935971736908,-0.3004458844661713,0.8116621375083923,0,0,0,-1,-1,5593.747569291667,walking,2,2022-06-30T10:02:26.729+02:00,2022-06-30T08:20:05.567+02:00,1524,1.460561,0,0,1205.903,0,0,2022-06-30T10:02:26.728+02:00
2022-06-30T10:02:27.741+02:00,5594.75911925,0.92657470703125,-0.3733978271484375,4.221023559570312,5594.75414325,0.8562096756439272,2.621024012505756,0.3313174233157221,-3.572896003723145,4.136064529418945,-1.005943775177002,0.4539930522441864,-0.04223403334617615,3.213259696960449,XArbitraryZVertical,-0.3570634413094189,0.884693940047041,0.2503449172337032,0.1647720876922737,0.470323771238327,-0.3252890706062317,0.8203553557395935,0,0,0,-1,-1,5593.747569291667,walking,2,2022-06-30T10:02:26.729+02:00,2022-06-30T08:20:05.567+02:00,1524,1.460561,0,0,1205.903,0,0,2022-06-30T10:02:26.728+02:00
2022-06-30T10:02:27.751+02:00,5594.76907025,0.865203857421875,-0.593231201171875,4.335662841796875,5594.76409425,0.8879866338349702,2.652128764761381,0.355925012282965,-3.591264247894287,4.229601860046387,-1.924200057983398,0.4858893156051636,-0.02494022250175476,3.393754720687866,XArbitraryZVertical,-0.371433751352824,0.8807220865314092,0.2575318178535697,0.1415735223704181,0.4406858682632446,-0.348457545042038,0.8272688388824463,0,0,0,-1,-1,5593.747569291667,walking,2,2022-06-30T10:02:26.729+02:00,2022-06-30T08:20:05.567+02:00,1524,1.460561,0,0,1205.903,0,0,2022-06-30T10:02:26.728+02:00
2022-06-30T10:02:27.761+02:00,5594.77902125,0.7847442626953125,-0.95526123046875,4.691543579101562,5594.774046250001,0.9276646158404585,2.679247909709975,0.3762205604333683,-3.465718030929565,4.049787998199463,-2.821206331253052,0.4503529369831085,-0.2258231937885284,3.503250598907471,XArbitraryZVertical,-0.3894766927221756,0.8743649867156834,0.2634907119947286,0.1198609708498295,0.4148514568805695,-0.3674080073833466,0.8324124217033386,0,0,0,-1,-1,5593.747569291667,walking,2,2022-06-30T10:02:26.729+02:00,2022-06-30T08:20:05.567+02:00,1524,1.460561,0,0,1205.903,0,0,2022-06-30T10:02:26.728+02:00
2022-06-30T10:02:27.771+02:00,5594.788973250001,0.5016937255859375,-1.407669067382812,5.223876953125,5594.783997250001,0.9775923227862506,2.699543859210244,0.3941420752770453,-3.862561941146851,3.806177854537964,-4.033556938171387,0.3897527754306793,-0.571245014667511,3.856969833374023,XArbitraryZVertical,-0.411374698532802,0.8649033498519447,0.2696138865553013,0.1001079087664018,0.3949919939041138,-0.3840161859989166,0.8345738649368286,0,0,0,-1,-1,5593.747569291667,walking,2,2022-06-30T10:02:26.729+02:00,2022-06-30T08:20:05.567+02:00,1524,1.460561,0,0,1205.903,0,0,2022-06-30T10:02:26.728+02:00
2022-06-30T10:02:27.781+02:00,5594.798924250001,0.0927886962890625,-1.351638793945312,5.849884033203125,5594.793948250001,1.043802166501835,2.708477750041091,0.4115073333382849,-4.528453350067139,3.109467506408691,-5.620457649230957,0.1170309484004974,-1.007677555084229,4.391986846923828,XArbitraryZVertical,-0.4385604769536887,0.8506525946753331,0.2778286915088443,0.08286213306061666,0.3846631348133087,-0.3999912738800049,0.8318902850151062,0,0,0,-1,-1,5593.747569291667,walking,2,2022-06-30T10:02:26.729+02:00,2022-06-30T08:20:05.567+02:00,1524,1.460561,0,0,1205.903,0,0,2022-06-30T10:02:26.728+02:00
2022-06-30T10:02:27.791+02:00,5594.808875250001,-0.5696563720703125,-0.68487548828125,6.557968139648438,5594.80390025,1.131277176533655,2.69800106299047,0.4295819191569421,-5.592705726623535,1.905873775482178,-7.395617961883545,-0.2974012792110443,-0.9351480007171631,5.02873420715332,XArbitraryZVertical,-0.4712275117518209,0.829770837226688,0.2907285726024946,0.07001441522618941,0.390190452337265,-0.4164907336235046,0.821150004863739,0,0,0,-1,-1,5593.747569291667,walking,2,2022-06-30T10:02:26.729+02:00,2022-06-30T08:20:05.567+02:00,1524,1.460561,0,0,1205.903,0,0,2022-06-30T10:02:26.728+02:00
2022-06-30T10:02:27.801+02:00,5594.81882725,-1.267776489257812,0.52581787109375,6.559097290039062,5594.81385125,1.242986895788385,2.661721792106683,0.447165344608865,-6.484759330749512,0.2606548666954041,-9.289151191711426,-0.9859281778335571,-0.2524639070034027,5.758131980895996,XArbitraryZVertical,-0.508655067453192,0.8007422582151096,0.3100220721424772,0.06299378461331703,0.4162721633911133,-0.4324113428592682,0.799836277961731,0,0,0,-1,-1,5593.747569291667,walking,2,2022-06-30T10:02:26.729+02:00,2022-06-30T08:20:05.567+02:00,1524,1.460561,0,0,1205.903,0,0,2022-06-30T10:02:26.728+02:00
2022-06-30T10:02:27.811+02:00,5594.82877825,-1.876968383789062,1.85595703125,6.168350219726562,5594.82380225,1.377152442978905,2.594099226785498,0.4529787461160106,-6.32948112487793,-2.139099836349487,-11.25544166564941,-1.735826253890991,0.9634640216827393,5.791376113891602,XArbitraryZVertical,-0.5492783112257311,0.7629900243499727,0.3343339526850084,0.06603313490796399,0.4680500328540802,-0.4376457929611206,0.7677208781242371,0,0,0,-1,-1,5593.747569291667,walking,2,2022-06-30T10:02:26.729+02:00,2022-06-30T08:20:05.567+02:00,1524,1.460561,0,0,1205.903,0,0,2022-06-30T10:02:26.728+02:00
2022-06-30T10:02:27.821+02:00,5594.83872925,-1.645187377929688,1.6324462890625,5.45947265625,5594.83375325,1.523149931354183,2.498458142170109,0.4372013732650512,-5.83460521697998,-4.366637706756592,-12.30891609191895,-2.420266389846802,2.27936315536499,5.443398952484131,XArbitraryZVertical,-0.5895037468758634,0.7176078165318666,0.3618163993119436,0.0813216327848053,0.5432983040809631,-0.4234057366847992,0.7249512672424316,0,0,0,-1,-1,5593.747569291667,walking,2,2022-06-30T10:02:26.729+02:00,2022-06-30T08:20:05.567+02:00,1524,1.460561,0,0,1205.903,0,0,2022-06-30T10:02:26.728+02:00
2022-06-30T10:02:27.831+02:00,5594.84868025,-2.036819458007812,1.557281494140625,5.241378784179688,5594.84370525,1.667651131918218,2.386699113366103,0.399590523992166,-5.49415111541748,-6.211845397949219,-12.96516609191895,-2.27641773223877,2.021487712860107,4.788506984710693,XArbitraryZVertical,-0.6255314481564526,0.6664783419544993,0.3914754226783215,0.106132652757187,0.6312305927276611,-0.3890411555767059,0.6709659695625305,0,0,0,-1,-1,5593.747569291667,walking,2,2022-06-30T10:02:26.729+02:00,2022-06-30T08:20:05.567+02:00,1524,1.460561,0,0,1205.903,0,0,2022-06-30T10:02:26.728+02:00
2022-06-30T10:02:27.841+02:00,5594.85863225,-2.53497314453125,2.391983032226562,4.8570556640625,5594.85365625,1.806083070542916,2.264196513597098,0.3376537569313762,-4.746897220611572,-8.440356254577637,-13.7812032699585,-2.762470245361328,1.888556003570557,4.638313293457031,XArbitraryZVertical,-0.6565572050141426,0.6086588126145789,0.4229798032597125,0.139840461386859,0.7256511449813843,-0.3312742412090302,0.6030658483505249,0,0,0,-1,-1,5593.747569291667,walking,2,2022-06-30T10:02:26.729+02:00,2022-06-30T08:20:05.567+02:00,1524,1.460561,0,0,1205.903,0,0,2022-06-30T10:02:26.728+02:00
2022-06-30T10:02:27.851+02:00,5594.86858325,-3.181564331054688,3.263214111328125,4.21514892578125,5594.86360725,1.922746661128919,2.128749526144848,0.2500153797296285,-2.959773778915405,-12.0976619720459,-13.6546688079834,-3.356937408447266,2.639402151107788,4.344066143035889,XArbitraryZVertical,-0.6768471974802053,0.5462350508538718,0.4570377272568905,0.186069464778744,0.8219647407531738,-0.2474188655614853,0.5129896998405457,0,0,0,-1,-1,5593.747569291667,walking,2,2022-06-30T10:02:26.729+02:00,2022-06-30T08:20:05.567+02:00,1524,1.460561,0,0,1205.903,0,0,2022-06-30T10:02:26.728+02:00
2022-06-30T10:02:27.861+02:00,5594.87853425,-4.67596435546875,4.390716552734375,2.726058959960938,5594.873559250001,1.998800427218501,1.968847196502273,0.13966986539275,0.07619958370923996,-17.21126556396484,-12.66860485076904,-4.094406127929688,3.402430772781372,3.831301212310791,XArbitraryZVertical,-0.6780469123548637,0.4818467290591242,0.4957412814216959,0.2496334849256154,0.9128418564796448,-0.1392161995172501,0.3838477730751038,0,0,0,-1,-1,5593.747569291667,walking,2,2022-06-30T10:02:26.729+02:00,2022-06-30T08:20:05.567+02:00,1524,1.460561,0,0,1205.903,0,0,2022-06-30T10:02:26.728+02:00
