loggingTime(txt),accelerometerTimestamp_sinceReboot(s),accelerometerAccelerationX(G),accelerometerAccelerationY(G),accelerometerAccelerationZ(G),motionTimestamp_sinceReboot(s),motionYaw(rad),motionRoll(rad),motionPitch(rad),motionRotationRateX(rad/s),motionRotationRateY(rad/s),motionRotationRateZ(rad/s),motionUserAccelerationX(G),motionUserAccelerationY(G),motionUserAccelerationZ(G),motionAttitudeReferenceFrame(txt),motionQuaternionX(R),motionQuaternionY(R),motionQuaternionZ(R),motionQuaternionW(R),motionGravityX(G),motionGravityY(G),motionGravityZ(G),motionMagneticFieldX(µT),motionMagneticFieldY(µT),motionMagneticFieldZ(µT),motionHeading(°),motionMagneticFieldCalibrationAccuracy(Z),activityTimestamp_sinceReboot(s),activity(txt),activityActivityConfidence(Z),activityActivityStartDate(txt),pedometerStartDate(txt),pedometerNumberofSteps(N),pedometerAverageActivePace(s/m),pedometerCurrentPace(s/m),pedometerCurrentCadence(steps/s),pedometerDistance(m),pedometerFloorAscended(N),pedometerFloorDescended(N),pedometerEndDate(txt)
2022-06-30T10:05:21.639+02:00,5754.229360791667,-0.0302581787109375,-0.1157379150390625,-0.960540771484375,5754.219409791667,0.2581630432703184,-0.0565245105468562,0.145434036384443,-0.272797167301178,0.1812764406204224,0.01188070978969336,-0.1063491106033325,0.03487534821033478,0.02002847194671631,XArbitraryZVertical,0.07564766068686268,-0.01860094263777038,0.1262959298468488,0.9889290890619428,-0.05589801073074341,-0.1449218988418579,-0.9878628849983215,0,0,0,-1,-1,5752.726104125,running,2,2022-06-30T10:05:20.123+02:00,2022-06-30T08:20:05.567+02:00,1540,1.501556,0,0,1217.191,0,0,2022-06-30T10:05:15.030+02:00
2022-06-30T10:05:21.641+02:00,5754.239312791667,-0.084259033203125,-0.122039794921875,-0.920379638671875,5754.229360791667,0.2581660459635524,-0.05597770845652787,0.1439861286567664,-0.07965512573719025,0.06956936419010162,-0.01999226771295071,-0.03923538699746132,0.04926596581935883,-0.008953213691711426,XArbitraryZVertical,0.07489756885919813,-0.01842481726959785,0.1263448596856266,0.9889832747434504,-0.05536951869726181,-0.1434891223907471,-0.9881017804145813,0,0,0,-1,-1,5752.726104125,running,2,2022-06-30T10:05:20.123+02:00,2022-06-30T08:20:05.567+02:00,1540,1.501556,0,0,1217.191,0,0,2022-06-30T10:05:15.030+02:00
2022-06-30T10:05:21.647+02:00,5754.249263791667,-0.093170166015625,-0.164276123046875,-0.91839599609375,5754.239312791667,0.2574777462950136,-0.05456515434104856,0.14321055821592,-0.03317444771528244,0.09243938326835632,-0.08755134046077728,0.02372117340564728,0.02698346972465515,0.02774906158447266,XArbitraryZVertical,0.07441887222917536,-0.01780245178174303,0.1260714001572846,0.989065620973354,-0.05397976934909821,-0.1427215337753296,-0.9882898330688477,0,0,0,-1,-1,5752.726104125,running,2,2022-06-30T10:05:20.123+02:00,2022-06-30T08:20:05.567+02:00,1540,1.501556,0,0,1217.191,0,0,2022-06-30T10:05:15.030+02:00
2022-06-30T10:05:21.657+02:00,5754.259214791667,-0.0955047607421875,-0.167205810546875,-0.9253387451171875,5754.249263791667,0.2565541677317048,-0.05359629242071846,0.1426548147892783,-0.0401010625064373,0.09044786542654037,-0.09035591781139374,-0.03123297914862633,0.02013152837753296,0.06804114580154419,XArbitraryZVertical,0.07407505431698465,-0.01739362234443413,0.1256605665000835,0.989151112346643,-0.0530264675617218,-0.1421714574098587,-0.9884207248687744,0,0,0,-1,-1,5752.726104125,running,2,2022-06-30T10:05:20.123+02:00,2022-06-30T08:20:05.567+02:00,1540,1.501556,0,0,1217.191,0,0,2022-06-30T10:05:15.030+02:00
2022-06-30T10:05:21.667+02:00,5754.269166791667,-0.0880584716796875,-0.1572418212890625,-0.9363555908203125,5754.259214791667,0.2556459716979505,-0.05252028098563821,0.142213656311362,-0.07876250147819519,0.08604361116886139,-0.08492062985897064,-0.04120440408587456,-0.02254149317741394,0.07014381885528564,XArbitraryZVertical,0.07378167556245684,-0.01692350206305887,0.1252589422281299,0.9892321343045791,-0.05196617171168327,-0.1417347639799118,-0.9885396957397461,0,0,0,-1,-1,5752.726104125,running,2,2022-06-30T10:05:20.123+02:00,2022-06-30T08:20:05.567+02:00,1540,1.501556,0,0,1217.191,0,0,2022-06-30T10:05:15.030+02:00
2022-06-30T10:05:21.677+02:00,5754.279117791667,-0.076904296875,-0.15985107421875,-0.9573822021484375,5754.269166791667,0.2546195808869561,-0.05139255653845146,0.1415253642433305,-0.1093012392520905,0.08533388376235962,-0.1057787761092186,-0.04464883357286453,-0.02615256607532501,0.06335622072219849,XArbitraryZVertical,0.07336231551781226,-0.01644772712671236,0.1248046780066775,0.9893287673905983,-0.0508563406765461,-0.1410533934831619,-0.9886949062347412,0,0,0,-1,-1,5752.726104125,running,2,2022-06-30T10:05:20.123+02:00,2022-06-30T08:20:05.567+02:00,1540,1.501556,0,0,1217.191,0,0,2022-06-30T10:05:15.030+02:00
2022-06-30T10:05:21.686+02:00,5754.289068791667,-0.0799102783203125,-0.1588592529296875,-0.969970703125,5754.279117791667,0.2533902478471978,-0.05044371196127149,0.1407046885728754,-0.1165241301059723,0.07230562716722488,-0.1255247294902802,-0.0381348691880703,-0.01700110733509064,0.05250245332717896,XArbitraryZVertical,0.0728874456448222,-0.0160758467972212,0.1242452249487582,0.9894404102326282,-0.04992401972413063,-0.140240877866745,-0.9888579845428467,0,0,0,-1,-1,5752.726104125,running,2,2022-06-30T10:05:20.123+02:00,2022-06-30T08:20:05.567+02:00,1540,1.501556,0,0,1217.191,0,0,2022-06-30T10:05:15.030+02:00
2022-06-30T10:05:21.696+02:00,5754.299020791667,-0.08544921875,-0.160186767578125,-0.978607177734375,5754.289068791667,0.2520068486744068,-0.04974645747046683,0.1397239590564981,-0.1513561457395554,0.0656791478395462,-0.1423303335905075,-0.02766337618231773,-0.02058145403862,0.03164726495742798,XArbitraryZVertical,0.07234820359764831,-0.01584358385601968,0.1236025849017335,0.9895642040200193,-0.04924133792519569,-0.1392697691917419,-0.9890294075012207,0,0,0,-1,-1,5752.726104125,running,2,2022-06-30T10:05:20.123+02:00,2022-06-30T08:20:05.567+02:00,1540,1.501556,0,0,1217.191,0,0,2022-06-30T10:05:15.030+02:00
2022-06-30T10:05:21.707+02:00,5754.308971791667,-0.08392333984375,-0.154144287109375,-0.9907684326171875,5754.299020791667,0.2505137786253093,-0.04943127800929034,0.1377881836440605,-0.2246836870908737,0.07991409301757812,-0.1510662734508514,-0.03096784651279449,-0.02150680124759674,0.01934170722961426,XArbitraryZVertical,0.0713595021697593,-0.01586386520103201,0.1229072656868325,0.989722205574728,-0.04894284158945084,-0.1373526006937027,-0.9893122911453247,0,0,0,-1,-1,5752.726104125,running,2,2022-06-30T10:05:20.123+02:00,2022-06-30T08:20:05.567+02:00,1540,1.501556,0,0,1217.191,0,0,2022-06-30T10:05:15.030+02:00
2022-06-30T10:05:21.716+02:00,5754.318923791667,-0.0838165283203125,-0.1327056884765625,-0.9864044189453125,5754.308971791667,0.2488820556452326,-0.04870586316896436,0.1348971649393451,-0.3080337047576904,0.0908421128988266,-0.157767578959465,-0.03720533475279808,-0.02569851279258728,0.01113289594650269,XArbitraryZVertical,0.06987196865137875,-0.01574438856218304,0.1221726851610005,0.9899211516517883,-0.04824429750442505,-0.1344884037971497,-0.9897400736808777,0,0,0,-1,-1,5752.726104125,running,2,2022-06-30T10:05:20.123+02:00,2022-06-30T08:20:05.567+02:00,1540,1.501556,0,0,1217.191,0,0,2022-06-30T10:05:15.030+02:00
2022-06-30T10:05:21.727+02:00,5754.328874791667,-0.0776214599609375,-0.1199951171875,-0.9886932373046875,5754.318923791667,0.2470961773324936,-0.04727027585189619,0.1313152977541079,-0.393663614988327,0.1175645664334297,-0.159591481089592,-0.0370779000222683,-0.0232062041759491,-0.0004852414131164551,XArbitraryZVertical,0.06799829491672633,-0.0153190797427142,0.1213953870108868,0.9901539489659695,-0.04684585332870483,-0.1309382319450378,-0.9902831315994263,0,0,0,-1,-1,5752.726104125,running,2,2022-06-30T10:05:20.123+02:00,2022-06-30T08:20:05.567+02:00,1540,1.501556,0,0,1217.191,0,0,2022-06-30T10:05:15.030+02:00
2022-06-30T10:05:21.737+02:00,5754.338825791667,-0.068328857421875,-0.1054534912109375,-0.9820098876953125,5754.328874791667,0.2453648626506115,-0.04622919381925496,0.1272089771444893,-0.4403190016746521,0.1358620971441269,-0.159890279173851,-0.03797762095928192,-0.005839690566062927,0.004455745220184326,XArbitraryZVertical,0.06588970429901711,-0.01511617036845214,0.1206368115471298,0.9903922317837577,-0.04583932459354401,-0.1268661767244339,-0.9908601045608521,0,0,0,-1,-1,5752.726104125,running,2,2022-06-30T10:05:20.123+02:00,2022-06-30T08:20:05.567+02:00,1540,1.501556,0,0,1217.191,0,0,2022-06-30T10:05:15.030+02:00
2022-06-30T10:05:21.747+02:00,5754.348777791667,-0.063934326171875,-0.0941925048828125,-0.9757537841796875,5754.338825791667,0.2435804626572852,-0.04525250942658741,0.1233280829387665,-0.460430771112442,0.1322605460882187,-0.1715603172779083,-0.03272839263081551,0.003020428121089935,0.002695620059967041,XArbitraryZVertical,0.06389623100509581,-0.01492919541473392,0.1198435321562167,0.990621987621665,-0.04489347711205482,-0.1230156868696213,-0.9913887977600098,0,0,0,-1,-1,5752.726104125,running,2,2022-06-30T10:05:20.123+02:00,2022-06-30T08:20:05.567+02:00,1540,1.501556,0,0,1217.191,0,0,2022-06-30T10:05:15.030+02:00
2022-06-30T10:05:21.756+02:00,5754.358728791667,-0.0622711181640625,-0.0815887451171875,-0.9720458984375,5754.348777791667,0.2415339427294885,-0.04366621856673283,0.1188449870850226,-0.4492028951644897,0.1425648480653763,-0.1964145451784134,-0.02498484030365944,0.01311177015304565,0.009989917278289795,XArbitraryZVertical,0.06156639032083795,-0.01448118897557235,0.1189452558539374,0.9908844559163188,-0.04334443062543869,-0.1185654178261757,-0.9919997453689575,0,0,0,-1,-1,5752.726104125,running,2,2022-06-30T10:05:20.123+02:00,2022-06-30T08:20:05.567+02:00,1540,1.501556,0,0,1217.191,0,0,2022-06-30T10:05:15.030+02:00
2022-06-30T10:05:21.766+02:00,5754.368679791667,-0.069305419921875,-0.0705718994140625,-0.966278076171875,5754.358728791667,0.2392866164602644,-0.04192503636504243,0.1145293294990077,-0.4370675981044769,0.1609673500061035,-0.2123468071222305,-0.02229657024145126,0.02008644491434097,0.01682198047637939,XArbitraryZVertical,0.05930949950275344,-0.01394726139721577,0.1179451447972483,0.9911492981384361,-0.04163817316293716,-0.1142791137099266,-0.9925757050514221,0,0,0,-1,-1,5752.726104125,running,2,2022-06-30T10:05:20.123+02:00,2022-06-30T08:20:05.567+02:00,1540,1.501556,0,0,1217.191,0,0,2022-06-30T10:05:15.030+02:00
2022-06-30T10:05:21.776+02:00,5754.378631791667,-0.161895751953125,-0.0979156494140625,-0.963836669921875,5754.368679791667,0.2367976007604919,-0.03998620696102156,0.1102826201280006,-0.4384657442569733,0.1778741627931595,-0.2589108347892761,-0.02253882959485054,0.02847030013799667,0.02108466625213623,XArbitraryZVertical,0.05707447139317674,-0.01331281649752598,0.1168251605879024,0.9914218172923298,-0.03973270207643509,-0.1100592091679573,-0.9931305646896362,0,0,0,-1,-1,5752.726104125,running,2,2022-06-30T10:05:20.123+02:00,2022-06-30T08:20:05.567+02:00,1540,1.501556,0,0,1217.191,0,0,2022-06-30T10:05:15.030+02:00
2022-06-30T10:05:21.786+02:00,5754.388582791667,-0.0141143798828125,-0.204681396484375,-0.9902191162109375,5754.378631791667,0.2327562744334743,-0.037490430666609,0.1054429863857631,-0.5720388293266296,0.2615762650966644,-0.4915146231651306,-0.03203235566616058,0.03467564284801483,0.0274692177772522,XArbitraryZVertical,0.05450487711627129,-0.01247358093542376,0.1149528213298032,0.9917961250291946,-0.03727347776293755,-0.1052477061748505,-0.9937472343444824,0,0,0,-1,-1,5752.726104125,running,2,2022-06-30T10:05:20.123+02:00,2022-06-30T08:20:05.567+02:00,1540,1.501556,0,0,1217.191,0,0,2022-06-30T10:05:15.030+02:00
2022-06-30T10:05:21.796+02:00,5754.398533791667,-0.02667236328125,-0.132476806640625,-0.9594879150390625,5754.388582791667,0.2285337564423449,-0.03443274087897397,0.09968500558151108,-0.6052089929580688,0.2535257935523987,-0.2776311039924622,-0.1276411414146423,0.001604177057743073,0.030609130859375,XArbitraryZVertical,0.05145007599764994,-0.0114022443941337,0.1130077916109676,0.9921955787024314,-0.03425503149628639,-0.0995199903845787,-0.9944457411766052,0,0,0,-1,-1,5752.726104125,running,2,2022-06-30T10:05:20.123+02:00,2022-06-30T08:20:05.567+02:00,1540,1.501556,0,0,1217.191,0,0,2022-06-30T10:05:15.030+02:00
2022-06-30T10:05:21.806+02:00,5754.408485791667,-0.09185791015625,-0.0915374755859375,-0.96240234375,5754.398533791667,0.2256528093706653,-0.03157262819918516,0.09295419579898545,-0.7769067883491516,0.2803345024585724,-0.3117221891880035,0.0173163115978241,-0.1118611693382263,0.004967570304870605,XArbitraryZVertical,0.04793455354720375,-0.01043816288496418,0.1117228378809027,0.9925278053029134,-0.03143110126256943,-0.09282039105892181,-0.9951866269111633,0,0,0,-1,-1,5752.726104125,running,2,2022-06-30T10:05:20.123+02:00,2022-06-30T08:20:05.567+02:00,1540,1.501556,0,0,1217.191,0,0,2022-06-30T10:05:15.030+02:00
2022-06-30T10:05:21.816+02:00,5754.418436791667,-0.0545806884765625,-0.0779571533203125,-0.988189697265625,5754.408485791667,0.2214459058657787,-0.02812743442891166,0.08465412531978996,-0.8916922211647034,0.3298913836479187,-0.4538617432117462,0.001350240781903267,-0.04792391508817673,0.03653699159622192,XArbitraryZVertical,0.04360370669440414,-0.009289469660945014,0.1097955376424602,0.9929538446087626,-0.0280230138450861,-0.08455305546522141,-0.9960248470306396,0,0,0,-1,-1,5752.726104125,running,2,2022-06-30T10:05:20.123+02:00,2022-06-30T08:20:05.567+02:00,1540,1.501556,0,0,1217.191,0,0,2022-06-30T10:05:15.030+02:00
2022-06-30T10:05:21.826+02:00,5754.428387791667,-0.0411224365234375,-0.0321502685546875,-0.990753173828125,5754.418436791667,0.2168431259013456,-0.02448286551234943,0.07589027421158011,-0.8791713118553162,0.3272631168365479,-0.4070179760456085,-0.06744836270809174,-0.0157201886177063,0.03442060947418213,XArbitraryZVertical,0.03903409968466992,-0.008055766363931665,0.107661617005991,0.9933883865969771,-0.02440995723009109,-0.07581745088100433,-0.9968228936195374,0,0,0,-1,-1,5752.726104125,running,2,2022-06-30T10:05:20.123+02:00,2022-06-30T08:20:05.567+02:00,1540,1.501556,0,0,1217.191,0,0,2022-06-30T10:05:15.030+02:00
2022-06-30T10:05:21.836+02:00,5754.438339791667,-0.0262908935546875,0.0284423828125,-1.001724243164062,5754.428387791667,0.2127889080058669,-0.02087368479172239,0.06753724998251491,-0.80521160364151,0.3462605178356171,-0.3784361481666565,-0.03375651314854622,-0.0104714035987854,0.009313225746154785,XArbitraryZVertical,0.03467714322690373,-0.006786578779012364,0.1057771405587019,0.9937619185507649,-0.02082458510994911,-0.06748592108488083,-0.997502863407135,0,0,0,-1,-1,5752.726104125,running,2,2022-06-30T10:05:20.123+02:00,2022-06-30T08:20:05.567+02:00,1540,1.501556,0,0,1217.191,0,0,2022-06-30T10:05:15.030+02:00
2022-06-30T10:05:21.846+02:00,5754.448290791667,-0.0048065185546875,0.060791015625,-1.000579833984375,5754.438339791667,0.2087949608219536,-0.01714941705148574,0.06032007287089121,-0.6463425159454346,0.3530059456825256,-0.400354415178299,-0.02400545589625835,0.02813305705785751,0.007281363010406494,XArbitraryZVertical,0.03088331533931641,-0.005381717459665369,0.1038995602295553,0.9940936682967706,-0.01711738854646683,-0.06028350070118904,-0.9980345368385315,0,0,0,-1,-1,5752.726104125,running,2,2022-06-30T10:05:20.123+02:00,2022-06-30T08:20:05.567+02:00,1540,1.501556,0,0,1217.191,0,0,2022-06-30T10:05:15.030+02:00
2022-06-30T10:05:21.856+02:00,5754.458241791667,-0.0027923583984375,0.0541534423828125,-0.999908447265625,5754.448290791667,0.2046197306270887,-0.01344112338321765,0.0549337815969505,-0.4437907636165619,0.3465712070465088,-0.4196487367153168,-0.01287085749208927,0.08334836363792419,-0.003322899341583252,XArbitraryZVertical,0.02800532655372038,-0.003878029402785652,0.101907035871462,0.9943921469673842,-0.01342044398188591,-0.05490615591406822,-0.9984013438224792,0,0,0,-1,-1,5752.726104125,running,2,2022-06-30T10:05:20.123+02:00,2022-06-30T08:20:05.567+02:00,1540,1.501556,0,0,1217.191,0,0,2022-06-30T10:05:15.030+02:00
2022-06-30T10:05:21.866+02:00,5754.468193791667,-0.0036773681640625,0.0182647705078125,-0.990203857421875,5754.458241791667,0.2004085095087514,-0.009854782590232454,0.0514881526374358,-0.2626498937606812,0.3363062739372253,-0.4212895333766937,0.005034638568758965,0.1122562438249588,-0.001953542232513428,XArbitraryZVertical,0.02610455151520725,-0.002325994531122726,0.09987608522421797,0.994654680049663,-0.009841563180088997,-0.05146540701389313,-0.9986262917518616,0,0,0,-1,-1,5752.726104125,running,2,2022-06-30T10:05:20.123+02:00,2022-06-30T08:20:05.567+02:00,1540,1.501556,0,0,1217.191,0,0,2022-06-30T10:05:15.030+02:00
2022-06-30T10:05:21.876+02:00,5754.478144791667,0.001556396484375,-0.029296875,-0.9731292724609375,5754.468193791667,0.1961774681457953,-0.006330834136387417,0.04946709004896838,-0.1629313081502914,0.3351379632949829,-0.423883467912674,0.003530284389853477,0.1036001890897751,-0.001151680946350098,XArbitraryZVertical,0.02492192031746279,-0.0007272981560638193,0.09782316554608157,0.9948914616290661,-0.006323047913610935,-0.04944691807031631,-0.9987567663192749,0,0,0,-1,-1,5752.726104125,running,2,2022-06-30T10:05:20.123+02:00,2022-06-30T08:20:05.567+02:00,1540,1.501556,0,0,1217.191,0,0,2022-06-30T10:05:15.030+02:00
2022-06-30T10:05:21.886+02:00,5754.488095791667,0.011749267578125,-0.06317138671875,-0.9659881591796875,5754.478144791667,0.1919341107815276,-0.002779003976063921,0.04786958132114792,-0.1703742444515228,0.3434396982192993,-0.4212569296360016,-0.0009019556455314159,0.06611589342355728,0.008646786212921143,XArbitraryZVertical,0.02395546607653363,0.0009104944262129506,0.09575918305534356,0.9951157847023305,-0.002775816945359111,-0.04785130172967911,-0.9988505840301514,0,0,0,-1,-1,5752.726104125,running,2,2022-06-30T10:05:20.123+02:00,2022-06-30T08:20:05.567+02:00,1540,1.501556,0,0,1217.191,0,0,2022-06-30T10:05:15.030+02:00
2022-06-30T10:05:21.896+02:00,5754.498047791667,0.02532958984375,-0.06732177734375,-0.96527099609375,5754.488095791667,0.1878136687710737,0.0008599380065043736,0.04586814153496167,-0.2365719079971313,0.3544936776161194,-0.4072303175926208,0.0006969594396650791,0.01655500754714012,0.0258185863494873,XArbitraryZVertical,0.02279071204931951,0.002578275206627777,0.09375402376875398,0.9953311730380962,0.0008590334327891469,-0.04585206136107445,-0.9989478588104248,0,0,0,-1,-1,5752.726104125,running,2,2022-06-30T10:05:20.123+02:00,2022-06-30T08:20:05.567+02:00,1540,1.501556,0,0,1217.191,0,0,2022-06-30T10:05:15.030+02:00
2022-06-30T10:05:21.905+02:00,5754.507998791667,0.0332794189453125,-0.0523223876953125,-0.97552490234375,5754.498047791667,0.1838197422590118,0.00454204645828393,0.04302621659635556,-0.3278290033340454,0.3547981977462769,-0.3962463438510895,0.007211037911474705,-0.02015862613916397,0.03307604789733887,XArbitraryZVertical,0.02121221312737527,0.004235239977840283,0.09180770212868448,0.9955417393778716,0.004537827335298061,-0.04301294311881065,-0.9990642070770264,0,0,0,-1,-1,5752.726104125,running,2,2022-06-30T10:05:20.123+02:00,2022-06-30T08:20:05.567+02:00,1540,1.501556,0,0,1217.191,0,0,2022-06-30T10:05:15.030+02:00
2022-06-30T10:05:21.915+02:00,5754.517949791667,0.0347900390625,-0.0296630859375,-0.98126220703125,5754.507998791667,0.1799689622385205,0.008162537878372315,0.03943933441655518,-0.3802197575569153,0.3465304374694824,-0.3817078769207001,0.01717308908700943,-0.02789284661412239,0.03391808271408081,XArbitraryZVertical,0.01927176302448825,0.005835895045246302,0.0899250165592331,0.9957450404001013,0.008156100288033485,-0.03942910954356194,-0.9991890788078308,0,0,0,-1,-1,5752.726104125,running,2,2022-06-30T10:05:20.123+02:00,2022-06-30T08:20:05.567+02:00,1540,1.501556,0,0,1217.191,0,0,2022-06-30T10:05:15.030+02:00
2022-06-30T10:05:21.925+02:00,5754.527901791667,0.03021240234375,-0.018707275390625,-0.98504638671875,5754.517949791667,0.1762685890163203,0.01171281827648171,0.03555385440639676,-0.3848290741443634,0.3452419936656952,-0.3705568611621857,0.02157386764883995,-0.0167762003839016,0.02377462387084961,XArbitraryZVertical,0.01719129391520536,0.0073973429661272,0.08810851580229413,0.9959351158724792,0.01170514803379774,-0.03554636612534523,-0.9992994666099548,0,0,0,-1,-1,5752.726104125,running,2,2022-06-30T10:05:20.123+02:00,2022-06-30T08:20:05.567+02:00,1540,1.501556,0,0,1217.191,0,0,2022-06-30T10:05:15.030+02:00
2022-06-30T10:05:21.935+02:00,5754.537852791667,0.0306854248046875,-0.0172119140625,-0.992523193359375,5754.527901791667,0.1726394679460631,0.0152005706267196,0.03166371516609784,-0.3822535276412964,0.335503876209259,-0.3676606714725494,0.01959727145731449,0.001995157450437546,0.01812112331390381,XArbitraryZVertical,0.0151166460396972,0.008935774989199181,0.08631915876501337,0.9961127367048513,0.01519236620515585,-0.03165842592716217,-0.999383270740509,0,0,0,-1,-1,5752.726104125,running,2,2022-06-30T10:05:20.123+02:00,2022-06-30T08:20:05.567+02:00,1540,1.501556,0,0,1217.191,0,0,2022-06-30T10:05:15.030+02:00
2022-06-30T10:05:21.945+02:00,5754.547803791667,0.03173828125,-0.00909423828125,-0.9918975830078125,5754.537852791667,0.169107191576758,0.01858424267960945,0.0277690957537862,-0.3888311684131622,0.326033353805542,-0.3483510613441467,0.01163599453866482,0.009058065712451935,0.01439547538757324,XArbitraryZVertical,0.01304924408624805,0.01043040152046548,0.08456964872733974,0.9962774869412243,0.01857600919902325,-0.02776552736759186,-0.9994418621063232,0,0,0,-1,-1,5752.726104125,running,2,2022-06-30T10:05:20.123+02:00,2022-06-30T08:20:05.567+02:00,1540,1.501556,0,0,1217.191,0,0,2022-06-30T10:05:15.030+02:00
2022-06-30T10:05:21.955+02:00,5754.557755791667,0.0333251953125,-0.0016021728515625,-0.982757568359375,5754.547803791667,0.165821518138283,0.02182704920746221,0.023656638514396,-0.4209664463996887,0.3158473074436188,-0.3286170363426208,0.00886581651866436,0.006442330777645111,0.006958842277526855,XArbitraryZVertical,0.01088297883628717,0.01185454806065615,0.08293370958401519,0.9964252016960536,0.0218192096799612,-0.02365443296730518,-0.9994820356369019,0,0,0,-1,-1,5752.726104125,running,2,2022-06-30T10:05:20.123+02:00,2022-06-30T08:20:05.567+02:00,1540,1.501556,0,0,1217.191,0,0,2022-06-30T10:05:15.030+02:00
2022-06-30T10:05:21.965+02:00,5754.567706791667,0.03741455078125,0.0079345703125,-0.9790802001953125,5754.557755791667,0.1627202387898334,0.02505793413915066,0.01920686487995482,-0.4499481022357941,0.3248612284660339,-0.3156258463859558,0.006687192246317863,0.01011125929653645,0.007604122161865234,XArbitraryZVertical,0.00855260589891769,0.01326702024261492,0.08138017531680723,0.9965582024278448,0.0250506903976202,-0.01920568384230137,-0.9995017051696777,0,0,0,-1,-1,5752.726104125,running,2,2022-06-30T10:05:20.123+02:00,2022-06-30T08:20:05.567+02:00,1540,1.501556,0,0,1217.191,0,0,2022-06-30T10:05:15.030+02:00
2022-06-30T10:05:21.975+02:00,5754.577657791667,0.0386505126953125,0.0271759033203125,-0.9890899658203125,5754.567706791667,0.1597460056052867,0.02828449421465227,0.01455816328408116,-0.4598779678344727,0.3195487558841705,-0.3041545450687408,0.005047069862484932,0.01295528840273619,0.01673656702041626,XArbitraryZVertical,0.006126769341307948,0.01467703590077979,0.07988061440894223,0.9966776187521172,0.02827772684395313,-0.01455764938145876,-0.9994940757751465,0,0,0,-1,-1,5752.726104125,running,2,2022-06-30T10:05:20.123+02:00,2022-06-30T08:20:05.567+02:00,1540,1.501556,0,0,1217.191,0,0,2022-06-30T10:05:15.030+02:00
2022-06-30T10:05:21.985+02:00,5754.587609791667,0.0439300537109375,0.049652099609375,-1.000762939453125,5754.577657791667,0.1569485771552101,0.03148977896061569,0.01004714216097421,-0.4205394983291626,0.323164165019989,-0.2839817106723785,0.005931168794631958,0.01798135414719582,0.02037358283996582,XArbitraryZVertical,0.003773234366797254,0.0160893530126854,0.07846190891738153,0.9967801751029718,0.03148298710584641,-0.01004697289317846,-0.9994537830352783,0,0,0,-1,-1,5752.726104125,running,2,2022-06-30T10:05:20.123+02:00,2022-06-30T08:20:05.567+02:00,1540,1.501556,0,0,1217.191,0,0,2022-06-30T10:05:15.030+02:00
2022-06-30T10:05:21.995+02:00,5754.597560791667,0.048065185546875,0.05596923828125,-1.012557983398438,5754.587609791667,0.1543210087903073,0.03459419795739985,0.0061052476253943,-0.3487523794174194,0.3025270700454712,-0.2699836194515228,0.004063460975885391,0.03328092396259308,0.01029312610626221,XArbitraryZVertical,0.001709824901380094,0.01747996433904333,0.07712470698311064,0.9968668251885952,0.03458665311336517,-0.006105209700763226,-0.9993830323219299,0,0,0,-1,-1,5752.726104125,running,2,2022-06-30T10:05:20.123+02:00,2022-06-30T08:20:05.567+02:00,1540,1.501556,0,0,1217.191,0,0,2022-06-30T10:05:15.030+02:00
2022-06-30T10:05:22.005+02:00,5754.607511791667,0.0536041259765625,0.0485687255859375,-1.01116943359375,5754.597560791667,0.1517640234698428,0.03747757768170797,0.002923937471613488,-0.2670996487140656,0.2818405628204346,-0.2640893161296844,0.006461009383201599,0.05257584154605865,-0.00146937370300293,XArbitraryZVertical,3.701738928388739e-05,0.01879456085442031,0.0758231272682942,0.9969442400822127,0.03746864572167397,-0.002923933323472738,-0.9992935061454773,0,0,0,-1,-1,5752.726104125,running,2,2022-06-30T10:05:20.123+02:00,2022-06-30T08:20:05.567+02:00,1540,1.501556,0,0,1217.191,0,0,2022-06-30T10:05:15.030+02:00
2022-06-30T10:05:22.015+02:00,5754.617463791667,0.04736328125,0.0317840576171875,-0.999420166015625,5754.607511791667,0.1492607225534125,0.04014532032910062,0.0004250486026558692,-0.2169584631919861,0.2648788690567017,-0.2572394013404846,0.00793026015162468,0.05639409273862839,-0.01336377859115601,XArbitraryZVertical,-0.001284648843325269,0.02003128389156765,0.07455032984398799,0.9970152801219851,0.04013453423976898,-0.0004250485799275339,-0.9991942048072815,0,0,0,-1,-1,5752.726104125,running,2,2022-06-30T10:05:20.123+02:00,2022-06-30T08:20:05.567+02:00,1540,1.501556,0,0,1217.191,0,0,2022-06-30T10:05:15.030+02:00
2022-06-30T10:05:22.025+02:00,5754.627414791667,0.045562744140625,0.0204620361328125,-0.989410400390625,5754.617463791667,0.1468111183977364,0.04272522331964281,-0.001728502173824257,-0.1951712071895599,0.2629561722278595,-0.2547209560871124,0.01089157164096832,0.04684003069996834,-0.01208353042602539,XArbitraryZVertical,-0.002428333182230426,0.02124008283527425,0.07330447433141721,0.9970805411995152,0.04271216318011284,0.001728501287288964,-0.9990859031677246,0,0,0,-1,-1,5752.726104125,running,2,2022-06-30T10:05:20.123+02:00,2022-06-30T08:20:05.567+02:00,1540,1.501556,0,0,1217.191,0,0,2022-06-30T10:05:15.030+02:00
2022-06-30T10:05:22.035+02:00,5754.637365791667,0.039581298828125,0.0155029296875,-0.9845428466796875,5754.627414791667,0.1444140428207366,0.04525312768736878,-0.00383449336002954,-0.2032579034566879,0.2549688220024109,-0.2434352785348892,0.002125538885593414,0.0279493797570467,-0.0004512667655944824,XArbitraryZVertical,-0.00354399480210316,0.0224273523616106,0.07208242398559182,0.997140261437048,0.04523735120892525,0.003834483912214637,-0.9989688992500305,0,0,0,-1,-1,5752.726104125,running,2,2022-06-30T10:05:20.123+02:00,2022-06-30T08:20:05.567+02:00,1540,1.501556,0,0,1217.191,0,0,2022-06-30T10:05:15.030+02:00
2022-06-30T10:05:22.045+02:00,5754.647317791667,0.0406494140625,0.015655517578125,-0.982513427734375,5754.637365791667,0.1421470019863819,0.04771315173746676,-0.006065377962855896,-0.2206476032733917,0.2506251335144043,-0.2326449155807495,-0.00213182345032692,0.01439649984240532,0.009433150291442871,XArbitraryZVertical,-0.00471814176161935,0.02357867872454492,0.07092098489835517,0.9971920603669184,0.04769417271018028,0.006065340712666512,-0.9988435506820679,0,0,0,-1,-1,5752.726104125,running,2,2022-06-30T10:05:20.123+02:00,2022-06-30T08:20:05.567+02:00,1540,1.501556,0,0,1217.191,0,0,2022-06-30T10:05:15.030+02:00
2022-06-30T10:05:22.068+02:00,5754.657268791667,0.049072265625,0.021392822265625,-0.987396240234375,5754.647317791667,0.1400225169105856,0.05015502094239452,-0.008405224036111639,-0.2261776626110077,0.2498754411935806,-0.2154526114463806,-0.01055131852626801,0.007097608409821987,0.01416438817977905,XArbitraryZVertical,-0.005945060411363935,0.02471933558040497,0.06982634113404275,0.9972351637559512,0.05013222619891167,0.008405124768614769,-0.9987072348594666,0,0,0,-1,-1,5752.726104125,running,2,2022-06-30T10:05:20.123+02:00,2022-06-30T08:20:05.567+02:00,1540,1.501556,0,0,1217.191,0,0,2022-06-30T10:05:15.030+02:00
2022-06-30T10:05:22.070+02:00,5754.667219791667,0.0578155517578125,0.0261077880859375,-0.995391845703125,5754.657268791667,0.1380566606078169,0.0525142731149261,-0.01080263643530256,-0.228512242436409,0.2344274371862411,-0.2064090222120285,-0.01183805614709854,0.004852894693613052,0.01604974269866943,XArbitraryZVertical,-0.007197383190192919,0.02581879327699222,0.06880726944192955,0.9972699301077667,0.0524870753288269,0.0108024263754487,-0.9985631704330444,0,0,0,-1,-1,5752.726104125,running,2,2022-06-30T10:05:20.123+02:00,2022-06-30T08:20:05.567+02:00,1540,1.501556,0,0,1217.191,0,0,2022-06-30T10:05:15.030+02:00
2022-06-30T10:05:22.075+02:00,5754.677171791667,0.063629150390625,0.0282440185546875,-0.9982757568359375,5754.667219791667,0.1362129592654052,0.05472618196017757,-0.01316533219279026,-0.2212311625480652,0.2241721302270889,-0.1890918165445328,-0.005622252821922302,0.008227674290537834,0.01102012395858765,XArbitraryZVertical,-0.008426789502248471,0.0268478499814934,0.0678472069337524,0.9972988611366689,0.05469412729144096,0.01316495146602392,-0.9984163641929626,0,0,0,-1,-1,5752.726104125,running,2,2022-06-30T10:05:20.123+02:00,2022-06-30T08:20:05.567+02:00,1540,1.501556,0,0,1217.191,0,0,2022-06-30T10:05:15.030+02:00
2022-06-30T10:05:22.085+02:00,5754.687122791667,0.06549072265625,0.027099609375,-0.997711181640625,5754.677171791667,0.1344899288197424,0.05681298669619289,-0.01546901088495542,-0.21675805747509,0.2032697200775146,-0.182589203119278,0.001039527356624603,0.01063919719308615,0.002875268459320068,XArbitraryZVertical,-0.009622275064485035,0.02781813307869607,0.06694599711471373,0.9973223144555057,0.05677563697099686,0.01546839438378811,-0.9982671141624451,0,0,0,-1,-1,5752.726104125,running,2,2022-06-30T10:05:20.123+02:00,2022-06-30T08:20:05.567+02:00,1540,1.501556,0,0,1217.191,0,0,2022-06-30T10:05:15.030+02:00
2022-06-30T10:05:22.095+02:00,5754.697073791667,0.0640716552734375,0.0266265869140625,-0.9980010986328125,5754.687122791667,0.1327937590487538,0.05867118831636318,-0.0176844709625275,-0.2047834247350693,0.1859740763902664,-0.1820397824048996,0.005000397562980652,0.01056027226150036,-0.0001525282859802246,XArbitraryZVertical,-0.01076484643650858,0.02867920581435699,0.06605818346596291,0.9973454710750078,0.05862836539745331,0.01768354885280132,-0.9981232285499573,0,0,0,-1,-1,5752.726104125,running,2,2022-06-30T10:05:20.123+02:00,2022-06-30T08:20:05.567+02:00,1540,1.501556,0,0,1217.191,0,0,2022-06-30T10:05:15.030+02:00
2022-06-30T10:05:22.104+02:00,5754.707025791667,0.0570526123046875,0.02618408203125,-0.9974822998046875,5754.697073791667,0.1311745484689928,0.0603956569115562,-0.01978590984025966,-0.1934343576431274,0.1745190918445587,-0.1697158813476562,0.005143195390701294,0.007314790040254593,0.0002701878547668457,XArbitraryZVertical,-0.0118457983995285,0.02947876592690769,0.06520912057975155,0.9973657705586843,0.06034713238477707,0.01978461816906929,-0.9979813694953918,0,0,0,-1,-1,5752.726104125,running,2,2022-06-30T10:05:20.123+02:00,2022-06-30T08:20:05.567+02:00,1540,1.501556,0,0,1217.191,0,0,2022-06-30T10:05:15.030+02:00
2022-06-30T10:05:22.114+02:00,5754.716976791667,0.0559844970703125,0.020416259765625,-0.99127197265625,5754.707025791667,0.1296504087017893,0.06208432922518068,-0.02178289835833736,-0.1868667453527451,0.1779122352600098,-0.161702424287796,0.002041533589363098,0.004845213145017624,-0.0001645088195800781,XArbitraryZVertical,-0.01287358437424924,0.03026495805848519,0.06440743639529788,0.9973816044605668,0.06202973425388336,0.02178117632865906,-0.9978365898132324,0,0,0,-1,-1,5752.726104125,running,2,2022-06-30T10:05:20.123+02:00,2022-06-30T08:20:05.567+02:00,1540,1.501556,0,0,1217.191,0,0,2022-06-30T10:05:15.030+02:00
2022-06-30T10:05:22.124+02:00,5754.726927791667,0.0721282958984375,0.0163421630859375,-0.9849700927734375,5754.716976791667,0.1281029949424205,0.06377729042447865,-0.02375566808673039,-0.1894213706254959,0.1779167354106903,-0.1706090420484543,-0.006663858890533447,0.002430450171232224,0.0002030134201049805,XArbitraryZVertical,-0.01388780144431014,0.03105574769524129,0.06359273619947091,0.9973959469334115,0.06371608376502991,0.02375343441963196,-0.9976853132247925,0,0,0,-1,-1,5752.726104125,running,2,2022-06-30T10:05:20.123+02:00,2022-06-30T08:20:05.567+02:00,1540,1.501556,0,0,1217.191,0,0,2022-06-30T10:05:15.030+02:00
2022-06-30T10:05:22.134+02:00,5754.736879791667,0.086395263671875,0.0202484130859375,-0.98150634765625,5754.726927791667,0.1265334137609689,0.06546730260044031,-0.0258665353266699,-0.213119775056839,0.1742016226053238,-0.1680731773376465,-0.009414553642272949,-0.005447588860988617,0.006251990795135498,XArbitraryZVertical,-0.01496914401014863,0.03184235687408408,0.06276293388599588,0.9974080825196343,0.06539866328239441,0.0258636511862278,-0.9975239634513855,0,0,0,-1,-1,5752.726104125,running,2,2022-06-30T10:05:20.123+02:00,2022-06-30T08:20:05.567+02:00,1540,1.501556,0,0,1217.191,0,0,2022-06-30T10:05:15.030+02:00
2022-06-30T10:05:22.144+02:00,5754.746830791667,0.0931396484375,0.034698486328125,-0.9920501708984375,5754.736879791667,0.1250895006736935,0.06711406897881869,-0.02816139604778822,-0.2194215506315231,0.1707333475351334,-0.15253846347332,0.005090802907943726,-0.01181570999324322,0.01238298416137695,XArbitraryZVertical,-0.01614163689344154,0.03260224068812915,0.0619911201017266,0.9974134886325038,0.06703710556030273,0.02815767377614975,-0.9973530769348145,0,0,0,-1,-1,5752.726104125,running,2,2022-06-30T10:05:20.123+02:00,2022-06-30T08:20:05.567+02:00,1540,1.501556,0,0,1217.191,0,0,2022-06-30T10:05:15.030+02:00
2022-06-30T10:05:22.154+02:00,5754.756781791667,0.0936431884765625,0.051239013671875,-0.9930267333984375,5754.746830791667,0.1237196238399739,0.06859377945731061,-0.03037126746702384,-0.1970304846763611,0.1388015151023865,-0.1513198018074036,0.01788648962974548,-0.0101183857768774,0.0156819224357605,XArbitraryZVertical,-0.01726667854732904,0.03328243947771146,0.06125718520700485,0.9974175276362963,0.06850839406251907,0.03036659769713879,-0.9971882700920105,0,0,0,-1,-1,5752.726104125,running,2,2022-06-30T10:05:20.123+02:00,2022-06-30T08:20:05.567+02:00,1540,1.501556,0,0,1217.191,0,0,2022-06-30T10:05:15.030+02:00
2022-06-30T10:05:22.164+02:00,5754.766733791667,0.085662841796875,0.050933837890625,-0.99761962890625,5754.756781791667,0.1223133708478762,0.06979432705099328,-0.03228141138291824,-0.160254955291748,0.1232178583741188,-0.1562179923057556,0.02343790978193283,0.002422478049993515,0.004995465278625488,XArbitraryZVertical,-0.01823217706664075,0.03383446474458558,0.06051132881928579,0.9974272874413366,0.06970134377479553,0.03227580338716507,-0.997045636177063,0,0,0,-1,-1,5752.726104125,running,2,2022-06-30T10:05:20.123+02:00,2022-06-30T08:20:05.567+02:00,1540,1.501556,0,0,1217.191,0,0,2022-06-30T10:05:15.030+02:00
2022-06-30T10:05:22.174+02:00,5754.776684791667,0.0820159912109375,0.0382232666015625,-1.002471923828125,5754.766733791667,0.120852849952227,0.07094847639319471,-0.03384202469498016,-0.1309252977371216,0.1281092911958694,-0.1590486615896225,0.02279442548751831,0.0174032486975193,0.003886282444000244,XArbitraryZVertical,-0.0190202187208112,0.03437583642173876,0.05974401445940213,0.9974403233149496,0.07084837555885315,0.03383556380867958,-0.9969130754470825,0,0,0,-1,-1,5752.726104125,running,2,2022-06-30T10:05:20.123+02:00,2022-06-30T08:20:05.567+02:00,1540,1.501556,0,0,1217.191,0,0,2022-06-30T10:05:15.030+02:00
2022-06-30T10:05:22.184+02:00,5754.786635791667,0.0835418701171875,0.0280303955078125,-1.000717163085938,5754.776684791667,0.119417145853033,0.07211253957993172,-0.03517018569186429,-0.1136724203824997,0.1237668395042419,-0.1497565507888794,0.01365695893764496,0.01577069982886314,-0.000835418701171875,XArbitraryZVertical,-0.01969223305212179,0.03493003375231613,0.05899234267661757,0.9974527647067418,0.0720055028796196,0.03516293689608574,-0.9967842102050781,0,0,0,-1,-1,5752.726104125,running,2,2022-06-30T10:05:20.123+02:00,2022-06-30T08:20:05.567+02:00,1540,1.501556,0,0,1217.191,0,0,2022-06-30T10:05:15.030+02:00
2022-06-30T10:05:22.194+02:00,5754.796587791667,0.0890655517578125,0.024566650390625,-0.999237060546875,5754.786635791667,0.1180617665225007,0.07325240095005868,-0.03643859465910203,-0.1248707473278046,0.123574286699295,-0.1393971145153046,0.008877277374267578,0.001792531460523605,-0.005815744400024414,XArbitraryZVertical,-0.02033433805901211,0.03547406547118179,0.05828129546004653,0.9974625279788071,0.07313832640647888,0.03643053025007248,-0.9966562390327454,0,0,0,-1,-1,5752.726104125,running,2,2022-06-30T10:05:20.123+02:00,2022-06-30T08:20:05.567+02:00,1540,1.501556,0,0,1217.191,0,0,2022-06-30T10:05:15.030+02:00
2022-06-30T10:05:22.204+02:00,5754.806538791667,0.0945587158203125,0.025909423828125,-0.997283935546875,5754.796587791667,0.1168263173809344,0.07440195820440645,-0.0379914861916502,-0.1619588583707809,0.1244914531707764,-0.1321801543235779,0.009261786937713623,-0.009952154010534286,-0.004203319549560547,XArbitraryZVertical,-0.02111998264188413,0.03601412931800903,0.05762377764747566,0.9974650248968789,0.07427969574928284,0.03798234835267067,-0.996513843536377,0,0,0,-1,-1,5752.726104125,running,2,2022-06-30T10:05:20.123+02:00,2022-06-30T08:20:05.567+02:00,1540,1.501556,0,0,1217.191,0,0,2022-06-30T10:05:15.030+02:00
2022-06-30T10:05:22.214+02:00,5754.816488500001,0.0903472900390625,0.029632568359375,-0.9936065673828125,5754.806538791667,0.115656994247423,0.07555574621040885,-0.03983986188998245,-0.1857704520225525,0.1244379281997681,-0.1289244443178177,0.01364118605852127,-0.01526287570595741,-0.002881288528442383,XArbitraryZVertical,-0.02205359640319927,0.03654787135888877,0.05699252741855378,0.9974616832246163,0.07542398571968079,0.0398293249309063,-0.9963557720184326,0,0,0,-1,-1,5752.726104125,running,2,2022-06-30T10:05:20.123+02:00,2022-06-30T08:20:05.567+02:00,1540,1.501556,0,0,1217.191,0,0,2022-06-30T10:05:15.030+02:00
2022-06-30T10:05:22.224+02:00,5754.8264405,0.085205078125,0.0336456298828125,-0.9944915771484375,5754.816488500001,0.1145221162473048,0.07673221468157988,-0.04185878640497687,-0.1970252245664597,0.122733362019062,-0.1295574754476547,0.01796854287385941,-0.01593734323978424,-0.001099824905395508,XArbitraryZVertical,-0.023072852024745,0.03708862557772128,0.05637372009545005,0.9974538724700285,0.07658979296684265,0.04184656217694283,-0.9961841702461243,0,0,0,-1,-1,5752.726104125,running,2,2022-06-30T10:05:20.123+02:00,2022-06-30T08:20:05.567+02:00,1540,1.501556,0,0,1217.191,0,0,2022-06-30T10:05:15.030+02:00
2022-06-30T10:05:22.234+02:00,5754.8363915,0.0767974853515625,0.0382232666015625,-1.000885009765625,5754.8264405,0.1134202149285711,0.07782981727665279,-0.04382464708053194,-0.1743492037057877,0.114201121032238,-0.1209959462285042,0.01267028599977493,-0.01417826116085052,0.002408981323242188,XArbitraryZVertical,-0.02406338381274588,0.03759227300652773,0.05577214230707693,0.9974454077907412,0.07767661660909653,0.04381062090396881,-0.9960155487060547,0,0,0,-1,-1,5752.726104125,running,2,2022-06-30T10:05:20.123+02:00,2022-06-30T08:20:05.567+02:00,1540,1.501556,0,0,1217.191,0,0,2022-06-30T10:05:15.030+02:00
2022-06-30T10:05:22.244+02:00,5754.8463425,0.0700836181640625,0.02960205078125,-0.9932708740234375,5754.8363915,0.1123179795799324,0.07881442566631366,-0.04554197082099547,-0.1514046788215637,0.1025820523500443,-0.1261874139308929,0.006553471088409424,-0.01188080385327339,0.001370489597320557,XArbitraryZVertical,-0.02492623427120216,0.03804768740459194,0.0551757423771117,0.9974400430503477,0.07865121960639954,0.04552622884511948,-0.9958621263504028,0,0,0,-1,-1,5752.726104125,running,2,2022-06-30T10:05:20.123+02:00,2022-06-30T08:20:05.567+02:00,1540,1.501556,0,0,1217.191,0,0,2022-06-30T10:05:15.030+02:00
2022-06-30T10:05:22.254+02:00,5754.8562945,0.0653839111328125,0.0209808349609375,-0.972259521484375,5754.8463425,0.1110513404985755,0.0796461392167791,-0.04715767934232803,-0.151155412197113,0.08778180181980133,-0.1521005034446716,-0.002676405012607574,-0.008917141705751419,-0.005163311958312988,XArbitraryZVertical,-0.02573052279117761,0.03843273634782641,0.05450052573527949,0.9974420613213634,0.07947351038455963,0.0471402034163475,-0.9957217574119568,0,0,0,-1,-1,5752.726104125,running,2,2022-06-30T10:05:20.123+02:00,2022-06-30T08:20:05.567+02:00,1540,1.501556,0,0,1217.191,0,0,2022-06-30T10:05:15.030+02:00
2022-06-30T10:05:22.264+02:00,5754.8662455,0.055328369140625,0.0214080810546875,-0.963653564453125,5754.8562945,0.1096304155730779,0.08041008744465639,-0.04881713591746693,-0.15810726583004,0.09121149778366089,-0.1559514701366425,-0.01014453917741776,-0.01919590309262276,0.002310454845428467,XArbitraryZVertical,-0.02655128775405659,0.03878580906788342,0.05374766621771226,0.9974477076456834,0.08022776991128922,0.04879774898290634,-0.9955813884735107,0,0,0,-1,-1,5752.726104125,running,2,2022-06-30T10:05:20.123+02:00,2022-06-30T08:20:05.567+02:00,1540,1.501556,0,0,1217.191,0,0,2022-06-30T10:05:15.030+02:00
2022-06-30T10:05:22.274+02:00,5754.876197500001,0.0540924072265625,0.0258941650390625,-0.95977783203125,5754.8662455,0.1082366258122174,0.08125734357922161,-0.05057115181850624,-0.1703157275915146,0.1029184907674789,-0.1559005975723267,-0.01568065583705902,-0.02956897020339966,0.02316665649414062,XArbitraryZVertical,-0.02742140508946741,0.03917859090765166,0.05300455625571144,0.9974486461990215,0.08106418699026108,0.05054960027337074,-0.9954262375831604,0,0,0,-1,-1,5752.726104125,running,2,2022-06-30T10:05:20.123+02:00,2022-06-30T08:20:05.567+02:00,1540,1.501556,0,0,1217.191,0,0,2022-06-30T10:05:15.030+02:00
2022-06-30T10:05:22.284+02:00,5754.886148500001,0.0576324462890625,0.02587890625,-0.9649505615234375,5754.876197500001,0.1068002462066788,0.08232868015464428,-0.05134228722360409,-0.1855765730142593,0.1040543615818024,-0.1640656590461731,-0.02679936587810516,-0.02991186454892159,0.03164607286453247,XArbitraryZVertical,-0.02780581236991325,0.03971163312580041,0.05225714301011452,0.9974563196086599,0.08212734013795853,0.05131973326206207,-0.9952996373176575,0,0,0,-1,-1,5752.726104125,running,2,2022-06-30T10:05:20.123+02:00,2022-06-30T08:20:05.567+02:00,1540,1.501556,0,0,1217.191,0,0,2022-06-30T10:05:15.030+02:00
2022-06-30T10:05:22.294+02:00,5754.896099500001,0.0592498779296875,0.0228271484375,-0.9688720703125,5754.886148500001,0.1052794692363557,0.08359027202973988,-0.0520152801598122,-0.1932062655687332,0.1010042428970337,-0.1771023571491241,-0.02928800880908966,-0.02609787136316299,0.03538274765014648,XArbitraryZVertical,-0.02814369379922474,0.04034392729787554,0.05146665067148393,0.9974625581766438,0.08338003605604172,0.05199182778596878,-0.9951605796813965,0,0,0,-1,-1,5752.726104125,running,2,2022-06-30T10:05:20.123+02:00,2022-06-30T08:20:05.567+02:00,1540,1.501556,0,0,1217.191,0,0,2022-06-30T10:05:15.030+02:00
2022-06-30T10:05:22.303+02:00,5754.906050500001,0.0618743896484375,0.01629638671875,-0.9597320556640625,5754.896099500001,0.1036314013790661,0.08505287989322315,-0.05290914481204493,-0.2209954857826233,0.1018743962049484,-0.1950433105230331,-0.02719942480325699,-0.02700576558709145,0.03004026412963867,XArbitraryZVertical,-0.02859321800724858,0.04107295617390878,0.05060454381083639,0.9974641403949224,0.08483149856328964,0.05288446322083473,-0.9949908852577209,0,0,0,-1,-1,5752.726104125,running,2,2022-06-30T10:05:20.123+02:00,2022-06-30T08:20:05.567+02:00,1540,1.501556,0,0,1217.191,0,0,2022-06-30T10:05:15.030+02:00
2022-06-30T10:05:22.314+02:00,5754.9160025,0.0602264404296875,0.008209228515625,-0.949737548828125,5754.906050500001,0.1018342011527808,0.08619444880615058,-0.05437896729060113,-0.2650178074836731,0.09483193606138229,-0.2110310643911362,-0.02671101689338684,-0.03152523562312126,0.02594280242919922,XArbitraryZVertical,-0.02931763569965837,0.04162978514224298,0.04965928076050576,0.9974675619780725,0.0859605073928833,0.05435217171907425,-0.9948148727416992,0,0,0,-1,-1,5752.726104125,running,2,2022-06-30T10:05:20.123+02:00,2022-06-30T08:20:05.567+02:00,1540,1.501556,0,0,1217.191,0,0,2022-06-30T10:05:15.030+02:00
2022-06-30T10:05:22.323+02:00,5754.9259535,0.05413818359375,0.0063018798828125,-0.94342041015625,5754.9160025,0.09992490582528468,0.08701784721480676,-0.05652362266231641,-0.3169598281383514,0.0963936448097229,-0.2254362255334854,-0.02489527314901352,-0.04019735381007195,0.03489327430725098,XArbitraryZVertical,-0.03036743022977314,0.04201365188028621,0.04864692152647688,0.9974699635280444,0.08676927536725998,0.05649352818727493,-0.9946253299713135,0,0,0,-1,-1,5752.726104125,running,2,2022-06-30T10:05:20.123+02:00,2022-06-30T08:20:05.567+02:00,1540,1.501556,0,0,1217.191,0,0,2022-06-30T10:05:15.030+02:00
2022-06-30T10:05:22.333+02:00,5754.9359055,0.0458221435546875,-0.0016326904296875,-0.9410858154296875,5754.9259535,0.09787994670038161,0.08778429878876404,-0.06014052639177004,-0.3604329824447632,0.08970165252685547,-0.2504606246948242,-0.02728703618049622,-0.05189526081085205,0.04461091756820679,XArbitraryZVertical,-0.03214637455944764,0.04233629620377306,0.04753358253827921,0.9974541755616935,0.08751309663057327,0.06010428071022034,-0.9943485260009766,0,0,0,-1,-1,5752.726104125,running,2,2022-06-30T10:05:20.123+02:00,2022-06-30T08:20:05.567+02:00,1540,1.501556,0,0,1217.191,0,0,2022-06-30T10:05:15.030+02:00
2022-06-30T10:05:22.343+02:00,5754.9458565,0.0343475341796875,-0.0059814453125,-0.921112060546875,5754.9359055,0.09556035641765244,0.08843147554969481,-0.06401612821458091,-0.3743867576122284,0.07376407831907272,-0.2807108759880066,-0.0339975580573082,-0.05767074227333069,0.05063170194625854,XArbitraryZVertical,-0.03404489718692803,0.04260125902554961,0.04627793737428389,0.9974389096971317,0.08813536167144775,0.06397241353988647,-0.9940521717071533,0,0,0,-1,-1,5752.726104125,running,2,2022-06-30T10:05:20.123+02:00,2022-06-30T08:20:05.567+02:00,1540,1.501556,0,0,1217.191,0,0,2022-06-30T10:05:15.030+02:00
2022-06-30T10:05:22.353+02:00,5754.9558075,0.0261688232421875,-0.023468017578125,-0.921112060546875,5754.9458565,0.09292702775529431,0.0889107213527193,-0.06823189391044218,-0.4219561517238617,0.06369386613368988,-0.3252855539321899,-0.04276525229215622,-0.0698118656873703,0.05264651775360107,XArbitraryZVertical,-0.03610178269588264,0.04278422183654427,0.04485970187833498,0.9974235678436628,0.08858701586723328,0.06817896664142609,-0.9937323331832886,0,0,0,-1,-1,5752.726104125,running,2,2022-06-30T10:05:20.123+02:00,2022-06-30T08:20:05.567+02:00,1540,1.501556,0,0,1217.191,0,0,2022-06-30T10:05:15.030+02:00
2022-06-30T10:05:22.363+02:00,5754.965759500001,0.017181396484375,-0.0253448486328125,-0.934234619140625,5754.9558075,0.08989540308387642,0.08939808057369128,-0.0729812068168799,-0.4728761911392212,0.08187800645828247,-0.3613659739494324,-0.05469423532485962,-0.07889809459447861,0.07224321365356445,XArbitraryZVertical,-0.03841569412536577,0.04297169583313375,0.0432292633408647,0.9974010520753682,0.08904139697551727,0.07291644066572189,-0.9933553338050842,0,0,0,-1,-1,5752.726104125,running,2,2022-06-30T10:05:20.123+02:00,2022-06-30T08:20:05.567+02:00,1540,1.501556,0,0,1217.191,0,0,2022-06-30T10:05:15.030+02:00
2022-06-30T10:05:22.374+02:00,5754.975710500001,0.019439697265625,-0.014129638671875,-0.94970703125,5754.965759500001,0.08664341386032996,0.09005556387890225,-0.07834460252034366,-0.5445541143417358,0.108823336660862,-0.3853118121623993,-0.06348959356546402,-0.1017327234148979,0.0717807412147522,XArbitraryZVertical,-0.04103380072466861,0.04324151080397719,0.04146993159751732,0.9973598075084058,0.08965802937746048,0.07826448231935501,-0.9928928017616272,0,0,0,-1,-1,5752.726104125,running,2,2022-06-30T10:05:20.123+02:00,2022-06-30T08:20:05.567+02:00,1540,1.501556,0,0,1217.191,0,0,2022-06-30T10:05:15.030+02:00
2022-06-30T10:05:22.383+02:00,5754.985661500001,0.02008056640625,0.0051116943359375,-0.9554901123046875,5754.975710500001,0.08329193102135146,0.09090210683481025,-0.08459668411298103,-0.6521124839782715,0.1138708591461182,-0.3967891037464142,-0.07327131181955338,-0.1098408773541451,0.0580751895904541,XArbitraryZVertical,-0.04409539453309211,0.04359670199578139,0.03963412633797142,0.9972883953523898,0.09045233577489853,0.08449581265449524,-0.9923098683357239,0,0,0,-1,-1,5752.726104125,running,2,2022-06-30T10:05:20.123+02:00,2022-06-30T08:20:05.567+02:00,1540,1.501556,0,0,1217.191,0,0,2022-06-30T10:05:15.030+02:00
2022-06-30T10:05:22.393+02:00,5754.9956135,0.0145416259765625,0.0084075927734375,-0.95465087890625,5754.985661500001,0.07991156207963043,0.09167613047898393,-0.0920900308291875,-0.7812227606773376,0.11344875395298,-0.4163140654563904,-0.07172052562236786,-0.1060897782444954,0.04187411069869995,XArbitraryZVertical,-0.04777212840282048,0.04390022209805176,0.03775345370073448,0.9971786529530847,0.09115985780954361,0.09195992350578308,-0.9915812015533447,0,0,0,-1,-1,5752.726104125,running,2,2022-06-30T10:05:20.123+02:00,2022-06-30T08:20:05.567+02:00,1540,1.501556,0,0,1217.191,0,0,2022-06-30T10:05:15.030+02:00
2022-06-30T10:05:22.403+02:00,5755.0055645,0.013702392578125,0.013763427734375,-0.9477996826171875,5754.9956135,0.07643038895633796,0.09250507839537535,-0.1008631720503273,-0.9064456224441528,0.129729837179184,-0.4375501573085785,-0.07182352989912033,-0.09558076411485672,0.03517365455627441,XArbitraryZVertical,-0.05208377680865269,0.04421964242854635,0.03578744308514293,0.9970211587116024,0.09190373122692108,0.1006922423839569,-0.9906638264656067,0,0,0,-1,-1,5752.726104125,running,2,2022-06-30T10:05:20.123+02:00,2022-06-30T08:20:05.567+02:00,1540,1.501556,0,0,1217.191,0,0,2022-06-30T10:05:15.030+02:00
2022-06-30T10:05:22.413+02:00,5755.0155155,0.0095672607421875,0.0121917724609375,-0.939117431640625,5755.0055645,0.07283836336903507,0.09337431595774283,-0.1110157308153749,-1.059501528739929,0.1237033605575562,-0.4717973470687866,-0.07812346518039703,-0.1023804619908333,0.03486377000808716,XArbitraryZVertical,-0.0570788622034074,0.04454955503437811,0.03372792231811854,0.9968047657402967,0.09266471862792969,0.1107878386974335,-0.9895147085189819,0,0,0,-1,-1,5752.726104125,running,2,2022-06-30T10:05:20.123+02:00,2022-06-30T08:20:05.567+02:00,1540,1.501556,0,0,1217.191,0,0,2022-06-30T10:05:15.030+02:00
2022-06-30T10:05:22.423+02:00,5755.025467500001,0.0034942626953125,0.0155487060546875,-0.947418212890625,5755.0155155,0.06893203961675433,0.09413354769311634,-0.1228278206503936,-1.215912818908691,0.131205752491951,-0.5290080904960632,-0.07958442717790604,-0.108755998313427,0.04027247428894043,XArbitraryZVertical,-0.06288915884847131,0.04482020597462798,0.03147018590382733,0.9965168273034821,0.09328644722700119,0.1225192099809647,-0.9880722165107727,0,0,0,-1,-1,5752.726104125,running,2,2022-06-30T10:05:20.123+02:00,2022-06-30T08:20:05.567+02:00,1540,1.501556,0,0,1217.191,0,0,2022-06-30T10:05:15.030+02:00
2022-06-30T10:05:22.433+02:00,5755.035418500001,-0.02093505859375,0.027984619140625,-0.93701171875,5755.025467500001,0.06470929860906637,0.09489363327474476,-0.1360559082479112,-1.351050615310669,0.1405792832374573,-0.5535906553268433,-0.08430876582860947,-0.123444989323616,0.04718375205993652,XArbitraryZVertical,-0.06939419532690162,0.04509808326691042,0.02901553691285506,0.9961469127163896,0.09387565404176712,0.1356365382671356,-0.9863012433052063,0,0,0,-1,-1,5752.726104125,running,2,2022-06-30T10:05:20.123+02:00,2022-06-30T08:20:05.567+02:00,1540,1.501556,0,0,1217.191,0,0,2022-06-30T10:05:15.030+02:00
2022-06-30T10:05:22.443+02:00,5755.045369500001,-0.0347442626953125,0.041778564453125,-0.9353790283203125,5755.035418500001,0.06031644859718915,0.09581768019340998,-0.1506847590925585,-1.481318473815918,0.1862728595733643,-0.6012008190155029,-0.09109313786029816,-0.1345666795969009,0.03671520948410034,XArbitraryZVertical,-0.07659053977964714,0.04546584330465543,0.02643047569495521,0.995674763116922,0.09458703547716141,0.1501151621341705,-0.9841334819793701,0,0,0,-1,-1,5752.726104125,running,2,2022-06-30T10:05:20.123+02:00,2022-06-30T08:20:05.567+02:00,1540,1.501556,0,0,1217.191,0,0,2022-06-30T10:05:15.030+02:00
2022-06-30T10:05:22.453+02:00,5755.0553215,-0.033294677734375,0.0767669677734375,-0.931793212890625,5755.045369500001,0.05568641831707996,0.0972728421497447,-0.1664458537659922,-1.588571429252625,0.2569462656974792,-0.6057335138320923,-0.1167127341032028,-0.1376939713954926,0.04450613260269165,XArbitraryZVertical,-0.08434520200473973,0.04611871516156248,0.02367061491076644,0.9950873802367404,0.09577731043100357,0.1656783819198608,-0.9815179109573364,0,0,0,-1,-1,5752.726104125,running,2,2022-06-30T10:05:20.123+02:00,2022-06-30T08:20:05.567+02:00,1540,1.501556,0,0,1217.191,0,0,2022-06-30T10:05:15.030+02:00
2022-06-30T10:05:22.463+02:00,5755.0652725,-0.0329437255859375,0.106689453125,-0.94598388671875,5755.0553215,0.05125388476151398,0.0992447954299677,-0.1833355113912268,-1.691722512245178,0.3009170889854431,-0.6000996232032776,-0.1321660727262497,-0.1405318379402161,0.04302370548248291,XArbitraryZVertical,-0.09266240127609547,0.04703482806017408,0.02094609268363003,0.9943654733487307,0.09742144495248795,0.1823101937770844,-0.9784027934074402,0,0,0,-1,-1,5752.726104125,running,2,2022-06-30T10:05:20.123+02:00,2022-06-30T08:20:05.567+02:00,1540,1.501556,0,0,1217.191,0,0,2022-06-30T10:05:15.030+02:00
2022-06-30T10:05:22.473+02:00,5755.0752235,-0.02227783203125,0.1471099853515625,-0.9570465087890625,5755.0652725,0.04682605938823264,0.1015397169963603,-0.2009590055892202,-1.73670756816864,0.3324827253818512,-0.6241487860679626,-0.1326204538345337,-0.122842401266098,0.04303526878356934,XArbitraryZVertical,-0.1013358615369998,0.04813291263189009,0.01817362896064076,0.993521074156468,0.09932540357112885,0.1996091306209564,-0.9748285412788391,0,0,0,-1,-1,5752.726104125,running,2,2022-06-30T10:05:20.123+02:00,2022-06-30T08:20:05.567+02:00,1540,1.501556,0,0,1217.191,0,0,2022-06-30T10:05:15.030+02:00
2022-06-30T10:05:22.483+02:00,5755.0851755,-0.0240325927734375,0.17559814453125,-0.9922637939453125,5755.0752235,0.0421202511812628,0.1038960776355804,-0.2189580145830319,-1.759213924407959,0.3480910360813141,-0.6670746803283691,-0.1341772228479385,-0.1105233877897263,0.02487671375274658,XArbitraryZVertical,-0.1101757603373851,0.0493045996825023,0.01523220128754651,0.9925716345790823,0.1012331321835518,0.2172126322984695,-0.9708607196807861,0,0,0,-1,-1,5752.726104125,running,2,2022-06-30T10:05:20.123+02:00,2022-06-30T08:20:05.567+02:00,1540,1.501556,0,0,1217.191,0,0,2022-06-30T10:05:15.030+02:00
2022-06-30T10:05:22.493+02:00,5755.0951265,-0.027557373046875,0.1873626708984375,-1.013107299804688,5755.0851755,0.0369877138566457,0.1061717962365047,-0.2369403296896617,-1.721612572669983,0.352506548166275,-0.7104727625846863,-0.1252898275852203,-0.08761976659297943,0.00954049825668335,XArbitraryZVertical,-0.1189809149221476,0.05049738704430734,0.01206693590872205,0.9915381894910296,0.1030116453766823,0.2347295433282852,-0.9665871262550354,0,0,0,-1,-1,5752.726104125,running,2,2022-06-30T10:05:20.123+02:00,2022-06-30T08:20:05.567+02:00,1540,1.501556,0,0,1217.191,0,0,2022-06-30T10:05:15.030+02:00
2022-06-30T10:05:22.503+02:00,5755.1050775,-0.0503082275390625,0.1992950439453125,-1.004638671875,5755.0951265,0.03137944763071017,0.1083667889393133,-0.2543952843478202,-1.642845392227173,0.3737694919109344,-0.7484703063964844,-0.1287068724632263,-0.07606226205825806,-0.03012537956237793,XArbitraryZVertical,-0.1274959626506366,0.0517254348780617,0.008670272083246347,0.9904515537033524,0.1046739220619202,0.2516601979732513,-0.9621385335922241,0,0,0,-1,-1,5752.726104125,running,2,2022-06-30T10:05:20.123+02:00,2022-06-30T08:20:05.567+02:00,1540,1.501556,0,0,1217.191,0,0,2022-06-30T10:05:15.030+02:00
2022-06-30T10:05:22.512+02:00,5755.115029500001,-0.0674591064453125,0.2071685791015625,-1.012252807617188,5755.1050775,0.02534637365206842,0.1108000355147611,-0.2712401382051753,-1.595190286636353,0.4439736306667328,-0.7833553552627563,-0.1340885758399963,-0.0805639922618866,-0.05557584762573242,XArbitraryZVertical,-0.1356817123134883,0.05314803637581436,0.005051306399366344,0.9893130394592748,0.1065308302640915,0.2679264545440674,-0.9575315117835999,0,0,0,-1,-1,5752.726104125,running,2,2022-06-30T10:05:20.123+02:00,2022-06-30T08:20:05.567+02:00,1540,1.501556,0,0,1217.191,0,0,2022-06-30T10:05:15.030+02:00
2022-06-30T10:05:22.522+02:00,5755.124980500001,-0.0622711181640625,0.228515625,-1.024826049804688,5755.115029500001,0.01901332027645198,0.1139459664080988,-0.2878301980678508,-1.582340240478516,0.5508386492729187,-0.8018487095832825,-0.1593307703733444,-0.0845775306224823,-0.05199474096298218,XArbitraryZVertical,-0.1437153831497876,0.0549897550109112,0.001226764574291015,0.9880893295100563,0.1090221926569939,0.2838723659515381,-0.9526440501213074,0,0,0,-1,-1,5752.726104125,running,2,2022-06-30T10:05:20.123+02:00,2022-06-30T08:20:05.567+02:00,1540,1.501556,0,0,1217.191,0,0,2022-06-30T10:05:15.030+02:00
2022-06-30T10:05:22.532+02:00,5755.134931500001,-0.0441436767578125,0.2480316162109375,-1.044662475585938,5755.124980500001,0.01255897234070844,0.1180040901203565,-0.3044736927791454,-1.591021537780762,0.6457246541976929,-0.8190069198608398,-0.1797748506069183,-0.09262275695800781,-0.06488257646560669,XArbitraryZVertical,-0.1517486158836524,0.0573340488471891,-0.002746244539447245,0.9867510445554383,0.1123153865337372,0.2997911274433136,-0.9473703503608704,0,0,0,-1,-1,5752.726104125,running,2,2022-06-30T10:05:20.123+02:00,2022-06-30T08:20:05.567+02:00,1540,1.501556,0,0,1217.191,0,0,2022-06-30T10:05:15.030+02:00
2022-06-30T10:05:22.542+02:00,5755.1448835,-0.02484130859375,0.2666473388671875,-1.06524658203125,5755.134931500001,0.0057865580898278,0.1227004450843993,-0.3211507426785691,-1.572229027748108,0.7219588160514832,-0.8699846863746643,-0.1784066557884216,-0.08714327216148376,-0.08308720588684082,XArbitraryZVertical,-0.1597598308022228,0.06006101352148559,-0.006952177461853079,0.9853026464062495,0.1161351948976517,0.3156586885452271,-0.9417389631271362,0,0,0,-1,-1,5752.726104125,running,2,2022-06-30T10:05:20.123+02:00,2022-06-30T08:20:05.567+02:00,1540,1.501556,0,0,1217.191,0,0,2022-06-30T10:05:15.030+02:00
2022-06-30T10:05:22.559+02:00,5755.1548345,-0.0243682861328125,0.268402099609375,-1.0772705078125,5755.1448835,-0.001609325860224845,0.1278029545670933,-0.3376049341853708,-1.534613728523254,0.7923387289047241,-0.934924304485321,-0.1644045859575272,-0.08319678902626038,-0.1088072061538696,XArbitraryZVertical,-0.1676083397194379,0.06308524375741868,-0.01151986854810611,0.9837658181343981,0.1202605590224266,0.3312281668186188,-0.9358553886413574,0,0,0,-1,-1,5752.726104125,running,2,2022-06-30T10:05:20.123+02:00,2022-06-30T08:20:05.567+02:00,1540,1.501556,0,0,1217.191,0,0,2022-06-30T10:05:15.030+02:00
2022-06-30T10:05:22.562+02:00,5755.1647855,-0.03240966796875,0.2462158203125,-1.08477783203125,5755.1548345,-0.00975932660913824,0.1333484796204778,-0.3538535288062204,-1.498555779457092,0.8898874521255493,-1.017307996749878,-0.1495580524206161,-0.07986804842948914,-0.1355300545692444,XArbitraryZVertical,-0.1752919636064369,0.06644094123677184,-0.01651897391918752,0.9821331021436452,0.1247164085507393,0.3465151488780975,-0.9297166466712952,0,0,0,-1,-1,5752.726104125,running,2,2022-06-30T10:05:20.123+02:00,2022-06-30T08:20:05.567+02:00,1540,1.501556,0,0,1217.191,0,0,2022-06-30T10:05:15.030+02:00
2022-06-30T10:05:22.573+02:00,5755.1747375,-0.034637451171875,0.22833251953125,-1.079681396484375,5755.1647855,-0.0188993549359462,0.1395419472290707,-0.3698937937211892,-1.467308878898621,1.012888073921204,-1.115184545516968,-0.1540509313344955,-0.09311455488204956,-0.1539676785469055,XArbitraryZVertical,-0.1827911839384687,0.07025589637445506,-0.02208529007011326,0.9803896432094494,0.1296823173761368,0.3615164160728455,-0.9233030080795288,0,0,0,-1,-1,5752.726104125,running,2,2022-06-30T10:05:20.123+02:00,2022-06-30T08:20:05.567+02:00,1540,1.501556,0,0,1217.191,0,0,2022-06-30T10:05:15.030+02:00
2022-06-30T10:05:22.582+02:00,5755.1846885,-0.034759521484375,0.203155517578125,-1.078842163085938,5755.1747375,-0.0289269081589399,0.1465555823763165,-0.3861211813187089,-1.500119686126709,1.153161406517029,-1.198062419891357,-0.1676902025938034,-0.1303823888301849,-0.1683319807052612,XArbitraryZVertical,-0.1902894108691444,0.07461200954922152,-0.02820144251032881,0.9784823949852229,0.1352802067995071,0.3765980005264282,-0.9164459705352783,0,0,0,-1,-1,5752.726104125,running,2,2022-06-30T10:05:20.123+02:00,2022-06-30T08:20:05.567+02:00,1540,1.501556,0,0,1217.191,0,0,2022-06-30T10:05:15.030+02:00
2022-06-30T10:05:22.592+02:00,5755.1946395,-0.029449462890625,0.2011566162109375,-1.078628540039062,5755.1846885,-0.03971760051411277,0.1547214354819149,-0.4030157019950548,-1.553236722946167,1.33020293712616,-1.288047432899475,-0.1763961464166641,-0.1638619005680084,-0.1707875728607178,XArbitraryZVertical,-0.1980053179190817,0.07966740414210095,-0.03486251930876973,0.9763358985391942,0.1417583674192429,0.3921942114830017,-0.9088940024375916,0,0,0,-1,-1,5752.726104125,running,2,2022-06-30T10:05:20.123+02:00,2022-06-30T08:20:05.567+02:00,1540,1.501556,0,0,1217.191,0,0,2022-06-30T10:05:15.030+02:00
2022-06-30T10:05:22.602+02:00,5755.204591500001,-0.0201416015625,0.23797607421875,-1.0716552734375,5755.1946395,-0.05117020447265221,0.1642708675293698,-0.4207763233223651,-1.64497447013855,1.517777323722839,-1.351375818252563,-0.1840282678604126,-0.2053138911724091,-0.1783580780029297,XArbitraryZVertical,-0.2060147706935182,0.08553237875775729,-0.04206210934923599,0.9738957951092024,0.1492684185504913,0.408469170331955,-0.9004842638969421,0,0,0,-1,-1,5752.726104125,running,2,2022-06-30T10:05:20.123+02:00,2022-06-30T08:20:05.567+02:00,1540,1.501556,0,0,1217.191,0,0,2022-06-30T10:05:15.030+02:00
2022-06-30T10:05:22.612+02:00,5755.214542500001,0.01141357421875,0.2844390869140625,-1.061859130859375,5755.204591500001,-0.06282810205101574,0.1754090639916542,-0.4399109550476938,-1.781097650527954,1.707917094230652,-1.389796137809753,-0.1873454749584198,-0.2247025370597839,-0.1877228617668152,XArbitraryZVertical,-0.214555436781562,0.09226626397180893,-0.04963630613989677,0.9710762705659828,0.1578956842422485,0.4258588850498199,-0.8909057974815369,0,0,0,-1,-1,5752.726104125,running,2,2022-06-30T10:05:20.123+02:00,2022-06-30T08:20:05.567+02:00,1540,1.501556,0,0,1217.191,0,0,2022-06-30T10:05:15.030+02:00
2022-06-30T10:05:22.622+02:00,5755.224493500001,0.042510986328125,0.3505859375,-1.037139892578125,5755.214542500001,-0.07429132924895027,0.1881920453459305,-0.4603865110788288,-1.893920660018921,1.868543267250061,-1.383625149726868,-0.1877461373806,-0.2063185572624207,-0.1915922164916992,XArbitraryZVertical,-0.2236023734233862,0.09985168249987275,-0.05742060559576866,0.9678504597895544,0.1676042228937149,0.4442944228649139,-0.8800632357597351,0,0,0,-1,-1,5752.726104125,running,2,2022-06-30T10:05:20.123+02:00,2022-06-30T08:20:05.567+02:00,1540,1.501556,0,0,1217.191,0,0,2022-06-30T10:05:15.030+02:00
2022-06-30T10:05:22.632+02:00,5755.2344455,0.0554962158203125,0.3898468017578125,-1.008834838867188,5755.224493500001,-0.08522348831490113,0.202461216658471,-0.4821255906289497,-2.004889965057373,2.005723237991333,-1.388596653938293,-0.1667466759681702,-0.1792246699333191,-0.193945050239563,XArbitraryZVertical,-0.2331165670310872,0.1081643770549102,-0.06525943489402761,0.9642086628767758,0.1781599521636963,0.4636635184288025,-0.8679142594337463,0,0,0,-1,-1,5752.726104125,running,2,2022-06-30T10:05:20.123+02:00,2022-06-30T08:20:05.567+02:00,1540,1.501556,0,0,1217.191,0,0,2022-06-30T10:05:15.030+02:00
2022-06-30T10:05:22.642+02:00,5755.2443965,0.0680084228515625,0.40386962890625,-0.95477294921875,5755.2344455,-0.09611945896122394,0.2178381769394298,-0.5050085240457035,-2.091784715652466,2.125487565994263,-1.455658316612244,-0.1466306000947952,-0.1332292258739471,-0.1826526522636414,XArbitraryZVertical,-0.2430057187856855,0.1170663014513509,-0.07336825959178309,0.9601358377011671,0.1891412883996964,0.4838148951530457,-0.854487419128418,0,0,0,-1,-1,5752.726104125,running,2,2022-06-30T10:05:20.123+02:00,2022-06-30T08:20:05.567+02:00,1540,1.501556,0,0,1217.191,0,0,2022-06-30T10:05:15.030+02:00
2022-06-30T10:05:22.652+02:00,5755.2543475,0.062225341796875,0.4276275634765625,-0.9205322265625,5755.2443965,-0.1072688047899749,0.2341425322558025,-0.5292365074848481,-2.223299026489258,2.270927667617798,-1.523610472679138,-0.1447725594043732,-0.115027904510498,-0.1691956520080566,XArbitraryZVertical,-0.2533332983938223,0.1265011282747123,-0.08189361143975171,0.9555695634248051,0.200268492102623,0.5048744678497314,-0.83963942527771,0,0,0,-1,-1,5752.726104125,running,2,2022-06-30T10:05:20.123+02:00,2022-06-30T08:20:05.567+02:00,1540,1.501556,0,0,1217.191,0,0,2022-06-30T10:05:15.030+02:00
2022-06-30T10:05:22.662+02:00,5755.264299500001,0.07147216796875,0.4775238037109375,-0.872833251953125,5755.2543475,-0.1179993181675467,0.2520635524668174,-0.5552588853197434,-2.416476964950562,2.455952882766724,-1.514369010925293,-0.1439253985881805,-0.1232938766479492,-0.1318618655204773,XArbitraryZVertical,-0.264301639609765,0.1367076541341036,-0.09064878902190179,0.950388623084151,0.2119335532188416,0.5271633267402649,-0.8229113221168518,0,0,0,-1,-1,5752.726104125,running,2,2022-06-30T10:05:20.123+02:00,2022-06-30T08:20:05.567+02:00,1540,1.501556,0,0,1217.191,0,0,2022-06-30T10:05:15.030+02:00
2022-06-30T10:05:22.672+02:00,5755.274250500001,0.1011810302734375,0.571136474609375,-0.8586273193359375,5755.264299500001,-0.127282128343191,0.2724506164045595,-0.5832591338050234,-2.603227376937866,2.660049915313721,-1.450873374938965,-0.1623789072036743,-0.1231198310852051,-0.1166477203369141,XArbitraryZVertical,-0.2760008706458783,0.1479228389145696,-0.09931499487464571,0.9444992907588029,0.2246039807796478,0.5507471561431885,-0.8038846850395203,0,0,0,-1,-1,5752.726104125,running,2,2022-06-30T10:05:20.123+02:00,2022-06-30T08:20:05.567+02:00,1540,1.501556,0,0,1217.191,0,0,2022-06-30T10:05:15.030+02:00
2022-06-30T10:05:22.682+02:00,5755.284201500001,0.166717529296875,0.68096923828125,-0.8015594482421875,5755.274250500001,-0.134580234049893,0.2957767269908062,-0.6125299075880062,-2.693077325820923,2.850055932998657,-1.355162620544434,-0.1670182794332504,-0.09741562604904175,-0.09016668796539307,XArbitraryZVertical,-0.288086915653468,0.1602265330352405,-0.107736023647857,0.937937285349331,0.2384901940822601,0.5749392509460449,-0.782666802406311,0,0,0,-1,-1,5755.2761455,unknown,2,2022-06-30T10:05:22.673+02:00,2022-06-30T08:20:05.567+02:00,1540,1.501556,0,0,1217.191,0,0,2022-06-30T10:05:15.030+02:00
2022-06-30T10:05:22.692+02:00,5755.2941535,0.2266082763671875,0.767486572265625,-0.76080322265625,5755.284201500001,-0.1400563633121856,0.3214247399477306,-0.641967188735075,-2.652954578399658,2.949970006942749,-1.290598034858704,-0.1518446207046509,-0.02763593196868896,-0.09872621297836304,XArbitraryZVertical,-0.3000461073562921,0.1732676282188666,-0.1159046500781188,0.9308687852115708,0.2530253827571869,0.5987721681594849,-0.7599013447761536,0,0,0,-1,-1,5755.2761455,unknown,2,2022-06-30T10:05:22.673+02:00,2022-06-30T08:20:05.567+02:00,1540,1.501556,0,0,1217.191,0,0,2022-06-30T10:05:15.030+02:00
2022-06-30T10:05:22.702+02:00,5755.3041045,0.2602081298828125,0.8022613525390625,-0.7312774658203125,5755.2941535,-0.1445147255111991,0.3480739202884435,-0.6703958093431367,-2.505140066146851,2.950560331344604,-1.255804300308228,-0.1005509197711945,0.05967283248901367,-0.06497383117675781,XArbitraryZVertical,-0.3113359210669836,0.1864859201819706,-0.1239599417367519,0.923540420186665,0.2672682106494904,0.6212961673736572,-0.7365859150886536,0,0,0,-1,-1,5755.2761455,unknown,2,2022-06-30T10:05:22.673+02:00,2022-06-30T08:20:05.567+02:00,1540,1.501556,0,0,1217.191,0,0,2022-06-30T10:05:15.030+02:00
2022-06-30T10:05:22.712+02:00,5755.3140565,0.2783355712890625,0.805877685546875,-0.71820068359375,5755.3041045,-0.1486072028067313,0.374837031430764,-0.6972518065898997,-2.3126220703125,2.965082168579102,-1.24214494228363,-0.05406379699707031,0.1253730654716492,-0.04742157459259033,XArbitraryZVertical,-0.3216988984200539,0.1995465836574701,-0.1320213475483554,0.9161120974086628,0.2806718349456787,0.6421133279800415,-0.7133819460868835,0,0,0,-1,-1,5755.2761455,unknown,2,2022-06-30T10:05:22.673+02:00,2022-06-30T08:20:05.567+02:00,1540,1.501556,0,0,1217.191,0,0,2022-06-30T10:05:15.030+02:00
2022-06-30T10:05:22.722+02:00,5755.3240075,0.3169708251953125,0.815032958984375,-0.6835174560546875,5755.3140565,-0.1522504650610747,0.4022160998571009,-0.7222288284603011,-2.139567375183105,3.017108201980591,-1.154957413673401,-0.03351682424545288,0.141202449798584,-0.04082340002059937,XArbitraryZVertical,-0.3309816555164333,0.2126593221257763,-0.1400852806409189,0.9086270902316983,0.2937247157096863,0.6610586643218994,-0.6904543042182922,0,0,0,-1,-1,5755.2761455,unknown,2,2022-06-30T10:05:22.673+02:00,2022-06-30T08:20:05.567+02:00,1540,1.501556,0,0,1217.191,0,0,2022-06-30T10:05:15.030+02:00
2022-06-30T10:05:22.731+02:00,5755.3339585,0.3522796630859375,0.8227081298828125,-0.6536865234375,5755.3240075,-0.1542266068691254,0.4311927882465949,-0.7456689154428197,-2.058660507202148,3.082766056060791,-1.017420291900635,-0.02870848774909973,0.1274141073226929,-0.05080938339233398,XArbitraryZVertical,-0.3394179984677832,0.2260522362986856,-0.1477772545002062,0.9010314942691768,0.3070438504219055,0.6784633994102478,-0.6673915982246399,0,0,0,-1,-1,5755.2761455,unknown,2,2022-06-30T10:05:22.673+02:00,2022-06-30T08:20:05.567+02:00,1540,1.501556,0,0,1217.191,0,0,2022-06-30T10:05:15.030+02:00
2022-06-30T10:05:22.741+02:00,5755.343910500001,0.40606689453125,0.8320465087890625,-0.621673583984375,5755.3339585,-0.1542382059902875,0.4621104611822502,-0.768111706126561,-2.019874334335327,3.129381656646729,-0.9283702373504639,-0.003686845302581787,0.1202543973922729,-0.03973066806793213,XArbitraryZVertical,-0.3472848736726303,0.2397908894185608,-0.1550814783000082,0.8932207646087168,0.32065749168396,0.6947783827781677,-0.6437870860099792,0,0,0,-1,-1,5755.2761455,unknown,2,2022-06-30T10:05:22.673+02:00,2022-06-30T08:20:05.567+02:00,1540,1.501556,0,0,1217.191,0,0,2022-06-30T10:05:15.030+02:00
2022-06-30T10:05:22.751+02:00,5755.353861500001,0.4541473388671875,0.822174072265625,-0.576019287109375,5755.343910500001,-0.1523384628971614,0.4945560138205841,-0.7899359906467741,-1.999842882156372,3.124661207199097,-0.8401956558227539,0.0181841254234314,0.1123997569084167,-0.03413653373718262,XArbitraryZVertical,-0.3548012311886448,0.2536551537980463,-0.1620079782340565,0.8851715352054087,0.3340953886508942,0.7103081941604614,-0.6195502877235413,0,0,0,-1,-1,5755.2761455,unknown,2,2022-06-30T10:05:22.673+02:00,2022-06-30T08:20:05.567+02:00,1540,1.501556,0,0,1217.191,0,0,2022-06-30T10:05:15.030+02:00
2022-06-30T10:05:22.761+02:00,5755.363812500001,0.480072021484375,0.82415771484375,-0.508575439453125,5755.353861500001,-0.1485246188346589,0.5281799238274258,-0.8109111756689625,-1.934616565704346,3.091330051422119,-0.7478402256965637,0.05891835689544678,0.1071311831474304,-0.02670657634735107,XArbitraryZVertical,-0.3619163068668774,0.2674564351919711,-0.1684914820430263,0.876980193311993,0.3471483588218689,0.7249151468276978,-0.5949673056602478,0,0,0,-1,-1,5755.2761455,unknown,2,2022-06-30T10:05:22.673+02:00,2022-06-30T08:20:05.567+02:00,1540,1.501556,0,0,1217.191,0,0,2022-06-30T10:05:15.030+02:00
2022-06-30T10:05:22.771+02:00,5755.3737645,0.49420166015625,0.8332672119140625,-0.4454498291015625,5755.363812500001,-0.1429337893620637,0.5628239151026914,-0.830743992204482,-1.878877401351929,3.055089235305786,-0.6606323719024658,0.09434226155281067,0.08374065160751343,-0.005706787109375,XArbitraryZVertical,-0.3685234745227267,0.2811298431807356,-0.174543427263861,0.8687296478142083,0.3598049581050873,0.7384332418441772,-0.5703129172325134,0,0,0,-1,-1,5755.2761455,unknown,2,2022-06-30T10:05:22.673+02:00,2022-06-30T08:20:05.567+02:00,1540,1.501556,0,0,1217.191,0,0,2022-06-30T10:05:15.030+02:00
2022-06-30T10:05:22.781+02:00,5755.3837155,0.5049896240234375,0.823455810546875,-0.399169921875,5755.3737645,-0.1353768425257319,0.5985580977190046,-0.8498034687993044,-1.887135028839111,2.996938943862915,-0.5873768925666809,0.1081199645996094,0.07300686836242676,0.03679060935974121,XArbitraryZVertical,-0.3748369864137492,0.2946421995797395,-0.1801436175485147,0.8603671506560778,0.3719519674777985,0.7511506676673889,-0.5453664064407349,0,0,0,-1,-1,5755.2761455,unknown,2,2022-06-30T10:05:22.673+02:00,2022-06-30T08:20:05.567+02:00,1540,1.501556,0,0,1217.191,0,0,2022-06-30T10:05:15.030+02:00
2022-06-30T10:05:22.791+02:00,5755.3936665,0.5141754150390625,0.823089599609375,-0.3589019775390625,5755.3837155,-0.1255685975698239,0.6354754488906207,-0.8683714110559015,-1.908060789108276,2.937632083892822,-0.5124104619026184,0.1107197403907776,0.06998932361602783,0.0745006799697876,XArbitraryZVertical,-0.381044274302636,0.3079445282620506,-0.1852386883868982,0.851858076931391,0.3834817707538605,0.7632777690887451,-0.5199508666992188,0,0,0,-1,-1,5755.2761455,unknown,2,2022-06-30T10:05:22.673+02:00,2022-06-30T08:20:05.567+02:00,1540,1.501556,0,0,1217.191,0,0,2022-06-30T10:05:15.030+02:00
2022-06-30T10:05:22.801+02:00,5755.4036185,0.5322265625,0.8271026611328125,-0.30670166015625,5755.3936665,-0.1128301202856254,0.6741426087609551,-0.8865564562505459,-2.000560283660889,2.868363857269287,-0.404037207365036,0.1104249656200409,0.04855597019195557,0.09464085102081299,XArbitraryZVertical,-0.3872779812095917,0.321107772118095,-0.1896923497212426,0.8431622668756337,0.3945645689964294,0.7748997211456299,-0.4938111305236816,0,0,0,-1,-1,5755.2761455,unknown,2,2022-06-30T10:05:22.673+02:00,2022-06-30T08:20:05.567+02:00,1540,1.501556,0,0,1217.191,0,0,2022-06-30T10:05:15.030+02:00
2022-06-30T10:05:22.811+02:00,5755.4135695,0.537628173828125,0.8564300537109375,-0.2451171875,5755.4036185,-0.09624109152634702,0.7151924534830947,-0.9043630924247983,-2.085385799407959,2.780272960662842,-0.2784944474697113,0.1087917685508728,0.03705775737762451,0.1078079342842102,XArbitraryZVertical,-0.3936707238818047,0.3341679755008216,-0.1932888608479057,0.83426281453882,0.4053834974765778,0.7860316038131714,-0.466710239648819,0,0,0,-1,-1,5755.2761455,unknown,2,2022-06-30T10:05:22.673+02:00,2022-06-30T08:20:05.567+02:00,1540,1.501556,0,0,1217.191,0,0,2022-06-30T10:05:15.030+02:00
2022-06-30T10:05:22.821+02:00,5755.4235205,0.5404510498046875,0.902130126953125,-0.1866302490234375,5755.4135695,-0.07573364122890347,0.7585807198673202,-0.9216557025550181,-2.190985202789307,2.682604789733887,-0.1916534006595612,0.1163942515850067,0.0304989218711853,0.1320534944534302,XArbitraryZVertical,-0.4002333889338185,0.3470381167170365,-0.1960320103877695,0.8251965551963317,0.4158321917057037,0.7966035604476929,-0.4387555718421936,0,0,0,-1,-1,5755.2761455,unknown,2,2022-06-30T10:05:22.673+02:00,2022-06-30T08:20:05.567+02:00,1540,1.501556,0,0,1217.191,0,0,2022-06-30T10:05:15.030+02:00
2022-06-30T10:05:22.831+02:00,5755.433472500001,0.5515594482421875,0.942962646484375,-0.1277618408203125,5755.4235205,-0.05167085664068045,0.8040103666164177,-0.9387081585043049,-2.264818906784058,2.578583478927612,-0.1623386591672897,0.1121446490287781,0.04963433742523193,0.1648151874542236,XArbitraryZVertical,-0.4070981029822816,0.3595897611043609,-0.1981162386872089,0.8159143550127542,0.4254834055900574,0.8067955374717712,-0.4099326729774475,0,0,0,-1,-1,5755.2761455,unknown,2,2022-06-30T10:05:22.673+02:00,2022-06-30T08:20:05.567+02:00,1540,1.501556,0,0,1217.191,0,0,2022-06-30T10:05:15.030+02:00
2022-06-30T10:05:22.841+02:00,5755.443423500001,0.56573486328125,0.9989471435546875,-0.073638916015625,5755.433472500001,-0.02488575519881852,0.8508109236778229,-0.9550222612809005,-2.262137174606323,2.464740753173828,-0.09927770495414734,0.1062095463275909,0.08580338954925537,0.1942174732685089,XArbitraryZVertical,-0.4140163858461732,0.3717074294101081,-0.1997111950602352,0.8065602612668613,0.4342414736747742,0.8163266181945801,-0.3808480501174927,0,0,0,-1,-1,5755.2761455,unknown,2,2022-06-30T10:05:22.673+02:00,2022-06-30T08:20:05.567+02:00,1540,1.501556,0,0,1217.191,0,0,2022-06-30T10:05:15.030+02:00
2022-06-30T10:05:22.851+02:00,5755.453374500001,0.5468292236328125,1.0250244140625,-0.038299560546875,5755.443423500001,0.004621576496647414,0.8988889326774264,-0.9695421084517134,-2.213351964950562,2.343168258666992,0.04104292020201683,0.1088401675224304,0.1183357834815979,0.2243605256080627,XArbitraryZVertical,-0.4206132601802152,0.3834359362645749,-0.2006212518033341,0.7973785534819661,0.4427192807197571,0.8246268033981323,-0.3521227240562439,0,0,0,-1,-1,5755.2761455,unknown,2,2022-06-30T10:05:22.673+02:00,2022-06-30T08:20:05.567+02:00,1540,1.501556,0,0,1217.191,0,0,2022-06-30T10:05:15.030+02:00
2022-06-30T10:05:22.861+02:00,5755.4633265,0.52972412109375,1.009033203125,-0.018951416015625,5755.453374500001,0.0362492874377501,0.9479252792689906,-0.9816908187896281,-2.09684944152832,2.255768060684204,0.1652138382196426,0.1144583821296692,0.1675090193748474,0.2504910528659821,XArbitraryZVertical,-0.4266371856682071,0.3948614446152335,-0.2008841504071165,0.7884863509690333,0.451276421546936,0.8314380049705505,-0.3241302967071533,0,0,0,-1,-1,5755.2761455,unknown,2,2022-06-30T10:05:22.673+02:00,2022-06-30T08:20:05.567+02:00,1540,1.501556,0,0,1217.191,0,0,2022-06-30T10:05:15.030+02:00
2022-06-30T10:05:22.871+02:00,5755.4732775,0.509246826171875,0.966552734375,-0.029449462890625,5755.4633265,0.06828607428548664,0.9966361903934376,-0.9912777685551685,-1.935498714447021,2.170856237411499,0.2445691078901291,0.08701977133750916,0.1882978677749634,0.2591294348239899,XArbitraryZVertical,-0.4318643523135475,0.405929185050951,-0.2008002648884878,0.7799960973810945,0.459809422492981,0.8367263674736023,-0.2974293529987335,0,0,0,-1,-1,5755.2761455,unknown,2,2022-06-30T10:05:22.673+02:00,2022-06-30T08:20:05.567+02:00,1540,1.501556,0,0,1217.191,0,0,2022-06-30T10:05:15.030+02:00
2022-06-30T10:05:22.881+02:00,5755.4832285,0.496185302734375,0.91754150390625,-0.0217132568359375,5755.4732775,0.09989972739887086,1.044252969847222,-0.998777678476731,-1.800870060920715,2.073812484741211,0.2881331145763397,0.06171724200248718,0.1682231426239014,0.2530926764011383,XArbitraryZVertical,-0.4364243796642423,0.4165471708912109,-0.2005444132584518,0.7718834564000474,0.4680067896842957,0.8408099412918091,-0.2720444202423096,0,0,0,-1,-1,5755.2761455,unknown,2,2022-06-30T10:05:22.673+02:00,2022-06-30T08:20:05.567+02:00,1540,1.501556,0,0,1217.191,0,0,2022-06-30T10:05:15.030+02:00
2022-06-30T10:05:22.891+02:00,5755.493180500001,0.492767333984375,0.9225311279296875,0.01373291015625,5755.4832285,0.130385923476611,1.089922859381422,-1.004272748501673,-1.625219106674194,1.94401216506958,0.3512310981750488,0.03341147303581238,0.1227807998657227,0.2188037037849426,XArbitraryZVertical,-0.4403097378136181,0.4266152357525517,-0.2001353063692563,0.7642464757647056,0.4758353233337402,0.8437718749046326,-0.2482535541057587,0,0,0,-1,-1,5755.2761455,unknown,2,2022-06-30T10:05:22.673+02:00,2022-06-30T08:20:05.567+02:00,1540,1.501556,0,0,1217.191,0,0,2022-06-30T10:05:15.030+02:00
2022-06-30T10:05:22.901+02:00,5755.503131500001,0.4963836669921875,0.9620208740234375,0.081573486328125,5755.493180500001,0.1587784942622503,1.132496697798208,-1.007491777881008,-1.396865367889404,1.798104286193848,0.4351471960544586,0.01267713308334351,0.07204622030258179,0.2049090415239334,XArbitraryZVertical,-0.4433451683623028,0.4360432695012973,-0.1995293498954138,0.7572974119784605,0.4835081398487091,0.8454951643943787,-0.2266226559877396,0,0,0,-1,-1,5755.2761455,unknown,2,2022-06-30T10:05:22.673+02:00,2022-06-30T08:20:05.567+02:00,1540,1.501556,0,0,1217.191,0,0,2022-06-30T10:05:15.030+02:00
2022-06-30T10:05:22.911+02:00,5755.513082500001,0.509124755859375,0.9822235107421875,0.1999359130859375,5755.503131500001,0.1837789569704719,1.170704290190604,-1.008336445912752,-1.117368698120117,1.639445900917053,0.5086376070976257,0.001613378524780273,0.07658517360687256,0.2214424014091492,XArbitraryZVertical,-0.4453453376794134,0.4447612775767724,-0.1988044805268444,0.7512201970895547,0.4911540150642395,0.8459458947181702,-0.2077098786830902,0,0,0,-1,-1,5755.2761455,unknown,2,2022-06-30T10:05:22.673+02:00,2022-06-30T08:20:05.567+02:00,1540,1.501556,0,0,1217.191,0,0,2022-06-30T10:05:15.030+02:00
2022-06-30T10:05:22.921+02:00,5755.5230345,0.541839599609375,0.9571380615234375,0.284942626953125,5755.513082500001,0.2044979918784895,1.203734980930214,-1.007116023805134,-0.8745560646057129,1.48113751411438,0.55750972032547,-0.002325356006622314,0.1167263984680176,0.2733198404312134,XArbitraryZVertical,-0.4462918632455925,0.4527142430414979,-0.1980902107268618,0.7460789526308272,0.4987090528011322,0.8452944755554199,-0.1917467713356018,0,0,0,-1,-1,5755.2761455,unknown,2,2022-06-30T10:05:22.673+02:00,2022-06-30T08:20:05.567+02:00,1540,1.501556,0,0,1217.191,0,0,2022-06-30T10:05:15.030+02:00
2022-06-30T10:05:22.930+02:00,5755.5329855,0.5745391845703125,0.8991851806640625,0.3326263427734375,5755.5230345,0.2220949008269223,1.232489487039261,-1.004448886120754,-0.727814257144928,1.317365050315857,0.6104092001914978,0.002984166145324707,0.1383572220802307,0.3780125379562378,XArbitraryZVertical,-0.4465512791207669,0.4599494097340807,-0.1972424149484942,0.741710257242806,0.5061407089233398,0.8438664078712463,-0.1780769973993301,0,0,0,-1,-1,5755.2761455,unknown,2,2022-06-30T10:05:22.673+02:00,2022-06-30T08:20:05.567+02:00,1540,1.501556,0,0,1217.191,0,0,2022-06-30T10:05:15.030+02:00
2022-06-30T10:05:22.940+02:00,5755.5429365,0.5930633544921875,0.8480987548828125,0.372314453125,5755.5329855,0.2376355659216315,1.257814451400959,-1.000585645913832,-0.6302252411842346,1.144468307495117,0.6692646145820618,0.02825409173965454,0.1153508424758911,0.4511480331420898,XArbitraryZVertical,-0.4463556780179648,0.4665444360984284,-0.1960787519410407,0.7380082714957554,0.5135855674743652,0.8417872786521912,-0.1662057936191559,0,0,0,-1,-1,5755.2761455,unknown,2,2022-06-30T10:05:22.673+02:00,2022-06-30T08:20:05.567+02:00,1540,1.501556,0,0,1217.191,0,0,2022-06-30T10:05:15.030+02:00
2022-06-30T10:05:22.951+02:00,5755.5528885,0.5984039306640625,0.799072265625,0.4063873291015625,5755.5429365,0.2524797542763169,1.280816253465827,-0.9960788736194719,-0.6623170971870422,0.9875020980834961,0.6765643358230591,0.05363678932189941,0.05983924865722656,0.4880585670471191,XArbitraryZVertical,-0.4460917419062148,0.4725313092229753,-0.1944746729248091,0.7347761934543909,0.5209023952484131,0.8393459320068359,-0.1554326415061951,0,0,0,-1,-1,5755.2761455,unknown,2,2022-06-30T10:05:22.673+02:00,2022-06-30T08:20:05.567+02:00,1540,1.501556,0,0,1217.191,0,0,2022-06-30T10:05:15.030+02:00
2022-06-30T10:05:22.960+02:00,5755.5628395,0.6082000732421875,0.76898193359375,0.3951416015625,5755.5528885,0.2680627604659327,1.303079264268554,-0.9917242074778783,-0.7516111731529236,0.8725746870040894,0.6397538781166077,0.06531018018722534,0.01112794876098633,0.5170777440071106,XArbitraryZVertical,-0.4462069699078872,0.4780350354269496,-0.1924780500462876,0.7316652715831744,0.5277531743049622,0.8369708061218262,-0.1447636932134628,0,0,0,-1,-1,5755.2761455,unknown,2,2022-06-30T10:05:22.673+02:00,2022-06-30T08:20:05.567+02:00,1540,1.501556,0,0,1217.191,0,0,2022-06-30T10:05:15.030+02:00
2022-06-30T10:05:22.970+02:00,5755.5727905,0.60577392578125,0.7603912353515625,0.4143524169921875,5755.5628395,0.2851911132090819,1.325514474941235,-0.9878107906330128,-0.8891189694404602,0.7642615437507629,0.6126782894134521,0.06436264514923096,-0.03575056791305542,0.5400693416595459,XArbitraryZVertical,-0.4469050811366102,0.4831507642944299,-0.1900913537401126,0.7284960956888513,0.5340412855148315,0.8348227739334106,-0.1336823701858521,0,0,0,-1,-1,5755.2761455,unknown,2,2022-06-30T10:05:22.673+02:00,2022-06-30T08:20:05.567+02:00,1540,1.501556,0,0,1217.191,0,0,2022-06-30T10:05:15.030+02:00
2022-06-30T10:05:22.980+02:00,5755.582742500001,0.589080810546875,0.7421112060546875,0.4267425537109375,5755.5727905,0.3051448026723739,1.349222861646866,-0.9842291101360432,-1.104374289512634,0.6697161197662354,0.607865571975708,0.06822621822357178,-0.06386363506317139,0.5167823433876038,XArbitraryZVertical,-0.4483670228573552,0.4880025215276704,-0.1870809799870421,0.7251354729781355,0.5399739742279053,0.8328456282615662,-0.121641106903553,0,0,0,-1,-1,5755.2761455,unknown,2,2022-06-30T10:05:22.673+02:00,2022-06-30T08:20:05.567+02:00,1540,1.501556,0,0,1217.191,0,0,2022-06-30T10:05:15.030+02:00
2022-06-30T10:05:22.990+02:00,5755.592693500001,0.587799072265625,0.7626953125,0.44921875,5755.582742500001,0.3280505703511458,1.374548552530153,-0.9808472587079425,-1.243958592414856,0.5953928828239441,0.5914115309715271,0.06013357639312744,-0.07057780027389526,0.5228289365768433,XArbitraryZVertical,-0.4505721913336942,0.4926928548597017,-0.1834636704843977,0.7215120550172989,0.5456404089927673,0.8309690356254578,-0.1084768995642662,0,0,0,-1,-1,5755.2761455,unknown,2,2022-06-30T10:05:22.673+02:00,2022-06-30T08:20:05.567+02:00,1540,1.501556,0,0,1217.191,0,0,2022-06-30T10:05:15.030+02:00
2022-06-30T10:05:23.000+02:00,5755.602644500001,0.60076904296875,0.8180999755859375,0.4978179931640625,5755.592693500001,0.3520464675903521,1.399876102272386,-0.9774790501448712,-1.273098826408386,0.4885019063949585,0.5767475366592407,0.0381132960319519,-0.0869792103767395,0.5218415260314941,XArbitraryZVertical,-0.4531709005251753,0.49707790302049,-0.1795115143743861,0.7178617295021623,0.5509676337242126,0.8290905356407166,-0.09509938955307007,0,0,0,-1,-1,5755.2761455,unknown,2,2022-06-30T10:05:22.673+02:00,2022-06-30T08:20:05.567+02:00,1540,1.501556,0,0,1217.191,0,0,2022-06-30T10:05:15.030+02:00
2022-06-30T10:05:23.010+02:00,5755.6125965,0.6140899658203125,0.8391876220703125,0.5436248779296875,5755.602644500001,0.3759299596551469,1.42386560637049,-0.9738114743888014,-1.275625944137573,0.3624720573425293,0.5903488397598267,0.03170478343963623,-0.06433910131454468,0.531518816947937,XArbitraryZVertical,-0.4558913679050192,0.5010118158026169,-0.1752593024895383,0.7144469321253648,0.5560942888259888,0.8270343542098999,-0.08230043947696686,0,0,0,-1,-1,5755.2761455,unknown,2,2022-06-30T10:05:22.673+02:00,2022-06-30T08:20:05.567+02:00,1540,1.501556,0,0,1217.191,0,0,2022-06-30T10:05:15.030+02:00
2022-06-30T10:05:23.020+02:00,5755.6225475,0.6258544921875,0.8199615478515625,0.582855224609375,5755.6125965,0.3994152338531886,1.44616635796415,-0.9696468906111348,-1.24825644493103,0.218477189540863,0.6065140962600708,0.03956496715545654,-0.006586074829101562,0.5681248307228088,XArbitraryZVertical,-0.4586283026956686,0.5044863273266137,-0.170657169708352,0.711357790124665,0.5612041354179382,0.8246860504150391,-0.07030724734067917,0,0,0,-1,-1,5755.2761455,unknown,2,2022-06-30T10:05:22.673+02:00,2022-06-30T08:20:05.567+02:00,1540,1.501556,0,0,1217.191,0,0,2022-06-30T10:05:15.030+02:00
2022-06-30T10:05:23.030+02:00,5755.6324985,0.63018798828125,0.801055908203125,0.6243133544921875,5755.6225475,0.4219054813339169,1.46596991252069,-0.9650848149536312,-1.204453587532043,0.03917240351438522,0.6037046909332275,0.04786795377731323,0.01709049940109253,0.6031978726387024,XArbitraryZVertical,-0.4613200896211376,0.5073431512210087,-0.1657500429262984,0.7087409859708024,0.5662221312522888,0.8220971822738647,-0.05957340449094772,0,0,0,-1,-1,5755.2761455,unknown,2,2022-06-30T10:05:22.673+02:00,2022-06-30T08:20:05.567+02:00,1540,1.501556,0,0,1217.191,0,0,2022-06-30T10:05:15.030+02:00
2022-06-30T10:05:23.040+02:00,5755.6424505,0.626190185546875,0.7737579345703125,0.6595306396484375,5755.6324985,0.4439370317813409,1.483475200128007,-0.9603267597692573,-1.236801028251648,-0.1552254110574722,0.5977898836135864,0.05478620529174805,0.0005827546119689941,0.6328482627868652,XArbitraryZVertical,-0.4641277889079938,0.5094984399741047,-0.160444743489561,0.7065793629227229,0.5710684657096863,0.8193789124488831,-0.04999347031116486,0,0,0,-1,-1,5755.2761455,unknown,2,2022-06-30T10:05:22.673+02:00,2022-06-30T08:20:05.567+02:00,1540,1.501556,0,0,1217.191,0,0,2022-06-30T10:05:15.030+02:00
2022-06-30T10:05:23.051+02:00,5755.6524015,0.614532470703125,0.7525482177734375,0.69952392578125,5755.6424505,0.4666372393628566,1.499446650870399,-0.9555415994868161,-1.307407855987549,-0.3641341626644135,0.5755077600479126,0.05448991060256958,-0.01557064056396484,0.6654586791992188,XArbitraryZVertical,-0.4673103553548656,0.5109287354572658,-0.1545680486003252,0.7047564113847473,0.5756980776786804,0.8166264295578003,-0.04114571958780289,0,0,0,-1,-1,5755.2761455,unknown,2,2022-06-30T10:05:22.673+02:00,2022-06-30T08:20:05.567+02:00,1540,1.501556,0,0,1217.191,0,0,2022-06-30T10:05:15.030+02:00
2022-06-30T10:05:23.061+02:00,5755.6623525,0.5906982421875,0.743499755859375,0.703460693359375,5755.6524015,0.4903978953456777,1.514056773594564,-0.950916484640154,-1.406306505203247,-0.5922938585281372,0.5339890718460083,0.04618757963180542,-0.04019033908843994,0.6924747228622437,XArbitraryZVertical,-0.4709946353023045,0.5115582333473142,-0.1480822698348842,0.7032382201138579,0.5800026655197144,0.8139482736587524,-0.032944455742836,0,0,0,-1,-1,5755.2761455,unknown,2,2022-06-30T10:05:22.673+02:00,2022-06-30T08:20:05.567+02:00,1540,1.501556,0,0,1217.191,0,0,2022-06-30T10:05:15.030+02:00
2022-06-30T10:05:23.070+02:00,5755.672304500001,0.5654296875,0.7597198486328125,0.7086334228515625,5755.6623525,0.5156775763365419,1.527488577690653,-0.9466468166382396,-1.508663177490234,-0.8372543454170227,0.4801064133644104,0.03067296743392944,-0.05891209840774536,0.7248250246047974,XArbitraryZVertical,-0.4753230638596408,0.5112897924274729,-0.1409353687341464,0.7019886739396524,0.5838596224784851,0.8114604353904724,-0.02530146576464176,0,0,0,-1,-1,5755.2761455,unknown,2,2022-06-30T10:05:22.673+02:00,2022-06-30T08:20:05.567+02:00,1540,1.501556,0,0,1217.191,0,0,2022-06-30T10:05:15.030+02:00
2022-06-30T10:05:23.080+02:00,5755.682255500001,0.554229736328125,0.814971923828125,0.7126922607421875,5755.672304500001,0.5422494398677419,1.539390449347051,-0.9427475187152244,-1.593541145324707,-1.097216010093689,0.4308746755123138,0.003420889377593994,-0.06567579507827759,0.7219103574752808,XArbitraryZVertical,-0.4802463268136575,0.5100376962332329,-0.133128424654228,0.7010719669362296,0.5872774124145508,0.8091754913330078,-0.01845002733170986,0,0,0,-1,-1,5755.2761455,unknown,2,2022-06-30T10:05:22.673+02:00,2022-06-30T08:20:05.567+02:00,1540,1.501556,0,0,1217.191,0,0,2022-06-30T10:05:15.030+02:00
2022-06-30T10:05:23.090+02:00,5755.692206500001,0.5347137451171875,0.8646087646484375,0.729461669921875,5755.682255500001,0.5702164749119382,1.549690343326519,-0.9390415721053295,-1.701555728912354,-1.375251650810242,0.4080969393253326,-0.02500063180923462,-0.04727256298065186,0.7210965156555176,XArbitraryZVertical,-0.4857224943868161,0.5077813769152921,-0.1245426854687298,0.7005147543419559,0.5904303193092346,0.8069924712181091,-0.01246346347033978,0,0,0,-1,-1,5755.2761455,unknown,2,2022-06-30T10:05:22.673+02:00,2022-06-30T08:20:05.567+02:00,1540,1.501556,0,0,1217.191,0,0,2022-06-30T10:05:15.030+02:00
2022-06-30T10:05:23.100+02:00,5755.7021585,0.5145721435546875,0.888885498046875,0.7562408447265625,5755.692206500001,0.5996038901277633,1.558208836645629,-0.9354627886738754,-1.777889966964722,-1.670416593551636,0.3741313815116882,-0.03916937112808228,0.0100981593132019,0.7201616764068604,XArbitraryZVertical,-0.4917223670128615,0.5044543723329379,-0.1150942235785108,0.7003486946684681,0.5933991074562073,0.8048738241195679,-0.00746979983523488,0,0,0,-1,-1,5755.2761455,unknown,2,2022-06-30T10:05:22.673+02:00,2022-06-30T08:20:05.567+02:00,1540,1.501556,0,0,1217.191,0,0,2022-06-30T10:05:15.030+02:00
2022-06-30T10:05:23.109+02:00,5755.7121095,0.5004425048828125,0.8907012939453125,0.7740325927734375,5755.7021585,0.629594434332433,1.564110361995898,-0.93227578631797,-1.799456834793091,-1.988474369049072,0.3100192546844482,-0.06128114461898804,0.06163036823272705,0.7334461212158203,XArbitraryZVertical,-0.4981170965134669,0.4998869154610575,-0.1049413615927941,0.7006994781100919,0.5959948301315308,0.8029783964157104,-0.003984859678894281,0,0,0,-1,-1,5755.2761455,unknown,2,2022-06-30T10:05:22.673+02:00,2022-06-30T08:20:05.567+02:00,1540,1.501556,0,0,1217.191,0,0,2022-06-30T10:05:15.030+02:00
2022-06-30T10:05:23.120+02:00,5755.7220605,0.47576904296875,0.898223876953125,0.828125,5755.7121095,0.6593672115200365,1.566462996855548,-0.9295920414037118,-1.762628793716431,-2.341484546661377,0.2595305442810059,-0.0835832953453064,0.08750951290130615,0.7588324546813965,XArbitraryZVertical,-0.5047252325903424,0.4939194561507869,-0.094155127824676,0.7017341692805992,0.5981553792953491,0.8013759851455688,-0.002592020900920033,0,0,0,-1,-1,5755.2761455,unknown,2,2022-06-30T10:05:22.673+02:00,2022-06-30T08:20:05.567+02:00,1540,1.501556,0,0,1217.191,0,0,2022-06-30T10:05:15.030+02:00
2022-06-30T10:05:23.129+02:00,5755.732012500001,0.4419403076171875,0.983489990234375,0.85205078125,5755.7220605,0.6875044269322756,1.563697259121594,-0.927559008176567,-1.618855118751526,-2.746639013290405,0.173536017537117,-0.0993315577507019,0.09054327011108398,0.7782901525497437,XArbitraryZVertical,-0.5112406694270937,0.4863167933734545,-0.08285423998021464,0.7037501833199766,0.5997741222381592,0.8001582622528076,-0.004257909022271633,0,0,0,-1,-1,5755.2761455,unknown,2,2022-06-30T10:05:22.673+02:00,2022-06-30T08:20:05.567+02:00,1540,1.501556,0,0,1217.191,0,0,2022-06-30T10:05:15.030+02:00
2022-06-30T10:05:23.139+02:00,5755.741963500001,0.391845703125,1.056503295898438,0.8461151123046875,5755.732012500001,0.7134407725464732,1.554912645057584,-0.9263915006157964,-1.523969888687134,-3.184247732162476,0.1153624653816223,-0.1248780488967896,0.0987665057182312,0.8376659154891968,XArbitraryZVertical,-0.5175382009650942,0.4768475292396402,-0.07103932555952706,0.7069116713046495,0.6006470322608948,0.7994574308395386,-0.009541288949549198,0,0,0,-1,-1,5755.2761455,unknown,2,2022-06-30T10:05:22.673+02:00,2022-06-30T08:20:05.567+02:00,1540,1.501556,0,0,1217.191,0,0,2022-06-30T10:05:15.030+02:00
2022-06-30T10:05:23.149+02:00,5755.751914500001,0.3232574462890625,1.06707763671875,0.8443450927734375,5755.741963500001,0.7382589636319394,1.540893462459066,-0.9257517876071636,-1.465771555900574,-3.613327026367188,0.0912930816411972,-0.1590250730514526,0.1844170689582825,0.8700263500213623,XArbitraryZVertical,-0.5236833851864521,0.4655832257255449,-0.05836863472437766,0.7110422975542227,0.6009653806686401,0.7990729808807373,-0.0179759431630373,0,0,0,-1,-1,5755.2761455,unknown,2,2022-06-30T10:05:22.673+02:00,2022-06-30T08:20:05.567+02:00,1540,1.501556,0,0,1217.191,0,0,2022-06-30T10:05:15.030+02:00
2022-06-30T10:05:23.159+02:00,5755.7618665,0.2671051025390625,1.075546264648438,0.888214111328125,5755.751914500001,0.7617251784324797,1.521496990983282,-0.9256083180002165,-1.37322473526001,-4.058869361877441,0.05388761311769485,-0.2087724208831787,0.2575165629386902,0.875748872756958,XArbitraryZVertical,-0.5295352573845008,0.4525211268144699,-0.04483869920438789,0.7161051075192154,0.6006180644035339,0.7989867329597473,-0.02963408268988132,0,0,0,-1,-1,5755.2761455,unknown,2,2022-06-30T10:05:22.673+02:00,2022-06-30T08:20:05.567+02:00,1540,1.501556,0,0,1217.191,0,0,2022-06-30T10:05:15.030+02:00
2022-06-30T10:05:23.169+02:00,5755.7718175,0.228485107421875,1.14837646484375,0.947967529296875,5755.7618665,0.7838602496781053,1.496365431467591,-0.9261330988959822,-1.312121152877808,-4.549029350280762,0.02594066970050335,-0.2760081887245178,0.2677755355834961,0.8890311717987061,XArbitraryZVertical,-0.5350611750791849,0.4374543712805815,-0.03037169716245701,0.7220947445841976,0.5992655754089355,0.7993021607398987,-0.04468642547726631,0,0,0,-1,-1,5755.2761455,unknown,2,2022-06-30T10:05:22.673+02:00,2022-06-30T08:20:05.567+02:00,1540,1.501556,0,0,1217.191,0,0,2022-06-30T10:05:15.030+02:00
2022-06-30T10:05:23.180+02:00,5755.7817695,0.19781494140625,1.235931396484375,0.961395263671875,5755.7718175,0.8063824438638694,1.466511851595107,-0.9269089951587703,-1.437401652336121,-5.070730686187744,0.07742037624120712,-0.3299426436424255,0.27577805519104,0.9507032632827759,XArbitraryZVertical,-0.5404168277688776,0.4203628284335904,-0.01444064506936287,0.7287222985570551,0.5970476269721985,0.7997682094573975,-0.06248949095606804,0,0,0,-1,-1,5755.2761455,unknown,2,2022-06-30T10:05:22.673+02:00,2022-06-30T08:20:05.567+02:00,1540,1.501556,0,0,1217.191,0,0,2022-06-30T10:05:15.030+02:00
2022-06-30T10:05:23.189+02:00,5755.7917205,0.1450347900390625,1.245346069335938,0.9855499267578125,5755.7817695,0.8317705650430014,1.433511372254778,-0.9279021849957728,-1.622289419174194,-5.647188186645508,0.0964723601937294,-0.3653886318206787,0.3480125069618225,1.030013203620911,XArbitraryZVertical,-0.5459679626292882,0.4011184149692628,0.003480784714053403,0.7355344099655625,0.5938735604286194,0.8003640174865723,-0.08204600214958191,0,0,0,-1,-1,5755.2761455,unknown,2,2022-06-30T10:05:22.673+02:00,2022-06-30T08:20:05.567+02:00,1540,1.501556,0,0,1217.191,0,0,2022-06-30T10:05:15.030+02:00
2022-06-30T10:05:23.199+02:00,5755.8016715,0.0970916748046875,1.22589111328125,0.8775177001953125,5755.7917205,0.860077922480505,1.397276278596067,-0.9297364153897892,-1.803881168365479,-6.172957420349121,0.08748741447925568,-0.3912497758865356,0.4344691038131714,1.064647793769836,XArbitraryZVertical,-0.5517087645798568,0.3794614627055163,0.02327075327056108,0.7423509412378078,0.5890644788742065,0.8014623522758484,-0.1032528728246689,0,0,0,-1,-1,5755.2761455,unknown,2,2022-06-30T10:05:22.673+02:00,2022-06-30T08:20:05.567+02:00,1540,1.501556,0,0,1217.191,0,0,2022-06-30T10:05:15.030+02:00
2022-06-30T10:05:23.209+02:00,5755.811623500001,0.089691162109375,1.274017333984375,1.026870727539062,5755.8016715,0.8907796700110852,1.358136455336201,-0.9324614561242359,-1.887608766555786,-6.655148506164551,0.08458030968904495,-0.4374015331268311,0.4422571063041687,1.111311912536621,XArbitraryZVertical,-0.5573730178896468,0.355603899009334,0.04467045723338137,0.748923076495996,0.5824361443519592,0.8030890822410583,-0.1257623732089996,0,0,0,-1,-1,5755.2761455,unknown,2,2022-06-30T10:05:22.673+02:00,2022-06-30T08:20:05.567+02:00,1540,1.501556,0,0,1217.191,0,0,2022-06-30T10:05:15.030+02:00
2022-06-30T10:05:23.219+02:00,5755.821575,0.0526580810546875,1.337631225585938,1.095458984375,5755.811623500001,0.9219285568593542,1.314292647622411,-0.9359799836779236,-1.946032404899597,-7.192440509796143,0.1285094171762466,-0.4765360355377197,0.4207106232643127,1.027969121932983,XArbitraryZVertical,-0.5623721401859207,0.3294111368526972,0.06751434393579779,0.7554255597791137,0.5736275315284729,0.8051806092262268,-0.1504517644643784,0,0,0,-1,-1,5755.2761455,unknown,2,2022-06-30T10:05:22.673+02:00,2022-06-30T08:20:05.567+02:00,1540,1.501556,0,0,1217.191,0,0,2022-06-30T10:05:15.030+02:00
2022-06-30T10:05:23.229+02:00,5755.831526,-0.0682220458984375,1.336090087890625,1.1002197265625,5755.821575,0.9571069838034721,1.26839404409614,-0.9398775099644883,-2.263959884643555,-7.736247539520264,0.2732700705528259,-0.4734291434288025,0.46653151512146,1.202547192573547,XArbitraryZVertical,-0.5670781749842877,0.3009716968790175,0.09256404363650524,0.7610980318378351,0.5631200075149536,0.8074858784675598,-0.1756767630577087,0,0,0,-1,-1,5755.2761455,unknown,2,2022-06-30T10:05:22.673+02:00,2022-06-30T08:20:05.567+02:00,1540,1.501556,0,0,1217.191,0,0,2022-06-30T10:05:15.030+02:00
2022-06-30T10:05:23.239+02:00,5755.841478,-0.2406463623046875,1.39825439453125,1.0218505859375,5755.831526,0.995050410760012,1.219296318161772,-0.9445731630682469,-2.259355783462524,-8.295868873596191,0.2751700878143311,-0.4975959658622742,0.5273845195770264,1.297252893447876,XArbitraryZVertical,-0.5711030569203047,0.2700818411323772,0.119541437454023,0.7659027348110197,0.5502538084983826,0.8102468252182007,-0.2017941921949387,0,0,0,-1,-1,5755.2761455,unknown,2,2022-06-30T10:05:22.673+02:00,2022-06-30T08:20:05.567+02:00,1540,1.501556,0,0,1217.191,0,0,2022-06-30T10:05:15.030+02:00
2022-06-30T10:05:23.249+02:00,5755.851429,-0.5103759765625,1.408248901367188,0.7880096435546875,5755.841478,1.03020519965702,1.162631409540053,-0.949818399933317,-1.966228365898132,-8.823895454406738,0.2911951243877411,-0.6022561192512512,0.5227802991867065,1.331163048744202,XArbitraryZVertical,-0.5731375111460634,0.2367311111134995,0.1476342112732413,0.7705036420226103,0.5340337753295898,0.8133098483085632,-0.2309435456991196,0,0,0,-1,-1,5755.2761455,unknown,2,2022-06-30T10:05:22.673+02:00,2022-06-30T08:20:05.567+02:00,1540,1.501556,0,0,1217.191,0,0,2022-06-30T10:05:15.030+02:00
2022-06-30T10:05:23.259+02:00,5755.86138,-2.184768676757812,-0.61871337890625,2.688339233398438,5755.851429,1.061714986021229,1.098561689035336,-0.9555513446446339,-1.807753324508667,-9.179232597351074,0.217831015586853,-0.754637598991394,0.5816224217414856,1.284386873245239,XArbitraryZVertical,-0.5729093482058047,0.2012626681307895,0.1764326197020759,0.7746868507260023,0.5139908790588379,0.816632091999054,-0.2625364363193512,0,0,0,-1,-1,5755.2761455,unknown,2,2022-06-30T10:05:22.673+02:00,2022-06-30T08:20:05.567+02:00,1540,1.501556,0,0,1217.191,0,0,2022-06-30T10:05:15.030+02:00
2022-06-30T10:05:23.269+02:00,5755.871332000001,-4.360519409179688,1.550811767578125,-13.26495361328125,5755.86138,1.048199621990087,1.027348116519225,-0.9617243875548326,0.6418976187705994,6.367825508117676,-1.796679139137268,-1.000059962272644,0.58806973695755,1.083840370178223,XArbitraryZVertical,-0.5667945943318067,0.1755802839760744,0.1896458306669443,0.78227233205323,0.4896836578845978,0.8201793432235718,-0.2958309054374695,0,0,0,-1,-1,5755.2761455,unknown,2,2022-06-30T10:05:22.673+02:00,2022-06-30T08:20:05.567+02:00,1540,1.501556,0,0,1217.191,0,0,2022-06-30T10:05:15.030+02:00
2022-06-30T10:05:23.279+02:00,5755.881283000001,-3.24200439453125,1.282882690429688,-6.977523803710938,5755.871332000001,1.102337756634533,1.087481013821766,-0.9838851158367257,-3.873404979705811,3.452687740325928,0.361600399017334,-2.675129175186157,-1.45136833190918,2.945695638656616,XArbitraryZVertical,-0.5831543997733257,0.176784012233982,0.1868401208897163,0.7705642683495141,0.4903601706027985,0.8326551914215088,-0.2573567032814026,0,0,0,-1,-1,5755.2761455,unknown,2,2022-06-30T10:05:22.673+02:00,2022-06-30T08:20:05.567+02:00,1540,1.501556,0,0,1217.191,0,0,2022-06-30T10:05:15.030+02:00
2022-06-30T10:05:23.289+02:00,5755.891234000001,-2.292617797851562,2.740570068359375,-4.686187744140625,5755.881283000001,1.173567123454801,1.152170929043128,-0.9876610412438344,-2.8972327709198,0.4112957119941711,1.642914891242981,-4.863614559173584,0.716071605682373,-13.04111480712891,XArbitraryZVertical,-0.596589092289365,0.179336908707007,0.1938274812659104,0.7578592906701112,0.5030950307846069,0.8347403407096863,-0.2238394618034363,0,0,0,-1,-1,5755.2761455,unknown,2,2022-06-30T10:05:22.673+02:00,2022-06-30T08:20:05.567+02:00,1540,1.501556,0,0,1217.191,0,0,2022-06-30T10:05:15.030+02:00
2022-06-30T10:05:23.299+02:00,5755.901186,0.639923095703125,1.976531982421875,-2.416915893554688,5755.891234000001,1.22780523944957,1.214991261791744,-0.9879491100128809,-2.495637893676758,2.818053245544434,0.9687919616699219,-3.757934093475342,0.4479838013648987,-6.785793781280518,XArbitraryZVertical,-0.6077290119286239,0.186548422465478,0.1952271704706475,0.7468275680063164,0.5159294605255127,0.8348988890647888,-0.191730260848999,0,0,0,-1,-1,5755.2761455,unknown,2,2022-06-30T10:05:22.673+02:00,2022-06-30T08:20:05.567+02:00,1540,1.501556,0,0,1217.191,0,0,2022-06-30T10:05:15.030+02:00
2022-06-30T10:05:23.309+02:00,5755.911137,0.2100372314453125,1.001434326171875,0.016754150390625,5755.901186,1.266326966656321,1.272851016045984,-0.9788019887053847,-0.9648419618606567,2.506377696990967,1.879885077476501,-2.8260498046875,1.910740613937378,-4.522378444671631,XArbitraryZVertical,-0.6151609161412787,0.19917893606783,0.1947663642045651,0.7375437434090873,0.5334316492080688,0.8298294544219971,-0.163809597492218,0,0,0,-1,-1,5755.2761455,unknown,2,2022-06-30T10:05:22.673+02:00,2022-06-30T08:20:05.567+02:00,1540,1.501556,0,0,1217.191,0,0,2022-06-30T10:05:15.030+02:00
2022-06-30T10:05:23.319+02:00,5755.921088,0.519744873046875,0.3299713134765625,0.841949462890625,5755.911137,1.287525728907703,1.315276695555879,-0.9648086094586477,-0.7307179570198059,2.790896892547607,1.311910629272461,0.08884131908416748,1.154592275619507,-2.272957324981689,XArbitraryZVertical,-0.618677714116321,0.2127402877688021,0.1940118653074329,0.7309849537366171,0.5510815382003784,0.8219399452209473,-0.1439589112997055,0,0,0,-1,-1,5755.2761455,unknown,2,2022-06-30T10:05:22.673+02:00,2022-06-30T08:20:05.567+02:00,1540,1.501556,0,0,1217.191,0,0,2022-06-30T10:05:15.030+02:00
2022-06-30T10:05:23.328+02:00,5755.93104,1.291259765625,-0.383636474609375,0.9652099609375,5755.921088,1.309718587359457,1.361043669774423,-0.9571739782868172,-1.420241832733154,2.543035984039307,0.7989655137062073,-0.3531752228736877,0.1838671565055847,0.1366526931524277,XArbitraryZVertical,-0.6240516289610422,0.2249670258005968,0.190373306727635,0.7236764641157397,0.5632122159004211,0.8175675272941589,-0.1198988035321236,0,0,0,-1,-1,5755.2761455,unknown,2,2022-06-30T10:05:22.673+02:00,2022-06-30T08:20:05.567+02:00,1540,1.501556,0,0,1217.191,0,0,2022-06-30T10:05:15.030+02:00
2022-06-30T10:05:23.338+02:00,5755.940991,1.380630493164062,-0.2529754638671875,0.2858428955078125,5755.93104,1.340848846280778,1.402665443895825,-0.9538909771947728,-1.978924036026001,0.7472614645957947,0.4766432642936707,-0.05061167478561401,-0.4857012033462524,0.9387576580047607,XArbitraryZVertical,-0.6309671621318248,0.2312492942159546,0.189607951102352,0.7158582262626699,0.5703561902046204,0.8156726360321045,-0.09680841118097305,0,0,0,-1,-1,5755.2761455,unknown,2,2022-06-30T10:05:22.673+02:00,2022-06-30T08:20:05.567+02:00,1540,1.501556,0,0,1217.191,0,0,2022-06-30T10:05:15.030+02:00
2022-06-30T10:05:23.348+02:00,5755.950942,0.78857421875,0.3737640380859375,-0.4896240234375,5755.940991,1.377391309363705,1.434076512947198,-0.9559236245397835,-2.163152694702148,-0.2351341843605042,-0.2994767129421234,0.7197880148887634,-1.200483322143555,1.043831706047058,XArbitraryZVertical,-0.6385214457030491,0.2301725089607528,0.1919744993924363,0.7088418065333701,0.5714714527130127,0.8168469071388245,-0.07862196117639542,0,0,0,-1,-1,5755.2761455,unknown,2,2022-06-30T10:05:22.673+02:00,2022-06-30T08:20:05.567+02:00,1540,1.501556,0,0,1217.191,0,0,2022-06-30T10:05:15.030+02:00
2022-06-30T10:05:23.359+02:00,5755.960894000001,0.2386627197265625,1.106658935546875,-0.7829132080078125,5755.950942,1.403709615181324,1.452084338293044,-0.9641014281384024,-0.8425956964492798,-0.4311073124408722,-0.8190011382102966,0.8144875764846802,-1.074512243270874,0.3533681035041809,XArbitraryZVertical,-0.6445430108315268,0.2253920937575866,0.1927509671435615,0.7047055010081,0.5661426782608032,0.8215368986129761,-0.06752542406320572,0,0,0,-1,-1,5755.2761455,unknown,2,2022-06-30T10:05:22.673+02:00,2022-06-30T08:20:05.567+02:00,1540,1.501556,0,0,1217.191,0,0,2022-06-30T10:05:15.030+02:00
2022-06-30T10:05:23.368+02:00,5755.970845000001,-0.1813507080078125,1.520217895507812,-0.7154083251953125,5755.960894000001,1.398984465284696,1.443980502147638,-0.9710786024689769,1.183858156204224,-0.370155543088913,-0.5980940461158752,0.2286965847015381,-0.4517306685447693,-0.4182398319244385,XArbitraryZVertical,-0.6443121122144632,0.2217424331123327,0.1913477268166541,0.7064548148582893,0.559877336025238,0.8254949450492859,-0.07138439267873764,0,0,0,-1,-1,5755.2761455,unknown,2,2022-06-30T10:05:22.673+02:00,2022-06-30T08:20:05.567+02:00,1540,1.501556,0,0,1217.191,0,0,2022-06-30T10:05:15.030+02:00
2022-06-30T10:05:23.378+02:00,5755.980796000001,-0.3039093017578125,1.327423095703125,-0.557037353515625,5755.970845000001,1.36403410783161,1.412966442031572,-0.9737813238854343,2.533164739608765,-0.03303434327244759,-0.5341315865516663,-0.3165265917778015,0.2796417474746704,-0.6945531368255615,XArbitraryZVertical,-0.6379338283295873,0.2210435805193623,0.1879766450357035,0.7133337444437002,0.5551890134811401,0.8270173668861389,-0.08836033195257187,0,0,0,-1,-1,5755.2761455,unknown,2,2022-06-30T10:05:22.673+02:00,2022-06-30T08:20:05.567+02:00,1540,1.501556,0,0,1217.191,0,0,2022-06-30T10:05:15.030+02:00
2022-06-30T10:05:23.388+02:00,5755.990748,-0.1270751953125,0.95465087890625,-0.3802642822265625,5755.980796000001,1.312662045391537,1.372433386811339,-0.9745202964863985,3.066015005111694,0.413218230009079,-0.6142389178276062,-0.7319042086601257,0.6927856206893921,-0.6047438979148865,XArbitraryZVertical,-0.6286128818042823,0.222516320201869,0.1821221183998077,0.722609186179005,0.5505533218383789,0.8274325728416443,-0.1106646656990051,0,0,0,-1,-1,5755.2761455,unknown,2,2022-06-30T10:05:22.673+02:00,2022-06-30T08:20:05.567+02:00,1540,1.501556,0,0,1217.191,0,0,2022-06-30T10:05:15.030+02:00
2022-06-30T10:05:23.398+02:00,5756.000699,0.1038970947265625,0.80474853515625,-0.169219970703125,5755.990748,1.258446785143334,1.333542153062457,-0.9739139116377457,2.838939428329468,0.7580640316009521,-0.5606521964073181,-0.8502312898635864,0.5003315210342407,-0.4249323606491089,XArbitraryZVertical,-0.6189554356271115,0.2254807665693804,0.1747395021616288,0.731791550467767,0.5463217496871948,0.8270919322967529,-0.1321051865816116,0,0,0,-1,-1,5755.2761455,unknown,2,2022-06-30T10:05:22.673+02:00,2022-06-30T08:20:05.567+02:00,1540,1.501556,0,0,1217.191,0,0,2022-06-30T10:05:15.030+02:00
2022-06-30T10:05:23.408+02:00,5756.01065,0.238494873046875,0.7931365966796875,-0.1027069091796875,5756.000699,1.214777234377719,1.306461753669682,-0.9730621081574133,1.930312752723694,1.034565329551697,-0.4853321611881256,-0.6702995300292969,0.1280381083488464,-0.2332309931516647,XArbitraryZVertical,-0.6115033420495219,0.2292311441294907,0.1672960004263324,0.7385992003032196,0.5432239770889282,0.8266128301620483,-0.1470334976911545,0,0,0,-1,-1,5755.2761455,unknown,2,2022-06-30T10:05:22.673+02:00,2022-06-30T08:20:05.567+02:00,1540,1.501556,0,0,1217.191,0,0,2022-06-30T10:05:15.030+02:00
2022-06-30T10:05:23.418+02:00,5756.020602000001,0.2581939697265625,0.87109375,-0.18768310546875,5756.01065,1.188122453973284,1.295905991259275,-0.9737594071891356,0.9772446155548096,1.25898277759552,-0.4424069225788116,-0.4371901750564575,-0.02225637435913086,-0.01661735773086548,XArbitraryZVertical,-0.6077031412282078,0.2332283108590209,0.1604198155631966,0.7420020519795107,0.5410870313644409,0.8270050883293152,-0.1526028960943222,0,0,0,-1,-1,5755.2761455,unknown,2,2022-06-30T10:05:22.673+02:00,2022-06-30T08:20:05.567+02:00,1540,1.501556,0,0,1217.191,0,0,2022-06-30T10:05:15.030+02:00
2022-06-30T10:05:23.428+02:00,5756.030553000001,0.2321014404296875,1.035812377929688,-0.2770233154296875,5756.020602000001,1.174441540678978,1.298074366763915,-0.9762293806990466,0.4275527596473694,1.442993879318237,-0.4383842349052429,-0.3009531497955322,-0.03525435924530029,0.04817140102386475,XArbitraryZVertical,-0.6067915419294883,0.2374125850539827,0.1538788851903685,0.7428059368237262,0.5394477844238281,0.8283911347389221,-0.1508785784244537,0,0,0,-1,-1,5755.2761455,unknown,2,2022-06-30T10:05:22.673+02:00,2022-06-30T08:20:05.567+02:00,1540,1.501556,0,0,1217.191,0,0,2022-06-30T10:05:15.030+02:00
2022-06-30T10:05:23.438+02:00,5756.040504000001,0.2021636962890625,1.14501953125,-0.3218841552734375,5756.030553000001,1.167356843729363,1.307446458161634,-0.9796203647521866,0.1888696104288101,1.612725615501404,-0.4023648500442505,-0.2799291014671326,0.04080802202224731,-0.04259918630123138,XArbitraryZVertical,-0.6073734175821008,0.2419823093922517,0.1472975218752664,0.742189737138121,0.5381227731704712,0.8302858471870422,-0.1450841873884201,0,0,0,-1,-1,5755.2761455,unknown,2,2022-06-30T10:05:22.673+02:00,2022-06-30T08:20:05.567+02:00,1540,1.501556,0,0,1217.191,0,0,2022-06-30T10:05:15.030+02:00
2022-06-30T10:05:23.448+02:00,5756.050456,0.15484619140625,1.150588989257812,-0.3253173828125,5756.040504000001,1.163267307254159,1.320834263435181,-0.9828964537902719,0.09946782141923904,1.755189061164856,-0.336020439863205,-0.3052772283554077,0.2037053108215332,-0.1398300528526306,XArbitraryZVertical,-0.6085328600656962,0.2471659305505316,0.1406385545031371,0.7408222728451218,0.5373784303665161,0.8321072459220886,-0.1371935158967972,0,0,0,-1,-1,5755.2761455,unknown,2,2022-06-30T10:05:22.673+02:00,2022-06-30T08:20:05.567+02:00,1540,1.501556,0,0,1217.191,0,0,2022-06-30T10:05:15.030+02:00
2022-06-30T10:05:23.458+02:00,5756.060407,0.11041259765625,1.175018310546875,-0.271026611328125,5756.050456,1.16005614639246,1.336120241641239,-0.9856447975782223,0.1416564136743546,1.846027255058289,-0.265133410692215,-0.335023045539856,0.3113913536071777,-0.1934531927108765,XArbitraryZVertical,-0.6097580464155193,0.2529417156737884,0.1338900804856346,0.7391138014612393,0.5371865630149841,0.8336284160614014,-0.1284312307834625,0,0,0,-1,-1,5755.2761455,unknown,2,2022-06-30T10:05:22.673+02:00,2022-06-30T08:20:05.567+02:00,1540,1.501556,0,0,1217.191,0,0,2022-06-30T10:05:15.030+02:00
2022-06-30T10:05:23.468+02:00,5756.070358,0.0777435302734375,1.262664794921875,-0.1468353271484375,5756.060407,1.15506467120954,1.35060391734939,-0.9873176955084699,0.3397532403469086,1.898383617401123,-0.1715515404939651,-0.382782518863678,0.3160378932952881,-0.2049849033355713,XArbitraryZVertical,-0.6104118049304718,0.2592894987721654,0.1270757114186881,0.7375758523624103,0.5376283526420593,0.834551215171814,-0.120332770049572,0,0,0,-1,-1,5755.2761455,unknown,2,2022-06-30T10:05:22.673+02:00,2022-06-30T08:20:05.567+02:00,1540,1.501556,0,0,1217.191,0,0,2022-06-30T10:05:15.030+02:00
2022-06-30T10:05:23.478+02:00,5756.08031,0.0889739990234375,1.336044311523438,-0.0236053466796875,5756.070358,1.146076989692457,1.362124087312166,-0.9877206221818331,0.6304112672805786,1.920889854431152,-0.1116554737091064,-0.4282377362251282,0.3402453660964966,-0.1569651961326599,XArbitraryZVertical,-0.6100263640344517,0.266152161180997,0.1201145749216349,0.7366162323215367,0.5386500954627991,0.8347731232643127,-0.1140617281198502,0,0,0,-1,-1,5755.2761455,unknown,2,2022-06-30T10:05:22.673+02:00,2022-06-30T08:20:05.567+02:00,1540,1.501556,0,0,1217.191,0,0,2022-06-30T10:05:15.030+02:00
2022-06-30T10:05:23.488+02:00,5756.090261,0.1375885009765625,1.34796142578125,0.070159912109375,5756.08031,1.131147323198674,1.368690256910372,-0.9870926568781317,1.0212482213974,1.89800751209259,-0.08611815422773361,-0.4621575474739075,0.4282377362251282,-0.03620803356170654,XArbitraryZVertical,-0.6082651581081485,0.2733124397949009,0.1128250930470737,0.7366032796714683,0.5399008393287659,0.8344272375106812,-0.1106276139616966,0,0,0,-1,-1,5755.2761455,unknown,2,2022-06-30T10:05:22.673+02:00,2022-06-30T08:20:05.567+02:00,1540,1.501556,0,0,1217.191,0,0,2022-06-30T10:05:15.030+02:00
2022-06-30T10:05:23.498+02:00,5756.100212,0.180572509765625,1.292404174804688,0.0913238525390625,5756.090261,1.109496823117556,1.369197652819898,-0.9855064715186578,1.391155004501343,1.827185988426208,-0.06743501871824265,-0.4522792100906372,0.5024924874305725,0.0870128870010376,XArbitraryZVertical,-0.6049625079214116,0.2805549662887747,0.1052198904841806,0.7377249886810445,0.5412529706954956,0.8335520029067993,-0.1106185466051102,0,0,0,-1,-1,5755.2761455,unknown,2,2022-06-30T10:05:22.673+02:00,2022-06-30T08:20:05.567+02:00,1540,1.501556,0,0,1217.191,0,0,2022-06-30T10:05:15.030+02:00
2022-06-30T10:05:23.508+02:00,5756.110164000001,0.183074951171875,1.254013061523438,0.0463409423828125,5756.100212,1.081822472477188,1.363809567379716,-0.9829999664347941,1.719696640968323,1.724539041519165,-0.04587513208389282,-0.4051038026809692,0.5157968401908875,0.18412184715271,XArbitraryZVertical,-0.6002216104934432,0.2876680353509161,0.09745440724216035,0.7399214723229485,0.5426920056343079,0.8321647047996521,-0.1139622405171394,0,0,0,-1,-1,5755.2761455,unknown,2,2022-06-30T10:05:22.673+02:00,2022-06-30T08:20:05.567+02:00,1540,1.501556,0,0,1217.191,0,0,2022-06-30T10:05:15.030+02:00
2022-06-30T10:05:23.518+02:00,5756.120115000001,0.159759521484375,1.220596313476562,-0.02374267578125,5756.110164000001,1.050035179478979,1.354167617438983,-0.9796484614302926,1.866318464279175,1.656405091285706,-0.03132615238428116,-0.3637164235115051,0.4621027112007141,0.2111117988824844,XArbitraryZVertical,-0.5944050462719327,0.2945989036567335,0.08966255534070665,0.7428692697128414,0.544288694858551,0.8303015232086182,-0.1197882518172264,0,0,0,-1,-1,5755.2761455,unknown,2,2022-06-30T10:05:22.673+02:00,2022-06-30T08:20:05.567+02:00,1540,1.501556,0,0,1217.191,0,0,2022-06-30T10:05:15.030+02:00
2022-06-30T10:05:23.527+02:00,5756.130067,0.1533203125,1.195755004882812,-0.018280029296875,5756.120115000001,1.017085587143953,1.343210556350769,-0.9757956740738221,1.915407776832581,1.639871716499329,-0.009237625636160374,-0.3629812598228455,0.4258649945259094,0.1728062182664871,XArbitraryZVertical,-0.5881493867539787,0.3014092070669201,0.08190975539992687,0.7460050640186062,0.5460559129714966,0.8281481266021729,-0.1264655739068985,0,0,0,-1,-1,5755.2761455,unknown,2,2022-06-30T10:05:22.673+02:00,2022-06-30T08:20:05.567+02:00,1540,1.501556,0,0,1217.191,0,0,2022-06-30T10:05:15.030+02:00
2022-06-30T10:05:23.538+02:00,5756.140018,0.17572021484375,1.17205810546875,-0.0165252685546875,5756.130067,0.9840869216006637,1.332332945259485,-0.9713193888062712,1.907850742340088,1.657220602035522,0.03792512789368629,-0.3884853720664978,0.3949655294418335,0.1095290333032608,XArbitraryZVertical,-0.5816443324910946,0.3083080280426267,0.0742271755565316,0.7490836449266284,0.5482446551322937,0.8256308436393738,-0.1332720667123795,0,0,0,-1,-1,5755.2761455,unknown,2,2022-06-30T10:05:22.673+02:00,2022-06-30T08:20:05.567+02:00,1540,1.501556,0,0,1217.191,0,0,2022-06-30T10:05:15.030+02:00
2022-06-30T10:05:23.551+02:00,5756.149969,0.2255096435546875,1.15472412109375,-0.054595947265625,5756.140018,0.9516639284749419,1.322184202924122,-0.9663670361775681,1.930150747299194,1.673300862312317,0.04877404496073723,-0.3975001573562622,0.3729284405708313,0.1215531378984451,XArbitraryZVertical,-0.5750344235662942,0.315307272302908,0.06661198189045388,0.7519837167151584,0.5508202314376831,0.8228265643119812,-0.139833465218544,0,0,0,-1,-1,5755.2761455,unknown,2,2022-06-30T10:05:22.673+02:00,2022-06-30T08:20:05.567+02:00,1540,1.501556,0,0,1217.191,0,0,2022-06-30T10:05:15.030+02:00
2022-06-30T10:05:23.560+02:00,5756.159921,0.2760009765625,1.20196533203125,-0.0219268798828125,5756.149969,0.9173693459153873,1.31062741857334,-0.9607915279598697,2.160011291503906,1.670669794082642,0.06927205622196198,-0.3778722286224365,0.3524128198623657,0.1308419853448868,XArbitraryZVertical,-0.5678159480400665,0.3223371813941495,0.05880182248000249,0.7551331546231804,0.5535922050476074,0.8196452856063843,-0.1473675817251205,0,0,0,-1,-1,5755.2761455,unknown,2,2022-06-30T10:05:22.673+02:00,2022-06-30T08:20:05.567+02:00,1540,1.501556,0,0,1217.191,0,0,2022-06-30T10:05:15.030+02:00
2022-06-30T10:05:23.567+02:00,5756.169872,0.3007659912109375,1.157455444335938,0.0260009765625,5756.159921,0.8812476860763713,1.297729840872114,-0.954297335823091,2.183554410934448,1.676819562911987,0.1003378331661224,-0.3312502503395081,0.3388165235519409,0.1013311147689819,XArbitraryZVertical,-0.5599076591551461,0.3294536562766672,0.05086083898824523,0.7585360182321864,0.5567596554756165,0.8159076571464539,-0.1559274047613144,0,0,0,-1,-1,5755.2761455,unknown,2,2022-06-30T10:05:22.673+02:00,2022-06-30T08:20:05.567+02:00,1540,1.501556,0,0,1217.191,0,0,2022-06-30T10:05:15.030+02:00
