loggingTime(txt),accelerometerTimestamp_sinceReboot(s),accelerometerAccelerationX(G),accelerometerAccelerationY(G),accelerometerAccelerationZ(G),motionTimestamp_sinceReboot(s),motionYaw(rad),motionRoll(rad),motionPitch(rad),motionRotationRateX(rad/s),motionRotationRateY(rad/s),motionRotationRateZ(rad/s),motionUserAccelerationX(G),motionUserAccelerationY(G),motionUserAccelerationZ(G),motionAttitudeReferenceFrame(txt),motionQuaternionX(R),motionQuaternionY(R),motionQuaternionZ(R),motionQuaternionW(R),motionGravityX(G),motionGravityY(G),motionGravityZ(G),motionMagneticFieldX(µT),motionMagneticFieldY(µT),motionMagneticFieldZ(µT),motionHeading(°),motionMagneticFieldCalibrationAccuracy(Z),activityTimestamp_sinceReboot(s),activity(txt),activityActivityConfidence(Z),activityActivityStartDate(txt),pedometerStartDate(txt),pedometerNumberofSteps(N),pedometerAverageActivePace(s/m),pedometerCurrentPace(s/m),pedometerCurrentCadence(steps/s),pedometerDistance(m),pedometerFloorAscended(N),pedometerFloorDescended(N),pedometerEndDate(txt)
2022-06-30T10:05:31.826+02:00,5764.40959,-0.0132598876953125,-0.1239013671875,-0.9755706787109375,5764.399639,0.1753004642591574,-0.01422505870026837,0.1420912096902719,-0.1583472788333893,0.06161955744028091,-0.04665889963507652,-0.03959959745407104,0.01034200191497803,0.0270380973815918,XArbitraryZVertical,0.07133259829774477,-0.0008534874408047722,0.08681205411367617,0.993667318158222,-0.01408122386783361,-0.141613557934761,-0.9898218512535095,0,0,0,-1,-1,5762.91684375,unknown,2,2022-06-30T10:05:30.313+02:00,2022-06-30T08:20:05.567+02:00,1540,1.501556,0,0,1217.191,0,0,2022-06-30T10:05:15.030+02:00
2022-06-30T10:05:31.828+02:00,5764.419541,-0.011688232421875,-0.1406707763671875,-0.970611572265625,5764.40959,0.1749150229664086,-0.01471906677384423,0.1422575535609537,-0.07703471183776855,0.03377262875437737,-0.06103750318288803,-0.01874048262834549,0.02399544417858124,0.02059876918792725,XArbitraryZVertical,0.07143646384498749,-0.001105389219081255,0.08660180508681205,0.9936779661382159,-0.01456985529512167,-0.1417782157659531,-0.989791214466095,0,0,0,-1,-1,5762.91684375,unknown,2,2022-06-30T10:05:30.313+02:00,2022-06-30T08:20:05.567+02:00,1540,1.501556,0,0,1217.191,0,0,2022-06-30T10:05:15.030+02:00
2022-06-30T10:05:31.828+02:00,5764.429493000001,-0.01806640625,-0.1510772705078125,-0.9622039794921875,5764.419541,0.1740297944451341,-0.01299086390891193,0.1413551327019363,-0.05617257207632065,0.0241737961769104,-0.07289043813943863,-0.0003993585705757141,0.01698330044746399,0.01437181234359741,XArbitraryZVertical,0.07091314747070605,-0.0003176551777709522,0.0862293732635729,0.993748321893317,-0.01286093145608902,-0.1408848613500595,-0.9899424314498901,0,0,0,-1,-1,5762.91684375,unknown,2,2022-06-30T10:05:30.313+02:00,2022-06-30T08:20:05.567+02:00,1540,1.501556,0,0,1217.191,0,0,2022-06-30T10:05:15.030+02:00
2022-06-30T10:05:31.837+02:00,5764.439444000001,-0.028961181640625,-0.1565399169921875,-0.9596405029296875,5764.429493000001,0.1734318036702049,-0.01331449738098672,0.1403739665003156,-0.09486456960439682,0.01825603283941746,-0.06290691345930099,0.001494510099291801,-0.0007575452327728271,0.01946443319320679,XArbitraryZVertical,0.07043945421349339,-0.0005422782422241432,0.08592700019773833,0.9938081344977354,-0.01318314298987389,-0.139913409948349,-0.9900760054588318,0,0,0,-1,-1,5762.91684375,unknown,2,2022-06-30T10:05:30.313+02:00,2022-06-30T08:20:05.567+02:00,1540,1.501556,0,0,1217.191,0,0,2022-06-30T10:05:15.030+02:00
2022-06-30T10:05:31.847+02:00,5764.449395000001,-0.0281524658203125,-0.14434814453125,-0.9697723388671875,5764.439444000001,0.1728155139777175,-0.0132005911901886,0.1392219921087248,-0.1394805163145065,0.01677132025361061,-0.0609004870057106,-0.00499432161450386,-0.01230478286743164,0.0280340313911438,XArbitraryZVertical,0.06986200294968946,-0.0005572321742051007,0.08563201746641465,0.9938743851999728,-0.0130724860355258,-0.1387726813554764,-0.9902379512786865,0,0,0,-1,-1,5762.91684375,unknown,2,2022-06-30T10:05:30.313+02:00,2022-06-30T08:20:05.567+02:00,1540,1.501556,0,0,1217.191,0,0,2022-06-30T10:05:15.030+02:00
2022-06-30T10:05:31.857+02:00,5764.459347,-0.022491455078125,-0.13128662109375,-0.98590087890625,5764.449395000001,0.1722387256329725,-0.01305617185103052,0.1378581110563475,-0.1740702390670776,0.01721068285405636,-0.05213652178645134,-0.01602964848279953,-0.01911824941635132,0.03078770637512207,XArbitraryZVertical,0.06917793465223177,-0.0005644314153745308,0.08535891656173032,0.9939457045175648,-0.0129319354891777,-0.1374218612909317,-0.9904282093048096,0,0,0,-1,-1,5762.91684375,unknown,2,2022-06-30T10:05:30.313+02:00,2022-06-30T08:20:05.567+02:00,1540,1.501556,0,0,1217.191,0,0,2022-06-30T10:05:15.030+02:00
2022-06-30T10:05:31.867+02:00,5764.469298,-0.0229949951171875,-0.1175079345703125,-1.002182006835938,5764.459347,0.1716941447960078,-0.01290162529964171,0.136514487409984,-0.170904815196991,0.01153122540563345,-0.05591581389307976,-0.01537162810564041,-0.008257463574409485,0.02084159851074219,XArbitraryZVertical,0.06850347834760181,-0.000564222257140587,0.08510187191963661,0.9940144624539621,-0.01278123818337917,-0.1360908597707748,-0.9906139373779297,0,0,0,-1,-1,5762.91684375,unknown,2,2022-06-30T10:05:30.313+02:00,2022-06-30T08:20:05.567+02:00,1540,1.501556,0,0,1217.191,0,0,2022-06-30T10:05:15.030+02:00
2022-06-30T10:05:31.877+02:00,5764.479249,-0.0220489501953125,-0.1155853271484375,-1.003448486328125,5764.469298,0.171182481351396,-0.01283828877519591,0.1354004459039688,-0.1481941193342209,0.01376969646662474,-0.04421844333410263,-0.009771421551704407,0.003700286149978638,0.004864871501922607,XArbitraryZVertical,0.06794697620807105,-0.0005980172739916574,0.08485652567386844,0.9940736252005491,-0.01272043492645025,-0.1349871009588242,-0.9907656908035278,0,0,0,-1,-1,5762.91684375,unknown,2,2022-06-30T10:05:30.313+02:00,2022-06-30T08:20:05.567+02:00,1540,1.501556,0,0,1217.191,0,0,2022-06-30T10:05:15.030+02:00
2022-06-30T10:05:31.886+02:00,5764.489201,-0.0228424072265625,-0.12030029296875,-0.9971923828125,5764.479249,0.1709314857111314,-0.01361654882610358,0.1340704891288036,-0.1206335872411728,0.01536359917372465,-0.0301995649933815,-0.009501459077000618,0.01616106927394867,-0.01124781370162964,XArbitraryZVertical,0.06731886158521831,-0.001050309449337872,0.08471364766900728,0.994128149046358,-0.01349393744021654,-0.1336691975593567,-0.9909341335296631,0,0,0,-1,-1,5762.91684375,unknown,2,2022-06-30T10:05:30.313+02:00,2022-06-30T08:20:05.567+02:00,1540,1.501556,0,0,1217.191,0,0,2022-06-30T10:05:15.030+02:00
2022-06-30T10:05:31.897+02:00,5764.499152,-0.0241546630859375,-0.1320343017578125,-0.9908905029296875,5764.489201,0.1707401125035954,-0.01399806419978646,0.1325487723533539,-0.1139135658740997,0.02695966884493828,-0.02375701442360878,-0.008174527436494827,0.01657547056674957,-0.01231729984283447,XArbitraryZVertical,0.06657854557161402,-0.001311473492483708,0.08461529399581427,0.994186074893785,-0.01387482415884733,-0.1321609914302826,-0.9911311268806458,0,0,0,-1,-1,5762.91684375,unknown,2,2022-06-30T10:05:30.313+02:00,2022-06-30T08:20:05.567+02:00,1540,1.501556,0,0,1217.191,0,0,2022-06-30T10:05:15.030+02:00
2022-06-30T10:05:31.907+02:00,5764.509103,-0.0267486572265625,-0.1480865478515625,-0.994232177734375,5764.499152,0.1704843489471088,-0.01367057468155426,0.1310461465109597,-0.1420876830816269,0.02813279069960117,-0.02428804710507393,-0.009289870969951153,0.01037091016769409,-0.005859255790710449,XArbitraryZVertical,0.06581762686000173,-0.001221355937855804,0.08450837199646809,0.9942459668972595,-0.01355293765664101,-0.1306713968515396,-0.9913330674171448,0,0,0,-1,-1,5762.91684375,unknown,2,2022-06-30T10:05:30.313+02:00,2022-06-30T08:20:05.567+02:00,1540,1.501556,0,0,1217.191,0,0,2022-06-30T10:05:15.030+02:00
2022-06-30T10:05:31.917+02:00,5764.519055000001,-0.028564453125,-0.1421661376953125,-0.9870758056640625,5764.509103,0.170191388206684,-0.01325827327206645,0.1299673256448309,-0.1692570447921753,0.03211423009634018,-0.02562611922621727,-0.01100899372249842,-0.002432748675346375,0.000588536262512207,XArbitraryZVertical,0.06526377321291134,-0.001072009437865155,0.08438284720964355,0.9942932804300663,-0.01314606983214617,-0.1296017467975616,-0.9914789795875549,0,0,0,-1,-1,5762.91684375,unknown,2,2022-06-30T10:05:30.313+02:00,2022-06-30T08:20:05.567+02:00,1540,1.501556,0,0,1217.191,0,0,2022-06-30T10:05:15.030+02:00
2022-06-30T10:05:31.927+02:00,5764.529006000001,-0.0274658203125,-0.122283935546875,-0.988067626953125,5764.519055000001,0.1699680943176593,-0.01307220198146893,0.1291638759011575,-0.1799842566251755,0.04091011732816696,-0.01462087314575911,-0.01378611661493778,-0.01928170025348663,-0.002646923065185547,XArbitraryZVertical,0.06485640296941937,-0.001020986139614289,0.08428273014329468,0.9943284371399086,-0.01296294014900923,-0.1288050264120102,-0.9915851950645447,0,0,0,-1,-1,5762.91684375,unknown,2,2022-06-30T10:05:30.313+02:00,2022-06-30T08:20:05.567+02:00,1540,1.501556,0,0,1217.191,0,0,2022-06-30T10:05:15.030+02:00
2022-06-30T10:05:31.936+02:00,5764.538957000001,-0.020660400390625,-0.115142822265625,-0.9903106689453125,5764.529006000001,0.1698592133885287,-0.01322585553185517,0.1285770086417151,-0.1665602624416351,0.04343531280755997,-0.02358497306704521,-0.01544855441898108,-0.01394328474998474,0.004582881927490234,XArbitraryZVertical,0.06457106496563898,-0.00112587203062618,0.08422714640863302,0.9943516177611699,-0.01311629824340343,-0.1282230317592621,-0.991658627986908,0,0,0,-1,-1,5762.91684375,unknown,2,2022-06-30T10:05:30.313+02:00,2022-06-30T08:20:05.567+02:00,1540,1.501556,0,0,1217.191,0,0,2022-06-30T10:05:15.030+02:00
2022-06-30T10:05:31.946+02:00,5764.548909,-0.0182647705078125,-0.120147705078125,-0.99078369140625,5764.538957000001,0.1696241199210059,-0.01331556132637795,0.1278161903369501,-0.1187583953142166,0.04212663695216179,-0.03353933617472649,-0.01425966992974281,0.005184337496757507,0.003687083721160889,XArbitraryZVertical,0.06419646361878995,-0.0012103814750994,0.08411194948203934,0.9943855212246746,-0.01320655085146427,-0.1274684518575668,-0.9917547106742859,0,0,0,-1,-1,5762.91684375,unknown,2,2022-06-30T10:05:30.313+02:00,2022-06-30T08:20:05.567+02:00,1540,1.501556,0,0,1217.191,0,0,2022-06-30T10:05:15.030+02:00
2022-06-30T10:05:31.956+02:00,5764.55886,-0.021575927734375,-0.1243896484375,-0.9878082275390625,5764.548909,0.1692840722971227,-0.01322329491507996,0.1269863316264753,-0.08260704576969147,0.03640616685152054,-0.04144040122628212,-0.007544360123574734,0.01150232553482056,0.001550734043121338,XArbitraryZVertical,0.06377980479793965,-0.001210601863344449,0.08395080417177143,0.9944259169836424,-0.01311643980443478,-0.1266453266143799,-0.9918613433837891,0,0,0,-1,-1,5762.91684375,unknown,2,2022-06-30T10:05:30.313+02:00,2022-06-30T08:20:05.567+02:00,1540,1.501556,0,0,1217.191,0,0,2022-06-30T10:05:15.030+02:00
2022-06-30T10:05:31.966+02:00,5764.568812,-0.028045654296875,-0.1378326416015625,-0.9850616455078125,5764.55886,0.1688663696572589,-0.01309092825729301,0.1258763830310861,-0.07771934568881989,0.0457000657916069,-0.0492759570479393,-0.005278187803924084,0.005396336317062378,0.001219391822814941,XArbitraryZVertical,0.06322214432491532,-0.00120504384789636,0.08375390230384122,0.9944781704816817,-0.01298698224127293,-0.1255442351102829,-0.9920030236244202,0,0,0,-1,-1,5762.91684375,unknown,2,2022-06-30T10:05:30.313+02:00,2022-06-30T08:20:05.567+02:00,1540,1.501556,0,0,1217.191,0,0,2022-06-30T10:05:15.030+02:00
2022-06-30T10:05:31.976+02:00,5764.578763,-0.0287933349609375,-0.1417083740234375,-0.9861297607421875,5764.568812,0.168360064057922,-0.01284157121631804,0.1246740648179874,-0.09030917286872864,0.05472951382398605,-0.05504383146762848,-0.008834779262542725,-3.849714994430542e-05,0.004348278045654297,XArbitraryZVertical,0.06261360160843236,-0.001147742585680842,0.08351702743639443,0.9945366784541012,-0.01274154800921679,-0.1243513375520706,-0.992156445980072,0,0,0,-1,-1,5762.91684375,unknown,2,2022-06-30T10:05:30.313+02:00,2022-06-30T08:20:05.567+02:00,1540,1.501556,0,0,1217.191,0,0,2022-06-30T10:05:15.030+02:00
2022-06-30T10:05:31.986+02:00,5764.588714,-0.026123046875,-0.1350860595703125,-0.9878387451171875,5764.578763,0.16781522599283,-0.01253236719705026,0.1235142044463889,-0.1154419556260109,0.05838576704263687,-0.05934616550803185,-0.01560948695987463,-0.0146324411034584,0.007242262363433838,XArbitraryZVertical,0.06202366608695245,-0.001059772647941009,0.08326239784816822,0.9945951250354542,-0.01243656780570745,-0.1232003942131996,-0.9923039078712463,0,0,0,-1,-1,5762.91684375,unknown,2,2022-06-30T10:05:30.313+02:00,2022-06-30T08:20:05.567+02:00,1540,1.501556,0,0,1217.191,0,0,2022-06-30T10:05:15.030+02:00
2022-06-30T10:05:31.996+02:00,5764.598666000001,-0.02569580078125,-0.12420654296875,-0.9903106689453125,5764.588714,0.1672188121106752,-0.0122234058817611,0.1225565675926725,-0.1315951645374298,0.06472969055175781,-0.06465154886245728,-0.01666231453418732,-0.01945856958627701,0.006295442581176758,XArbitraryZVertical,0.06153431412641885,-0.0009647084249557644,0.08298075292381996,0.994649098533913,-0.01213141996413469,-0.122249998152256,-0.9924252033233643,0,0,0,-1,-1,5762.91684375,unknown,2,2022-06-30T10:05:30.313+02:00,2022-06-30T08:20:05.567+02:00,1540,1.501556,0,0,1217.191,0,0,2022-06-30T10:05:15.030+02:00
2022-06-30T10:05:32.006+02:00,5764.608617000001,-0.0220794677734375,-0.1193695068359375,-0.9977264404296875,5764.598666000001,0.1666028908742195,-0.01193975083065334,0.1220712826137551,-0.1219502538442612,0.06672120094299316,-0.06591548025608063,-0.01427282672375441,-0.01331791281700134,0.004649102687835693,XArbitraryZVertical,0.06128095255182458,-0.0008628252091977862,0.08268583994071155,0.9946893615980296,-0.01185062061995268,-0.1217683330178261,-0.9924877882003784,0,0,0,-1,-1,5762.91684375,unknown,2,2022-06-30T10:05:30.313+02:00,2022-06-30T08:20:05.567+02:00,1540,1.501556,0,0,1217.191,0,0,2022-06-30T10:05:15.030+02:00
2022-06-30T10:05:32.016+02:00,5764.618568000001,-0.0192413330078125,-0.11083984375,-0.9946441650390625,5764.608617000001,0.1659643606514585,-0.01170540697537007,0.1216732236885414,-0.09011323004961014,0.06777253001928329,-0.07109866291284561,-0.01407759729772806,-0.002833500504493713,0.002228319644927979,XArbitraryZVertical,0.06107305226339327,-0.0007823744444764133,0.08237760550501162,0.9947278351703838,-0.01161860302090645,-0.1213732287287712,-0.9925389289855957,0,0,0,-1,-1,5762.91684375,unknown,2,2022-06-30T10:05:30.313+02:00,2022-06-30T08:20:05.567+02:00,1540,1.501556,0,0,1217.191,0,0,2022-06-30T10:05:15.030+02:00
2022-06-30T10:05:32.026+02:00,5764.62852,-0.0362091064453125,-0.1194610595703125,-0.999359130859375,5764.618568000001,0.1652797806032944,-0.01144702094057947,0.1209194464370784,-0.07195845991373062,0.06861115992069244,-0.0797313004732132,-0.01071667857468128,0.001255296170711517,-0.005093276500701904,XArbitraryZVertical,0.06068728758330703,-0.0007059466431252327,0.08204903715787103,0.9947786448763963,-0.01136318873614073,-0.1206249892711639,-0.9926331043243408,0,0,0,-1,-1,5762.91684375,unknown,2,2022-06-30T10:05:30.313+02:00,2022-06-30T08:20:05.567+02:00,1540,1.501556,0,0,1217.191,0,0,2022-06-30T10:05:15.030+02:00
2022-06-30T10:05:32.036+02:00,5764.638471,-0.0207977294921875,-0.1754608154296875,-1.004501342773438,5764.62852,0.164259866912637,-0.01086658580198119,0.1200092393837566,-0.09692686051130295,0.07739529013633728,-0.1548865288496017,-0.008453516289591789,0.008881352841854095,-0.00189518928527832,XArbitraryZVertical,0.06021052487095286,-0.0004855956884663047,0.08156404948683595,0.9948476182701184,-0.01078821625560522,-0.119721382856369,-0.9927489161491394,0,0,0,-1,-1,5762.91684375,unknown,2,2022-06-30T10:05:30.313+02:00,2022-06-30T08:20:05.567+02:00,1540,1.501556,0,0,1217.191,0,0,2022-06-30T10:05:15.030+02:00
2022-06-30T10:05:32.046+02:00,5764.648422,0.0185546875,-0.15289306640625,-0.9952850341796875,5764.638471,0.1627381013645889,-0.009995235469856357,0.1189505522113942,-0.1081885695457458,0.09561637043952942,-0.1158752217888832,-0.02628506347537041,-0.000791013240814209,-0.006474971771240234,XArbitraryZVertical,0.05964829420940247,-0.0001410562870567883,0.08083848756776293,0.9949408265384426,-0.009924440644681454,-0.1186702400445938,-0.99288409948349,0,0,0,-1,-1,5762.91684375,unknown,2,2022-06-30T10:05:30.313+02:00,2022-06-30T08:20:05.567+02:00,1540,1.501556,0,0,1217.191,0,0,2022-06-30T10:05:15.030+02:00
2022-06-30T10:05:32.067+02:00,5764.658374000001,-0.0298614501953125,-0.1148834228515625,-0.985107421875,5764.648422,0.1620031432344625,-0.009371026991141812,0.1178972306682109,-0.1515594124794006,0.08955986797809601,-0.06258752942085266,-0.0114922896027565,-0.05783671140670776,-0.01148676872253418,XArbitraryZVertical,0.05909912557850717,0.0001048749990560926,0.08049645503926267,0.9950012908912012,-0.009305838495492935,-0.1176242977380753,-0.9930145740509033,0,0,0,-1,-1,5762.91684375,unknown,2,2022-06-30T10:05:30.313+02:00,2022-06-30T08:20:05.567+02:00,1540,1.501556,0,0,1217.191,0,0,2022-06-30T10:05:15.030+02:00
2022-06-30T10:05:32.069+02:00,5764.668325000001,-0.0167694091796875,-0.1056365966796875,-0.99493408203125,5764.658374000001,0.160995852609525,-0.008794735313094526,0.116862954547294,-0.1706811785697937,0.1115370765328407,-0.1457466036081314,0.02728892490267754,-0.03629612177610397,-0.002144098281860352,XArbitraryZVertical,0.05856155444127786,0.0003201819926755887,0.08001704024076714,0.9950717549694967,-0.008734636008739471,-0.1165971383452415,-0.9931408762931824,0,0,0,-1,-1,5762.91684375,unknown,2,2022-06-30T10:05:30.313+02:00,2022-06-30T08:20:05.567+02:00,1540,1.501556,0,0,1217.191,0,0,2022-06-30T10:05:15.030+02:00
2022-06-30T10:05:32.076+02:00,5764.678276000001,-0.011749267578125,-0.099517822265625,-0.991607666015625,5764.668325000001,0.1596396996437102,-0.00816510957871678,0.1161472752131431,-0.1162663996219635,0.103298544883728,-0.1278193891048431,-0.02175184153020382,0.001002691686153412,0.008121967315673828,XArbitraryZVertical,0.05818069067097805,0.0005651823658778889,0.07936383281271091,0.9951463142360178,-0.008110007271170616,-0.1158863082528114,-0.9932293891906738,0,0,0,-1,-1,5762.91684375,unknown,2,2022-06-30T10:05:30.313+02:00,2022-06-30T08:20:05.567+02:00,1540,1.501556,0,0,1217.191,0,0,2022-06-30T10:05:15.030+02:00
2022-06-30T10:05:32.086+02:00,5764.688228,-0.006439208984375,-0.1006927490234375,-0.9967193603515625,5764.678276000001,0.1584981021281759,-0.007541975611749494,0.1158455711145606,-0.05863160267472267,0.1013741418719292,-0.1230605989694595,-0.009278453886508942,0.009949840605258942,-0.001664876937866211,XArbitraryZVertical,0.05800632918424587,0.0008300865429884855,0.07881517408896346,0.9951999031832536,-0.007491353899240494,-0.115586631000042,-0.993269145488739,0,0,0,-1,-1,5762.91684375,unknown,2,2022-06-30T10:05:30.313+02:00,2022-06-30T08:20:05.567+02:00,1540,1.501556,0,0,1217.191,0,0,2022-06-30T10:05:15.030+02:00
2022-06-30T10:05:32.096+02:00,5764.698179,0.00201416015625,-0.107269287109375,-0.989044189453125,5764.688228,0.1572018034492537,-0.006944203274039908,0.1157651801611216,-0.01125849597156048,0.09065625071525574,-0.1456210315227509,-0.004851997829973698,0.01598875969648361,0.001675128936767578,XArbitraryZVertical,0.05794348718005555,0.001086797703373618,0.07818777771892017,0.9952527689226012,-0.006897668354213238,-0.1155067831277847,-0.9932827353477478,0,0,0,-1,-1,5762.91684375,unknown,2,2022-06-30T10:05:30.313+02:00,2022-06-30T08:20:05.567+02:00,1540,1.501556,0,0,1217.191,0,0,2022-06-30T10:05:15.030+02:00
2022-06-30T10:05:32.106+02:00,5764.70813,0.0015716552734375,-0.1165008544921875,-0.991943359375,5764.698179,0.1558100703944485,-0.006314189698609333,0.1158539040048338,0.005497581791132689,0.08807564526796341,-0.1389181166887283,-0.00016778614372015,0.01490197330713272,-0.003442645072937012,XArbitraryZVertical,0.05796396331559753,0.001363458947756939,0.07751310013711044,0.9953040801684365,-0.006271820515394211,-0.1155949085950851,-0.9932766556739807,0,0,0,-1,-1,5762.91684375,unknown,2,2022-06-30T10:05:30.313+02:00,2022-06-30T08:20:05.567+02:00,1540,1.501556,0,0,1217.191,0,0,2022-06-30T10:05:15.030+02:00
2022-06-30T10:05:32.115+02:00,5764.718082,0.0034332275390625,-0.119964599609375,-0.9829559326171875,5764.70813,0.1544958709802765,-0.00565611656980973,0.1157806209697123,0.001719155348837376,0.0880877897143364,-0.1314718276262283,0.007631980814039707,0.008252635598182678,0.004244863986968994,XArbitraryZVertical,0.05790308755263757,0.001650050349050817,0.07687840971264805,0.99535634913126,-0.005618218332529068,-0.1155221164226532,-0.9932889938354492,0,0,0,-1,-1,5762.91684375,unknown,2,2022-06-30T10:05:30.313+02:00,2022-06-30T08:20:05.567+02:00,1540,1.501556,0,0,1217.191,0,0,2022-06-30T10:05:15.030+02:00
2022-06-30T10:05:32.125+02:00,5764.728033,0.00262451171875,-0.122955322265625,-0.974151611328125,5764.718082,0.1532898525099443,-0.005481662522235676,0.1157522008599464,-0.02687866613268852,0.08661266416311264,-0.128603607416153,0.007016210816800594,-0.001007162034511566,0.001349925994873047,XArbitraryZVertical,0.05788327051894356,0.001700870845134469,0.07628333454499793,0.9954032576211335,-0.005444953218102455,-0.1154938861727715,-0.993293285369873,0,0,0,-1,-1,5762.91684375,unknown,2,2022-06-30T10:05:30.313+02:00,2022-06-30T08:20:05.567+02:00,1540,1.501556,0,0,1217.191,0,0,2022-06-30T10:05:15.030+02:00
2022-06-30T10:05:32.135+02:00,5764.737985000001,0.006439208984375,-0.1101837158203125,-0.969573974609375,5764.728033,0.152087579883233,-0.004895325823642198,0.1169001008185227,-0.05431422218680382,0.08114191144704819,-0.1186181083321571,0.00829472579061985,-0.003330759704113007,0.01020717620849609,XArbitraryZVertical,0.05843341084407649,0.002001520322875218,0.07569798604671522,0.9954151791381706,-0.004861895460635424,-0.1166340336203575,-0.9931630492210388,0,0,0,-1,-1,5762.91684375,unknown,2,2022-06-30T10:05:30.313+02:00,2022-06-30T08:20:05.567+02:00,1540,1.501556,0,0,1217.191,0,0,2022-06-30T10:05:15.030+02:00
2022-06-30T10:05:32.145+02:00,5764.747936000001,4.57763671875e-05,-0.097869873046875,-0.971527099609375,5764.737985000001,0.1508683732727746,-0.003377061608918825,0.1172381446861345,-0.07230520248413086,0.06801358610391617,-0.1112161204218864,0.005977988243103027,-0.005985759198665619,0.01897823810577393,XArbitraryZVertical,0.0585458507517183,0.002734317451783774,0.07513447291591711,0.9954495143364482,-0.003353873267769814,-0.1169697567820549,-0.9931297898292542,0,0,0,-1,-1,5762.91684375,unknown,2,2022-06-30T10:05:30.313+02:00,2022-06-30T08:20:05.567+02:00,1540,1.501556,0,0,1217.191,0,0,2022-06-30T10:05:15.030+02:00
2022-06-30T10:05:32.155+02:00,5764.757887000001,0.000701904296875,-0.0929107666015625,-0.9813232421875,5764.747936000001,0.1498441865380101,-0.003319310061849414,0.1164881752713924,-0.06731890141963959,0.06285898387432098,-0.1117963269352913,0.009735621511936188,0.006040990352630615,0.02364349365234375,XArbitraryZVertical,0.0581717952120416,0.00270502460012881,0.07462864685323548,0.9955096044791375,-0.003296808805316687,-0.1162249073386192,-0.9932174682617188,0,0,0,-1,-1,5762.91684375,unknown,2,2022-06-30T10:05:30.313+02:00,2022-06-30T08:20:05.567+02:00,1540,1.501556,0,0,1217.191,0,0,2022-06-30T10:05:15.030+02:00
2022-06-30T10:05:32.165+02:00,5764.767839,-0.0100250244140625,-0.0991058349609375,-0.9866943359375,5764.757887000001,0.1487662001378169,-0.003038443849756452,0.1155811510836327,-0.05589713901281357,0.04566028714179993,-0.1138291209936142,0.003063546493649483,0.01745391637086868,0.02179628610610962,XArbitraryZVertical,0.05771134205453519,0.002779791778478161,0.07410286754370095,0.9955755338955972,-0.003018166404217482,-0.1153239831328392,-0.9933233261108398,0,0,0,-1,-1,5762.91684375,unknown,2,2022-06-30T10:05:30.313+02:00,2022-06-30T08:20:05.567+02:00,1540,1.501556,0,0,1217.191,0,0,2022-06-30T10:05:15.030+02:00
2022-06-30T10:05:32.175+02:00,5764.77779,-0.0023040771484375,-0.1211090087890625,-0.9912109375,5764.767839,0.1475472617470316,-0.002671568756888528,0.1145921583579292,-0.06567360460758209,0.05098438262939453,-0.136372372508049,0.003355551976710558,0.02143056690692902,0.0121147632598877,XArbitraryZVertical,0.0572072172611392,0.002890828137100248,0.07350942882780566,0.9956481918291148,-0.0026540441904217,-0.1143415346741676,-0.9934379458427429,0,0,0,-1,-1,5762.91684375,unknown,2,2022-06-30T10:05:30.313+02:00,2022-06-30T08:20:05.567+02:00,1540,1.501556,0,0,1217.191,0,0,2022-06-30T10:05:15.030+02:00
2022-06-30T10:05:32.185+02:00,5764.787741,-0.005950927734375,-0.1135406494140625,-0.9843597412109375,5764.77779,0.1462565554131645,-0.002060213977157898,0.1134617782089525,-0.08962474018335342,0.06000477820634842,-0.1161677688360214,-0.007978454232215881,0.01411246508359909,0.006873726844787598,XArbitraryZVertical,0.05662403106566723,0.003117009087491766,0.07288728244136788,0.9957266285504115,-0.002046965528279543,-0.1132184937596321,-0.9935680031776428,0,0,0,-1,-1,5762.91684375,unknown,2,2022-06-30T10:05:30.313+02:00,2022-06-30T08:20:05.567+02:00,1540,1.501556,0,0,1217.191,0,0,2022-06-30T10:05:15.030+02:00
2022-06-30T10:05:32.195+02:00,5764.797693,-0.01495361328125,-0.1087646484375,-0.9792633056640625,5764.787741,0.1451065559208702,-0.001207010237695575,0.1122314317761767,-0.1340294182300568,0.06641538441181183,-0.1199982240796089,-0.00110505660995841,-0.009113237261772156,0.002497017383575439,XArbitraryZVertical,0.05598238494580356,0.003464703021061353,0.07234176564320714,0.9958014967465131,-0.001199416234157979,-0.1119959726929665,-0.9937079548835754,0,0,0,-1,-1,5762.91684375,unknown,2,2022-06-30T10:05:30.313+02:00,2022-06-30T08:20:05.567+02:00,1540,1.501556,0,0,1217.191,0,0,2022-06-30T10:05:15.030+02:00
2022-06-30T10:05:32.205+02:00,5764.807644,-0.0125579833984375,-0.0992279052734375,-0.988037109375,5764.797693,0.1437776950907602,-0.0002311540217423356,0.1107840438890122,-0.1776597201824188,0.08614780753850937,-0.1359465718269348,-0.005721586290746927,-0.002983279526233673,0.00950998067855835,XArbitraryZVertical,0.05522898880540539,0.003861503364496154,0.07171039463501759,0.9958878004035492,-0.000229736979235895,-0.1105575710535049,-0.9938697218894958,0,0,0,-1,-1,5762.91684375,unknown,2,2022-06-30T10:05:30.313+02:00,2022-06-30T08:20:05.567+02:00,1540,1.501556,0,0,1217.191,0,0,2022-06-30T10:05:15.030+02:00
2022-06-30T10:05:32.215+02:00,5764.817595,-0.0172119140625,-0.081573486328125,-0.9958953857421875,5764.807644,0.1424850985577385,0.0009158640003431834,0.1092322695343448,-0.1838264763355255,0.09436032921075821,-0.1196798831224442,-0.01586441323161125,0.0002503246068954468,0.01477640867233276,XArbitraryZVertical,0.05441795593922447,0.004341858000307108,0.07110108479043019,0.995974165911355,0.0009104054188355803,-0.1090151816606522,-0.9940396547317505,0,0,0,-1,-1,5762.91684375,unknown,2,2022-06-30T10:05:30.313+02:00,2022-06-30T08:20:05.567+02:00,1540,1.501556,0,0,1217.191,0,0,2022-06-30T10:05:15.030+02:00
2022-06-30T10:05:32.225+02:00,5764.827546041667,-0.010528564453125,-0.0634307861328125,-0.9963531494140625,5764.817595,0.1412406751100287,0.002007036055438818,0.1079073581400131,-0.1589000821113586,0.09097518771886826,-0.1281740367412567,-0.01455373875796795,0.008469961583614349,0.006144583225250244,XArbitraryZVertical,0.05372235315917859,0.004804771762849839,0.07051292061410644,0.9960515928360733,0.001995361177250743,-0.107698068022728,-0.9941816329956055,0,0,0,-1,-1,5762.91684375,unknown,2,2022-06-30T10:05:30.313+02:00,2022-06-30T08:20:05.567+02:00,1540,1.501556,0,0,1217.191,0,0,2022-06-30T10:05:15.030+02:00
2022-06-30T10:05:32.235+02:00,5764.837497041667,-0.0169525146484375,-0.070709228515625,-0.99346923828125,5764.827546041667,0.1399770677190464,0.003159629177285933,0.1066704755848828,-0.1154627278447151,0.0896737203001976,-0.1223234012722969,-0.02035397291183472,0.02489461004734039,-0.001584231853485107,XArbitraryZVertical,0.05306905076059433,0.005301740196509678,0.06991589054096976,0.996126217449628,0.003141664899885654,-0.1064682975411415,-0.9943111538887024,0,0,0,-1,-1,5762.91684375,unknown,2,2022-06-30T10:05:30.313+02:00,2022-06-30T08:20:05.567+02:00,1540,1.501556,0,0,1217.191,0,0,2022-06-30T10:05:15.030+02:00
2022-06-30T10:05:32.245+02:00,5764.847448041667,-0.016937255859375,-0.0997314453125,-0.98876953125,5764.837497041667,0.1386618098028105,0.004156034804703717,0.1054733700864589,-0.09270814806222916,0.09837746620178223,-0.1431629061698914,-0.01466188579797745,0.04184693098068237,-0.00191885232925415,XArbitraryZVertical,0.05244173569116752,0.005721793668321725,0.06928818640990622,0.9962009581633232,0.004132926929742098,-0.105277918279171,-0.9944342374801636,0,0,0,-1,-1,5762.91684375,unknown,2,2022-06-30T10:05:30.313+02:00,2022-06-30T08:20:05.567+02:00,1540,1.501556,0,0,1217.191,0,0,2022-06-30T10:05:15.030+02:00
2022-06-30T10:05:32.255+02:00,5764.857400041667,-0.0268096923828125,-0.122161865234375,-0.9742431640625,5764.847448041667,0.1371391306832203,0.00520553889782387,0.1042273505944344,-0.1072176471352577,0.09835762530565262,-0.1617089956998825,-0.02213017456233501,0.0333293080329895,0.001090526580810547,XArbitraryZVertical,0.0517894110837014,0.006162108267542739,0.06855784978763715,0.996283019910028,0.005177266430109739,-0.1040387451648712,-0.9945597648620605,0,0,0,-1,-1,5762.91684375,unknown,2,2022-06-30T10:05:30.313+02:00,2022-06-30T08:20:05.567+02:00,1540,1.501556,0,0,1217.191,0,0,2022-06-30T10:05:15.030+02:00
2022-06-30T10:05:32.265+02:00,5764.867351041667,-0.0428619384765625,-0.1307830810546875,-0.9559783935546875,5764.857400041667,0.1355088891850719,0.00602073885865742,0.1028461013297498,-0.1534868776798248,0.1069039776921272,-0.1754618287086487,-0.02292653918266296,0.00293324887752533,0.005928456783294678,XArbitraryZVertical,0.05107868016114341,0.006479412219981128,0.06776719256456437,0.9963717512817913,0.005988888908177614,-0.1026648879051208,-0.9946979880332947,0,0,0,-1,-1,5762.91684375,unknown,2,2022-06-30T10:05:30.313+02:00,2022-06-30T08:20:05.567+02:00,1540,1.501556,0,0,1217.191,0,0,2022-06-30T10:05:15.030+02:00
2022-06-30T10:05:32.275+02:00,5764.877302041667,-0.061279296875,-0.1513824462890625,-0.9512786865234375,5764.867351041667,0.1336344738775442,0.007151300332279429,0.1014351535861663,-0.2178144752979279,0.1206991523504257,-0.2124209105968475,-0.03392456471920013,-0.02090077102184296,0.02059125900268555,XArbitraryZVertical,0.05034395872704248,0.006947890423523959,0.06686211612008677,0.9964670872663598,0.007114481180906296,-0.1012612953782082,-0.9948344230651855,0,0,0,-1,-1,5762.91684375,unknown,2,2022-06-30T10:05:30.313+02:00,2022-06-30T08:20:05.567+02:00,1540,1.501556,0,0,1217.191,0,0,2022-06-30T10:05:15.030+02:00
2022-06-30T10:05:32.285+02:00,5764.887254041667,-0.0750579833984375,-0.1731109619140625,-0.959075927734375,5764.877302041667,0.1313245737514606,0.008437528686392587,0.0992946052602425,-0.2610884308815002,0.1396869421005249,-0.2580426931381226,-0.05125819891691208,-0.03165176510810852,0.03906053304672241,XArbitraryZVertical,0.04924304575731952,0.007460718355571288,0.06574258646595652,0.9965929788715528,0.008395868353545666,-0.09913152456283569,-0.9950389266014099,0,0,0,-1,-1,5762.91684375,unknown,2,2022-06-30T10:05:30.313+02:00,2022-06-30T08:20:05.567+02:00,1540,1.501556,0,0,1217.191,0,0,2022-06-30T10:05:15.030+02:00
2022-06-30T10:05:32.295+02:00,5764.897205041667,-0.0855560302734375,-0.1903533935546875,-0.9685821533203125,5764.887254041667,0.1285374730765131,0.00981944998463224,0.09665234771989163,-0.3068418800830841,0.1644038558006287,-0.3100413084030151,-0.0710531547665596,-0.05488071590662003,0.04400616884231567,XArbitraryZVertical,0.04789209736210401,0.007996327918575205,0.06438543294523572,0.9967431652554682,0.009773463942110538,-0.09650193899869919,-0.9952847957611084,0,0,0,-1,-1,5762.91684375,unknown,2,2022-06-30T10:05:30.313+02:00,2022-06-30T08:20:05.567+02:00,1540,1.501556,0,0,1217.191,0,0,2022-06-30T10:05:15.030+02:00
2022-06-30T10:05:32.305+02:00,5764.907157041667,-0.1026153564453125,-0.1968231201171875,-0.9833526611328125,5764.897205041667,0.1252895081495506,0.01156020224332376,0.09308214297471876,-0.4221857786178589,0.1866007745265961,-0.3534473776817322,-0.08656828105449677,-0.08016337454319,0.03652858734130859,XArbitraryZVertical,0.04607077101333096,0.008675030482429152,0.06280333574844087,0.9969243234660164,0.01150990184396505,-0.09294778853654861,-0.9956044554710388,0,0,0,-1,-1,5762.91684375,unknown,2,2022-06-30T10:05:30.313+02:00,2022-06-30T08:20:05.567+02:00,1540,1.501556,0,0,1217.191,0,0,2022-06-30T10:05:15.030+02:00
2022-06-30T10:05:32.315+02:00,5764.917108041667,-0.1199493408203125,-0.1982421875,-0.9951629638671875,5764.907157041667,0.1215206925794311,0.01367747346063941,0.08793717562002015,-0.587258517742157,0.2253522872924805,-0.4174696505069733,-0.09918062388896942,-0.1025297120213509,0.02746069431304932,XArbitraryZVertical,0.04345742057329038,0.009488446765233329,0.06096289638012268,0.9971484307091848,0.01362419873476028,-0.08782388269901276,-0.9960428476333618,0,0,0,-1,-1,5762.91684375,unknown,2,2022-06-30T10:05:30.313+02:00,2022-06-30T08:20:05.567+02:00,1540,1.501556,0,0,1217.191,0,0,2022-06-30T10:05:15.030+02:00
2022-06-30T10:05:32.325+02:00,5764.927059041667,-0.135894775390625,-0.198486328125,-1.005630493164062,5764.917108041667,0.1172246368932985,0.0164815645091231,0.08096998509983237,-0.8020006418228149,0.2629518806934357,-0.4618791937828064,-0.1190425679087639,-0.1159417778253555,0.01323574781417847,XArbitraryZVertical,0.03992072645647903,0.01059062983280867,0.05886173851490172,0.9974113740691571,0.0164268221706152,-0.08088153600692749,-0.9965883493423462,0,0,0,-1,-1,5762.91684375,unknown,2,2022-06-30T10:05:30.313+02:00,2022-06-30T08:20:05.567+02:00,1540,1.501556,0,0,1217.191,0,0,2022-06-30T10:05:15.030+02:00
2022-06-30T10:05:32.335+02:00,5764.937011041667,-0.159149169921875,-0.1923675537109375,-0.992462158203125,5764.927059041667,0.1126204517651594,0.01952195718791993,0.07169892886904307,-1.051457762718201,0.2770662605762482,-0.4926374554634094,-0.1394203007221222,-0.1266048848628998,0.002077698707580566,XArbitraryZVertical,0.03523428002677929,0.01175618703601351,0.05659092004745277,0.9977063081774284,0.01947056315839291,-0.07163751125335693,-0.9972406625747681,0,0,0,-1,-1,5762.91684375,unknown,2,2022-06-30T10:05:30.313+02:00,2022-06-30T08:20:05.567+02:00,1540,1.501556,0,0,1217.191,0,0,2022-06-30T10:05:15.030+02:00
2022-06-30T10:05:32.344+02:00,5764.946962041667,-0.195648193359375,-0.19873046875,-1.010940551757812,5764.937011041667,0.1078449032455564,0.02277856880697131,0.05975409534821173,-1.331872940063477,0.3210744559764862,-0.5166785717010498,-0.1586311161518097,-0.1387679874897003,-0.007674157619476318,XArbitraryZVertical,0.0292136953741784,0.01297732781643424,0.05420850114409703,0.998017860909133,0.0227359477430582,-0.0597185418009758,-0.9979562759399414,0,0,0,-1,-1,5762.91684375,unknown,2,2022-06-30T10:05:30.313+02:00,2022-06-30T08:20:05.567+02:00,1540,1.501556,0,0,1217.191,0,0,2022-06-30T10:05:15.030+02:00
2022-06-30T10:05:32.354+02:00,5764.956913041667,-0.1969757080078125,-0.196624755859375,-1.024200439453125,5764.946962041667,0.1028655577871608,0.02662021934538488,0.04502863887931872,-1.592770934104919,0.3999766409397125,-0.5594159364700317,-0.1857396513223648,-0.1473543345928192,0.006170332431793213,XArbitraryZVertical,0.02179657647068559,0.01444601151078894,0.05169176383079859,0.9983206384374089,0.02659009583294392,-0.0450134240090847,-0.9986324310302734,0,0,0,-1,-1,5762.91684375,unknown,2,2022-06-30T10:05:30.313+02:00,2022-06-30T08:20:05.567+02:00,1540,1.501556,0,0,1217.191,0,0,2022-06-30T10:05:15.030+02:00
2022-06-30T10:05:32.364+02:00,5764.966865041667,-0.2120513916015625,-0.1695404052734375,-1.001373291015625,5764.956913041667,0.09757413820806428,0.03085605384002083,0.02796860777469016,-1.804976105690002,0.4094140827655792,-0.6033503413200378,-0.2264876663684845,-0.1707657277584076,-0.01180750131607056,XArbitraryZVertical,0.01321326093736994,0.01608943112226696,0.04897262418623138,0.9985831029993217,0.0308390911668539,-0.02796496078372002,-0.9991330504417419,0,0,0,-1,-1,5762.91684375,unknown,2,2022-06-30T10:05:30.313+02:00,2022-06-30T08:20:05.567+02:00,1540,1.501556,0,0,1217.191,0,0,2022-06-30T10:05:15.030+02:00
2022-06-30T10:05:32.374+02:00,5764.976816041667,-0.2399139404296875,-0.1642913818359375,-0.9703216552734375,5764.966865041667,0.09183283351478212,0.03520984582108128,0.008765670303309029,-2.006563901901245,0.4484170079231262,-0.6908866763114929,-0.2321773171424866,-0.1878594160079956,-0.02485865354537964,XArbitraryZVertical,0.003569501759320681,0.01778643142403561,0.04596980283725486,0.998778126252435,0.03520121797919273,-0.008765557780861855,-0.9993417859077454,0,0,0,-1,-1,5762.91684375,unknown,2,2022-06-30T10:05:30.313+02:00,2022-06-30T08:20:05.567+02:00,1540,1.501556,0,0,1217.191,0,0,2022-06-30T10:05:15.030+02:00
2022-06-30T10:05:32.384+02:00,5764.986767041667,-0.242645263671875,-0.156005859375,-0.948394775390625,5764.976816041667,0.08503943846581094,0.03992728103409254,-0.01242929671207287,-2.202133893966675,0.5105661749839783,-0.8303852081298828,-0.2519653737545013,-0.1819695979356766,-0.002247452735900879,XArbitraryZVertical,-0.007056273912686645,0.01967977537756477,0.04237367085711508,0.9988830868412132,0.0399135909974575,0.01242897659540176,-0.9991258382797241,0,0,0,-1,-1,5762.91684375,unknown,2,2022-06-30T10:05:30.313+02:00,2022-06-30T08:20:05.567+02:00,1540,1.501556,0,0,1217.191,0,0,2022-06-30T10:05:15.030+02:00
2022-06-30T10:05:32.394+02:00,5764.996719041667,-0.2494659423828125,-0.1444244384765625,-0.9540557861328125,5764.986767041667,0.07737954071562884,0.04523200388524751,-0.03595964530624757,-2.452219247817993,0.5995986461639404,-0.9052515625953674,-0.2851016521453857,-0.2002435028553009,0.02800971269607544,XArbitraryZVertical,-0.01883537736018637,0.02189825050199933,0.03825770320225017,0.9988504277085077,0.04518735036253929,0.0359518975019455,-0.9983313679695129,0,0,0,-1,-1,5762.91684375,unknown,2,2022-06-30T10:05:30.313+02:00,2022-06-30T08:20:05.567+02:00,1540,1.501556,0,0,1217.191,0,0,2022-06-30T10:05:15.030+02:00
2022-06-30T10:05:32.404+02:00,5765.006670041667,-0.2551727294921875,-0.1142120361328125,-0.9622802734375,5764.996719041667,0.0692186814831641,0.0513260191046757,-0.06180276281325559,-2.654102563858032,0.7089440226554871,-0.9828720688819885,-0.2938511967658997,-0.2177695035934448,0.04838168621063232,XArbitraryZVertical,-0.03175527189714199,0.02456384015911118,0.03378218630692194,0.9986226465476042,0.05120553821325302,0.06176342815160751,-0.9967764616012573,0,0,0,-1,-1,5762.91684375,unknown,2,2022-06-30T10:05:30.313+02:00,2022-06-30T08:20:05.567+02:00,1540,1.501556,0,0,1217.191,0,0,2022-06-30T10:05:15.030+02:00
2022-06-30T10:05:32.414+02:00,5765.016621041667,-0.2408447265625,-0.0639190673828125,-0.9891204833984375,5765.006670041667,0.06048136526384691,0.05831290059080439,-0.0894558644349932,-2.78201699256897,0.8299199938774109,-1.069077968597412,-0.3075131475925446,-0.2337612509727478,0.04025274515151978,XArbitraryZVertical,-0.04555415121536262,0.02775847622552309,0.02889010326526729,0.9981581335500049,0.05804682523012161,0.08933660387992859,-0.9943085908889771,0,0,0,-1,-1,5762.91684375,unknown,2,2022-06-30T10:05:30.313+02:00,2022-06-30T08:20:05.567+02:00,1540,1.501556,0,0,1217.191,0,0,2022-06-30T10:05:15.030+02:00
2022-06-30T10:05:32.424+02:00,5765.026573041667,-0.2194061279296875,0.0052642822265625,-1.005661010742188,5765.016621041667,0.05128634686491378,0.06615376209791597,-0.1178181594065223,-2.774483442306519,0.9429506659507751,-1.115231275558472,-0.3208203315734863,-0.2317580282688141,0.02861493825912476,XArbitraryZVertical,-0.05966993860062673,0.03149387768310324,0.02363547805356596,0.9974412776759709,0.06564724445343018,0.1175457760691643,-0.9908952713012695,0,0,0,-1,-1,5762.91684375,unknown,2,2022-06-30T10:05:30.313+02:00,2022-06-30T08:20:05.567+02:00,1540,1.501556,0,0,1217.191,0,0,2022-06-30T10:05:15.030+02:00
2022-06-30T10:05:32.434+02:00,5765.036524041667,-0.20233154296875,0.04583740234375,-1.044708251953125,5765.026573041667,0.04190471344300398,0.0748895067103665,-0.1458415770634402,-2.718037366867065,1.063082098960876,-1.152152419090271,-0.3148703277111053,-0.2092444002628326,-0.002509713172912598,XArbitraryZVertical,-0.07357135963690659,0.03580299330871086,0.01815365332421283,0.9964817484606189,0.0740252360701561,0.1453251242637634,-0.9866108298301697,0,0,0,-1,-1,5762.91684375,unknown,2,2022-06-30T10:05:30.313+02:00,2022-06-30T08:20:05.567+02:00,1540,1.501556,0,0,1217.191,0,0,2022-06-30T10:05:15.030+02:00
2022-06-30T10:05:32.444+02:00,5765.046475041667,-0.170440673828125,0.0876617431640625,-1.042236328125,5765.036524041667,0.03201653648241542,0.08444765349252416,-0.1732978058520923,-2.612174510955811,1.170117735862732,-1.246203541755676,-0.3024904131889343,-0.1671676486730576,-0.02414977550506592,XArbitraryZVertical,-0.08712546465736279,0.04066345797673535,0.01228079708228522,0.9952913906937917,0.08308392018079758,0.172431692481041,-0.9815112948417664,0,0,0,-1,-1,5762.91684375,unknown,2,2022-06-30T10:05:30.313+02:00,2022-06-30T08:20:05.567+02:00,1540,1.501556,0,0,1217.191,0,0,2022-06-30T10:05:15.030+02:00
2022-06-30T10:05:32.454+02:00,5765.056427041667,-0.1659393310546875,0.113189697265625,-1.018768310546875,5765.046475041667,0.02128210051425465,0.09448608137601486,-0.1998576867090786,-2.530403614044189,1.251652002334595,-1.337949872016907,-0.2947995066642761,-0.1526926755905151,-0.06898516416549683,XArbitraryZVertical,-0.1001456725213264,0.04592683732369512,0.00586488239969833,0.993894984534054,0.09246759116649628,0.1985298544168472,-0.9757231473922729,0,0,0,-1,-1,5762.91684375,unknown,2,2022-06-30T10:05:30.313+02:00,2022-06-30T08:20:05.567+02:00,1540,1.501556,0,0,1217.191,0,0,2022-06-30T10:05:15.030+02:00
2022-06-30T10:05:32.464+02:00,5765.066378041667,-0.145294189453125,0.1342315673828125,-0.98785400390625,5765.056427041667,0.009807520903629508,0.1050901461142383,-0.2261216924981006,-2.507142543792725,1.373181939125061,-1.425964951515198,-0.2726675271987915,-0.1365381330251694,-0.07306963205337524,XArbitraryZVertical,-0.1129189681974861,0.05163246954361999,-0.001059635542927661,0.9922611814531578,0.1022264808416367,0.2241996377706528,-0.9691668152809143,0,0,0,-1,-1,5762.91684375,unknown,2,2022-06-30T10:05:30.313+02:00,2022-06-30T08:20:05.567+02:00,1540,1.501556,0,0,1217.191,0,0,2022-06-30T10:05:15.030+02:00
2022-06-30T10:05:32.474+02:00,5765.076330041667,-0.13446044921875,0.172515869140625,-0.9829254150390625,5765.066378041667,-0.002147838051363362,0.1166151871008008,-0.2529938437645334,-2.615471363067627,1.522051692008972,-1.493708252906799,-0.2785869836807251,-0.1371141374111176,-0.05717664957046509,XArbitraryZVertical,-0.1258832803397648,0.05794416255065395,-0.008415431725517843,0.9903156623351971,0.1126473024487495,0.2503036260604858,-0.9615917205810547,0,0,0,-1,-1,5762.91684375,unknown,2,2022-06-30T10:05:30.313+02:00,2022-06-30T08:20:05.567+02:00,1540,1.501556,0,0,1217.191,0,0,2022-06-30T10:05:15.030+02:00
2022-06-30T10:05:32.484+02:00,5765.086281041667,-0.086212158203125,0.2508087158203125,-0.932373046875,5765.076330041667,-0.01427656482414563,0.1295492081454661,-0.2813404878224645,-2.755813837051392,1.716105699539185,-1.526585459709167,-0.2694025635719299,-0.1434123516082764,-0.03522026538848877,XArbitraryZVertical,-0.1394516762878409,0.06508702886294933,-0.01612814570061806,0.9879559147755372,0.1241080388426781,0.2776436805725098,-0.952633798122406,0,0,0,-1,-1,5762.91684375,unknown,2,2022-06-30T10:05:30.313+02:00,2022-06-30T08:20:05.567+02:00,1540,1.501556,0,0,1217.191,0,0,2022-06-30T10:05:15.030+02:00
2022-06-30T10:05:32.494+02:00,5765.096232041667,-0.0354461669921875,0.3062744140625,-0.9227142333984375,5765.086281041667,-0.02604233817262843,0.1438906301068815,-0.3114104087369718,-2.898636341094971,1.849974393844604,-1.546857714653015,-0.2709584832191467,-0.1338858902454376,-0.04086047410964966,XArbitraryZVertical,-0.1537378708299381,0.07302163282666796,-0.02397648752347079,0.9851180649058012,0.1364976763725281,0.3064015209674835,-0.9420650005340576,0,0,0,-1,-1,5762.91684375,unknown,2,2022-06-30T10:05:30.313+02:00,2022-06-30T08:20:05.567+02:00,1540,1.501556,0,0,1217.191,0,0,2022-06-30T10:05:15.030+02:00
2022-06-30T10:05:32.504+02:00,5765.106184041667,-6.103515625e-05,0.29888916015625,-0.9478302001953125,5765.096232041667,-0.03789361761143706,0.1590313371208558,-0.3423812674069679,-2.896496295928955,1.958612442016602,-1.63443922996521,-0.2353826612234116,-0.08492261171340942,-0.00230175256729126,XArbitraryZVertical,-0.1683040358038453,0.08147406559912007,-0.03213899423185541,0.981836546111027,0.1491701900959015,0.3357310891151428,-0.9300714731216431,0,0,0,-1,-1,5762.91684375,unknown,2,2022-06-30T10:05:30.313+02:00,2022-06-30T08:20:05.567+02:00,1540,1.501556,0,0,1217.191,0,0,2022-06-30T10:05:15.030+02:00
2022-06-30T10:05:32.514+02:00,5765.116135041667,0.0774688720703125,0.2911224365234375,-0.97607421875,5765.106184041667,-0.05086029193724705,0.1747741736780783,-0.372584685968836,-2.649381399154663,2.123318910598755,-1.77135169506073,-0.1974018663167953,-0.05774980783462524,-0.00551372766494751,XArbitraryZVertical,-0.1822694394284831,0.09042970235390282,-0.04105182435384886,0.9782204504224243,0.1619553864002228,0.3640239834785461,-0.9172006249427795,0,0,0,-1,-1,5762.91684375,unknown,2,2022-06-30T10:05:30.313+02:00,2022-06-30T08:20:05.567+02:00,1540,1.501556,0,0,1217.191,0,0,2022-06-30T10:05:15.030+02:00
2022-06-30T10:05:32.524+02:00,5765.126086041667,0.127899169921875,0.3472137451171875,-0.944122314453125,5765.116135041667,-0.06484515823002283,0.1911702094608573,-0.4001239408514343,-2.324252843856812,2.223886728286743,-1.777289986610413,-0.175061047077179,-0.09064355492591858,-0.04359614849090576,XArbitraryZVertical,-0.19468676903386,0.09989963832457445,-0.05058203871439577,0.9744530754132033,0.1749997138977051,0.3895325064659119,-0.9042342305183411,0,0,0,-1,-1,5762.91684375,unknown,2,2022-06-30T10:05:30.313+02:00,2022-06-30T08:20:05.567+02:00,1540,1.501556,0,0,1217.191,0,0,2022-06-30T10:05:15.030+02:00
2022-06-30T10:05:32.534+02:00,5765.136038041667,0.1327972412109375,0.398406982421875,-0.8821868896484375,5765.126086041667,-0.07880276474325117,0.2078724168417928,-0.4250392537122319,-2.085490942001343,2.256484270095825,-1.735733866691589,-0.1105469763278961,-0.1212343275547028,-0.08466410636901855,XArbitraryZVertical,-0.2056275639968932,0.1096000582109043,-0.06016334505199119,0.970610950884768,0.1880155503749847,0.4123565554618835,-0.8914102911949158,0,0,0,-1,-1,5762.91684375,unknown,2,2022-06-30T10:05:30.313+02:00,2022-06-30T08:20:05.567+02:00,1540,1.501556,0,0,1217.191,0,0,2022-06-30T10:05:15.030+02:00
2022-06-30T10:05:32.543+02:00,5765.145989041667,0.13641357421875,0.4322509765625,-0.8295135498046875,5765.136038041667,-0.09273605305857929,0.2247013985343048,-0.4484237770510411,-1.978531718254089,2.317969560623169,-1.752680659294128,-0.07288700342178345,-0.08633217215538025,-0.06564474105834961,XArbitraryZVertical,-0.2156322100838822,0.1194314394843808,-0.0698068230861216,0.9666260668675046,0.2007858902215958,0.4335456788539886,-0.8784777522087097,0,0,0,-1,-1,5762.91684375,unknown,2,2022-06-30T10:05:30.313+02:00,2022-06-30T08:20:05.567+02:00,1540,1.501556,0,0,1217.191,0,0,2022-06-30T10:05:15.030+02:00
2022-06-30T10:05:32.559+02:00,5765.155940041667,0.18145751953125,0.4745635986328125,-0.7846527099609375,5765.145989041667,-0.106600625426531,0.2421093550894602,-0.4717171822472103,-2.013972997665405,2.425477743148804,-1.750147938728333,-0.08077065646648407,-0.05600985884666443,-0.01737815141677856,XArbitraryZVertical,-0.2253830099781588,0.1296072430496603,-0.07959970168930593,0.9623245479377808,0.2135676294565201,0.4544166028499603,-0.8648089170455933,0,0,0,-1,-1,5762.91684375,unknown,2,2022-06-30T10:05:30.313+02:00,2022-06-30T08:20:05.567+02:00,1540,1.501556,0,0,1217.191,0,0,2022-06-30T10:05:15.030+02:00
2022-06-30T10:05:32.563+02:00,5765.165892041667,0.240234375,0.533966064453125,-0.7093353271484375,5765.155940041667,-0.1194658004144851,0.2606432391913548,-0.4961475891613288,-2.191067934036255,2.49566388130188,-1.680593848228455,-0.09021586179733276,-0.04379045963287354,0.02020621299743652,XArbitraryZVertical,-0.2355004770791801,0.1402837552237121,-0.08923053442804801,0.9575479368391857,0.2266291677951813,0.476041167974472,-0.8497200012207031,0,0,0,-1,-1,5762.91684375,unknown,2,2022-06-30T10:05:30.313+02:00,2022-06-30T08:20:05.567+02:00,1540,1.501556,0,0,1217.191,0,0,2022-06-30T10:05:15.030+02:00
2022-06-30T10:05:32.574+02:00,5765.175843041667,0.2746429443359375,0.5996246337890625,-0.66796875,5765.165892041667,-0.1304528741405698,0.2803659047625209,-0.5228058817038242,-2.452427864074707,2.552519559860229,-1.611398577690125,-0.05828790366649628,-0.02474981546401978,0.04793858528137207,XArbitraryZVertical,-0.2465588964773334,0.1513702485510799,-0.09838125027924831,0.9521643606049065,0.239745169878006,0.4993131756782532,-0.8325915336608887,0,0,0,-1,-1,5762.91684375,unknown,2,2022-06-30T10:05:30.313+02:00,2022-06-30T08:20:05.567+02:00,1540,1.501556,0,0,1217.191,0,0,2022-06-30T10:05:15.030+02:00
2022-06-30T10:05:32.583+02:00,5765.185794041667,0.3196258544921875,0.6746826171875,-0.6080780029296875,5765.175843041667,-0.139438077178459,0.3015714924345228,-0.5518146110371211,-2.68570876121521,2.633478164672852,-1.544693112373352,-0.01270154118537903,0.009732484817504883,0.1038082838058472,XArbitraryZVertical,-0.2586060930480082,0.1629446609464413,-0.1070894448068781,0.9460992500522725,0.2529356777667999,0.524233341217041,-0.8131438493728638,0,0,0,-1,-1,5762.91684375,unknown,2,2022-06-30T10:05:30.313+02:00,2022-06-30T08:20:05.567+02:00,1540,1.501556,0,0,1217.191,0,0,2022-06-30T10:05:15.030+02:00
2022-06-30T10:05:32.593+02:00,5765.195746041667,0.35516357421875,0.72412109375,-0.554962158203125,5765.185794041667,-0.1462235006860145,0.3243637520415323,-0.5827185500243717,-2.854473829269409,2.680269002914429,-1.464269518852234,0.00853303074836731,0.0493285059928894,0.1234601140022278,XArbitraryZVertical,-0.2714297447875312,0.1749609264090334,-0.1153094626936438,0.9393712063983221,0.2661096751689911,0.550295889377594,-0.7914291620254517,0,0,0,-1,-1,5762.91684375,unknown,2,2022-06-30T10:05:30.313+02:00,2022-06-30T08:20:05.567+02:00,1540,1.501556,0,0,1217.191,0,0,2022-06-30T10:05:15.030+02:00
2022-06-30T10:05:32.603+02:00,5765.205697041667,0.3857574462890625,0.76055908203125,-0.474884033203125,5765.195746041667,-0.1510285673109285,0.348279560790544,-0.6144982351169412,-2.902629613876343,2.665683269500732,-1.396409749984741,0.04077744483947754,0.09813380241394043,0.1599291563034058,XArbitraryZVertical,-0.2845556644259069,0.1871479747894924,-0.1230732591026846,0.9321248271868224,0.2788481712341309,0.5765486359596252,-0.7680073976516724,0,0,0,-1,-1,5762.91684375,unknown,2,2022-06-30T10:05:30.313+02:00,2022-06-30T08:20:05.567+02:00,1540,1.501556,0,0,1217.191,0,0,2022-06-30T10:05:15.030+02:00
2022-06-30T10:05:32.613+02:00,5765.215648041667,0.3834381103515625,0.76531982421875,-0.440399169921875,5765.205697041667,-0.154154577730497,0.3727852834750326,-0.646175424453018,-2.857342004776001,2.632342338562012,-1.321635127067566,0.06438010931015015,0.1219835877418518,0.1885938048362732,XArbitraryZVertical,-0.2975392291459859,0.1992292552852056,-0.1304143571716921,0.9245379095944498,0.2907832264900208,0.6021373271942139,-0.7435562014579773,0,0,0,-1,-1,5762.91684375,unknown,2,2022-06-30T10:05:30.313+02:00,2022-06-30T08:20:05.567+02:00,1540,1.501556,0,0,1217.191,0,0,2022-06-30T10:05:15.030+02:00
2022-06-30T10:05:32.623+02:00,5765.225600041667,0.405487060546875,0.7454833984375,-0.4108123779296875,5765.215648041667,-0.1559636783822623,0.3979871005995593,-0.6768786612053098,-2.763633489608765,2.667188405990601,-1.264921545982361,0.08363917469978333,0.1341959834098816,0.2437214851379395,XArbitraryZVertical,-0.3099477933244381,0.2112568932466065,-0.1374678410896476,0.9167363845790193,0.3021180629730225,0.6263629198074341,-0.7186057567596436,0,0,0,-1,-1,5762.91684375,unknown,2,2022-06-30T10:05:30.313+02:00,2022-06-30T08:20:05.567+02:00,1540,1.501556,0,0,1217.191,0,0,2022-06-30T10:05:15.030+02:00
2022-06-30T10:05:32.633+02:00,5765.235551041667,0.4529571533203125,0.7447357177734375,-0.3460845947265625,5765.225600041667,-0.156142395571505,0.4244745677394569,-0.7071371336740331,-2.817710399627686,2.667253732681274,-1.181020021438599,0.07034534215927124,0.1156596541404724,0.2523594498634338,XArbitraryZVertical,-0.3220351648890448,0.2234141538635434,-0.1442399136753175,0.9086112346811847,0.3130925595760345,0.6496599912643433,-0.6927589178085327,0,0,0,-1,-1,5762.91684375,unknown,2,2022-06-30T10:05:30.313+02:00,2022-06-30T08:20:05.567+02:00,1540,1.501556,0,0,1217.191,0,0,2022-06-30T10:05:15.030+02:00
2022-06-30T10:05:32.645+02:00,5765.245502041667,0.4805908203125,0.7638702392578125,-0.290252685546875,5765.235551041667,-0.1530106278664941,0.4527330068747376,-0.7380017842973358,-3.016259431838989,2.588891744613647,-1.014527201652527,0.08187362551689148,0.07267230749130249,0.2544692158699036,XArbitraryZVertical,-0.3344546526286859,0.2355825492993907,-0.1501817835489271,0.9000480743570354,0.3236132562160492,0.672810971736908,-0.6652818918228149,0,0,0,-1,-1,5762.91684375,unknown,2,2022-06-30T10:05:30.313+02:00,2022-06-30T08:20:05.567+02:00,1540,1.501556,0,0,1217.191,0,0,2022-06-30T10:05:15.030+02:00
2022-06-30T10:05:32.653+02:00,5765.255454041667,0.4821929931640625,0.7966766357421875,-0.25244140625,5765.245502041667,-0.144661028401087,0.4838147044213069,-0.7701712944059541,-3.307521820068359,2.517394065856934,-0.8169469833374023,0.119069516658783,0.04847729206085205,0.2893234491348267,XArbitraryZVertical,-0.3477031780930552,0.2477868804308838,-0.1547756530215466,0.8909257796199649,0.3338874578475952,0.6962581872940063,-0.635408341884613,0,0,0,-1,-1,5762.91684375,unknown,2,2022-06-30T10:05:30.313+02:00,2022-06-30T08:20:05.567+02:00,1540,1.501556,0,0,1217.191,0,0,2022-06-30T10:05:15.030+02:00
2022-06-30T10:05:32.663+02:00,5765.265405041667,0.5089263916015625,0.8532562255859375,-0.1988067626953125,5765.255454041667,-0.1304821574024701,0.5187453145190729,-0.8039163295187322,-3.59662914276123,2.485674142837524,-0.6829811930656433,0.1365652978420258,0.04379093647003174,0.3123519420623779,XArbitraryZVertical,-0.361942701233224,0.2601827019511248,-0.1581163663151922,0.8810798321329263,0.3440253436565399,0.7200791239738464,-0.602604866027832,0,0,0,-1,-1,5762.91684375,unknown,2,2022-06-30T10:05:30.313+02:00,2022-06-30T08:20:05.567+02:00,1540,1.501556,0,0,1217.191,0,0,2022-06-30T10:05:15.030+02:00
2022-06-30T10:05:32.673+02:00,5765.275357041667,0.5438385009765625,0.956634521484375,-0.1562347412109375,5765.265405041667,-0.1107679384490292,0.557679425302863,-0.8385936275405084,-3.748623609542847,2.439000129699707,-0.5724326968193054,0.1284051835536957,0.05297273397445679,0.3147788643836975,XArbitraryZVertical,-0.3768771153640614,0.2726781779843745,-0.1604912066301243,0.8705473961838428,0.3537876307964325,0.7437036633491516,-0.5672205090522766,0,0,0,-1,-1,5762.91684375,unknown,2,2022-06-30T10:05:30.313+02:00,2022-06-30T08:20:05.567+02:00,1540,1.501556,0,0,1217.191,0,0,2022-06-30T10:05:15.030+02:00
2022-06-30T10:05:32.683+02:00,5765.285308041667,0.572601318359375,1.062118530273438,-0.132476806640625,5765.275357041667,-0.08627527791550785,0.6000804563709267,-0.8723854695607571,-3.676005601882935,2.36141562461853,-0.4345182776451111,0.1458176076412201,0.08739107847213745,0.3318557143211365,XArbitraryZVertical,-0.3916889660923975,0.2850409914858715,-0.1620951168784029,0.8596839936966763,0.3631086051464081,0.7658649682998657,-0.5306627750396729,0,0,0,-1,-1,5762.91684375,unknown,2,2022-06-30T10:05:30.313+02:00,2022-06-30T08:20:05.567+02:00,1540,1.501556,0,0,1217.191,0,0,2022-06-30T10:05:15.030+02:00
2022-06-30T10:05:32.693+02:00,5765.295259041667,0.591339111328125,1.087860107421875,-0.0807037353515625,5765.285308041667,-0.05820849082084183,0.6447499296996367,-0.9034193336261578,-3.456456184387207,2.234282493591309,-0.319432407617569,0.1718635261058807,0.1711865663528442,0.3384431004524231,XArbitraryZVertical,-0.4055479610602588,0.296970949295831,-0.1630674860196882,0.8489688914280676,0.3719748258590698,0.7854478359222412,-0.4946781992912292,0,0,0,-1,-1,5762.91684375,unknown,2,2022-06-30T10:05:30.313+02:00,2022-06-30T08:20:05.567+02:00,1540,1.501556,0,0,1217.191,0,0,2022-06-30T10:05:15.030+02:00
2022-06-30T10:05:32.703+02:00,5765.305211041667,0.6046905517578125,1.073593139648438,-0.0543365478515625,5765.295259041667,-0.02879200500177479,0.6895222946886511,-0.9309440846596457,-3.093728065490723,2.073309659957886,-0.2773944139480591,0.1927594840526581,0.2599344253540039,0.3281975984573364,XArbitraryZVertical,-0.4180414978310117,0.3080648141737143,-0.1637881355679766,0.8387555661276204,0.379841685295105,0.802183985710144,-0.4606747627258301,0,0,0,-1,-1,5762.91684375,unknown,2,2022-06-30T10:05:30.313+02:00,2022-06-30T08:20:05.567+02:00,1540,1.501556,0,0,1217.191,0,0,2022-06-30T10:05:15.030+02:00
2022-06-30T10:05:32.712+02:00,5765.315162041667,0.6122589111328125,1.047698974609375,-0.092987060546875,5765.305211041667,0.0002434623032356091,0.7328935043801733,-0.9544502185079072,-2.739529132843018,1.922336220741272,-0.1969053596258163,0.2046051621437073,0.2718639373779297,0.3489324152469635,XArbitraryZVertical,-0.4288591362442989,0.3182162797190535,-0.1644721316957855,0.8293173429689732,0.3867338001728058,0.8159960508346558,-0.4296364784240723,0,0,0,-1,-1,5762.91684375,unknown,2,2022-06-30T10:05:30.313+02:00,2022-06-30T08:20:05.567+02:00,1540,1.501556,0,0,1217.191,0,0,2022-06-30T10:05:15.030+02:00
2022-06-30T10:05:32.723+02:00,5765.325113041667,0.611419677734375,1.019241333007812,-0.1147613525390625,5765.315162041667,0.02949951123094121,0.7753555624704063,-0.9741105839031116,-2.4345543384552,1.783119201660156,-0.05783402174711227,0.2113744020462036,0.2463905215263367,0.3469593524932861,XArbitraryZVertical,-0.4381734685501847,0.3276520993714846,-0.1648461126276189,0.8206545475928956,0.3933159708976746,0.8272024393081665,-0.4012962281703949,0,0,0,-1,-1,5762.91684375,unknown,2,2022-06-30T10:05:30.313+02:00,2022-06-30T08:20:05.567+02:00,1540,1.501556,0,0,1217.191,0,0,2022-06-30T10:05:15.030+02:00
2022-06-30T10:05:32.733+02:00,5765.335065041667,0.5936431884765625,1.029815673828125,-0.0796051025390625,5765.325113041667,0.05892800384625764,0.8167457909119662,-0.9899168024510981,-2.136136531829834,1.615877509117126,0.0863739550113678,0.2122560739517212,0.2117185592651367,0.2826915383338928,XArbitraryZVertical,-0.4460410801580343,0.336463771936493,-0.1647540995160715,0.8128318071828536,0.4000027179718018,0.8359803557395935,-0.3756789565086365,0,0,0,-1,-1,5762.91684375,unknown,2,2022-06-30T10:05:30.313+02:00,2022-06-30T08:20:05.567+02:00,1540,1.501556,0,0,1217.191,0,0,2022-06-30T10:05:15.030+02:00
2022-06-30T10:05:32.743+02:00,5765.345016041667,0.57415771484375,1.02191162109375,-0.039093017578125,5765.335065041667,0.08756336459408574,0.8560478917845635,-1.002084516583413,-1.819615602493286,1.451252818107605,0.1909908950328827,0.2046774327754974,0.176645815372467,0.2382168769836426,XArbitraryZVertical,-0.4525223877191392,0.344578258004469,-0.1642606067073266,0.8059205215969422,0.4067421853542328,0.8425953984260559,-0.3529786169528961,0,0,0,-1,-1,5762.91684375,unknown,2,2022-06-30T10:05:30.313+02:00,2022-06-30T08:20:05.567+02:00,1540,1.501556,0,0,1217.191,0,0,2022-06-30T10:05:15.030+02:00
2022-06-30T10:05:32.753+02:00,5765.354967041667,0.57659912109375,0.9999847412109375,0.0638580322265625,5765.345016041667,0.1134971921065686,0.8915152611891789,-1.010758346162686,-1.433651685714722,1.273649573326111,0.2626826465129852,0.1803420782089233,0.1825806498527527,0.2541239261627197,XArbitraryZVertical,-0.4575246598562652,0.3518614675814837,-0.1636181035890835,0.8000586501077251,0.4133009910583496,0.8472349643707275,-0.3337293863296509,0,0,0,-1,-1,5762.91684375,unknown,2,2022-06-30T10:05:30.313+02:00,2022-06-30T08:20:05.567+02:00,1540,1.501556,0,0,1217.191,0,0,2022-06-30T10:05:15.030+02:00
2022-06-30T10:05:32.762+02:00,5765.364919041667,0.60479736328125,0.9775390625,0.1854095458984375,5765.354967041667,0.1355302422991682,0.9220338571638389,-1.016204938499713,-1.109465360641479,1.103963851928711,0.3222413063049316,0.1545490324497223,0.1717957854270935,0.2790763080120087,XArbitraryZVertical,-0.4610452193961927,0.3582631238808113,-0.1629534063097532,0.7953181823360265,0.4196085631847382,0.8501156568527222,-0.3181696832180023,0,0,0,-1,-1,5762.91684375,unknown,2,2022-06-30T10:05:30.313+02:00,2022-06-30T08:20:05.567+02:00,1540,1.501556,0,0,1217.191,0,0,2022-06-30T10:05:15.030+02:00
2022-06-30T10:05:32.772+02:00,5765.374870041667,0.641754150390625,0.936920166015625,0.2523345947265625,5765.364919041667,0.1553909995176639,0.9491001926614391,-1.019548738168152,-1.00713312625885,0.9364970326423645,0.3845997750759125,0.150846540927887,0.1481128931045532,0.3688977062702179,XArbitraryZVertical,-0.4637051899287647,0.3639470831133452,-0.1620418614232612,0.7913675007791795,0.4257524907588959,0.8518717885017395,-0.305040031671524,0,0,0,-1,-1,5762.91684375,unknown,2,2022-06-30T10:05:30.313+02:00,2022-06-30T08:20:05.567+02:00,1540,1.501556,0,0,1217.191,0,0,2022-06-30T10:05:15.030+02:00
2022-06-30T10:05:32.782+02:00,5765.384821041667,0.661956787109375,0.8941497802734375,0.2996673583984375,5765.374870041667,0.176343432365347,0.9754264437544401,-1.022202685593147,-1.135461091995239,0.7574540376663208,0.4334378838539124,0.1730360984802246,0.1242802143096924,0.4778673648834229,XArbitraryZVertical,-0.4664204096020339,0.3690838771233304,-0.1604736662497555,0.7877038220898264,0.4317611753940582,0.8532587885856628,-0.292458176612854,0,0,0,-1,-1,5762.91684375,unknown,2,2022-06-30T10:05:30.313+02:00,2022-06-30T08:20:05.567+02:00,1540,1.501556,0,0,1217.191,0,0,2022-06-30T10:05:15.030+02:00
2022-06-30T10:05:32.792+02:00,5765.394773041667,0.6587677001953125,0.8661346435546875,0.3609161376953125,5765.384821041667,0.2013938340746595,1.003203620777822,-1.025605234109156,-1.437943577766418,0.5218436717987061,0.4316418170928955,0.2044873237609863,0.08189195394515991,0.5311256647109985,XArbitraryZVertical,-0.4701231904751958,0.3736153959892287,-0.1579050206064395,0.7838761526661532,0.4372667670249939,0.8550282120704651,-0.2787914574146271,0,0,0,-1,-1,5762.91684375,unknown,2,2022-06-30T10:05:30.313+02:00,2022-06-30T08:20:05.567+02:00,1540,1.501556,0,0,1217.191,0,0,2022-06-30T10:05:15.030+02:00
2022-06-30T10:05:32.802+02:00,5765.404724041667,0.643524169921875,0.8824920654296875,0.41943359375,5765.394773041667,0.2316857852688469,1.033039363710238,-1.03026410174594,-1.721068739891052,0.2649128437042236,0.4268236458301544,0.2199938297271729,0.03671491146087646,0.5632468461990356,XArbitraryZVertical,-0.475183366562019,0.3773735620920078,-0.1542052576906615,0.779750514448862,0.4419628977775574,0.8574349284172058,-0.263579934835434,0,0,0,-1,-1,5762.91684375,unknown,2,2022-06-30T10:05:30.313+02:00,2022-06-30T08:20:05.567+02:00,1540,1.501556,0,0,1217.191,0,0,2022-06-30T10:05:15.030+02:00
2022-06-30T10:05:32.812+02:00,5765.414675041667,0.6304473876953125,0.934417724609375,0.4571380615234375,5765.404724041667,0.2662935742253916,1.06412281694561,-1.035569922924807,-1.893147587776184,0.006924961693584919,0.4328234791755676,0.2128107249736786,0.0059814453125,0.6084216833114624,XArbitraryZVertical,-0.4812794674965583,0.38028559553488,-0.1494682134009122,0.7755077980291056,0.4459569156169891,0.8601531982421875,-0.2475058734416962,0,0,0,-1,-1,5762.91684375,unknown,2,2022-06-30T10:05:30.313+02:00,2022-06-30T08:20:05.567+02:00,1540,1.501556,0,0,1217.191,0,0,2022-06-30T10:05:15.030+02:00
2022-06-30T10:05:32.822+02:00,5765.424627041667,0.60430908203125,0.9648284912109375,0.4368438720703125,5765.414675041667,0.3046254695365452,1.095936194994974,-1.041003436823737,-2.073802471160889,-0.2498828619718552,0.4504541456699371,0.1940833926200867,0.0195804238319397,0.6504884958267212,XArbitraryZVertical,-0.4881603518295713,0.382324201856258,-0.1437202313194059,0.7712796673800146,0.4494407176971436,0.8629117608070374,-0.231055349111557,0,0,0,-1,-1,5762.91684375,unknown,2,2022-06-30T10:05:30.313+02:00,2022-06-30T08:20:05.567+02:00,1540,1.501556,0,0,1217.191,0,0,2022-06-30T10:05:15.030+02:00
2022-06-30T10:05:32.832+02:00,5765.434578041667,0.587646484375,1.005325317382812,0.404754638671875,5765.424627041667,0.3460540881826531,1.127930483443173,-1.046242329205153,-2.121413469314575,-0.5148727297782898,0.4676530957221985,0.1779364049434662,0.06887024641036987,0.6717573404312134,XArbitraryZVertical,-0.4956386266830158,0.3834481753457398,-0.1370173195533048,0.7671610670275172,0.4525108635425568,0.8655474185943604,-0.2146196961402893,0,0,0,-1,-1,5762.91684375,unknown,2,2022-06-30T10:05:30.313+02:00,2022-06-30T08:20:05.567+02:00,1540,1.501556,0,0,1217.191,0,0,2022-06-30T10:05:15.030+02:00
2022-06-30T10:05:32.842+02:00,5765.444530041667,0.5617523193359375,1.04168701171875,0.3571014404296875,5765.434578041667,0.3875367616314824,1.157412608266082,-1.050452421420088,-2.007743120193481,-0.7841688990592957,0.4936375617980957,0.1490092277526855,0.09718024730682373,0.6365653276443481,XArbitraryZVertical,-0.5030313543332839,0.383534274116784,-0.1296333897066488,0.7635811823155699,0.4552997946739197,0.8676482439041138,-0.1997218281030655,0,0,0,-1,-1,5762.91684375,unknown,2,2022-06-30T10:05:30.313+02:00,2022-06-30T08:20:05.567+02:00,1540,1.501556,0,0,1217.191,0,0,2022-06-30T10:05:15.030+02:00
2022-06-30T10:05:32.852+02:00,5765.454481041667,0.5339202880859375,1.034393310546875,0.372894287109375,5765.444530041667,0.4267845424202722,1.182421045222526,-1.053245500126044,-1.792960047721863,-1.03913402557373,0.5194010138511658,0.1297395527362823,0.1362918019294739,0.5921100378036499,XArbitraryZVertical,-0.5098846194141305,0.3825438583813839,-0.1217799844957039,0.760820312511075,0.4579067826271057,0.8690335154533386,-0.1873557418584824,0,0,0,-1,-1,5762.91684375,unknown,2,2022-06-30T10:05:30.313+02:00,2022-06-30T08:20:05.567+02:00,1540,1.501556,0,0,1217.191,0,0,2022-06-30T10:05:15.030+02:00
2022-06-30T10:05:32.862+02:00,5765.464432041667,0.53204345703125,1.041091918945312,0.49871826171875,5765.454481041667,0.4610728550824023,1.200682435304028,-1.054469914824064,-1.468142986297607,-1.283308148384094,0.5135028958320618,0.1014931201934814,0.1720482110977173,0.5356788635253906,XArbitraryZVertical,-0.515738964483111,0.3804266052932545,-0.1137784696097297,0.7591727528999771,0.4602590501308441,0.8696386814117432,-0.1785778403282166,0,0,0,-1,-1,5762.91684375,unknown,2,2022-06-30T10:05:30.313+02:00,2022-06-30T08:20:05.567+02:00,1540,1.501556,0,0,1217.191,0,0,2022-06-30T10:05:15.030+02:00
2022-06-30T10:05:32.872+02:00,5765.474384041667,0.5565338134765625,1.0699462890625,0.640960693359375,5765.464432041667,0.4895522789449237,1.211319500928174,-1.05445554140117,-1.19235622882843,-1.561102747917175,0.5033918619155884,0.07177579402923584,0.1647617816925049,0.5465704202651978,XArbitraryZVertical,-0.5205442119114003,0.3770881556348902,-0.1057227085609688,0.7587232518052139,0.4621444046497345,0.8696315288543701,-0.1736764907836914,0,0,0,-1,-1,5762.91684375,unknown,2,2022-06-30T10:05:30.313+02:00,2022-06-30T08:20:05.567+02:00,1540,1.501556,0,0,1217.191,0,0,2022-06-30T10:05:15.030+02:00
2022-06-30T10:05:32.882+02:00,5765.484335041667,0.569488525390625,1.055694580078125,0.7959747314453125,5765.474384041667,0.5149172666951691,1.216165317386511,-1.053646137921795,-1.138486862182617,-1.899680018424988,0.534138023853302,0.06840276718139648,0.1718602776527405,0.6703972816467285,XArbitraryZVertical,-0.5248022376234678,0.3724820981596877,-0.09712857396326911,0.7592139487741123,0.4636406302452087,0.869231641292572,-0.1716793924570084,0,0,0,-1,-1,5762.91684375,unknown,2,2022-06-30T10:05:30.313+02:00,2022-06-30T08:20:05.567+02:00,1540,1.501556,0,0,1217.191,0,0,2022-06-30T10:05:15.030+02:00
2022-06-30T10:05:32.892+02:00,5765.494286041667,0.5570831298828125,1.012924194335938,0.8877716064453125,5765.484335041667,0.5409793390052579,1.218095501568476,-1.052695841563696,-1.230221271514893,-2.268812894821167,0.5376962423324585,0.0917876660823822,0.2011848092079163,0.8120297193527222,XArbitraryZVertical,-0.5292387920975209,0.3665673192284757,-0.08745957806734533,0.7601878495357745,0.4647460281848907,0.868761420249939,-0.171069398522377,0,0,0,-1,-1,5762.91684375,unknown,2,2022-06-30T10:05:30.313+02:00,2022-06-30T08:20:05.567+02:00,1540,1.501556,0,0,1217.191,0,0,2022-06-30T10:05:15.030+02:00
2022-06-30T10:05:32.902+02:00,5765.504238041667,0.5355224609375,1.039810180664062,1.051834106445312,5765.494286041667,0.5684739553723589,1.217252165973125,-1.052218826105664,-1.306504845619202,-2.71367073059082,0.501639723777771,0.1044981777667999,0.1871694326400757,0.9675790071487427,XArbitraryZVertical,-0.5341171787619061,0.3590494282399703,-0.07663513143304121,0.7615309385035719,0.4649902284145355,0.8685250878334045,-0.1716046929359436,0,0,0,-1,-1,5762.91684375,unknown,2,2022-06-30T10:05:30.313+02:00,2022-06-30T08:20:05.567+02:00,1540,1.501556,0,0,1217.191,0,0,2022-06-30T10:05:15.030+02:00
2022-06-30T10:05:32.912+02:00,5765.514189041667,0.4905853271484375,1.159103393554688,1.15570068359375,5765.504238041667,0.5976564108878591,1.213039949666299,-1.052392975152984,-1.469980955123901,-3.237618446350098,0.4905361533164978,0.09296116232872009,0.144312858581543,1.061280250549316,XArbitraryZVertical,-0.539487620972356,0.3495692228172795,-0.06443123656083694,0.7632844846130156,0.4641218185424805,0.8686113953590393,-0.1735089272260666,0,0,0,-1,-1,5762.91684375,unknown,2,2022-06-30T10:05:30.313+02:00,2022-06-30T08:20:05.567+02:00,1540,1.501556,0,0,1217.191,0,0,2022-06-30T10:05:15.030+02:00
2022-06-30T10:05:32.922+02:00,5765.524140041667,0.4205169677734375,1.253646850585938,1.170455932617188,5765.514189041667,0.6323681519153297,1.208092559834972,-1.053484824672162,-1.843090295791626,-3.824078321456909,0.5237510800361633,0.07315176725387573,0.1706582903862,1.22730016708374,XArbitraryZVertical,-0.5459188799073647,0.3379932160756987,-0.05015030590415331,0.7649955033070488,0.4623705744743347,0.8691518902778625,-0.1754663288593292,0,0,0,-1,-1,5762.91684375,unknown,2,2022-06-30T10:05:30.313+02:00,2022-06-30T08:20:05.567+02:00,1540,1.501556,0,0,1217.191,0,0,2022-06-30T10:05:15.030+02:00
2022-06-30T10:05:32.932+02:00,5765.534092041667,0.3495330810546875,1.37872314453125,1.115570068359375,5765.524140041667,0.6722177618564943,1.201650522316022,-1.055588909831997,-1.959182381629944,-4.443007469177246,0.4850733280181885,0.03106114268302917,0.2889128923416138,1.333481311798096,XArbitraryZVertical,-0.5532633421059991,0.3240511754666234,-0.03374826783056788,0.7666495746360746,0.4595240354537964,0.8701905608177185,-0.1777810156345367,0,0,0,-1,-1,5762.91684375,unknown,2,2022-06-30T10:05:30.313+02:00,2022-06-30T08:20:05.567+02:00,1540,1.501556,0,0,1217.191,0,0,2022-06-30T10:05:15.030+02:00
2022-06-30T10:05:32.941+02:00,5765.544043041667,0.2712249755859375,1.499603271484375,0.8905792236328125,5765.534092041667,0.7127400010930133,1.189291174263424,-1.058551386727178,-1.975354194641113,-5.140960693359375,0.4443030059337616,-0.03438037633895874,0.3820004463195801,1.352941751480103,XArbitraryZVertical,-0.5606638213851811,0.3072670416360039,-0.01563747465728636,0.7687642635946527,0.4548971056938171,0.8716464042663574,-0.1824860870838165,0,0,0,-1,-1,5762.91684375,unknown,2,2022-06-30T10:05:30.313+02:00,2022-06-30T08:20:05.567+02:00,1540,1.501556,0,0,1217.191,0,0,2022-06-30T10:05:15.030+02:00
2022-06-30T10:05:32.951+02:00,5765.553994041667,0.1806640625,1.601303100585938,0.8025360107421875,5765.544043041667,0.7509819227501054,1.167816504795891,-1.061287177735774,-1.639092326164246,-5.881654262542725,0.4841504395008087,-0.09914559125900269,0.505739152431488,1.306845903396606,XArbitraryZVertical,-0.5671899031514517,0.2875022293058978,0.00432907101311203,0.7717637911303763,0.4486784338951111,0.8729840517044067,-0.1912761628627777,0,0,0,-1,-1,5762.91684375,unknown,2,2022-06-30T10:05:30.313+02:00,2022-06-30T08:20:05.567+02:00,1540,1.501556,0,0,1217.191,0,0,2022-06-30T10:05:15.030+02:00
2022-06-30T10:05:32.962+02:00,5765.563946041667,0.064056396484375,1.617202758789062,0.76214599609375,5765.553994041667,0.780713668546139,1.131796111679763,-1.061859888415371,-1.106853008270264,-6.589868068695068,0.6292514801025391,-0.169821709394455,0.6263400912284851,1.097676634788513,XArbitraryZVertical,-0.5711870027558009,0.2649463825749631,0.02592003832634611,0.7764515447878252,0.4410464465618134,0.8732632398605347,-0.2070976495742798,0,0,0,-1,-1,5762.91684375,unknown,2,2022-06-30T10:05:30.313+02:00,2022-06-30T08:20:05.567+02:00,1540,1.501556,0,0,1217.191,0,0,2022-06-30T10:05:15.030+02:00
2022-06-30T10:05:32.971+02:00,5765.573897041667,-0.081298828125,1.525375366210938,0.8520355224609375,5765.563946041667,0.8040859461000858,1.083095972967194,-1.059292216659049,-0.6609895825386047,-7.286339282989502,0.8484025001525879,-0.2517575323581696,0.7292939424514771,1.031908273696899,XArbitraryZVertical,-0.5724794887009096,0.2399602110609903,0.04970604937882136,0.7824421784830315,0.4324213564395905,0.87200927734375,-0.2293726652860641,0,0,0,-1,-1,5762.91684375,unknown,2,2022-06-30T10:05:30.313+02:00,2022-06-30T08:20:05.567+02:00,1540,1.501556,0,0,1217.191,0,0,2022-06-30T10:05:15.030+02:00
2022-06-30T10:05:32.982+02:00,5765.583848041667,-0.2627105712890625,1.547592163085938,0.9236907958984375,5765.573897041667,0.8218825694732828,1.023330298339791,-1.053363872584896,-0.3713023662567139,-7.824772357940674,1.066639184951782,-0.358299195766449,0.7481107115745544,1.019623756408691,XArbitraryZVertical,-0.5708881484693774,0.2129500812810187,0.07547842736324042,0.78933006161136,0.4223552942276001,0.8690921068191528,-0.2574779689311981,0,0,0,-1,-1,5762.91684375,unknown,2,2022-06-30T10:05:30.313+02:00,2022-06-30T08:20:05.567+02:00,1540,1.501556,0,0,1217.191,0,0,2022-06-30T10:05:15.030+02:00
2022-06-30T10:05:32.991+02:00,5765.593800041667,-0.523712158203125,1.429412841796875,0.7274169921875,5765.583848041667,0.8426863512497279,0.9613770175852057,-1.04641096929176,-0.6325236558914185,-8.228647232055664,1.232390284538269,-0.4918480217456818,0.6597436666488647,1.138620853424072,XArbitraryZVertical,-0.5681007677631076,0.1843059631614272,0.1032948639420087,0.7953761154892377,0.4105488955974579,0.8656318187713623,-0.286585658788681,0,0,0,-1,-1,5762.91684375,unknown,2,2022-06-30T10:05:30.313+02:00,2022-06-30T08:20:05.567+02:00,1540,1.501556,0,0,1217.191,0,0,2022-06-30T10:05:15.030+02:00
2022-06-30T10:05:33.001+02:00,5765.603751041667,-0.9795074462890625,1.027847290039062,5.269302368164062,5765.593800041667,0.8693484209463928,0.9012640530047564,-1.041389919808375,-0.8796442151069641,-8.467058181762695,1.162957191467285,-0.6587041020393372,0.6844852566719055,1.237116456031799,XArbitraryZVertical,-0.5652797494256177,0.1540969069465692,0.1323161036699165,0.7995032593139324,0.395993173122406,0.8631070256233215,-0.3134258985519409,0,0,0,-1,-1,5762.91684375,unknown,2,2022-06-30T10:05:30.313+02:00,2022-06-30T08:20:05.567+02:00,1540,1.501556,0,0,1217.191,0,0,2022-06-30T10:05:15.030+02:00
2022-06-30T10:05:33.011+02:00,5765.613703041667,-7.266159057617188,0.4679107666015625,-11.22323608398438,5765.603751041667,0.8683706833367714,0.8203463344242267,-1.03048231565694,2.023938417434692,-4.984546661376953,-1.371564865112305,-0.8999392986297607,0.5718656778335571,1.078224658966064,XArbitraryZVertical,-0.5559165602158458,0.124710942346612,0.1574344376304271,0.8066091685176141,0.3762268126010895,0.8575472235679626,-0.3508079051971436,0,0,0,-1,-1,5762.91684375,unknown,2,2022-06-30T10:05:30.313+02:00,2022-06-30T08:20:05.567+02:00,1540,1.501556,0,0,1217.191,0,0,2022-06-30T10:05:15.030+02:00
2022-06-30T10:05:33.021+02:00,5765.623654041667,-0.796142578125,2.120742797851562,-6.338882446289062,5765.613703041667,0.8819153948585718,0.8305745968156155,-1.052729441655277,-3.521496534347534,3.069309711456299,0.6660787463188171,-1.34512460231781,0.159069299697876,5.603291511535645,XArbitraryZVertical,-0.5646052008394417,0.1192736702239797,0.1543620890403027,0.8019769818160088,0.3656167387962341,0.8687781095504761,-0.3339895308017731,0,0,0,-1,-1,5762.91684375,unknown,2,2022-06-30T10:05:30.313+02:00,2022-06-30T08:20:05.567+02:00,1540,1.501556,0,0,1217.191,0,0,2022-06-30T10:05:15.030+02:00
2022-06-30T10:05:33.031+02:00,5765.633605041667,-3.605300903320312,2.639968872070312,-4.2376708984375,5765.623654041667,0.9544330436189422,0.8796250047523531,-1.046805210412827,-0.548266589641571,-3.12659478187561,3.419771194458008,-7.651671409606934,-0.3979182839393616,-10.90429973602295,XArbitraryZVertical,-0.5711126637548997,0.1198414339949986,0.170921670476212,0.7938855329899723,0.3855118155479431,0.8658291697502136,-0.3189367055892944,0,0,0,-1,-1,5762.91684375,unknown,2,2022-06-30T10:05:30.313+02:00,2022-06-30T08:20:05.567+02:00,1540,1.501556,0,0,1217.191,0,0,2022-06-30T10:05:15.030+02:00
2022-06-30T10:05:33.041+02:00,5765.643557041667,-0.036407470703125,0.8818359375,-3.615249633789062,5765.633605041667,0.9861346831065135,0.9017001726025696,-1.032636249186107,-0.2077225595712662,2.180320501327515,0.5656291246414185,-1.19818389415741,1.262089729309082,-6.020955085754395,XArbitraryZVertical,-0.5707815540522204,0.12346910254509,0.1810078098798733,0.7913280804299476,0.4020409882068634,0.85865318775177,-0.3179275989532471,0,0,0,-1,-1,5762.91684375,unknown,2,2022-06-30T10:05:30.313+02:00,2022-06-30T08:20:05.567+02:00,1540,1.501556,0,0,1217.191,0,0,2022-06-30T10:05:15.030+02:00
2022-06-30T10:05:33.051+02:00,5765.653508041667,0.20245361328125,-0.224700927734375,-2.477981567382812,5765.643557041667,0.9826008993961978,0.9263023368714318,-1.028231125008477,1.294568538665771,2.510406732559204,0.4456401467323303,-4.01806116104126,1.783581972122192,-3.927460193634033,XArbitraryZVertical,-0.5714455338030999,0.1354423135548864,0.1737904417713323,0.7905076720751395,0.412759929895401,0.8563870191574097,-0.3102107644081116,0,0,0,-1,-1,5762.91684375,unknown,2,2022-06-30T10:05:30.313+02:00,2022-06-30T08:20:05.567+02:00,1540,1.501556,0,0,1217.191,0,0,2022-06-30T10:05:15.030+02:00
2022-06-30T10:05:33.062+02:00,5765.663459041667,-0.28778076171875,-0.118804931640625,-1.240447998046875,5765.653508041667,0.9743233745162576,0.9404949222514086,-1.01415750515117,0.7451900243759155,1.868578195571899,1.207857370376587,-0.4632235765457153,0.03280031681060791,-3.303854942321777,XArbitraryZVertical,-0.5679689639699587,0.147356291488576,0.1703550319307988,0.7916290869706986,0.4268158078193665,0.8490357398986816,-0.3113947510719299,0,0,0,-1,-1,5762.91684375,unknown,2,2022-06-30T10:05:30.313+02:00,2022-06-30T08:20:05.567+02:00,1540,1.501556,0,0,1217.191,0,0,2022-06-30T10:05:15.030+02:00
2022-06-30T10:05:33.071+02:00,5765.673411041667,-0.02581787109375,-0.11968994140625,-0.3967742919921875,5765.663459041667,0.9900445192464031,0.9759055902844348,-1.005376046476044,-1.135085344314575,2.505186796188354,1.177470207214355,-0.2412773072719574,-1.069064378738403,-2.177726030349731,XArbitraryZVertical,-0.5696326922859745,0.1593446829615006,0.1689454547072788,0.7884068392735698,0.4437305927276611,0.8443635106086731,-0.3002557456493378,0,0,0,-1,-1,5762.91684375,unknown,2,2022-06-30T10:05:30.313+02:00,2022-06-30T08:20:05.567+02:00,1540,1.501556,0,0,1217.191,0,0,2022-06-30T10:05:15.030+02:00
2022-06-30T10:05:33.081+02:00,5765.683362041667,0.4401397705078125,0.154998779296875,0.4354705810546875,5765.673411041667,1.027455879003674,1.033616805954267,-1.005863768044933,-2.112299203872681,2.488296747207642,0.9490287899971008,-0.7477374076843262,-0.9634296298027039,-0.9664971828460693,XArbitraryZVertical,-0.5777074597818462,0.1711099061528656,0.1669261205912158,0.7804556770070832,0.4599563181400299,0.8446246981620789,-0.27395099401474,0,0,0,-1,-1,5762.91684375,unknown,2,2022-06-30T10:05:30.313+02:00,2022-06-30T08:20:05.567+02:00,1540,1.501556,0,0,1217.191,0,0,2022-06-30T10:05:15.030+02:00
2022-06-30T10:05:33.091+02:00,5765.693313041667,0.759552001953125,0.368896484375,0.596221923828125,5765.683362041667,1.070649242252021,1.092018601841254,-1.008677250499344,-2.189938068389893,1.780898809432983,0.8654982447624207,-0.4988696575164795,-0.965817391872406,-0.1512331962585449,XArbitraryZVertical,-0.5871104127445546,0.1803627337062867,0.1658454929383282,0.7715348414674877,0.4730514883995056,0.8461275696754456,-0.2455412894487381,0,0,0,-1,-1,5762.91684375,unknown,2,2022-06-30T10:05:30.313+02:00,2022-06-30T08:20:05.567+02:00,1540,1.501556,0,0,1217.191,0,0,2022-06-30T10:05:15.030+02:00
2022-06-30T10:05:33.101+02:00,5765.703265041667,0.8774566650390625,0.4019622802734375,0.2613372802734375,5765.693313041667,1.110213089353152,1.140838863278266,-1.011395025567644,-1.81276535987854,1.255809664726257,0.4675319492816925,-0.04223895072937012,-0.6925740242004395,0.6566743850708008,XArbitraryZVertical,-0.5954704710032847,0.1865821455488412,0.1657688481918728,0.7636247628395383,0.4823783934116364,0.8475729823112488,-0.2212040424346924,0,0,0,-1,-1,5762.91684375,unknown,2,2022-06-30T10:05:30.313+02:00,2022-06-30T08:20:05.567+02:00,1540,1.501556,0,0,1217.191,0,0,2022-06-30T10:05:15.030+02:00
2022-06-30T10:05:33.111+02:00,5765.713216041667,0.713409423828125,0.4818572998046875,-0.1190948486328125,5765.703265041667,1.138576459179491,1.1752970849892,-1.01711777631785,-1.391411304473877,0.7499535083770752,-0.2726415991783142,0.2743228375911713,-0.4816994071006775,0.7988037467002869,XArbitraryZVertical,-0.6023480236698395,0.1894355482273986,0.1644602045877472,0.7577888605436445,0.4852288663387299,0.850596010684967,-0.202582061290741,0,0,0,-1,-1,5762.91684375,unknown,2,2022-06-30T10:05:30.313+02:00,2022-06-30T08:20:05.567+02:00,1540,1.501556,0,0,1217.191,0,0,2022-06-30T10:05:15.030+02:00
2022-06-30T10:05:33.121+02:00,5765.723167041667,0.3005218505859375,0.82318115234375,-0.2507476806640625,5765.713216041667,1.153643002905114,1.19321696571469,-1.025532041741135,-0.6992448568344116,0.2618824243545532,-0.5977232456207275,0.3953455090522766,-0.4530277848243713,0.4525463581085205,XArbitraryZVertical,-0.6071733577707299,0.1890392771743404,0.1620915593251223,0.7545403478763112,0.4821108877658844,0.8549902439117432,-0.1912093311548233,0,0,0,-1,-1,5762.91684375,unknown,2,2022-06-30T10:05:30.313+02:00,2022-06-30T08:20:05.567+02:00,1540,1.501556,0,0,1217.191,0,0,2022-06-30T10:05:15.030+02:00
2022-06-30T10:05:33.131+02:00,5765.733119041667,-0.0727081298828125,1.185379028320312,-0.1525726318359375,5765.723167041667,1.15712274154839,1.198434091439167,-1.032176654529824,-0.1284129470586777,0.231433168053627,-0.4734161496162415,0.235609769821167,-0.3765600919723511,0.06752532720565796,XArbitraryZVertical,-0.6094211068045038,0.1878714915686607,0.1597148959240699,0.7535259949158821,0.4777993559837341,0.8584175109863281,-0.1866204291582108,0,0,0,-1,-1,5762.91684375,unknown,2,2022-06-30T10:05:30.313+02:00,2022-06-30T08:20:05.567+02:00,1540,1.501556,0,0,1217.191,0,0,2022-06-30T10:05:15.030+02:00
2022-06-30T10:05:33.140+02:00,5765.743070041667,-0.2203369140625,1.432159423828125,-0.184967041015625,5765.733119041667,1.150670591453396,1.196927796272574,-1.035313287962756,0.5181807279586792,0.5909630656242371,-0.3636752665042877,-0.1744873523712158,-0.03684085607528687,-0.06439222395420074,XArbitraryZVertical,-0.6094007388915083,0.1882893779666521,0.1567487956282831,0.7540608861303768,0.4750089645385742,0.860022246837616,-0.1863556951284409,0,0,0,-1,-1,5762.91684375,unknown,2,2022-06-30T10:05:30.313+02:00,2022-06-30T08:20:05.567+02:00,1540,1.501556,0,0,1217.191,0,0,2022-06-30T10:05:15.030+02:00
2022-06-30T10:05:33.151+02:00,5765.753022041667,-0.1377410888671875,1.424301147460938,-0.264862060546875,5765.743070041667,1.133463248328349,1.190071940904183,-1.0364665627283,1.029117226600647,1.005583167076111,-0.5258179306983948,-0.5455074310302734,0.324769139289856,0.03666630387306213,XArbitraryZVertical,-0.6075037085017354,0.1905771411602619,0.1519739862870213,0.7559918339846791,0.4727990329265594,0.8606101274490356,-0.1892391890287399,0,0,0,-1,-1,5762.91684375,unknown,2,2022-06-30T10:05:30.313+02:00,2022-06-30T08:20:05.567+02:00,1540,1.501556,0,0,1217.191,0,0,2022-06-30T10:05:15.030+02:00
2022-06-30T10:05:33.161+02:00,5765.762973041667,0.0526580810546875,1.261978149414062,-0.2775726318359375,5765.753022041667,1.105117115205652,1.177059247626117,-1.037345650586208,1.614359974861145,1.26677131652832,-0.7030353546142578,-0.6899348497390747,0.5711020827293396,0.01011776924133301,XArbitraryZVertical,-0.6040167918110171,0.193961842158767,0.1449004889894559,0.7593065700316599,0.4695976674556732,0.8610575199127197,-0.1950850337743759,0,0,0,-1,-1,5762.91684375,unknown,2,2022-06-30T10:05:30.313+02:00,2022-06-30T08:20:05.567+02:00,1540,1.501556,0,0,1217.191,0,0,2022-06-30T10:05:15.030+02:00
2022-06-30T10:05:33.171+02:00,5765.772924041667,0.157806396484375,1.131484985351562,-0.2863922119140625,5765.762973041667,1.066379919278773,1.157102116446153,-1.036708416372087,2.019529819488525,1.426533222198486,-0.7131079435348511,-0.6038548350334167,0.5635680556297302,-0.06022441387176514,XArbitraryZVertical,-0.598662553640957,0.1982023520954419,0.136347091152669,0.7640213295859223,0.4661134481430054,0.8607332706451416,-0.2046379446983337,0,0,0,-1,-1,5762.91684375,unknown,2,2022-06-30T10:05:30.313+02:00,2022-06-30T08:20:05.567+02:00,1540,1.501556,0,0,1217.191,0,0,2022-06-30T10:05:15.030+02:00
2022-06-30T10:05:33.180+02:00,5765.782876041667,0.1805267333984375,1.002838134765625,-0.298736572265625,5765.772924041667,1.025599238519945,1.136861082295191,-1.034853728769072,1.883625745773315,1.553104519844055,-0.6607486009597778,-0.4106658697128296,0.4021905660629272,-0.06287209689617157,XArbitraryZVertical,-0.5927741868361159,0.2031462175674105,0.1273192134791371,0.7688564427604793,0.4633236527442932,0.85978764295578,-0.2147007584571838,0,0,0,-1,-1,5762.91684375,unknown,2,2022-06-30T10:05:30.313+02:00,2022-06-30T08:20:05.567+02:00,1540,1.501556,0,0,1217.191,0,0,2022-06-30T10:05:15.030+02:00
2022-06-30T10:05:33.192+02:00,5765.792827041667,0.102569580078125,0.9123687744140625,-0.3503875732421875,5765.782876041667,0.9911608016541711,1.123281151468932,-1.0336213548153,1.400676846504211,1.677207350730896,-0.6299733519554138,-0.303514301776886,0.2723274230957031,-0.06496137380599976,XArbitraryZVertical,-0.5880787121835349,0.2084415579812411,0.1184334011296846,0.772456621790399,0.4613204598426819,0.8591576814651489,-0.221431091427803,0,0,0,-1,-1,5762.91684375,unknown,2,2022-06-30T10:05:30.313+02:00,2022-06-30T08:20:05.567+02:00,1540,1.501556,0,0,1217.191,0,0,2022-06-30T10:05:15.030+02:00
2022-06-30T10:05:33.205+02:00,5765.802778041667,-0.0226287841796875,0.924835205078125,-0.3839263916015625,5765.792827041667,0.9664302183435581,1.11949313466342,-1.034537057568773,0.8026458621025085,1.839552402496338,-0.6394703984260559,-0.2792436480522156,0.1432123184204102,-0.07590311765670776,XArbitraryZVertical,-0.5854919672982223,0.213967974971238,0.1097053332815123,0.7741974500683647,0.4597701132297516,0.8596259355545044,-0.2228337228298187,0,0,0,-1,-1,5762.91684375,unknown,2,2022-06-30T10:05:30.313+02:00,2022-06-30T08:20:05.567+02:00,1540,1.501556,0,0,1217.191,0,0,2022-06-30T10:05:15.030+02:00
2022-06-30T10:05:33.212+02:00,5765.812730041667,-0.1401824951171875,1.0177001953125,-0.3911895751953125,5765.802778041667,0.9528558595216039,1.126756679977339,-1.038035190023479,0.1535422503948212,1.971259951591492,-0.5756822824478149,-0.3560889363288879,0.0509609580039978,-0.1321927309036255,XArbitraryZVertical,-0.5853311657405844,0.2197495063090309,0.1012695160483959,0.7738489268644198,0.4586582481861115,0.8614079356193542,-0.2181951552629471,0,0,0,-1,-1,5762.91684375,unknown,2,2022-06-30T10:05:30.313+02:00,2022-06-30T08:20:05.567+02:00,1540,1.501556,0,0,1217.191,0,0,2022-06-30T10:05:15.030+02:00
2022-06-30T10:05:33.220+02:00,5765.822681041667,-0.2141571044921875,1.26123046875,-0.221038818359375,5765.812730041667,0.9490902619532842,1.143580816970919,-1.042537558378742,-0.1215433925390244,2.060301065444946,-0.3951447606086731,-0.4813586175441742,0.06114929914474487,-0.1750876158475876,XArbitraryZVertical,-0.586919885857297,0.2260653612646395,0.09351828041039269,0.7717991179426897,0.4587295651435852,0.8636860251426697,-0.2088389992713928,0,0,0,-1,-1,5762.91684375,unknown,2,2022-06-30T10:05:30.313+02:00,2022-06-30T08:20:05.567+02:00,1540,1.501556,0,0,1217.191,0,0,2022-06-30T10:05:15.030+02:00
2022-06-30T10:05:33.230+02:00,5765.832632125001,-0.2162628173828125,1.498916625976562,-0.11126708984375,5765.822681041667,0.9481986213025629,1.16344421525039,-1.046017285236343,-0.05673230439424515,2.08838963508606,-0.2974222302436829,-0.6002075672149658,0.1522656679153442,-0.1926952600479126,XArbitraryZVertical,-0.5886188141643608,0.2329819676839775,0.08627336573246983,0.7692881394239194,0.4600247740745544,0.8654346466064453,-0.1984945833683014,0,0,0,-1,-1,5762.91684375,unknown,2,2022-06-30T10:05:30.313+02:00,2022-06-30T08:20:05.567+02:00,1540,1.501556,0,0,1217.191,0,0,2022-06-30T10:05:15.030+02:00
2022-06-30T10:05:33.240+02:00,5765.842584125,-0.1485137939453125,1.568984985351562,-0.105682373046875,5765.832632125001,0.9445922355238601,1.181083654752315,-1.048198479247679,0.2723555564880371,2.084731101989746,-0.2315311133861542,-0.6758646368980408,0.3947051763534546,-0.03140711784362793,XArbitraryZVertical,-0.5894840225646402,0.2401928177373573,0.07902075099801566,0.7671843790255982,0.4617072939872742,0.866525411605835,-0.1896319985389709,0,0,0,-1,-1,5762.91684375,unknown,2,2022-06-30T10:05:30.313+02:00,2022-06-30T08:20:05.567+02:00,1540,1.501556,0,0,1217.191,0,0,2022-06-30T10:05:15.030+02:00
2022-06-30T10:05:33.250+02:00,5765.852535125,-0.1183624267578125,1.516006469726562,-0.10595703125,5765.842584125,0.9326048338780236,1.191279204830759,-1.047508916739722,0.8995017409324646,2.061305046081543,-0.081305131316185,-0.68043452501297,0.6327356696128845,0.07386875152587891,XArbitraryZVertical,-0.5882283353262328,0.2478292842713735,0.07163623575067622,0.7664440018359925,0.4641714692115784,0.8661810159683228,-0.1851361393928528,0,0,0,-1,-1,5762.91684375,unknown,2,2022-06-30T10:05:30.313+02:00,2022-06-30T08:20:05.567+02:00,1540,1.501556,0,0,1217.191,0,0,2022-06-30T10:05:15.030+02:00
2022-06-30T10:05:33.260+02:00,5765.862486125,-0.1070709228515625,1.471023559570312,-0.1949310302734375,5765.852535125,0.9104787704436065,1.192699828607886,-1.043466793059579,1.461534738540649,2.073392629623413,0.004454251378774643,-0.6161981225013733,0.704831063747406,0.08008481562137604,XArbitraryZVertical,-0.5844432099361594,0.2560124725190421,0.06398735243249822,0.7673261554778291,0.4676840901374817,0.8641539812088013,-0.1857675015926361,0,0,0,-1,-1,5762.91684375,unknown,2,2022-06-30T10:05:30.313+02:00,2022-06-30T08:20:05.567+02:00,1540,1.501556,0,0,1217.191,0,0,2022-06-30T10:05:15.030+02:00
2022-06-30T10:05:33.270+02:00,5765.872438125,-0.1221466064453125,1.442825317382812,-0.2769622802734375,5765.862486125,0.8801720417845634,1.186994639174332,-1.03725152025386,1.839984893798828,2.030831575393677,0.01608184538781643,-0.5899504423141479,0.6549968719482422,0.0844828188419342,XArbitraryZVertical,-0.5786906951113582,0.2643804154951196,0.05591846795932044,0.7694759382004496,0.4715877175331116,0.8610096573829651,-0.1904401481151581,0,0,0,-1,-1,5762.91684375,unknown,2,2022-06-30T10:05:30.313+02:00,2022-06-30T08:20:05.567+02:00,1540,1.501556,0,0,1217.191,0,0,2022-06-30T10:05:15.030+02:00
2022-06-30T10:05:33.280+02:00,5765.882389125,-0.153900146484375,1.397872924804688,-0.15350341796875,5765.872438125,0.8456858678020643,1.177499762717265,-1.029634553096897,2.015107393264771,2.029038190841675,0.07607726752758026,-0.5828733444213867,0.6139127612113953,0.002485543489456177,XArbitraryZVertical,-0.5717547901861094,0.2727417123761097,0.04768637492941159,0.7722916670418571,0.4758021235466003,0.8571107983589172,-0.1974168419837952,0,0,0,-1,-1,5762.91684375,unknown,2,2022-06-30T10:05:30.313+02:00,2022-06-30T08:20:05.567+02:00,1540,1.501556,0,0,1217.191,0,0,2022-06-30T10:05:15.030+02:00
2022-06-30T10:05:33.290+02:00,5765.892341125001,-0.168670654296875,1.323623657226562,0.045989990234375,5765.882389125,0.8104378250918508,1.167915607640183,-1.020552850949916,2.041240453720093,2.112988233566284,0.1775159388780594,-0.6031763553619385,0.5904282927513123,-0.07195118069648743,XArbitraryZVertical,-0.5641394121009761,0.2814977619204032,0.0395223928247318,0.7752056907985114,0.481029599905014,0.8523972630500793,-0.2050114721059799,0,0,0,-1,-1,5762.91684375,unknown,2,2022-06-30T10:05:30.313+02:00,2022-06-30T08:20:05.567+02:00,1540,1.501556,0,0,1217.191,0,0,2022-06-30T10:05:15.030+02:00
2022-06-30T10:05:33.300+02:00,5765.902292125001,-0.110992431640625,1.21270751953125,0.10394287109375,5765.892341125001,0.7784297410439518,1.162365687594769,-1.011350172225173,1.804364204406738,2.238765239715576,0.1830233633518219,-0.6409634351730347,0.5503238439559937,0.05728089809417725,XArbitraryZVertical,-0.5568422135041505,0.2907480257810386,0.03141607271069094,0.7774352207329471,0.4870631098747253,0.8475492000579834,-0.2107846736907959,0,0,0,-1,-1,5762.91684375,unknown,2,2022-06-30T10:05:30.313+02:00,2022-06-30T08:20:05.567+02:00,1540,1.501556,0,0,1217.191,0,0,2022-06-30T10:05:15.030+02:00
2022-06-30T10:05:33.310+02:00,5765.912243125001,-0.03179931640625,1.226654052734375,0.094390869140625,5765.902292125001,0.7493022149121616,1.160227264818778,-1.002659100126486,1.780948758125305,2.274998664855957,0.1729992926120758,-0.6620175242424011,0.4807190299034119,0.2607473134994507,XArbitraryZVertical,-0.5499849931959453,0.3002293319269065,0.02326483502049841,0.778997889447968,0.4933466613292694,0.8429047465324402,-0.2147577106952667,0,0,0,-1,-1,5762.91684375,unknown,2,2022-06-30T10:05:30.313+02:00,2022-06-30T08:20:05.567+02:00,1540,1.501556,0,0,1217.191,0,0,2022-06-30T10:05:15.030+02:00
2022-06-30T10:05:33.320+02:00,5765.922195125,0.0220184326171875,1.209686279296875,0.073089599609375,5765.912243125001,0.7202672999503285,1.158505650977286,-0.9943430814683707,1.806295871734619,2.287469387054443,0.09240777045488358,-0.6103737354278564,0.3743063807487488,0.3223505318164825,XArbitraryZVertical,-0.5430831990144571,0.3096072493829032,0.01488043816453778,0.7803733164406021,0.4993810951709747,0.8384010791778564,-0.2184079736471176,0,0,0,-1,-1,5762.91684375,unknown,2,2022-06-30T10:05:30.313+02:00,2022-06-30T08:20:05.567+02:00,1540,1.501556,0,0,1217.191,0,0,2022-06-30T10:05:15.030+02:00
2022-06-30T10:05:33.330+02:00,5765.932146125,0.047637939453125,1.237991333007812,0.0547943115234375,5765.922195125,0.6876548874694096,1.153921289359982,-0.9861150192354927,2.204454898834229,2.269513368606567,-0.01906438916921616,-0.5364648699760437,0.3927660584449768,0.3178712725639343,XArbitraryZVertical,-0.5354593273412999,0.3186580135741985,0.005798536793886321,0.7821168508788153,0.5046653747558594,0.833888053894043,-0.223480761051178,0,0,0,-1,-1,5762.91684375,unknown,2,2022-06-30T10:05:30.313+02:00,2022-06-30T08:20:05.567+02:00,1540,1.501556,0,0,1217.191,0,0,2022-06-30T10:05:15.030+02:00
2022-06-30T10:05:33.340+02:00,5765.942097125,0.048858642578125,1.36907958984375,0.1006317138671875,5765.932146125,0.646696794854882,1.142266766761232,-0.9765105839917825,2.735110521316528,2.239639520645142,-0.07711198180913925,-0.4872699379920959,0.3811376690864563,0.3057537078857422,XArbitraryZVertical,-0.5258821941264795,0.3272853281968954,-0.004360870467076233,0.7850561840179018,0.5092881321907043,0.8285486102104187,-0.2326644659042358,0,0,0,-1,-1,5762.91684375,unknown,2,2022-06-30T10:05:30.313+02:00,2022-06-30T08:20:05.567+02:00,1540,1.501556,0,0,1217.191,0,0,2022-06-30T10:05:15.030+02:00
2022-06-30T10:05:33.349+02:00,5765.952049125,0.0364227294921875,1.288040161132812,0.0987091064453125,5765.942097125,0.6008033907779868,1.126700692643253,-0.9652838278728372,2.921055793762207,2.254972696304321,-0.07664622366428375,-0.4663347601890564,0.415780782699585,0.2993388473987579,XArbitraryZVertical,-0.5147969627900265,0.3357256003844692,-0.0151506477629768,0.7886969404822233,0.5139725208282471,0.8222104907035828,-0.2445448189973831,0,0,0,-1,-1,5762.91684375,unknown,2,2022-06-30T10:05:30.313+02:00,2022-06-30T08:20:05.567+02:00,1540,1.501556,0,0,1217.191,0,0,2022-06-30T10:05:15.030+02:00
2022-06-30T10:05:33.359+02:00,5765.962000125,0.0731353759765625,1.1839599609375,0.0280303955078125,5765.952049125,0.5522779110192215,1.109687895116886,-0.9530777352201355,3.22885274887085,2.311484098434448,-0.1712334454059601,-0.4698290228843689,0.553877592086792,0.3583309352397919,XArbitraryZVertical,-0.5027504956625987,0.3440816437599865,-0.02657364466417409,0.7925550707345984,0.5186874866485596,0.8152019381523132,-0.2576995193958282,0,0,0,-1,-1,5762.91684375,unknown,2,2022-06-30T10:05:30.313+02:00,2022-06-30T08:20:05.567+02:00,1540,1.501556,0,0,1217.191,0,0,2022-06-30T10:05:15.030+02:00
2022-06-30T10:05:33.369+02:00,5765.971951125,0.1202850341796875,1.212493896484375,0.025238037109375,5765.962000125,0.4978750544066151,1.088661136807144,-0.9394752452183464,3.692947149276733,2.32941722869873,-0.2889013886451721,-0.4865091443061829,0.4807916879653931,0.3723734617233276,XArbitraryZVertical,-0.4890607007086948,0.3521182790386844,-0.03924026822331156,0.7970524544131351,0.5229317545890808,0.8072484731674194,-0.2736646831035614,0,0,0,-1,-1,5762.91684375,unknown,2,2022-06-30T10:05:30.313+02:00,2022-06-30T08:20:05.567+02:00,1540,1.501556,0,0,1217.191,0,0,2022-06-30T10:05:15.030+02:00
2022-06-30T10:05:33.379+02:00,5765.981903125,0.13568115234375,1.24896240234375,0.066925048828125,5765.971951125,0.4378645741552473,1.063678815090167,-0.9241093148834215,4.116026878356934,2.334435224533081,-0.3997845053672791,-0.4535790085792542,0.3858755826950073,0.3206621408462524,XArbitraryZVertical,-0.4736333904779131,0.3596600504451417,-0.05311186686900617,0.8021815851847992,0.5267142057418823,0.7980843782424927,-0.292632132768631,0,0,0,-1,-1,5762.91684375,unknown,2,2022-06-30T10:05:30.313+02:00,2022-06-30T08:20:05.567+02:00,1540,1.501556,0,0,1217.191,0,0,2022-06-30T10:05:15.030+02:00
2022-06-30T10:05:33.391+02:00,5765.991854125,0.1086273193359375,1.264251708984375,0.1577301025390625,5765.981903125,0.3728566318688282,1.035125397604992,-0.9066518708152136,4.539411544799805,2.276273965835571,-0.5205460786819458,-0.4097614288330078,0.4250494837760925,0.3398520946502686,XArbitraryZVertical,-0.4564447400411676,0.3665391983033399,-0.06812571881127784,0.807877559878117,0.5300463438034058,0.7874444127082825,-0.3146144449710846,0,0,0,-1,-1,5762.91684375,unknown,2,2022-06-30T10:05:30.313+02:00,2022-06-30T08:20:05.567+02:00,1540,1.501556,0,0,1217.191,0,0,2022-06-30T10:05:15.030+02:00
2022-06-30T10:05:33.399+02:00,5766.001805125,0.0807342529296875,1.32318115234375,0.244537353515625,5765.991854125,0.3029392172224594,1.002783604514383,-0.8867103265443357,5.008610248565674,2.218679428100586,-0.6568442583084106,-0.3970475792884827,0.4739652872085571,0.4068951904773712,XArbitraryZVertical,-0.4373786411398067,0.3724441872189319,-0.08429781266546034,0.8141738746218805,0.5327285528182983,0.7749969959259033,-0.3399704992771149,0,0,0,-1,-1,5762.91684375,unknown,2,2022-06-30T10:05:30.313+02:00,2022-06-30T08:20:05.567+02:00,1540,1.501556,0,0,1217.191,0,0,2022-06-30T10:05:15.030+02:00
2022-06-30T10:05:33.409+02:00,5766.011757125,0.0981597900390625,1.2283935546875,0.2399139404296875,5766.001805125,0.231260328336168,0.9698487975086824,-0.8649347792550146,5.044293880462646,2.233593463897705,-0.7775996327400208,-0.4264122843742371,0.5031986832618713,0.5245146751403809,XArbitraryZVertical,-0.4171455863614295,0.3776203322142724,-0.101386935212564,0.8204346914912599,0.5350394248962402,0.7610529661178589,-0.3667849004268646,0,0,0,-1,-1,5762.91684375,unknown,2,2022-06-30T10:05:30.313+02:00,2022-06-30T08:20:05.567+02:00,1540,1.501556,0,0,1217.191,0,0,2022-06-30T10:05:15.030+02:00
2022-06-30T10:05:33.419+02:00,5766.021708125,0.145599365234375,1.140274047851562,0.1626129150390625,5766.011757125,0.1614902849498059,0.9394915092842565,-0.8429957130823761,5.050347328186035,2.237241506576538,-0.9531357884407043,-0.4562774300575256,0.5765417218208313,0.6371542811393738,XArbitraryZVertical,-0.3969386317908987,0.3822709756725415,-0.1189660199836776,0.8259271549828914,0.5370115637779236,0.7466393113136292,-0.392617255449295,0,0,0,-1,-1,5762.91684375,unknown,2,2022-06-30T10:05:30.313+02:00,2022-06-30T08:20:05.567+02:00,1540,1.501556,0,0,1217.191,0,0,2022-06-30T10:05:15.030+02:00
2022-06-30T10:05:33.429+02:00,5766.031659125,0.183502197265625,1.1429443359375,0.1336822509765625,5766.021708125,0.09223052283969015,0.9105573525448433,-0.8210648106583645,5.050673961639404,2.252105236053467,-1.166383862495422,-0.440074622631073,0.496521532535553,0.6578459739685059,XArbitraryZVertical,-0.3766497911264712,0.3862236704898961,-0.137338685603366,0.8307252038139578,0.5382342934608459,0.7318718433380127,-0.4179324209690094,0,0,0,-1,-1,5762.91684375,unknown,2,2022-06-30T10:05:30.313+02:00,2022-06-30T08:20:05.567+02:00,1540,1.501556,0,0,1217.191,0,0,2022-06-30T10:05:15.030+02:00
2022-06-30T10:05:33.439+02:00,5766.041611125001,0.215789794921875,1.185379028320312,0.0732269287109375,5766.031659125,0.02348148335410342,0.8832740704142517,-0.7997417364086725,5.123904705047607,2.28023362159729,-1.42575204372406,-0.3929734230041504,0.4230977892875671,0.6048771739006042,XArbitraryZVertical,-0.3565453119034254,0.389542190722581,-0.1566061430978823,0.8346298675160985,0.5385727286338806,0.7171761393547058,-0.4422646462917328,0,0,0,-1,-1,5762.91684375,unknown,2,2022-06-30T10:05:30.313+02:00,2022-06-30T08:20:05.567+02:00,1540,1.501556,0,0,1217.191,0,0,2022-06-30T10:05:15.030+02:00
2022-06-30T10:05:33.449+02:00,5766.051562125001,0.2345428466796875,1.33441162109375,0.019287109375,5766.041611125001,-0.04864932163355706,0.8548904497628204,-0.7768105714675009,5.649340629577637,2.301748752593994,-1.636239886283875,-0.3545711636543274,0.4419357776641846,0.6017251014709473,XArbitraryZVertical,-0.3352056489243742,0.3919382346012061,-0.1774332093428251,0.8381760901564029,0.5380733013153076,0.7010084390640259,-0.468043178319931,0,0,0,-1,-1,5762.91684375,unknown,2,2022-06-30T10:05:30.313+02:00,2022-06-30T08:20:05.567+02:00,1540,1.501556,0,0,1217.191,0,0,2022-06-30T10:05:15.030+02:00
2022-06-30T10:05:33.459+02:00,5766.061513125001,0.2286529541015625,1.43719482421875,0.0156707763671875,5766.051562125001,-0.1251527853070713,0.8246574319011987,-0.7504364675056345,6.169209480285645,2.258804321289062,-1.832592964172363,-0.3212820887565613,0.5034207701683044,0.5697011947631836,XArbitraryZVertical,-0.3117869181119286,0.3931305023044867,-0.1998837888951716,0.8415959656317507,0.5370717644691467,0.6819580793380737,-0.4964746534824371,0,0,0,-1,-1,5762.91684375,unknown,2,2022-06-30T10:05:30.313+02:00,2022-06-30T08:20:05.567+02:00,1540,1.501556,0,0,1217.191,0,0,2022-06-30T10:05:15.030+02:00
2022-06-30T10:05:33.469+02:00,5766.071465125,0.214080810546875,1.445938110351562,0.0423126220703125,5766.061513125001,-0.2052986464357571,0.7929007066599705,-0.720365783646815,6.600509643554688,2.172222137451172,-2.03542947769165,-0.3008657097816467,0.6747516989707947,0.5467211008071899,XArbitraryZVertical,-0.2863684278736081,0.3927798215927943,-0.2238353511292342,0.8447572435302001,0.5354084372520447,0.6596596240997314,-0.5274342894554138,0,0,0,-1,-1,5762.91684375,unknown,2,2022-06-30T10:05:30.313+02:00,2022-06-30T08:20:05.567+02:00,1540,1.501556,0,0,1217.191,0,0,2022-06-30T10:05:15.030+02:00
2022-06-30T10:05:33.479+02:00,5766.081416125,0.245635986328125,1.396652221679688,0.0035858154296875,5766.071465125,-0.2869636874165039,0.7612527820401979,-0.6874019190728069,6.882974147796631,2.093417882919312,-2.233525514602661,-0.3045139908790588,0.8026633262634277,0.5752267241477966,XArbitraryZVertical,-0.2596282378256885,0.390915645930707,-0.2488922140040718,0.847249049391165,0.5331669449806213,0.6345312595367432,-0.559556245803833,0,0,0,-1,-1,5762.91684375,unknown,2,2022-06-30T10:05:30.313+02:00,2022-06-30T08:20:05.567+02:00,1540,1.501556,0,0,1217.191,0,0,2022-06-30T10:05:15.030+02:00
2022-06-30T10:05:33.489+02:00,5766.091368125,0.2744140625,1.29754638671875,-0.0138397216796875,5766.081416125,-0.3681148048462671,0.7310601411220619,-0.6525507076682537,6.888688087463379,1.974520206451416,-2.400130271911621,-0.3163995742797852,0.838722825050354,0.6338193416595459,XArbitraryZVertical,-0.2323177424715673,0.3876531476260249,-0.2745428034573295,0.8487518943842309,0.5304803848266602,0.6072149872779846,-0.5915070176124573,0,0,0,-1,-1,5762.91684375,unknown,2,2022-06-30T10:05:30.313+02:00,2022-06-30T08:20:05.567+02:00,1540,1.501556,0,0,1217.191,0,0,2022-06-30T10:05:15.030+02:00
2022-06-30T10:05:33.499+02:00,5766.101319125,0.30792236328125,1.194076538085938,-0.0099029541015625,5766.091368125,-0.4461472113708583,0.704030396743491,-0.6182041534535972,6.56267261505127,1.906565070152283,-2.556142807006836,-0.2818580865859985,0.8170793056488037,0.6247501969337463,XArbitraryZVertical,-0.2058119866486348,0.3834828327064792,-0.300108104620556,0.8488329982692917,0.5274940729141235,0.5795726180076599,-0.6211646795272827,0,0,0,-1,-1,5762.91684375,unknown,2,2022-06-30T10:05:30.313+02:00,2022-06-30T08:20:05.567+02:00,1540,1.501556,0,0,1217.191,0,0,2022-06-30T10:05:15.030+02:00
2022-06-30T10:05:33.509+02:00,5766.111270125,0.3441314697265625,1.175643920898438,0.004119873046875,5766.101319125,-0.5189447959585139,0.6814087092089565,-0.5865701807674402,6.029052257537842,1.852388620376587,-2.655727386474609,-0.2501842379570007,0.7440382838249207,0.6330184936523438,XArbitraryZVertical,-0.1812874231323186,0.3790852961564247,-0.3248657181807035,0.8472847715448353,0.524598240852356,0.5535078048706055,-0.6468583941459656,0,0,0,-1,-1,5762.91684375,unknown,2,2022-06-30T10:05:30.313+02:00,2022-06-30T08:20:05.567+02:00,1540,1.501556,0,0,1217.191,0,0,2022-06-30T10:05:15.030+02:00
2022-06-30T10:05:33.519+02:00,5766.121222125001,0.3540802001953125,1.282012939453125,-0.076812744140625,5766.111270125,-0.5865193776795798,0.6629302110107564,-0.5583156675168495,5.530615329742432,1.795876860618591,-2.740684986114502,-0.2140529751777649,0.6643178462982178,0.6586010456085205,XArbitraryZVertical,-0.158992331454866,0.3747923820213328,-0.3485997092516247,0.8442336575241787,0.5219753384590149,0.5297583937644958,-0.6685042381286621,0,0,0,-1,-1,5762.91684375,unknown,2,2022-06-30T10:05:30.313+02:00,2022-06-30T08:20:05.567+02:00,1540,1.501556,0,0,1217.191,0,0,2022-06-30T10:05:15.030+02:00
2022-06-30T10:05:33.529+02:00,5766.131173125001,0.34228515625,1.373641967773438,-0.202545166015625,5766.121222125001,-0.6506598070133883,0.6472375819490938,-0.5327533631210901,5.28535795211792,1.743585228919983,-2.871331930160522,-0.1752869486808777,0.6677364706993103,0.6913132071495056,XArbitraryZVertical,-0.1384271794293607,0.3704607205752834,-0.3716610541060434,0.8399195890487346,0.519418478012085,0.5079070329666138,-0.6871935129165649,0,0,0,-1,-1,5762.91684375,unknown,2,2022-06-30T10:05:30.313+02:00,2022-06-30T08:20:05.567+02:00,1540,1.501556,0,0,1217.191,0,0,2022-06-30T10:05:15.030+02:00
2022-06-30T10:05:33.539+02:00,5766.141124125001,0.3514862060546875,1.409912109375,-0.29986572265625,5766.131173125001,-0.7141440808330762,0.6326940427442244,-0.5080389482455938,5.336889266967773,1.686937689781189,-3.038101434707642,-0.1625556945800781,0.7955477237701416,0.6277715563774109,XArbitraryZVertical,-0.1185134331295681,0.3655985840309869,-0.3947746239077409,0.8345329296744366,0.5166358947753906,0.48646479845047,-0.7045844793319702,0,0,0,-1,-1,5762.91684375,unknown,2,2022-06-30T10:05:30.313+02:00,2022-06-30T08:20:05.567+02:00,1540,1.501556,0,0,1217.191,0,0,2022-06-30T10:05:15.030+02:00
2022-06-30T10:05:33.549+02:00,5766.151076125,0.361358642578125,1.475784301757812,-0.3062591552734375,5766.141124125001,-0.7784268264107929,0.6185067223692851,-0.4820827457475618,5.533541202545166,1.597072601318359,-3.100058078765869,-0.1714527010917664,0.9100160598754883,0.5193443894386292,XArbitraryZVertical,-0.09823354762418991,0.3597295094829608,-0.4182279412788861,0.8282694514704881,0.5137379169464111,0.4636255502700806,-0.7218896746635437,0,0,0,-1,-1,5762.91684375,unknown,2,2022-06-30T10:05:30.313+02:00,2022-06-30T08:20:05.567+02:00,1540,1.501556,0,0,1217.191,0,0,2022-06-30T10:05:15.030+02:00
2022-06-30T10:05:33.558+02:00,5766.161027125,0.3790435791015625,1.41070556640625,-0.2827301025390625,5766.151076125,-0.842594786819392,0.6046083803803228,-0.4547310696851868,5.551482200622559,1.452704429626465,-3.18773889541626,-0.1591883301734924,0.9706910252571106,0.4392529726028442,XArbitraryZVertical,-0.07775565372503132,0.3526962469317497,-0.4415944044714175,0.8213123029056744,0.5106745958328247,0.4392207264900208,-0.7391188144683838,0,0,0,-1,-1,5762.91684375,unknown,2,2022-06-30T10:05:30.313+02:00,2022-06-30T08:20:05.567+02:00,1540,1.501556,0,0,1217.191,0,0,2022-06-30T10:05:15.030+02:00
2022-06-30T10:05:33.568+02:00,5766.170978125,0.4319000244140625,1.319503784179688,-0.22210693359375,5766.161027125,-0.9059211626996236,0.5915798912272402,-0.4278024639794961,5.348067760467529,1.368412256240845,-3.250584363937378,-0.1460566520690918,1.060911655426025,0.4489960074424744,XArbitraryZVertical,-0.05791839155336426,0.3449895761906923,-0.4647207463230695,0.8134262996866298,0.5074154138565063,0.4148723185062408,-0.7552552819252014,0,0,0,-1,-1,5762.91684375,unknown,2,2022-06-30T10:05:30.313+02:00,2022-06-30T08:20:05.567+02:00,1540,1.501556,0,0,1217.191,0,0,2022-06-30T10:05:15.030+02:00
2022-06-30T10:05:33.578+02:00,5766.180930125,0.483123779296875,1.262069702148438,-0.1346435546875,5766.170978125,-0.9665729618562502,0.580391271935553,-0.4029700993266837,4.961168766021729,1.30983567237854,-3.294487476348877,-0.1253846883773804,1.018552899360657,0.4865347146987915,XArbitraryZVertical,-0.03951860058823878,0.3373511487021792,-0.4869599052937978,0.8046754630571233,0.5044284462928772,0.3921522498130798,-0.7692649364471436,0,0,0,-1,-1,5762.91684375,unknown,2,2022-06-30T10:05:30.313+02:00,2022-06-30T08:20:05.567+02:00,1540,1.501556,0,0,1217.191,0,0,2022-06-30T10:05:15.030+02:00
2022-06-30T10:05:33.588+02:00,5766.190881125,0.5397186279296875,1.2637939453125,-0.1229095458984375,5766.180930125,-1.024371517753406,0.5709173382481696,-0.3814191369908362,4.494510650634766,1.227033019065857,-3.345571041107178,-0.06966906785964966,0.9472653865814209,0.5588328838348389,XArbitraryZVertical,-0.02304020540803218,0.3301502342200906,-0.5082542454810292,0.7950771439064408,0.5015692710876465,0.3722380101680756,-0.7809399366378784,0,0,0,-1,-1,5762.91684375,unknown,2,2022-06-30T10:05:30.313+02:00,2022-06-30T08:20:05.567+02:00,1540,1.501556,0,0,1217.191,0,0,2022-06-30T10:05:15.030+02:00
2022-06-30T10:05:33.598+02:00,5766.200832125,0.5728302001953125,1.242813110351562,-0.18096923828125,5766.190881125,-1.079171124799343,0.5628608404829099,-0.3636929943292159,4.004543781280518,1.172237157821655,-3.402714490890503,-0.01558041572570801,0.9063411951065063,0.6557686328887939,XArbitraryZVertical,-0.008708342770341198,0.3236016705486459,-0.5285199773060538,0.7847755939929205,0.4987043142318726,0.3557280898094177,-0.7904122471809387,0,0,0,-1,-1,5762.91684375,unknown,2,2022-06-30T10:05:30.313+02:00,2022-06-30T08:20:05.567+02:00,1540,1.501556,0,0,1217.191,0,0,2022-06-30T10:05:15.030+02:00
2022-06-30T10:05:33.608+02:00,5766.210784125,0.606201171875,1.164962768554688,-0.24639892578125,5766.200832125,-1.131274457145119,0.5560254622490876,-0.350365852928555,3.471666812896729,1.119229793548584,-3.485678434371948,0.04397043585777283,0.920552134513855,0.6748490333557129,XArbitraryZVertical,0.003346194638893833,0.3179771488661728,-0.5478692765347272,0.773769133144801,0.495748370885849,0.3432414531707764,-0.7977586984634399,0,0,0,-1,-1,5762.91684375,unknown,2,2022-06-30T10:05:30.313+02:00,2022-06-30T08:20:05.567+02:00,1540,1.501556,0,0,1217.191,0,0,2022-06-30T10:05:15.030+02:00
2022-06-30T10:05:33.619+02:00,5766.220735125,0.6181488037109375,1.195541381835938,-0.300506591796875,5766.210784125,-1.180801254797678,0.5501048829832612,-0.3408223674106588,3.097069263458252,1.067615866661072,-3.457541465759277,0.08012381196022034,0.9085504412651062,0.6224664449691772,XArbitraryZVertical,0.01342263523928019,0.313212325553975,-0.5662702164553629,0.7622703147018525,0.4927065968513489,0.3342622816562653,-0.803435742855072,0,0,0,-1,-1,5762.91684375,unknown,2,2022-06-30T10:05:30.313+02:00,2022-06-30T08:20:05.567+02:00,1540,1.501556,0,0,1217.191,0,0,2022-06-30T10:05:15.030+02:00
2022-06-30T10:05:33.628+02:00,5766.230687125,0.6102142333984375,1.267303466796875,-0.37823486328125,5766.220735125,-1.227738807377692,0.5449486868357393,-0.3335816486890224,2.805497884750366,1.029804468154907,-3.402078866958618,0.1164021790027618,0.8375330567359924,0.5616151690483093,XArbitraryZVertical,0.02216724927842796,0.3090332520417512,-0.5836057069477087,0.7506074527311016,0.4897992014884949,0.327429324388504,-0.8080140948295593,0,0,0,-1,-1,5762.91684375,unknown,2,2022-06-30T10:05:30.313+02:00,2022-06-30T08:20:05.567+02:00,1540,1.501556,0,0,1217.191,0,0,2022-06-30T10:05:15.030+02:00
2022-06-30T10:05:33.638+02:00,5766.240638125,0.639862060546875,1.290771484375,-0.433929443359375,5766.230687125,-1.273793779048288,0.5400927691437183,-0.3269918418389396,2.873132228851318,0.9880810379981995,-3.412936210632324,0.1311802864074707,0.8743453025817871,0.5117093324661255,XArbitraryZVertical,0.03042248053578811,0.3049040573317008,-0.6004167664175757,0.7386527001328894,0.4869687557220459,0.3211957216262817,-0.8122159838676453,0,0,0,-1,-1,5762.91684375,unknown,2,2022-06-30T10:05:30.313+02:00,2022-06-30T08:20:05.567+02:00,1540,1.501556,0,0,1217.191,0,0,2022-06-30T10:05:15.030+02:00
2022-06-30T10:05:33.648+02:00,5766.250589125,0.6968841552734375,1.212890625,-0.4397430419921875,5766.240638125,-1.320899312101318,0.5344663263559812,-0.3184934863315228,3.218079090118408,0.8896583318710327,-3.417943477630615,0.1264503002166748,0.9541668891906738,0.4390276074409485,XArbitraryZVertical,0.039162072503201,0.2997249972216512,-0.6172786346032061,0.7263597453960833,0.4837641716003418,0.3131361603736877,-0.8172625303268433,0,0,0,-1,-1,5762.91684375,unknown,2,2022-06-30T10:05:30.313+02:00,2022-06-30T08:20:05.567+02:00,1540,1.501556,0,0,1217.191,0,0,2022-06-30T10:05:15.030+02:00
2022-06-30T10:05:33.658+02:00,5766.260541125001,0.7429046630859375,1.116592407226562,-0.4773712158203125,5766.250589125,-1.369583646844284,0.5275994912832155,-0.3062351601409176,3.595763683319092,0.7408715486526489,-3.357000112533569,0.1598249077796936,0.989300012588501,0.3898905515670776,XArbitraryZVertical,0.04895055352836465,0.2927351316780884,-0.6342902677424823,0.7138529136305779,0.4800373613834381,0.3014711141586304,-0.8238199949264526,0,0,0,-1,-1,5762.91684375,unknown,2,2022-06-30T10:05:30.313+02:00,2022-06-30T08:20:05.567+02:00,1540,1.501556,0,0,1217.191,0,0,2022-06-30T10:05:15.030+02:00
2022-06-30T10:05:33.668+02:00,5766.270492125001,0.794891357421875,1.082901000976562,-0.4708404541015625,5766.260541125001,-1.418756029981759,0.5198941765336599,-0.2907433823410691,3.7863609790802,0.6291837692260742,-3.258706569671631,0.220945805311203,0.9262257814407349,0.3917050361633301,XArbitraryZVertical,0.05943084688217835,0.284154765593192,-0.6510902986502489,0.7012884651259427,0.475938618183136,0.2866644859313965,-0.8314480781555176,0,0,0,-1,-1,5762.91684375,unknown,2,2022-06-30T10:05:30.313+02:00,2022-06-30T08:20:05.567+02:00,1540,1.501556,0,0,1217.191,0,0,2022-06-30T10:05:15.030+02:00
2022-06-30T10:05:33.678+02:00,5766.280443125001,0.83428955078125,1.047515869140625,-0.495452880859375,5766.270492125001,-1.466707536467565,0.5123386812659676,-0.2734699130511059,3.772807836532593,0.5446750521659851,-3.071604490280151,0.2709046006202698,0.8465180397033691,0.3618401885032654,XArbitraryZVertical,0.07005442093405653,0.2747484135532799,-0.6671374774257242,0.6888637460282816,0.4720003008842468,0.2700740396976471,-0.8392114043235779,0,0,0,-1,-1,5762.91684375,unknown,2,2022-06-30T10:05:30.313+02:00,2022-06-30T08:20:05.567+02:00,1540,1.501556,0,0,1217.191,0,0,2022-06-30T10:05:15.030+02:00
2022-06-30T10:05:33.688+02:00,5766.290395125,0.8952789306640625,0.9442138671875,-0.5257415771484375,5766.280443125001,-1.512043977307022,0.5054318437579078,-0.2560282789730793,3.55009937286377,0.4634773433208466,-2.911846399307251,0.3264890909194946,0.8296602964401245,0.3756041526794434,XArbitraryZVertical,0.08019339025350297,0.265229576579399,-0.6820313425802367,0.6767980824075313,0.4684025347232819,0.2532403171062469,-0.8464446067810059,0,0,0,-1,-1,5762.91684375,unknown,2,2022-06-30T10:05:30.313+02:00,2022-06-30T08:20:05.567+02:00,1540,1.501556,0,0,1217.191,0,0,2022-06-30T10:05:15.030+02:00
2022-06-30T10:05:33.698+02:00,5766.300346125,0.975128173828125,0.90533447265625,-0.4940185546875,5766.290395125,-1.554185519088711,0.4994327388351287,-0.2397600819566373,3.258424282073975,0.4148722290992737,-2.690049886703491,0.3690619170665741,0.8100459575653076,0.357290506362915,XArbitraryZVertical,0.08942579828962961,0.2561861778094071,-0.6956547777646241,0.6651587202699873,0.4652279019355774,0.2374695837497711,-0.8527433276176453,0,0,0,-1,-1,5762.91684375,unknown,2,2022-06-30T10:05:30.313+02:00,2022-06-30T08:20:05.567+02:00,1540,1.501556,0,0,1217.191,0,0,2022-06-30T10:05:15.030+02:00
2022-06-30T10:05:33.708+02:00,5766.310297125,1.040191650390625,0.8675689697265625,-0.457550048828125,5766.300346125,-1.592143933800538,0.4945483643453145,-0.2247837194763258,2.932583570480347,0.3646543323993683,-2.410502672195435,0.4325857162475586,0.7213180065155029,0.3322982788085938,XArbitraryZVertical,0.09773821963666215,0.2478453717956512,-0.7077087867636689,0.6543456965821226,0.4626935124397278,0.2228955328464508,-0.8580397963523865,0,0,0,-1,-1,5762.91684375,unknown,2,2022-06-30T10:05:30.313+02:00,2022-06-30T08:20:05.567+02:00,1540,1.501556,0,0,1217.191,0,0,2022-06-30T10:05:15.030+02:00
2022-06-30T10:05:33.718+02:00,5766.320249125,1.130966186523438,0.8095550537109375,-0.4494476318359375,5766.310297125,-1.626468207949183,0.4905348828667718,-0.2106735575435344,2.756130695343018,0.3160375356674194,-2.182067155838013,0.514446496963501,0.6962155103683472,0.3685599565505981,XArbitraryZVertical,0.1053446467218906,0.2400276525041984,-0.7184072296195136,0.6443449826355973,0.4606819450855255,0.2091186195611954,-0.8625784516334534,0,0,0,-1,-1,5762.91684375,unknown,2,2022-06-30T10:05:30.313+02:00,2022-06-30T08:20:05.567+02:00,1540,1.501556,0,0,1217.191,0,0,2022-06-30T10:05:15.030+02:00
2022-06-30T10:05:33.728+02:00,5766.330200125,1.187942504882812,0.684326171875,-0.4569244384765625,5766.320249125,-1.657805692835704,0.4868941125281399,-0.1963849410564453,2.675218105316162,0.2264036387205124,-1.919013619422913,0.5813022255897522,0.6724436283111572,0.4092524647712708,XArbitraryZVertical,0.1125560308473184,0.2322281819595397,-0.727973745476489,0.635181410894873,0.4588897228240967,0.1951250433921814,-0.8668023943901062,0,0,0,-1,-1,5762.91684375,unknown,2,2022-06-30T10:05:30.313+02:00,2022-06-30T08:20:05.567+02:00,1540,1.501556,0,0,1217.191,0,0,2022-06-30T10:05:15.030+02:00
2022-06-30T10:05:33.738+02:00,5766.340151125,1.227294921875,0.57568359375,-0.4545745849609375,5766.330200125,-1.686225083654767,0.4834468007634662,-0.1813951864382679,2.601519346237183,0.1631303876638412,-1.634214639663696,0.6737593412399292,0.6291526556015015,0.4214237332344055,XArbitraryZVertical,0.1195190373091966,0.2242310871353315,-0.7364486972786757,0.6269601198308518,0.4572071731090546,0.1804020404815674,-0.8708712458610535,0,0,0,-1,-1,5762.91684375,unknown,2,2022-06-30T10:05:30.313+02:00,2022-06-30T08:20:05.567+02:00,1540,1.501556,0,0,1217.191,0,0,2022-06-30T10:05:15.030+02:00
