loggingTime(txt),accelerometerTimestamp_sinceReboot(s),accelerometerAccelerationX(G),accelerometerAccelerationY(G),accelerometerAccelerationZ(G),motionTimestamp_sinceReboot(s),motionYaw(rad),motionRoll(rad),motionPitch(rad),motionRotationRateX(rad/s),motionRotationRateY(rad/s),motionRotationRateZ(rad/s),motionUserAccelerationX(G),motionUserAccelerationY(G),motionUserAccelerationZ(G),motionAttitudeReferenceFrame(txt),motionQuaternionX(R),motionQuaternionY(R),motionQuaternionZ(R),motionQuaternionW(R),motionGravityX(G),motionGravityY(G),motionGravityZ(G),motionMagneticFieldX(µT),motionMagneticFieldY(µT),motionMagneticFieldZ(µT),motionHeading(°),motionMagneticFieldCalibrationAccuracy(Z),activityTimestamp_sinceReboot(s),activity(txt),activityActivityConfidence(Z),activityActivityStartDate(txt),pedometerStartDate(txt),pedometerNumberofSteps(N),pedometerAverageActivePace(s/m),pedometerCurrentPace(s/m),pedometerCurrentCadence(steps/s),pedometerDistance(m),pedometerFloorAscended(N),pedometerFloorDescended(N),pedometerEndDate(txt)
2022-06-30T10:05:42.660+02:00,5775.246617875,-0.0611419677734375,-0.0641021728515625,-1.002273559570312,5775.236666875,0.3898539031298684,-0.09150312702032443,0.05408526511942596,-0.02856198325753212,0.126569852232933,-0.08664579689502716,-0.05751648545265198,-0.006686434149742126,-0.004922389984130859,XArbitraryZVertical,0.03535501523430488,-0.03962114910382893,0.1922081981696468,0.9799164186610179,-0.09124187380075455,-0.05405890196561813,-0.9943603873252869,0,0,0,-1,-1,5773.108428,unknown,2,2022-06-30T10:05:40.505+02:00,2022-06-30T08:20:05.567+02:00,1540,1.501556,0,0,1217.191,0,0,2022-06-30T10:05:15.030+02:00
2022-06-30T10:05:42.662+02:00,5775.256569875,-0.1044921875,-0.040985107421875,-0.9679718017578125,5775.246617875,0.3890556177520825,-0.09050837879396929,0.05391960760314702,-0.04398701339960098,0.05418645963072777,-0.08584950864315033,-0.0517604723572731,0.007338829338550568,-0.01811361312866211,XArbitraryZVertical,0.03516265387732742,-0.03916391734103453,0.1918387140376288,0.9800141331448586,-0.09025350213050842,-0.05389348417520523,-0.9944595694541931,0,0,0,-1,-1,5773.108428,unknown,2,2022-06-30T10:05:40.505+02:00,2022-06-30T08:20:05.567+02:00,1540,1.501556,0,0,1217.191,0,0,2022-06-30T10:05:15.030+02:00
2022-06-30T10:05:42.666+02:00,5775.266520875,-0.1042633056640625,-0.0535888671875,-0.973358154296875,5775.256569875,0.3878435736548307,-0.08953686450116102,0.05344181826363275,-0.07532455772161484,0.1235386058688164,-0.1424821019172668,0.02814722061157227,-0.01068588346242905,-0.007701218128204346,XArbitraryZVertical,0.03481197026151834,-0.03875536659897481,0.1912735436356246,0.9801533127486003,-0.08928962051868439,-0.05341638252139091,-0.9945722818374634,0,0,0,-1,-1,5773.108428,unknown,2,2022-06-30T10:05:40.505+02:00,2022-06-30T08:20:05.567+02:00,1540,1.501556,0,0,1217.191,0,0,2022-06-30T10:05:15.030+02:00
2022-06-30T10:05:42.674+02:00,5775.276472875001,-0.088348388671875,-0.0621795654296875,-0.9790802001953125,5775.266520875,0.386429954339181,-0.08920728898968829,0.05299659490582839,-0.08843636512756348,0.1423748880624771,-0.1334172338247299,-0.01552867889404297,0.01198658719658852,0.02665352821350098,XArbitraryZVertical,0.03453503806197222,-0.03866136817540667,0.1905973142379736,0.9802985607652449,-0.08896394073963165,-0.05297179147601128,-0.9946252703666687,0,0,0,-1,-1,5773.108428,unknown,2,2022-06-30T10:05:40.505+02:00,2022-06-30T08:20:05.567+02:00,1540,1.501556,0,0,1217.191,0,0,2022-06-30T10:05:15.030+02:00
2022-06-30T10:05:42.684+02:00,5775.286423875001,-0.092437744140625,-0.049407958984375,-0.972747802734375,5775.276472875001,0.3850829168319687,-0.08751743487827353,0.05230584892434802,-0.09290735423564911,0.1125332042574883,-0.1190056353807449,-0.01697751134634018,-0.001306954771280289,0.02145230770111084,XArbitraryZVertical,0.03401002179989882,-0.03792260874256573,0.1899826692313328,0.9804650939965475,-0.08728621900081635,-0.05228200182318687,-0.9948104023933411,0,0,0,-1,-1,5773.108428,unknown,2,2022-06-30T10:05:40.505+02:00,2022-06-30T08:20:05.567+02:00,1540,1.501556,0,0,1217.191,0,0,2022-06-30T10:05:15.030+02:00
2022-06-30T10:05:42.694+02:00,5775.296374875001,-0.085479736328125,-0.044921875,-0.9805908203125,5775.286423875001,0.3837631824495029,-0.08560010029880628,0.05127842741024873,-0.09742167592048645,0.1341623216867447,-0.1238211616873741,-0.002965599298477173,-0.01092370226979256,0.01594877243041992,XArbitraryZVertical,0.03329991886626583,-0.03710336810874926,0.189392238240134,0.9806350867758129,-0.08538322150707245,-0.0512559562921524,-0.9950289130210876,0,0,0,-1,-1,5773.108428,unknown,2,2022-06-30T10:05:40.505+02:00,2022-06-30T08:20:05.567+02:00,1540,1.501556,0,0,1217.191,0,0,2022-06-30T10:05:15.030+02:00
2022-06-30T10:05:42.704+02:00,5775.306326875,-0.08709716796875,-0.05157470703125,-0.98284912109375,5775.296374875001,0.3823733497662121,-0.08403940572028983,0.05016743385396887,-0.10856793820858,0.1372624039649963,-0.1400164365768433,-0.00860326737165451,0.0007383376359939575,0.02246934175491333,XArbitraryZVertical,0.03258225005155588,-0.03646716140174518,0.1887622148925962,0.9808045390900395,-0.08383490890264511,-0.05014639347791672,-0.9952170848846436,0,0,0,-1,-1,5773.108428,unknown,2,2022-06-30T10:05:40.505+02:00,2022-06-30T08:20:05.567+02:00,1540,1.501556,0,0,1217.191,0,0,2022-06-30T10:05:15.030+02:00
2022-06-30T10:05:42.714+02:00,5775.316277875,-0.1073150634765625,-0.0587921142578125,-0.9930877685546875,5775.306326875,0.3808019234578471,-0.08260710818857071,0.04940088399947647,-0.1440052837133408,0.1311131566762924,-0.1555405408143997,-0.003067642450332642,0.004458822309970856,0.01478338241577148,XArbitraryZVertical,0.03204311628772402,-0.03586307350813828,0.1880321440933779,0.9809847101278444,-0.08241252601146698,-0.04938079416751862,-0.9953741431236267,0,0,0,-1,-1,5773.108428,unknown,2,2022-06-30T10:05:40.505+02:00,2022-06-30T08:20:05.567+02:00,1540,1.501556,0,0,1217.191,0,0,2022-06-30T10:05:15.030+02:00
2022-06-30T10:05:42.724+02:00,5775.326228875,-0.2063446044921875,-0.09173583984375,-1.004180908203125,5775.316277875,0.3789210911682682,-0.08162306138895205,0.04797191115840846,-0.1979551315307617,0.1420583128929138,-0.2155916094779968,-0.005658932030200958,-0.003621291369199753,0.01267504692077637,XArbitraryZVertical,0.03121653261166071,-0.03554553576803036,0.1871571419495269,0.9811902581198699,-0.08143866062164307,-0.04795351251959801,-0.9955241084098816,0,0,0,-1,-1,5773.108428,unknown,2,2022-06-30T10:05:40.505+02:00,2022-06-30T08:20:05.567+02:00,1540,1.501556,0,0,1217.191,0,0,2022-06-30T10:05:15.030+02:00
2022-06-30T10:05:42.734+02:00,5775.336180875001,0.0270843505859375,-0.1885833740234375,-1.039382934570312,5775.326228875,0.3752225378070341,-0.07998686254740128,0.04533059632672942,-0.3701873421669006,0.2255670577287674,-0.4112974405288696,-0.02749596536159515,-0.0134771391749382,0.002691090106964111,XArbitraryZVertical,0.0297032454127391,-0.03504746449162784,0.1854253635571483,0.9815838321326112,-0.07981952279806137,-0.04531507194042206,-0.9957787990570068,0,0,0,-1,-1,5773.108428,unknown,2,2022-06-30T10:05:40.505+02:00,2022-06-30T08:20:05.567+02:00,1540,1.501556,0,0,1217.191,0,0,2022-06-30T10:05:15.030+02:00
2022-06-30T10:05:42.744+02:00,5775.346131875001,-0.0641326904296875,-0.0792083740234375,-1.001510620117188,5775.336180875001,0.3723729354007362,-0.07790115606315413,0.04207889455193206,-0.3507241308689117,0.1547636538743973,-0.1110971793532372,-0.1285915374755859,-0.04966945946216583,-0.008096098899841309,XArbitraryZVertical,0.02786544961465369,-0.03436783459389003,0.1841262177314626,0.9819062222751411,-0.07775349915027618,-0.04206647723913193,-0.9960847496986389,0,0,0,-1,-1,5773.108428,unknown,2,2022-06-30T10:05:40.505+02:00,2022-06-30T08:20:05.567+02:00,1540,1.501556,0,0,1217.191,0,0,2022-06-30T10:05:15.030+02:00
2022-06-30T10:05:42.754+02:00,5775.356082875001,-0.121673583984375,-0.03546142578125,-1.008926391601562,5775.346131875001,0.3707885401557797,-0.07622205083546156,0.03813455240312303,-0.4639265835285187,0.2120663523674011,-0.1996739208698273,0.1031768172979355,-0.1504581719636917,-0.04301130771636963,XArbitraryZVertical,0.02574796989144623,-0.0339300820186693,0.1834527095173952,0.9821054130631668,-0.0760929062962532,-0.03812531009316444,-0.9963715672492981,0,0,0,-1,-1,5773.108428,unknown,2,2022-06-30T10:05:40.505+02:00,2022-06-30T08:20:05.567+02:00,1540,1.501556,0,0,1217.191,0,0,2022-06-30T10:05:15.030+02:00
2022-06-30T10:05:42.763+02:00,5775.366034875,-0.09197998046875,-0.0404510498046875,-1.011428833007812,5775.356082875001,0.367661016073189,-0.07396269643061723,0.03378532960456627,-0.4578365087509155,0.2373914569616318,-0.3275037407875061,0.009719990193843842,-0.04542957618832588,-0.004813671112060547,XArbitraryZVertical,0.02335345653298507,-0.03325909454633734,0.1820317887978955,0.9824525865316504,-0.07385311275720596,-0.03377890214323997,-0.9966968894004822,0,0,0,-1,-1,5773.108428,unknown,2,2022-06-30T10:05:40.505+02:00,2022-06-30T08:20:05.567+02:00,1540,1.501556,0,0,1217.191,0,0,2022-06-30T10:05:15.030+02:00
2022-06-30T10:05:42.773+02:00,5775.375985875,-0.0957794189453125,-0.02508544921875,-1.00128173828125,5775.366034875,0.364460894955532,-0.07161332643053328,0.02983713605958714,-0.3761544525623322,0.2176262736320496,-0.2482994794845581,-0.05015373229980469,-0.00562882237136364,-0.01193344593048096,XArbitraryZVertical,0.02114850037174559,-0.03250057067424049,0.1805620222002899,0.982798920603711,-0.07152028381824493,-0.02983270958065987,-0.9969928860664368,0,0,0,-1,-1,5773.108428,unknown,2,2022-06-30T10:05:40.505+02:00,2022-06-30T08:20:05.567+02:00,1540,1.501556,0,0,1217.191,0,0,2022-06-30T10:05:15.030+02:00
2022-06-30T10:05:42.784+02:00,5775.385937875,-0.0821685791015625,-0.005950927734375,-0.9920806884765625,5775.375985875,0.3619275357764438,-0.0693215299781712,0.02666543091845109,-0.2959731221199036,0.225212350487709,-0.2288479804992676,-0.02273900806903839,-0.01378888450562954,-0.01418519020080566,XArbitraryZVertical,0.0193430982844534,-0.03168684477100368,0.1793991372266597,0.9830756077375455,-0.06924139708280563,-0.02666227146983147,-0.9972435832023621,0,0,0,-1,-1,5773.108428,unknown,2,2022-06-30T10:05:40.505+02:00,2022-06-30T08:20:05.567+02:00,1540,1.501556,0,0,1217.191,0,0,2022-06-30T10:05:15.030+02:00
2022-06-30T10:05:42.794+02:00,5775.395888875,-0.069549560546875,-0.0047454833984375,-0.9878997802734375,5775.385937875,0.3591863170076545,-0.06706501208042116,0.02430465765574446,-0.2088512629270554,0.2140188068151474,-0.2860390841960907,-0.02878488600254059,-0.0007832888513803482,-0.003824353218078613,XArbitraryZVertical,0.01793818196793056,-0.03081507635793805,0.1781148216320074,0.9833635478700923,-0.06699495762586594,-0.02430226467549801,-0.9974573254585266,0,0,0,-1,-1,5773.108428,unknown,2,2022-06-30T10:05:40.505+02:00,2022-06-30T08:20:05.567+02:00,1540,1.501556,0,0,1217.191,0,0,2022-06-30T10:05:15.030+02:00
2022-06-30T10:05:42.803+02:00,5775.405839875,-0.0718994140625,-0.0136871337890625,-0.9830474853515625,5775.395888875,0.356130193596154,-0.06492814294566844,0.0228775317073284,-0.1148790344595909,0.2065655291080475,-0.3021614551544189,-0.01730344444513321,0.01692450232803822,0.005551159381866455,XArbitraryZVertical,0.01700055375953384,-0.02991806962043374,0.1766552813900458,0.9836710802151911,-0.06486555188894272,-0.02287553623318672,-0.9976317882537842,0,0,0,-1,-1,5773.108428,unknown,2,2022-06-30T10:05:40.505+02:00,2022-06-30T08:20:05.567+02:00,1540,1.501556,0,0,1217.191,0,0,2022-06-30T10:05:15.030+02:00
2022-06-30T10:05:42.813+02:00,5775.415791875001,-0.066864013671875,-0.0381317138671875,-0.97747802734375,5775.405839875,0.3531078678920227,-0.06285089682065004,0.02227198671890574,-0.048282690346241,0.2049306184053421,-0.2995864450931549,-0.006756044924259186,0.01752455160021782,0.009878277778625488,XArbitraryZVertical,0.0164754986546272,-0.02897502448866527,0.1751960700036227,0.9839691950162152,-0.06279394775629044,-0.02227014489471912,-0.9977779984474182,0,0,0,-1,-1,5773.108428,unknown,2,2022-06-30T10:05:40.505+02:00,2022-06-30T08:20:05.567+02:00,1540,1.501556,0,0,1217.191,0,0,2022-06-30T10:05:15.030+02:00
2022-06-30T10:05:42.823+02:00,5775.425742875001,-0.0509185791015625,-0.05621337890625,-0.9730072021484375,5775.415791875001,0.3500625408879828,-0.06071446084420326,0.022073348136669,-0.03228488564491272,0.211497500538826,-0.3110411763191223,-0.01123745739459991,0.008384309709072113,0.01486682891845703,XArbitraryZVertical,0.01614806009650416,-0.02796600389148675,0.1737182323655961,0.9842657582062686,-0.06066238507628441,-0.02207155525684357,-0.9979143142700195,0,0,0,-1,-1,5773.108428,unknown,2,2022-06-30T10:05:40.505+02:00,2022-06-30T08:20:05.567+02:00,1540,1.501556,0,0,1217.191,0,0,2022-06-30T10:05:15.030+02:00
2022-06-30T10:05:42.833+02:00,5775.435693875001,-0.0450592041015625,-0.0547332763671875,-0.9716033935546875,5775.425742875001,0.3468895457521095,-0.0585837088805726,0.02184978205722468,-0.05313903093338013,0.2068841159343719,-0.3209803700447083,-0.008328214287757874,-0.01628378033638,0.02056819200515747,XArbitraryZVertical,0.01581020327237654,-0.02696198157741501,0.1721769596932643,0.984570123211199,-0.05853622779250145,-0.0218480434268713,-0.9980461597442627,0,0,0,-1,-1,5773.108428,unknown,2,2022-06-30T10:05:40.505+02:00,2022-06-30T08:20:05.567+02:00,1540,1.501556,0,0,1217.191,0,0,2022-06-30T10:05:15.030+02:00
2022-06-30T10:05:42.844+02:00,5775.445645875,-0.0435638427734375,-0.0514984130859375,-0.970703125,5775.435693875001,0.3436282031664175,-0.05642216879685234,0.02128541560523905,-0.1028836891055107,0.2134979516267776,-0.3271037638187408,0.005460459738969803,-0.03492968156933784,0.02517539262771606,XArbitraryZVertical,0.01530397219598922,-0.02597162341640939,0.1705965262013563,0.9848797891007798,-0.05637946352362633,-0.02128380909562111,-0.9981825351715088,0,0,0,-1,-1,5773.108428,unknown,2,2022-06-30T10:05:40.505+02:00,2022-06-30T08:20:05.567+02:00,1540,1.501556,0,0,1217.191,0,0,2022-06-30T10:05:15.030+02:00
2022-06-30T10:05:42.853+02:00,5775.455596875,-0.0411834716796875,-0.05267333984375,-0.9652862548828125,5775.445645875,0.3402286539575898,-0.05422878009338129,0.02013546974826153,-0.1637326627969742,0.2151195555925369,-0.3413343727588654,0.009131584316492081,-0.03459928184747696,0.02672421932220459,XArbitraryZVertical,0.01450813089883336,-0.02501461279653684,0.1689552054911994,0.9851995220682627,-0.0541912168264389,-0.02013411000370979,-0.9983275532722473,0,0,0,-1,-1,5773.108428,unknown,2,2022-06-30T10:05:40.505+02:00,2022-06-30T08:20:05.567+02:00,1540,1.501556,0,0,1217.191,0,0,2022-06-30T10:05:15.030+02:00
2022-06-30T10:05:42.863+02:00,5775.465548875,-0.0399017333984375,-0.0511932373046875,-0.96319580078125,5775.455596875,0.3366949478765653,-0.05201639530966643,0.0184474565903343,-0.2094856947660446,0.2184724509716034,-0.3500593304634094,0.00841982290148735,-0.03305212035775185,0.02777445316314697,XArbitraryZVertical,0.01344721314503442,-0.02409161529225265,0.1672531467229791,0.9855278916139828,-0.05198409408330917,-0.01844641007483006,-0.9984775185585022,0,0,0,-1,-1,5773.108428,unknown,2,2022-06-30T10:05:40.505+02:00,2022-06-30T08:20:05.567+02:00,1540,1.501556,0,0,1217.191,0,0,2022-06-30T10:05:15.030+02:00
2022-06-30T10:05:42.873+02:00,5775.475499875,-0.0271148681640625,-0.0419158935546875,-0.96148681640625,5775.465548875,0.3331106343443569,-0.04975195409876737,0.01630402055570814,-0.2529966831207275,0.2254930883646011,-0.3502398729324341,0.00854092463850975,-0.03637015819549561,0.03334367275238037,XArbitraryZVertical,0.01216015728100329,-0.02317733079686353,0.1655295556079724,0.9858575107134133,-0.04972482100129128,-0.0163032989948988,-0.9986298680305481,0,0,0,-1,-1,5773.108428,unknown,2,2022-06-30T10:05:40.505+02:00,2022-06-30T08:20:05.567+02:00,1540,1.501556,0,0,1217.191,0,0,2022-06-30T10:05:15.030+02:00
2022-06-30T10:05:42.883+02:00,5775.485450875,-0.016265869140625,-0.0223388671875,-0.963165283203125,5775.475499875,0.3295459712080519,-0.04750610316990697,0.01372118087411415,-0.2995581924915314,0.2178633660078049,-0.338941365480423,0.007581606507301331,-0.03747260570526123,0.03558200597763062,XArbitraryZVertical,0.01066142260192908,-0.02230357102556811,0.1638175283816753,0.9861808725095725,-0.04748376458883286,-0.01372074987739325,-0.9987777471542358,0,0,0,-1,-1,5773.108428,unknown,2,2022-06-30T10:05:40.505+02:00,2022-06-30T08:20:05.567+02:00,1540,1.501556,0,0,1217.191,0,0,2022-06-30T10:05:15.030+02:00
2022-06-30T10:05:42.893+02:00,5775.495402875001,-0.008544921875,0.0004425048828125,-0.973541259765625,5775.485450875,0.3260230641997979,-0.04532962013618427,0.01074383455046166,-0.3259375989437103,0.2110549956560135,-0.3389570713043213,0.01819618791341782,-0.03117238730192184,0.03742831945419312,XArbitraryZVertical,0.008977231252938254,-0.0214905222457243,0.1621263934618601,0.9864951169127832,-0.04531148448586464,-0.01074362825602293,-0.9989151358604431,0,0,0,-1,-1,5773.108428,unknown,2,2022-06-30T10:05:40.505+02:00,2022-06-30T08:20:05.567+02:00,1540,1.501556,0,0,1217.191,0,0,2022-06-30T10:05:15.030+02:00
2022-06-30T10:05:42.903+02:00,5775.505353875001,-0.009033203125,0.0216064453125,-0.97607421875,5775.495402875001,0.3225034258851038,-0.04329058233691596,0.0076440311235683,-0.3196242451667786,0.1962249875068665,-0.3381224572658539,0.0270095020532608,-0.01469503156840801,0.03586864471435547,XArbitraryZVertical,0.007246477721777209,-0.02074917129829719,0.1604333817293171,0.9868019105387336,-0.04327579587697983,-0.007643956691026688,-0.9990339279174805,0,0,0,-1,-1,5773.108428,unknown,2,2022-06-30T10:05:40.505+02:00,2022-06-30T08:20:05.567+02:00,1540,1.501556,0,0,1217.191,0,0,2022-06-30T10:05:15.030+02:00
2022-06-30T10:05:42.913+02:00,5775.515304875001,-0.0153656005859375,0.029022216796875,-0.9871673583984375,5775.505353875001,0.3190220404661147,-0.04139695933912887,0.004820357507858508,-0.2696084678173065,0.1884616017341614,-0.3394617736339569,0.03283930942416191,0.005262721329927444,0.02559041976928711,XArbitraryZVertical,0.005666477170194133,-0.02005145497194191,0.1587517108120395,0.9870986917004665,-0.04138465598225594,-0.004820338916033506,-0.9991316795349121,0,0,0,-1,-1,5773.108428,unknown,2,2022-06-30T10:05:40.505+02:00,2022-06-30T08:20:05.567+02:00,1540,1.501556,0,0,1217.191,0,0,2022-06-30T10:05:15.030+02:00
2022-06-30T10:05:42.923+02:00,5775.525256875,-0.017242431640625,0.0353546142578125,-0.9860992431640625,5775.515304875001,0.3155527353479078,-0.03951837142792206,0.002622372098128362,-0.2000536471605301,0.1915982216596603,-0.3357718586921692,0.03047432005405426,0.02422869019210339,0.02314162254333496,XArbitraryZVertical,0.004399055599257001,-0.01930649435382677,0.1570661811453974,0.9873896311874978,-0.03950795158743858,-0.002622368978336453,-0.999215841293335,0,0,0,-1,-1,5773.108428,unknown,2,2022-06-30T10:05:40.505+02:00,2022-06-30T08:20:05.567+02:00,1540,1.501556,0,0,1217.191,0,0,2022-06-30T10:05:15.030+02:00
2022-06-30T10:05:42.933+02:00,5775.535207875,-0.0198822021484375,0.0293426513671875,-0.9892730712890625,5775.525256875,0.3122282544671229,-0.03762828551142271,0.001041990167370863,-0.147258073091507,0.1907215118408203,-0.3195518553256989,0.0222533643245697,0.03006408177316189,0.01212430000305176,XArbitraryZVertical,0.003439632466615531,-0.01850325281598602,0.1554435508649441,0.9876654970113607,-0.03761938586831093,-0.00104199000634253,-0.9992915987968445,0,0,0,-1,-1,5773.108428,unknown,2,2022-06-30T10:05:40.505+02:00,2022-06-30T08:20:05.567+02:00,1540,1.501556,0,0,1217.191,0,0,2022-06-30T10:05:15.030+02:00
2022-06-30T10:05:42.943+02:00,5775.545158875,-0.028106689453125,0.020355224609375,-0.985992431640625,5775.535207875,0.3090003534902517,-0.03573559120862261,-0.0001476010867936437,-0.1181410700082779,0.1925984025001526,-0.3205495476722717,0.01848512887954712,0.03520688787102699,0.01326233148574829,XArbitraryZVertical,0.002676551919372027,-0.01766538028385495,0.1538629876850035,0.9879306382209918,-0.03572798520326614,0.0001476010802434757,-0.999361515045166,0,0,0,-1,-1,5773.108428,unknown,2,2022-06-30T10:05:40.505+02:00,2022-06-30T08:20:05.567+02:00,1540,1.501556,0,0,1217.191,0,0,2022-06-30T10:05:15.030+02:00
2022-06-30T10:05:42.953+02:00,5775.555110875001,-0.0356292724609375,-0.00164794921875,-0.9935302734375,5775.545158875,0.3057434034759889,-0.0337799394861046,-0.001265449215952893,-0.1312877535820007,0.2106266766786575,-0.3265954554080963,0.01389086246490479,0.02807707339525223,0.01015567779541016,XArbitraryZVertical,0.00194657415967463,-0.01678853523519968,0.1522657799905767,0.9881950625000532,-0.03377348929643631,0.001265448867343366,-0.9994286894798279,0,0,0,-1,-1,5773.108428,unknown,2,2022-06-30T10:05:40.505+02:00,2022-06-30T08:20:05.567+02:00,1540,1.501556,0,0,1217.191,0,0,2022-06-30T10:05:15.030+02:00
2022-06-30T10:05:42.963+02:00,5775.565061875001,-0.036376953125,-0.027069091796875,-0.991790771484375,5775.555110875001,0.3024668632435463,-0.03162594235887974,-0.00260626809363573,-0.158898338675499,0.2309514582157135,-0.3229494392871857,0.003513451665639877,0.01774883083999157,0.01350414752960205,XArbitraryZVertical,0.001094144284658517,-0.0158281195777612,0.1506590058407315,0.988458472566258,-0.0316205620765686,0.002606265246868134,-0.9994965195655823,0,0,0,-1,-1,5773.108428,unknown,2,2022-06-30T10:05:40.505+02:00,2022-06-30T08:20:05.567+02:00,1540,1.501556,0,0,1217.191,0,0,2022-06-30T10:05:15.030+02:00
2022-06-30T10:05:42.972+02:00,5775.575013875,-0.04498291015625,-0.04095458984375,-0.9946136474609375,5775.565061875001,0.2992330739373095,-0.02921376511580452,-0.004324386888855637,-0.2045435905456543,0.2573990523815155,-0.3165487945079803,-0.006420359015464783,-0.0059724529273808,0.006033718585968018,XArbitraryZVertical,3.939592752532626e-05,-0.01476541126754115,0.149073943272076,0.9887158051908,-0.02920933626592159,0.004324373323470354,-0.9995639324188232,0,0,0,-1,-1,5773.108428,unknown,2,2022-06-30T10:05:40.505+02:00,2022-06-30T08:20:05.567+02:00,1540,1.501556,0,0,1217.191,0,0,2022-06-30T10:05:15.030+02:00
2022-06-30T10:05:42.982+02:00,5775.584964875,-0.0653839111328125,-0.0512237548828125,-0.99932861328125,5775.575013875,0.2959880809106684,-0.02661394076969506,-0.00650227600151604,-0.2508304119110107,0.2718216478824615,-0.328752726316452,-0.009767135605216026,-0.03357145562767982,0.007834017276763916,XArbitraryZVertical,-0.001253205942911715,-0.01364040330034978,0.1474833526854988,0.9889696802295507,-0.02661023661494255,0.006502230186015368,-0.9996247291564941,0,0,0,-1,-1,5773.108428,unknown,2,2022-06-30T10:05:40.505+02:00,2022-06-30T08:20:05.567+02:00,1540,1.501556,0,0,1217.191,0,0,2022-06-30T10:05:15.030+02:00
2022-06-30T10:05:42.992+02:00,5775.594915875,-0.0745849609375,-0.055572509765625,-1.00213623046875,5775.584964875,0.2924780490770643,-0.02386908308796272,-0.009168935979480744,-0.3017319440841675,0.2866645157337189,-0.3644894361495972,-0.02111751772463322,-0.05012353137135506,0.005059480667114258,XArbitraryZVertical,-0.002796173008508348,-0.01247474020237688,0.1457605575653316,0.9892373106540845,-0.02386581338942051,0.009168807417154312,-0.9996731281280518,0,0,0,-1,-1,5773.108428,unknown,2,2022-06-30T10:05:40.505+02:00,2022-06-30T08:20:05.567+02:00,1540,1.501556,0,0,1217.191,0,0,2022-06-30T10:05:15.030+02:00
2022-06-30T10:05:43.002+02:00,5775.604867875,-0.079315185546875,-0.0341796875,-1.003662109375,5775.594915875,0.2886761494532301,-0.02100070617989651,-0.01223267973784484,-0.3263989388942719,0.3026482760906219,-0.3856759369373322,-0.04438674077391624,-0.06345626711845398,0.0003761053085327148,XArbitraryZVertical,-0.004542079034650718,-0.01127048311265749,0.1438903587051124,0.989518992949275,-0.02099759131669998,0.01223237439990044,-0.9997047185897827,0,0,0,-1,-1,5773.108428,unknown,2,2022-06-30T10:05:40.505+02:00,2022-06-30T08:20:05.567+02:00,1540,1.501556,0,0,1217.191,0,0,2022-06-30T10:05:15.030+02:00
2022-06-30T10:05:43.012+02:00,5775.614818875,-0.068450927734375,-0.0197906494140625,-1.014190673828125,5775.604867875,0.2847740060485399,-0.01791145182590414,-0.0155712105005525,-0.3570617735385895,0.3336037993431091,-0.3874386847019196,-0.05667705833911896,-0.07114322483539581,-0.002417802810668945,XArbitraryZVertical,-0.00643560948959463,-0.009969478381728085,0.1419653831722739,0.9898005505496555,-0.01790832355618477,0.01557058095932007,-0.9997183680534363,0,0,0,-1,-1,5773.108428,unknown,2,2022-06-30T10:05:40.505+02:00,2022-06-30T08:20:05.567+02:00,1540,1.501556,0,0,1217.191,0,0,2022-06-30T10:05:15.030+02:00
2022-06-30T10:05:43.022+02:00,5775.624769875,-0.0445404052734375,-0.0089263916015625,-1.0364990234375,5775.614818875,0.2807558064775327,-0.01452699809438884,-0.01913353368687385,-0.3690036535263062,0.3673316538333893,-0.4101517200469971,-0.06479177623987198,-0.05331219360232353,-0.003950595855712891,XArbitraryZVertical,-0.008456032199903917,-0.008530157582343424,0.139976019720552,0.9900820420960301,-0.0145238284021616,0.01913236640393734,-0.9997114539146423,0,0,0,-1,-1,5773.108428,unknown,2,2022-06-30T10:05:40.505+02:00,2022-06-30T08:20:05.567+02:00,1540,1.501556,0,0,1217.191,0,0,2022-06-30T10:05:15.030+02:00
2022-06-30T10:05:43.032+02:00,5775.634721875001,-0.03594970703125,-0.0008544921875,-1.051605224609375,5775.624769875,0.2765151702263219,-0.01084215400092993,-0.02276794907474519,-0.3697032630443573,0.3950905799865723,-0.4321297109127045,-0.05761221423745155,-0.0425567701458931,-0.01450860500335693,XArbitraryZVertical,-0.01052786756435001,-0.00693782692430466,0.1378676996089381,0.9903704358248198,-0.01083913166075945,0.02276598289608955,-0.9996820688247681,0,0,0,-1,-1,5773.108428,unknown,2,2022-06-30T10:05:40.505+02:00,2022-06-30T08:20:05.567+02:00,1540,1.501556,0,0,1217.191,0,0,2022-06-30T10:05:15.030+02:00
2022-06-30T10:05:43.042+02:00,5775.644672875001,-0.033477783203125,-0.0143280029296875,-1.0650634765625,5775.634721875001,0.2720539094724413,-0.006869845041495866,-0.02641421318944265,-0.3677021563053131,0.4291535019874573,-0.4585003554821014,-0.03767342865467072,-0.03533767536282539,-0.03687143325805664,XArbitraryZVertical,-0.01261888869508995,-0.005193813996511931,0.1356401696795881,0.9906641819854337,-0.006867394782602787,0.02641114220023155,-0.9996275901794434,0,0,0,-1,-1,5773.108428,unknown,2,2022-06-30T10:05:40.505+02:00,2022-06-30T08:20:05.567+02:00,1540,1.501556,0,0,1217.191,0,0,2022-06-30T10:05:15.030+02:00
2022-06-30T10:05:43.052+02:00,5775.654623875001,-0.0321807861328125,-0.033294677734375,-1.06854248046875,5775.644672875001,0.2673466405606139,-0.002609152380272223,-0.03001989105980898,-0.3611912727355957,0.4575755298137665,-0.4808546602725983,-0.0333421491086483,-0.03087001666426659,-0.05205917358398438,XArbitraryZVertical,-0.0147016229369923,-0.003293174846601006,0.1332798698210164,0.9909638752549581,-0.002607973758131266,0.03001538291573524,-0.9995460510253906,0,0,0,-1,-1,5773.108428,unknown,2,2022-06-30T10:05:40.505+02:00,2022-06-30T08:20:05.567+02:00,1540,1.501556,0,0,1217.191,0,0,2022-06-30T10:05:15.030+02:00
2022-06-30T10:05:43.062+02:00,5775.664575875,-0.04046630859375,-0.051849365234375,-1.056900024414062,5775.654623875001,0.2625131261492727,0.001948340094923417,-0.03365725682473432,-0.3731058537960052,0.4943728744983673,-0.4903379678726196,-0.03542543575167656,-0.04797905310988426,-0.0656316876411438,XArbitraryZVertical,-0.01681055819632307,-0.001236772366499735,0.1308451539848513,0.9912595079389406,0.001947235432453454,0.03365090116858482,-0.9994317293167114,0,0,0,-1,-1,5773.108428,unknown,2,2022-06-30T10:05:40.505+02:00,2022-06-30T08:20:05.567+02:00,1540,1.501556,0,0,1217.191,0,0,2022-06-30T10:05:15.030+02:00
2022-06-30T10:05:43.074+02:00,5775.674526875,-0.046783447265625,-0.0715484619140625,-1.051773071289062,5775.664575875,0.2575040867455225,0.006933458598949592,-0.03766427231545311,-0.4297361075878143,0.5500065684318542,-0.5212074518203735,-0.03910968452692032,-0.07095019519329071,-0.06927573680877686,XArbitraryZVertical,-0.01912008110229411,0.001019593202966127,0.1283083359489696,0.9915494679509015,0.006928485818207264,0.03765536844730377,-0.9992667436599731,0,0,0,-1,-1,5773.108428,unknown,2,2022-06-30T10:05:40.505+02:00,2022-06-30T08:20:05.567+02:00,1540,1.501556,0,0,1217.191,0,0,2022-06-30T10:05:15.030+02:00
2022-06-30T10:05:43.089+02:00,5775.684478875,-0.052490234375,-0.0928192138671875,-1.046966552734375,5775.674526875,0.2521582201719347,0.01252444103613964,-0.04236634384429908,-0.5050519108772278,0.6180256605148315,-0.5615518689155579,-0.05297959595918655,-0.09420318901538849,-0.05787569284439087,XArbitraryZVertical,-0.02180031004081096,0.003547646203909729,0.1255830780068865,0.9918372632963933,0.01251287572085857,0.04235367104411125,-0.9990243315696716,0,0,0,-1,-1,5773.108428,unknown,2,2022-06-30T10:05:40.505+02:00,2022-06-30T08:20:05.567+02:00,1540,1.501556,0,0,1217.191,0,0,2022-06-30T10:05:15.030+02:00
2022-06-30T10:05:43.092+02:00,5775.694429875,-0.0613250732421875,-0.0975799560546875,-1.045745849609375,5775.684478875,0.2464222796435123,0.01880993523777745,-0.04791467614242959,-0.595520555973053,0.6986126303672791,-0.6092975735664368,-0.06557109951972961,-0.1194449588656425,-0.0530974268913269,XArbitraryZVertical,-0.02492791122383154,0.006386917372483119,0.1226353389206751,0.9921181817936967,0.01878723874688148,0.04789634421467781,-0.9986755847930908,0,0,0,-1,-1,5773.108428,unknown,2,2022-06-30T10:05:40.505+02:00,2022-06-30T08:20:05.567+02:00,1540,1.501556,0,0,1217.191,0,0,2022-06-30T10:05:15.030+02:00
2022-06-30T10:05:43.102+02:00,5775.704380875,-0.06396484375,-0.0972442626953125,-1.044235229492188,5775.694429875,0.2402529543694119,0.02581903902108164,-0.05454686018372526,-0.7117207646369934,0.7806434035301208,-0.6583054661750793,-0.07826842367649078,-0.1473391801118851,-0.0487866997718811,XArbitraryZVertical,-0.0286176974678156,0.009543654656237792,0.1194337153134231,0.9923838756422382,0.02577777393162251,0.05451981350779533,-0.9981799125671387,0,0,0,-1,-1,5773.108428,unknown,2,2022-06-30T10:05:40.505+02:00,2022-06-30T08:20:05.567+02:00,1540,1.501556,0,0,1217.191,0,0,2022-06-30T10:05:15.030+02:00
2022-06-30T10:05:43.112+02:00,5775.714332875001,-0.058197021484375,-0.08111572265625,-1.050277709960938,5775.704380875,0.2337227793677223,0.03363004359103034,-0.06243336267502225,-0.8346807956695557,0.8688574433326721,-0.6973209977149963,-0.09488368034362793,-0.1599729210138321,-0.04825854301452637,XArbitraryZVertical,-0.03295385682166979,0.01305278950963505,0.1160010748030189,0.9926165253745081,0.0335581935942173,0.06239281222224236,-0.9974873065948486,0,0,0,-1,-1,5773.108428,unknown,2,2022-06-30T10:05:40.505+02:00,2022-06-30T08:20:05.567+02:00,1540,1.501556,0,0,1217.191,0,0,2022-06-30T10:05:15.030+02:00
2022-06-30T10:05:43.122+02:00,5775.724283875001,-0.0471954345703125,-0.063018798828125,-1.043731689453125,5775.714332875001,0.2269659685813671,0.04219819865741813,-0.07164163640073962,-0.9626953601837158,0.9460562467575073,-0.7276836037635803,-0.1060427129268646,-0.1688247919082642,-0.04768830537796021,XArbitraryZVertical,-0.0379624199687975,0.01689381776127196,0.112391018999177,0.9927949171387963,0.04207746312022209,0.07158036530017853,-0.9965469241142273,0,0,0,-1,-1,5773.108428,unknown,2,2022-06-30T10:05:40.505+02:00,2022-06-30T08:20:05.567+02:00,1540,1.501556,0,0,1217.191,0,0,2022-06-30T10:05:15.030+02:00
2022-06-30T10:05:43.132+02:00,5775.734234875001,-0.03387451171875,-0.0444183349609375,-1.034027099609375,5775.724283875001,0.2200114791020413,0.0513843369242885,-0.08199728809553515,-1.048333287239075,1.009095430374146,-0.7609502077102661,-0.1093865856528282,-0.1630213260650635,-0.05495309829711914,XArbitraryZVertical,-0.04354387105820666,0.0210143545918505,0.1086089730357494,0.9929081438096755,0.05118915811181068,0.08190543204545975,-0.9953246712684631,0,0,0,-1,-1,5773.108428,unknown,2,2022-06-30T10:05:40.505+02:00,2022-06-30T08:20:05.567+02:00,1540,1.501556,0,0,1217.191,0,0,2022-06-30T10:05:15.030+02:00
2022-06-30T10:05:43.142+02:00,5775.744186875,-0.0169525146484375,-0.0342864990234375,-1.033050537109375,5775.734234875001,0.2128386770770588,0.06107523999125865,-0.09315585672622252,-1.103903293609619,1.066416263580322,-0.8005133867263794,-0.1079684644937515,-0.1560401320457458,-0.04992401599884033,XArbitraryZVertical,-0.04951573353915219,0.02538386775639315,0.1046403043859673,0.9929523891865152,0.06077262759208679,0.09302118420600891,-0.9938076734542847,0,0,0,-1,-1,5773.108428,unknown,2,2022-06-30T10:05:40.505+02:00,2022-06-30T08:20:05.567+02:00,1540,1.501556,0,0,1217.191,0,0,2022-06-30T10:05:15.030+02:00
2022-06-30T10:05:43.152+02:00,5775.754137875,0.0020599365234375,-0.014434814453125,-1.038543701171875,5775.744186875,0.2053823254810356,0.07121457857662984,-0.1047433466906981,-1.11955201625824,1.122308731079102,-0.8395627737045288,-0.1046393439173698,-0.1489704251289368,-0.04202848672866821,XArbitraryZVertical,-0.05568331270232221,0.03000086428118108,0.1004515821548444,0.9929293784097188,0.07076442986726761,0.1045519262552261,-0.9919986128807068,0,0,0,-1,-1,5773.108428,unknown,2,2022-06-30T10:05:40.505+02:00,2022-06-30T08:20:05.567+02:00,1540,1.501556,0,0,1217.191,0,0,2022-06-30T10:05:15.030+02:00
2022-06-30T10:05:43.162+02:00,5775.764089875001,0.02349853515625,0.0046539306640625,-1.0660400390625,5775.754137875,0.1977569739753377,0.08180416414153895,-0.1167620344046052,-1.17387843132019,1.181114196777344,-0.8642447590827942,-0.09810949116945267,-0.1507835686206818,-0.04318088293075562,XArbitraryZVertical,-0.06204403799288895,0.03486648756764806,0.09609260001025915,0.9928248709877829,0.08115657418966293,0.1164969056844711,-0.9898697137832642,0,0,0,-1,-1,5773.108428,unknown,2,2022-06-30T10:05:40.505+02:00,2022-06-30T08:20:05.567+02:00,1540,1.501556,0,0,1217.191,0,0,2022-06-30T10:05:15.030+02:00
2022-06-30T10:05:43.171+02:00,5775.774040875001,0.057373046875,0.041473388671875,-1.08416748046875,5775.764089875001,0.1899724665479965,0.09295142101799468,-0.1294018631163023,-1.217609882354736,1.256965637207031,-0.9033015966415405,-0.08998207002878189,-0.1434760242700577,-0.0511852502822876,XArbitraryZVertical,-0.06869194968222045,0.04002722196025117,0.0915525116436742,0.9926215208953385,0.09204160422086716,0.1290410310029984,-0.9873584508895874,0,0,0,-1,-1,5773.108428,unknown,2,2022-06-30T10:05:40.505+02:00,2022-06-30T08:20:05.567+02:00,1540,1.501556,0,0,1217.191,0,0,2022-06-30T10:05:15.030+02:00
2022-06-30T10:05:43.182+02:00,5775.783991875001,0.0814056396484375,0.083709716796875,-1.111648559570312,5775.774040875001,0.1820497400278873,0.1047183102832644,-0.1425787854222639,-1.259255290031433,1.327250599861145,-0.9243105053901672,-0.07996822893619537,-0.1374424546957016,-0.08160960674285889,XArbitraryZVertical,-0.07558207975326132,0.04552039965148375,0.086831727973375,0.9923081821060341,0.1034663766622543,0.1420962065458298,-0.9844304919242859,0,0,0,-1,-1,5773.108428,unknown,2,2022-06-30T10:05:40.505+02:00,2022-06-30T08:20:05.567+02:00,1540,1.501556,0,0,1217.191,0,0,2022-06-30T10:05:15.030+02:00
2022-06-30T10:05:43.191+02:00,5775.793943875,0.0988006591796875,0.13311767578125,-1.118515014648438,5775.783991875001,0.1740196932535594,0.1170746882665653,-0.1560425760423148,-1.242180347442627,1.40318500995636,-0.9583653807640076,-0.05801555514335632,-0.1139368712902069,-0.1030797362327576,XArbitraryZVertical,-0.08258283255703031,0.0513437163217049,0.08194467367781461,0.9918815778014903,0.1153882220387459,0.1554100960493088,-0.9810878038406372,0,0,0,-1,-1,5773.108428,unknown,2,2022-06-30T10:05:40.505+02:00,2022-06-30T08:20:05.567+02:00,1540,1.501556,0,0,1217.191,0,0,2022-06-30T10:05:15.030+02:00
2022-06-30T10:05:43.201+02:00,5775.803894875,0.103790283203125,0.177581787109375,-1.09686279296875,5775.793943875,0.1658239673288689,0.1300209258701791,-0.1692972421715079,-1.195411324501038,1.468321442604065,-0.9797580242156982,-0.04639601707458496,-0.08478014171123505,-0.1342653632164001,XArbitraryZVertical,-0.08944005132032753,0.05752251185460509,0.07687243056208697,0.9913538057910024,0.1278012692928314,0.1684896796941757,-0.9773832559585571,0,0,0,-1,-1,5773.108428,unknown,2,2022-06-30T10:05:40.505+02:00,2022-06-30T08:20:05.567+02:00,1540,1.501556,0,0,1217.191,0,0,2022-06-30T10:05:15.030+02:00
2022-06-30T10:05:43.211+02:00,5775.813845875,0.1204071044921875,0.2173004150390625,-1.0716552734375,5775.803894875,0.1574809198637206,0.1434874389043872,-0.1820377258987103,-1.111821889877319,1.534143328666687,-1.002843618392944,-0.04183255136013031,-0.04791650176048279,-0.1451451182365417,XArbitraryZVertical,-0.09599363290208258,0.06403309588683469,0.07163676836015324,0.9907336897324378,0.140632838010788,0.1810339987277985,-0.9733699560165405,0,0,0,-1,-1,5773.108428,unknown,2,2022-06-30T10:05:40.505+02:00,2022-06-30T08:20:05.567+02:00,1540,1.501556,0,0,1217.191,0,0,2022-06-30T10:05:15.030+02:00
2022-06-30T10:05:43.221+02:00,5775.823797875,0.15106201171875,0.258209228515625,-1.033721923828125,5775.813845875,0.1490392136584824,0.1575058705569767,-0.1940361927191765,-1.025590419769287,1.601982831954956,-1.003551363945007,-0.0501219779253006,-0.01523928344249725,-0.1277750730514526,XArbitraryZVertical,-0.1021273462875401,0.07089490271321697,0.06627143026519333,0.9900262994111382,0.1539118885993958,0.1928209066390991,-0.9690878391265869,0,0,0,-1,-1,5773.108428,unknown,2,2022-06-30T10:05:40.505+02:00,2022-06-30T08:20:05.567+02:00,1540,1.501556,0,0,1217.191,0,0,2022-06-30T10:05:15.030+02:00
2022-06-30T10:05:43.231+02:00,5775.833748875,0.1982879638671875,0.287384033203125,-0.9927825927734375,5775.823797875,0.1406482025016252,0.172121590921264,-0.2053492531759966,-0.942276656627655,1.674319982528687,-0.9955538511276245,-0.04726776480674744,0.0133911520242691,-0.1071314811706543,XArbitraryZVertical,-0.1078704864260479,0.07811536350853408,0.06084933612223629,0.9892215689971048,0.1676744967699051,0.2039090842008591,-0.9645239114761353,0,0,0,-1,-1,5773.108428,unknown,2,2022-06-30T10:05:40.505+02:00,2022-06-30T08:20:05.567+02:00,1540,1.501556,0,0,1217.191,0,0,2022-06-30T10:05:15.030+02:00
2022-06-30T10:05:43.241+02:00,5775.843699416667,0.2584991455078125,0.3194580078125,-0.9814453125,5775.833748875,0.1323736668416978,0.1873463388607865,-0.2159247149558123,-0.8603353500366211,1.731787800788879,-0.9802809953689575,-0.03086566925048828,0.04395827651023865,-0.07403504848480225,XArbitraryZVertical,-0.1131957694803197,0.08569266502687473,0.05540845046648585,0.9883185486390818,0.1819273084402084,0.2142507582902908,-0.9596869945526123,0,0,0,-1,-1,5773.108428,unknown,2,2022-06-30T10:05:40.505+02:00,2022-06-30T08:20:05.567+02:00,1540,1.501556,0,0,1217.191,0,0,2022-06-30T10:05:15.030+02:00
2022-06-30T10:05:43.251+02:00,5775.853651416667,0.306365966796875,0.332855224609375,-0.989715576171875,5775.843699416667,0.124370536489348,0.2029757690219891,-0.2258012708467509,-0.7749022245407104,1.764834642410278,-0.9409972429275513,0.00181993842124939,0.06349648535251617,-0.03817552328109741,XArbitraryZVertical,-0.1181206864192353,0.09350885142356211,0.05003977818266285,0.987319393258385,0.1964676678180695,0.2238873690366745,-0.9546071887016296,0,0,0,-1,-1,5773.108428,unknown,2,2022-06-30T10:05:40.505+02:00,2022-06-30T08:20:05.567+02:00,1540,1.501556,0,0,1217.191,0,0,2022-06-30T10:05:15.030+02:00
2022-06-30T10:05:43.261+02:00,5775.863602416667,0.3451995849609375,0.3510284423828125,-0.9972076416015625,5775.853651416667,0.1166360845667397,0.2189351911617495,-0.2346081408491331,-0.6302295923233032,1.800347328186035,-0.9085036516189575,0.04725825786590576,0.086995929479599,-0.03205674886703491,XArbitraryZVertical,-0.1224607490498103,0.1015332896569257,0.04477371129515652,0.9862503915392242,0.2112405449151993,0.2324618846178055,-0.9493886828422546,0,0,0,-1,-1,5773.108428,unknown,2,2022-06-30T10:05:40.505+02:00,2022-06-30T08:20:05.567+02:00,1540,1.501556,0,0,1217.191,0,0,2022-06-30T10:05:15.030+02:00
2022-06-30T10:05:43.271+02:00,5775.873554416667,0.35504150390625,0.3720703125,-1.007049560546875,5775.863602416667,0.1090277321350065,0.2350482888545809,-0.2419225345432293,-0.4646672606468201,1.799985408782959,-0.8658618927001953,0.0802576094865799,0.09328541159629822,-0.0455327033996582,XArbitraryZVertical,-0.1259982362207033,0.1096947302231821,0.03958804675571152,0.9851519531540064,0.2261079996824265,0.2395696192979813,-0.9441829919815063,0,0,0,-1,-1,5773.108428,unknown,2,2022-06-30T10:05:40.505+02:00,2022-06-30T08:20:05.567+02:00,1540,1.501556,0,0,1217.191,0,0,2022-06-30T10:05:15.030+02:00
2022-06-30T10:05:43.281+02:00,5775.883505416667,0.3401947021484375,0.368011474609375,-1.013046264648438,5775.873554416667,0.1014786790485403,0.2510097786271294,-0.247599909484592,-0.2874553799629211,1.782625794410706,-0.8397511839866638,0.104391798377037,0.1059504449367523,-0.05808651447296143,XArbitraryZVertical,-0.1286550510540943,0.1178442281310636,0.034496251761336,0.9840582924907029,0.2408074140548706,0.2450777739286423,-0.9391212463378906,0,0,0,-1,-1,5773.108428,unknown,2,2022-06-30T10:05:40.505+02:00,2022-06-30T08:20:05.567+02:00,1540,1.501556,0,0,1217.191,0,0,2022-06-30T10:05:15.030+02:00
2022-06-30T10:05:43.291+02:00,5775.893456416667,0.3242950439453125,0.360443115234375,-0.99383544921875,5775.883505416667,0.09374006851408141,0.2668152130437123,-0.2516157686814371,-0.1165180057287216,1.787664651870728,-0.8245243430137634,0.09968274831771851,0.1231009364128113,-0.07280856370925903,XArbitraryZVertical,-0.1304075148182683,0.1259893805961785,0.02939800283522231,0.9829834065271492,0.2553583681583405,0.248969167470932,-0.9342411160469055,0,0,0,-1,-1,5773.108428,unknown,2,2022-06-30T10:05:40.505+02:00,2022-06-30T08:20:05.567+02:00,1540,1.501556,0,0,1217.191,0,0,2022-06-30T10:05:15.030+02:00
2022-06-30T10:05:43.301+02:00,5775.903408416667,0.300994873046875,0.3379974365234375,-0.980560302734375,5775.893456416667,0.08587308155054028,0.2826236200416894,-0.2544576917253175,-0.02402529120445251,1.794224739074707,-0.8031036257743835,0.07029804587364197,0.1162906587123871,-0.08364188671112061,XArbitraryZVertical,-0.131501849016444,0.1341827464890716,0.02429763041477572,0.9818920693938077,0.2698963284492493,0.2517206072807312,-0.9294044971466064,0,0,0,-1,-1,5773.108428,unknown,2,2022-06-30T10:05:40.505+02:00,2022-06-30T08:20:05.567+02:00,1540,1.501556,0,0,1217.191,0,0,2022-06-30T10:05:15.030+02:00
2022-06-30T10:05:43.311+02:00,5775.913359416667,0.29107666015625,0.311676025390625,-0.9441680908203125,5775.903408416667,0.07807497137278128,0.2985779568731551,-0.2567399841469216,0.01165680587291718,1.816866755485535,-0.7807874083518982,0.03977504372596741,0.1065141260623932,-0.06940668821334839,XArbitraryZVertical,-0.1322543423069559,0.1424582131328923,0.01924970359959545,0.980736424105405,0.2845196425914764,0.2539287507534027,-0.9244288802146912,0,0,0,-1,-1,5773.108428,unknown,2,2022-06-30T10:05:40.505+02:00,2022-06-30T08:20:05.567+02:00,1540,1.501556,0,0,1217.191,0,0,2022-06-30T10:05:15.030+02:00
2022-06-30T10:05:43.321+02:00,5775.923310416667,0.2837066650390625,0.282501220703125,-0.9178466796875,5775.913359416667,0.07053333000901195,0.3148085868306512,-0.259114442765883,-0.02411290630698204,1.843721508979797,-0.7605574131011963,0.001696527004241943,0.0817725658416748,-0.06144696474075317,XArbitraryZVertical,-0.1329993290517005,0.150845705963421,0.0142922151930369,0.9794654529610254,0.2992980182170868,0.256224662065506,-0.9191135168075562,0,0,0,-1,-1,5773.108428,unknown,2,2022-06-30T10:05:40.505+02:00,2022-06-30T08:20:05.567+02:00,1540,1.501556,0,0,1217.191,0,0,2022-06-30T10:05:15.030+02:00
2022-06-30T10:05:43.331+02:00,5775.933262416667,0.2818145751953125,0.2616119384765625,-0.9003143310546875,5775.923310416667,0.06336624396075406,0.3315311216791286,-0.2619762775128974,-0.07897083461284637,1.898302435874939,-0.739732027053833,-0.02330908179283142,0.05268591642379761,-0.03088510036468506,XArbitraryZVertical,-0.1339410955475151,0.1594309123581527,0.009434495867148255,0.9780351687128691,0.3143854141235352,0.2589899003505707,-0.913283109664917,0,0,0,-1,-1,5773.108428,unknown,2,2022-06-30T10:05:40.505+02:00,2022-06-30T08:20:05.567+02:00,1540,1.501556,0,0,1217.191,0,0,2022-06-30T10:05:15.030+02:00
2022-06-30T10:05:43.341+02:00,5775.943213416667,0.2848358154296875,0.2331695556640625,-0.871063232421875,5775.933262416667,0.05668923574150327,0.348826885421345,-0.2654639715211784,-0.1546187102794647,1.925125956535339,-0.714491069316864,-0.04611644148826599,0.0201440155506134,-0.01099199056625366,XArbitraryZVertical,-0.1351571399803935,0.1682412582661642,0.004709094179247858,0.9764247130300802,0.3298227787017822,0.2623570263385773,-0.9068548679351807,0,0,0,-1,-1,5773.108428,unknown,2,2022-06-30T10:05:40.505+02:00,2022-06-30T08:20:05.567+02:00,1540,1.501556,0,0,1217.191,0,0,2022-06-30T10:05:15.030+02:00
2022-06-30T10:05:43.351+02:00,5775.953165416667,0.275848388671875,0.20611572265625,-0.8535003662109375,5775.943213416667,0.05047869480150387,0.3662943536481496,-0.2697608080592007,-0.231925755739212,1.919998049736023,-0.7158743143081665,-0.06339094042778015,-0.004889160394668579,-0.0004197359085083008,XArbitraryZVertical,-0.1367351758678684,0.1770764958147076,0.0001063379892759701,0.974652502748116,0.3452051877975464,0.2665008902549744,-0.8998948335647583,0,0,0,-1,-1,5773.108428,unknown,2,2022-06-30T10:05:40.505+02:00,2022-06-30T08:20:05.567+02:00,1540,1.501556,0,0,1217.191,0,0,2022-06-30T10:05:15.030+02:00
2022-06-30T10:05:43.361+02:00,5775.963116416667,0.273529052734375,0.1998443603515625,-0.844879150390625,5775.953165416667,0.04458321427463919,0.3838913002389289,-0.2747887213036482,-0.290484756231308,1.942407608032227,-0.709303617477417,-0.07564440369606018,-0.03817427158355713,0.02136415243148804,XArbitraryZVertical,-0.1386258961548825,0.1859276644434608,-0.004447519169224502,0.9727250273320727,0.3604798913002014,0.2713435888290405,-0.8924275040626526,0,0,0,-1,-1,5773.108428,unknown,2,2022-06-30T10:05:40.505+02:00,2022-06-30T08:20:05.567+02:00,1540,1.501556,0,0,1217.191,0,0,2022-06-30T10:05:15.030+02:00
2022-06-30T10:05:43.371+02:00,5775.973067416667,0.276123046875,0.192138671875,-0.85699462890625,5775.963116416667,0.03921115117281315,0.4019484459747252,-0.2804317569091206,-0.3612148463726044,1.986611008644104,-0.6861796379089355,-0.1000818610191345,-0.07065504789352417,0.03084933757781982,XArbitraryZVertical,-0.1407926887438138,0.1949422074516699,-0.008872258952218503,0.9706164860781102,0.3759299516677856,0.2767705619335175,-0.8843498826026917,0,0,0,-1,-1,5773.108428,unknown,2,2022-06-30T10:05:40.505+02:00,2022-06-30T08:20:05.567+02:00,1540,1.501556,0,0,1217.191,0,0,2022-06-30T10:05:15.030+02:00
2022-06-30T10:05:43.381+02:00,5775.983019416667,0.2887115478515625,0.187591552734375,-0.8658905029296875,5775.973067416667,0.034349670288537,0.4205092102432649,-0.286807413331964,-0.4449324905872345,2.01948618888855,-0.6883374452590942,-0.1180213689804077,-0.08304736018180847,0.03071236610412598,XArbitraryZVertical,-0.1432924148865531,0.2041357767979685,-0.01319937793666718,0.9683086367993796,0.3915501236915588,0.2828914821147919,-0.8755917549133301,0,0,0,-1,-1,5773.108428,unknown,2,2022-06-30T10:05:40.505+02:00,2022-06-30T08:20:05.567+02:00,1540,1.501556,0,0,1217.191,0,0,2022-06-30T10:05:15.030+02:00
2022-06-30T10:05:43.390+02:00,5775.992970416667,0.3193206787109375,0.18701171875,-0.8429107666015625,5775.983019416667,0.0300212441083956,0.4394740237821107,-0.2942309750031947,-0.5719982981681824,2.04343056678772,-0.688360333442688,-0.1310566663742065,-0.0978655219078064,0.009089827537536621,XArbitraryZVertical,-0.1462810363479164,0.2134467719064389,-0.01745714836684245,0.9657834760509403,0.4071794450283051,0.2900039553642273,-0.8660846948623657,0,0,0,-1,-1,5773.108428,unknown,2,2022-06-30T10:05:40.505+02:00,2022-06-30T08:20:05.567+02:00,1540,1.501556,0,0,1217.191,0,0,2022-06-30T10:05:15.030+02:00
2022-06-30T10:05:43.400+02:00,5776.002921416667,0.3543548583984375,0.1962127685546875,-0.8033905029296875,5775.992970416667,0.02659289915499344,0.4589296687776068,-0.3032077767579137,-0.7767255902290344,2.068790435791016,-0.6879688501358032,-0.1340699791908264,-0.1109918355941772,-0.01025986671447754,XArbitraryZVertical,-0.1500417947308318,0.2228722410925945,-0.02154925436599495,0.9629907668589074,0.422781229019165,0.2985831797122955,-0.8556308746337891,0,0,0,-1,-1,5773.108428,unknown,2,2022-06-30T10:05:40.505+02:00,2022-06-30T08:20:05.567+02:00,1540,1.501556,0,0,1217.191,0,0,2022-06-30T10:05:15.030+02:00
2022-06-30T10:05:43.410+02:00,5776.012873416667,0.38592529296875,0.2127227783203125,-0.7674713134765625,5776.002921416667,0.02436281811873677,0.4789520086121239,-0.3144024514831738,-1.043431401252747,2.093897342681885,-0.7102972865104675,-0.1189387440681458,-0.1222367584705353,0.001064419746398926,XArbitraryZVertical,-0.1549292347304605,0.2323988835627023,-0.0254434115946559,0.9598647685938546,0.4382591545581818,0.3092482686042786,-0.8439753651618958,0,0,0,-1,-1,5773.108428,unknown,2,2022-06-30T10:05:40.505+02:00,2022-06-30T08:20:05.567+02:00,1540,1.501556,0,0,1217.191,0,0,2022-06-30T10:05:15.030+02:00
2022-06-30T10:05:43.420+02:00,5776.022824416667,0.4087066650390625,0.2304229736328125,-0.749359130859375,5776.012873416667,0.02342744207351979,0.499568932765635,-0.3281601047490673,-1.309950709342957,2.10875678062439,-0.7464009523391724,-0.09912919998168945,-0.126089334487915,0.02755695581436157,XArbitraryZVertical,-0.1611212784676344,0.24200436552194,-0.0291777735510263,0.9563589858035068,0.4534837901592255,0.3223018646240234,-0.8309476375579834,0,0,0,-1,-1,5773.108428,unknown,2,2022-06-30T10:05:40.505+02:00,2022-06-30T08:20:05.567+02:00,1540,1.501556,0,0,1217.191,0,0,2022-06-30T10:05:15.030+02:00
2022-06-30T10:05:43.430+02:00,5776.032775416667,0.427154541015625,0.2772064208984375,-0.7106475830078125,5776.022824416667,0.02354940778077317,0.5206618251703702,-0.3440134207904897,-1.469522714614868,2.128714323043823,-0.7871241569519043,-0.08238282799720764,-0.1245454847812653,0.0491911768913269,XArbitraryZVertical,-0.1683670849811794,0.2516369546613493,-0.03284373523843408,0.9524981451630381,0.4683078527450562,0.337268054485321,-0.8166627287864685,0,0,0,-1,-1,5773.108428,unknown,2,2022-06-30T10:05:40.505+02:00,2022-06-30T08:20:05.567+02:00,1540,1.501556,0,0,1217.191,0,0,2022-06-30T10:05:15.030+02:00
2022-06-30T10:05:43.440+02:00,5776.042727416667,0.4372406005859375,0.3391265869140625,-0.671966552734375,5776.032775416667,0.02448003742411867,0.5422978463424166,-0.3609834320399296,-1.555770993232727,2.160919189453125,-0.7821078896522522,-0.07413604855537415,-0.122771680355072,0.05196255445480347,XArbitraryZVertical,-0.1761666402990084,0.2613510047165264,-0.03647602484554107,0.9483304036740644,0.4828425049781799,0.3531944453716278,-0.8013219237327576,0,0,0,-1,-1,5773.108428,unknown,2,2022-06-30T10:05:40.505+02:00,2022-06-30T08:20:05.567+02:00,1540,1.501556,0,0,1217.191,0,0,2022-06-30T10:05:15.030+02:00
2022-06-30T10:05:43.450+02:00,5776.052678416667,0.4563751220703125,0.3838043212890625,-0.6261138916015625,5776.042727416667,0.02629040216249951,0.5646590200189229,-0.3782429963300019,-1.567185521125793,2.203633308410645,-0.7522317171096802,-0.07014796137809753,-0.09208202362060547,0.07441061735153198,XArbitraryZVertical,-0.1841343536294182,0.271229312358384,-0.03997069727454821,0.9438917133832794,0.497302234172821,0.3692882359027863,-0.7850583791732788,0,0,0,-1,-1,5773.108428,unknown,2,2022-06-30T10:05:40.505+02:00,2022-06-30T08:20:05.567+02:00,1540,1.501556,0,0,1217.191,0,0,2022-06-30T10:05:15.030+02:00
2022-06-30T10:05:43.460+02:00,5776.062630416667,0.48779296875,0.420196533203125,-0.5591888427734375,5776.052678416667,0.02891425124431709,0.5876962066874164,-0.3954363633014723,-1.608522653579712,2.230988264083862,-0.7185154557228088,-0.07441753149032593,-0.04608452320098877,0.09602975845336914,XArbitraryZVertical,-0.1920986406089183,0.2812469157400287,-0.04332089738004217,0.9392132481860537,0.5116578936576843,0.3852109014987946,-0.7679965496063232,0,0,0,-1,-1,5773.108428,unknown,2,2022-06-30T10:05:40.505+02:00,2022-06-30T08:20:05.567+02:00,1540,1.501556,0,0,1217.191,0,0,2022-06-30T10:05:15.030+02:00
2022-06-30T10:05:43.470+02:00,5776.072581416667,0.5273284912109375,0.4483642578125,-0.495574951171875,5776.062630416667,0.03290557914847437,0.6114903376975556,-0.4130462687856437,-1.74684751033783,2.240557670593262,-0.6647696495056152,-0.06943392753601074,-0.01759716868400574,0.1238205432891846,XArbitraryZVertical,-0.2003686014511984,0.291350440243005,-0.04635929900055297,0.9342473412602048,0.5258088707923889,0.4014012813568115,-0.7499346733093262,0,0,0,-1,-1,5773.108428,unknown,2,2022-06-30T10:05:40.505+02:00,2022-06-30T08:20:05.567+02:00,1540,1.501556,0,0,1217.191,0,0,2022-06-30T10:05:15.030+02:00
2022-06-30T10:05:43.481+02:00,5776.082532416667,0.567474365234375,0.460845947265625,-0.423858642578125,5776.072581416667,0.03935677881986401,0.6364756835330218,-0.4320142404960374,-2.059491395950317,2.256372213363647,-0.6032958030700684,-0.0519644021987915,0.001495540142059326,0.171120285987854,XArbitraryZVertical,-0.2095436635096322,0.3015572316259291,-0.04879506982058227,0.9288560968467,0.5397571325302124,0.4187008440494537,-0.7303093671798706,0,0,0,-1,-1,5773.108428,unknown,2,2022-06-30T10:05:40.505+02:00,2022-06-30T08:20:05.567+02:00,1540,1.501556,0,0,1217.191,0,0,2022-06-30T10:05:15.030+02:00
2022-06-30T10:05:43.490+02:00,5776.092484416667,0.6285858154296875,0.48223876953125,-0.3183441162109375,5776.082532416667,0.04938224540449022,0.6634169225437399,-0.4534900123529662,-2.488716602325439,2.299020528793335,-0.5579512119293213,-0.02624022960662842,0.01025858521461487,0.2126801013946533,XArbitraryZVertical,-0.2203216966230405,0.3119787017323786,-0.05044281290507294,0.9228126188502973,0.5535684823989868,0.4381054639816284,-0.7082552909851074,0,0,0,-1,-1,5773.108428,unknown,2,2022-06-30T10:05:40.505+02:00,2022-06-30T08:20:05.567+02:00,1540,1.501556,0,0,1217.191,0,0,2022-06-30T10:05:15.030+02:00
2022-06-30T10:05:43.500+02:00,5776.102435416667,0.6723785400390625,0.5152435302734375,-0.2320556640625,5776.092484416667,0.06388183882273671,0.6928472517529631,-0.4779466721661862,-2.976327657699585,2.307194232940674,-0.4939894080162048,0.0003189444541931152,0.000888824462890625,0.2593501806259155,XArbitraryZVertical,-0.2330648593155105,0.3226084795765609,-0.05114432583190377,0.9159633220869094,0.5671551823616028,0.4599569141864777,-0.6832090616226196,0,0,0,-1,-1,5773.108428,unknown,2,2022-06-30T10:05:40.505+02:00,2022-06-30T08:20:05.567+02:00,1540,1.501556,0,0,1217.191,0,0,2022-06-30T10:05:15.030+02:00
2022-06-30T10:05:43.510+02:00,5776.112386416667,0.70892333984375,0.548858642578125,-0.1743927001953125,5776.102435416667,0.08355710707918276,0.7250622735937982,-0.5051904094912056,-3.445075988769531,2.306248903274536,-0.4252958297729492,0.04824668169021606,-0.001735478639602661,0.3366181254386902,XArbitraryZVertical,-0.2478117276989877,0.3333288200592008,-0.05074149706658315,0.9082436706450797,0.5803388953208923,0.4839740693569183,-0.6549624800682068,0,0,0,-1,-1,5773.108428,unknown,2,2022-06-30T10:05:40.505+02:00,2022-06-30T08:20:05.567+02:00,1540,1.501556,0,0,1217.191,0,0,2022-06-30T10:05:15.030+02:00
2022-06-30T10:05:43.520+02:00,5776.122338416667,0.77081298828125,0.6136016845703125,-0.06768798828125,5776.112386416667,0.1084489121083621,0.7603197249989344,-0.5344543765861798,-3.815575361251831,2.292319536209106,-0.3505623042583466,0.07932984828948975,0.005871713161468506,0.3915097117424011,XArbitraryZVertical,-0.2642426626789819,0.3440828281379731,-0.04929759553823315,0.8996402470516217,0.5930484533309937,0.5093715786933899,-0.623565673828125,0,0,0,-1,-1,5773.108428,unknown,2,2022-06-30T10:05:40.505+02:00,2022-06-30T08:20:05.567+02:00,1540,1.501556,0,0,1217.191,0,0,2022-06-30T10:05:15.030+02:00
2022-06-30T10:05:43.530+02:00,5776.132289416667,0.827850341796875,0.6751861572265625,0.0191497802734375,5776.122338416667,0.1385918820550219,0.7986664453625258,-0.5646561504628586,-4.13350772857666,2.246978282928467,-0.2299131006002426,0.1037057638168335,0.01373308897018433,0.4149733781814575,XArbitraryZVertical,-0.2819119535730952,0.3547428155190452,-0.04679078294624439,0.8902211815404186,0.6052173972129822,0.5351253747940063,-0.5893663763999939,0,0,0,-1,-1,5773.108428,unknown,2,2022-06-30T10:05:40.505+02:00,2022-06-30T08:20:05.567+02:00,1540,1.501556,0,0,1217.191,0,0,2022-06-30T10:05:15.030+02:00
2022-06-30T10:05:43.540+02:00,5776.142241416667,0.8850250244140625,0.7342071533203125,0.143646240234375,5776.132289416667,0.1743742500003311,0.8403692966133739,-0.5947809604091704,-4.379073619842529,2.202636003494263,-0.0926021933555603,0.1538421511650085,0.05327415466308594,0.4849241971969604,XArbitraryZVertical,-0.3004826319562963,0.3652450606440167,-0.04306745119602429,0.8800292260733614,0.6169705986976624,0.5603273510932922,-0.5526124835014343,0,0,0,-1,-1,5773.108428,unknown,2,2022-06-30T10:05:40.505+02:00,2022-06-30T08:20:05.567+02:00,1540,1.501556,0,0,1217.191,0,0,2022-06-30T10:05:15.030+02:00
2022-06-30T10:05:43.551+02:00,5776.152192416667,0.9445648193359375,0.780487060546875,0.22149658203125,5776.142241416667,0.2150788304256351,0.8856001329455211,-0.6239803817834629,-4.532643795013428,2.19741153717041,-0.01317234616726637,0.1994640231132507,0.09091591835021973,0.5327243804931641,XArbitraryZVertical,-0.3195158512216763,0.3756622965889345,-0.03846204018610742,0.8690846124774084,0.6283861994743347,0.5842701196670532,-0.5135748982429504,0,0,0,-1,-1,5773.108428,unknown,2,2022-06-30T10:05:40.505+02:00,2022-06-30T08:20:05.567+02:00,1540,1.501556,0,0,1217.191,0,0,2022-06-30T10:05:15.030+02:00
2022-06-30T10:05:43.560+02:00,5776.162143416667,0.9960174560546875,0.83172607421875,0.21771240234375,5776.152192416667,0.2599595086819881,0.9340585214797503,-0.6520666647323797,-4.631949901580811,2.164217710494995,0.003963264171034098,0.245948851108551,0.1273767352104187,0.6162333488464355,XArbitraryZVertical,-0.3388583225712429,0.3858513971850324,-0.0333516986114989,0.8574272974089217,0.6390760540962219,0.606830358505249,-0.4725874662399292,0,0,0,-1,-1,5773.108428,unknown,2,2022-06-30T10:05:40.505+02:00,2022-06-30T08:20:05.567+02:00,1540,1.501556,0,0,1217.191,0,0,2022-06-30T10:05:15.030+02:00
2022-06-30T10:05:43.569+02:00,5776.172095416667,1.053512573242188,0.93719482421875,0.325439453125,5776.162143416667,0.307761387372198,0.9845958800143806,-0.678419982012858,-4.590084075927734,2.038239240646362,-0.0119267525151372,0.2959819436073303,0.1529233455657959,0.6521984338760376,XArbitraryZVertical,-0.3580811019235097,0.3955083056835239,-0.02803700185186795,0.8453195705118712,0.6485827565193176,0.6275636553764343,-0.4307022094726562,0,0,0,-1,-1,5773.108428,unknown,2,2022-06-30T10:05:40.505+02:00,2022-06-30T08:20:05.567+02:00,1540,1.501556,0,0,1217.191,0,0,2022-06-30T10:05:15.030+02:00
2022-06-30T10:05:43.580+02:00,5776.182046416667,1.1414794921875,1.005874633789062,0.4718017578125,5776.172095416667,0.3585047386845508,1.036560034547169,-0.7027098822505972,-4.713642120361328,1.892041325569153,0.1040958240628242,0.3392547965049744,0.1854381561279297,0.6062670350074768,XArbitraryZVertical,-0.3771093826791553,0.4043649127901783,-0.02234844607077963,0.8329335274295365,0.6567625403404236,0.6462879776954651,-0.3885550498962402,0,0,0,-1,-1,5773.108428,unknown,2,2022-06-30T10:05:40.505+02:00,2022-06-30T08:20:05.567+02:00,1540,1.501556,0,0,1217.191,0,0,2022-06-30T10:05:15.030+02:00
2022-06-30T10:05:43.589+02:00,5776.191997416667,1.162765502929688,0.9659423828125,0.4738006591796875,5776.182046416667,0.4154763019564688,1.092030850940256,-0.7233273442295153,-4.836189746856689,1.772520780563354,0.4954880774021149,0.3881874680519104,0.2753122448921204,0.6707711219787598,XArbitraryZVertical,-0.3960555327337955,0.412884953859365,-0.01493234051090316,0.8200262369623648,0.6653249263763428,0.6618825197219849,-0.3453320562839508,0,0,0,-1,-1,5773.108428,unknown,2,2022-06-30T10:05:40.505+02:00,2022-06-30T08:20:05.567+02:00,1540,1.501556,0,0,1217.191,0,0,2022-06-30T10:05:15.030+02:00
2022-06-30T10:05:43.600+02:00,5776.201949416667,1.146270751953125,0.955902099609375,0.5244140625,5776.191997416667,0.4767221391753105,1.14986727352508,-0.7379789338020843,-4.681307315826416,1.620634436607361,0.811903715133667,0.4662294387817383,0.3330805897712708,0.7741022109985352,XArbitraryZVertical,-0.4138790926220982,0.4213711751624544,-0.005767780205985049,0.8069183741428123,0.6752499341964722,0.6727940440177917,-0.3023008704185486,0,0,0,-1,-1,5773.108428,unknown,2,2022-06-30T10:05:40.505+02:00,2022-06-30T08:20:05.567+02:00,1540,1.501556,0,0,1217.191,0,0,2022-06-30T10:05:15.030+02:00
2022-06-30T10:05:43.609+02:00,5776.211900416667,1.1134033203125,0.9199981689453125,0.4958953857421875,5776.201949416667,0.5385401914175131,1.206672499452718,-0.7476142861144691,-4.521547317504883,1.37913715839386,0.87751305103302,0.4775311350822449,0.2860512137413025,0.7349556684494019,XArbitraryZVertical,-0.4303753547637267,0.4291845644804794,0.004208115478613727,0.794078158077733,0.6852343082427979,0.6798912286758423,-0.2611553370952606,0,0,0,-1,-1,5773.108428,unknown,2,2022-06-30T10:05:40.505+02:00,2022-06-30T08:20:05.567+02:00,1540,1.501556,0,0,1217.191,0,0,2022-06-30T10:05:15.030+02:00
2022-06-30T10:05:43.619+02:00,5776.221851416667,1.059051513671875,0.890533447265625,0.4440765380859375,5776.211900416667,0.5988744554706917,1.25982240637519,-0.7539021236093207,-4.2390456199646,1.015930771827698,0.8744252324104309,0.4522140026092529,0.2714133858680725,0.7474846839904785,XArbitraryZVertical,-0.445774793637723,0.4356022896918591,0.01445186905319326,0.7818737713900255,0.6940565705299377,0.6844887137413025,-0.223070964217186,0,0,0,-1,-1,5773.108428,unknown,2,2022-06-30T10:05:40.505+02:00,2022-06-30T08:20:05.567+02:00,1540,1.501556,0,0,1217.191,0,0,2022-06-30T10:05:15.030+02:00
2022-06-30T10:05:43.629+02:00,5776.231803416667,0.9681396484375,0.9216461181640625,0.4579010009765625,5776.221851416667,0.654857432790683,1.306255040973465,-0.7565599182312084,-3.749779224395752,0.6005902886390686,0.9540625214576721,0.4114989042282104,0.233574390411377,0.6860339641571045,XArbitraryZVertical,-0.4593448332473276,0.4403780798452178,0.02485622629094842,0.7710069882440194,0.701904296875,0.6864238977432251,-0.1901389360427856,0,0,0,-1,-1,5773.108428,unknown,2,2022-06-30T10:05:40.505+02:00,2022-06-30T08:20:05.567+02:00,1540,1.501556,0,0,1217.191,0,0,2022-06-30T10:05:15.030+02:00
2022-06-30T10:05:43.639+02:00,5776.241754416667,0.8460235595703125,0.94287109375,0.4060211181640625,5776.231803416667,0.7044097606225318,1.344060708755415,-0.7553357688408799,-3.237734079360962,0.1711650192737579,1.037482380867004,0.349643886089325,0.2050003409385681,0.6077383160591125,XArbitraryZVertical,-0.4704910543528693,0.4436294450989723,0.03544878605637531,0.7619543505202302,0.7094074487686157,0.6855331659317017,-0.1636621654033661,0,0,0,-1,-1,5773.108428,unknown,2,2022-06-30T10:05:40.505+02:00,2022-06-30T08:20:05.567+02:00,1540,1.501556,0,0,1217.191,0,0,2022-06-30T10:05:15.030+02:00
2022-06-30T10:05:43.649+02:00,5776.251706416667,0.703826904296875,0.9010467529296875,0.39532470703125,5776.241754416667,0.7472412869174744,1.373087388556599,-0.7516187704408901,-2.712385416030884,-0.2210456430912018,1.008013367652893,0.2517873048782349,0.2388238906860352,0.6014045476913452,XArbitraryZVertical,-0.4794974148107491,0.445342854042631,0.04600026051245293,0.754742418811858,0.7163522839546204,0.6828222870826721,-0.1435039490461349,0,0,0,-1,-1,5773.108428,unknown,2,2022-06-30T10:05:40.505+02:00,2022-06-30T08:20:05.567+02:00,1540,1.501556,0,0,1217.191,0,0,2022-06-30T10:05:15.030+02:00
2022-06-30T10:05:43.659+02:00,5776.261657416667,0.5694122314453125,0.8285675048828125,0.3168487548828125,5776.251706416667,0.7819389424598086,1.392588664168162,-0.7466474516236528,-2.143688917160034,-0.5993556380271912,0.9266642928123474,0.1236773133277893,0.2636892795562744,0.5361286401748657,XArbitraryZVertical,-0.4862854167568403,0.445502592962232,0.05597142293229065,0.7496140276880229,0.7223461866378784,0.6791819334030151,-0.1301078647375107,0,0,0,-1,-1,5773.108428,unknown,2,2022-06-30T10:05:40.505+02:00,2022-06-30T08:20:05.567+02:00,1540,1.501556,0,0,1217.191,0,0,2022-06-30T10:05:15.030+02:00
2022-06-30T10:05:43.669+02:00,5776.271608416667,0.497650146484375,0.8200836181640625,0.3609161376953125,5776.261657416667,0.8093875778603327,1.403642850216653,-0.7411610670935922,-1.678569078445435,-0.9089585542678833,0.8742684721946716,-0.02357685565948486,0.2259019613265991,0.5180575847625732,XArbitraryZVertical,-0.4911717523483561,0.4442788352791786,0.06534791555856388,0.7463888717152309,0.7274036407470703,0.6751448512077332,-0.1227332502603531,0,0,0,-1,-1,5773.108428,unknown,2,2022-06-30T10:05:40.505+02:00,2022-06-30T08:20:05.567+02:00,1540,1.501556,0,0,1217.191,0,0,2022-06-30T10:05:15.030+02:00
2022-06-30T10:05:43.679+02:00,5776.281560416667,0.4445648193359375,0.88275146484375,0.41064453125,5776.271608416667,0.8324725039749982,1.408596441439439,-0.7350924447750595,-1.553851366043091,-1.218310475349426,0.8962961435317993,-0.1626206040382385,0.1579118371009827,0.4366363286972046,XArbitraryZVertical,-0.4947627224180359,0.4419455552863064,0.07474237664625505,0.7445183519987685,0.7320326566696167,0.6706557273864746,-0.1197879463434219,0,0,0,-1,-1,5773.108428,unknown,2,2022-06-30T10:05:40.505+02:00,2022-06-30T08:20:05.567+02:00,1540,1.501556,0,0,1217.191,0,0,2022-06-30T10:05:15.030+02:00
2022-06-30T10:05:43.689+02:00,5776.291511416667,0.4385223388671875,0.983551025390625,0.51190185546875,5776.281560416667,0.8552648205621666,1.409981703962243,-0.7290240183461786,-1.610286951065063,-1.56721830368042,0.8517885804176331,-0.2385516762733459,0.1539416909217834,0.4803390502929688,XArbitraryZVertical,-0.4981528350486875,0.438328787973735,0.08488948844113715,0.7433070756802796,0.7362016439437866,0.6661420464515686,-0.1194232553243637,0,0,0,-1,-1,5773.108428,unknown,2,2022-06-30T10:05:40.505+02:00,2022-06-30T08:20:05.567+02:00,1540,1.501556,0,0,1217.191,0,0,2022-06-30T10:05:15.030+02:00
2022-06-30T10:05:43.699+02:00,5776.301462416667,0.4640960693359375,1.080245971679688,0.603424072265625,5776.291511416667,0.8788227815022938,1.407877082221497,-0.7236625731374744,-1.741303563117981,-2.010052919387817,0.7858876585960388,-0.2948975563049316,0.2206177115440369,0.5321941375732422,XArbitraryZVertical,-0.5017158824101465,0.4330198619512471,0.09594493110575208,0.742677214755886,0.73946213722229,0.6621338129043579,-0.121549941599369,0,0,0,-1,-1,5773.108428,unknown,2,2022-06-30T10:05:40.505+02:00,2022-06-30T08:20:05.567+02:00,1540,1.501556,0,0,1217.191,0,0,2022-06-30T10:05:15.030+02:00
2022-06-30T10:05:43.709+02:00,5776.311414416667,0.508575439453125,1.063232421875,0.71484375,5776.301462416667,0.9047486315339269,1.402510111280688,-0.7191902074578893,-1.961887836456299,-2.512333393096924,0.7524210214614868,-0.3031891584396362,0.3247754573822021,0.6379131078720093,XArbitraryZVertical,-0.505786433297281,0.4256457156248202,0.1084025082540794,0.7424653234286355,0.7417113780975342,0.6587756276130676,-0.1260116100311279,0,0,0,-1,-1,5773.108428,unknown,2,2022-06-30T10:05:40.505+02:00,2022-06-30T08:20:05.567+02:00,1540,1.501556,0,0,1217.191,0,0,2022-06-30T10:05:15.030+02:00
2022-06-30T10:05:43.719+02:00,5776.321365416667,0.5619659423828125,0.959075927734375,0.820404052734375,5776.311414416667,0.9330583809985898,1.393346313278222,-0.7155447692055245,-2.137900829315186,-3.078459978103638,0.7018933296203613,-0.2787884473800659,0.4242173433303833,0.7366498708724976,XArbitraryZVertical,-0.5102259276816448,0.4160005201523143,0.1224432053323557,0.7427117126284299,0.7428843379020691,0.656028687953949,-0.13322614133358,0,0,0,-1,-1,5773.108428,unknown,2,2022-06-30T10:05:40.505+02:00,2022-06-30T08:20:05.567+02:00,1540,1.501556,0,0,1217.191,0,0,2022-06-30T10:05:15.030+02:00
2022-06-30T10:05:43.729+02:00,5776.331316416667,0.5800933837890625,0.8531494140625,0.8488006591796875,5776.321365416667,0.9635458201158859,1.379550262289889,-0.7132851075459193,-2.331399917602539,-3.714294195175171,0.5869158506393433,-0.2338539361953735,0.4089109897613525,0.858586847782135,XArbitraryZVertical,-0.5149658037261795,0.4036564264523652,0.1380480357390573,0.7435149068363243,0.7424291968345642,0.654321551322937,-0.1437434256076813,0,0,0,-1,-1,5773.108428,unknown,2,2022-06-30T10:05:40.505+02:00,2022-06-30T08:20:05.567+02:00,1540,1.501556,0,0,1217.191,0,0,2022-06-30T10:05:15.030+02:00
2022-06-30T10:05:43.739+02:00,5776.341268416667,0.5594482421875,0.79559326171875,0.8245086669921875,5776.331316416667,0.9956266883453793,1.360199435842119,-0.7130699347004534,-2.41170597076416,-4.389495372772217,0.4285160005092621,-0.1776807308197021,0.3049172163009644,0.9785153865814209,XArbitraryZVertical,-0.5198412353088081,0.3882129044843936,0.1550631332814048,0.7449907618827188,0.7396464943885803,0.6541588306427002,-0.1581116616725922,0,0,0,-1,-1,5773.108428,unknown,2,2022-06-30T10:05:40.505+02:00,2022-06-30T08:20:05.567+02:00,1540,1.501556,0,0,1217.191,0,0,2022-06-30T10:05:15.030+02:00
2022-06-30T10:05:43.749+02:00,5776.351219416667,0.487274169921875,0.81170654296875,0.683502197265625,5776.341268416667,1.027682323313522,1.333979920089992,-0.7150259674478316,-2.422173976898193,-5.103989601135254,0.2689028978347778,-0.1539086699485779,0.1975125074386597,1.025948047637939,XArbitraryZVertical,-0.5242852176313978,0.3695282764427164,0.1732387462027989,0.747370160898035,0.7340018153190613,0.6556370258331299,-0.1771477311849594,0,0,0,-1,-1,5773.108428,unknown,2,2022-06-30T10:05:40.505+02:00,2022-06-30T08:20:05.567+02:00,1540,1.501556,0,0,1217.191,0,0,2022-06-30T10:05:15.030+02:00
2022-06-30T10:05:43.759+02:00,5776.361171416667,0.3774871826171875,0.851593017578125,0.605072021484375,5776.351219416667,1.05787398823322,1.299392629948805,-0.7190669906196693,-2.178678035736084,-5.811712741851807,0.09583190083503723,-0.1654306650161743,0.1369104981422424,1.026220321655273,XArbitraryZVertical,-0.5276180881683,0.3475099673869875,0.1923619268878799,0.7509013952743047,0.72487872838974,0.6586829423904419,-0.2017119526863098,0,0,0,-1,-1,5773.108428,unknown,2,2022-06-30T10:05:40.505+02:00,2022-06-30T08:20:05.567+02:00,1540,1.501556,0,0,1217.191,0,0,2022-06-30T10:05:15.030+02:00
2022-06-30T10:05:43.769+02:00,5776.371122416667,0.32879638671875,0.7779388427734375,0.4471435546875,5776.361171416667,1.083385200291382,1.255895580565893,-0.7245010449494325,-1.80789852142334,-6.285977363586426,-0.01015977840870619,-0.2247341871261597,0.1489447951316833,0.9154312014579773,XArbitraryZVertical,-0.5289626943811214,0.3228526407210978,0.2117660579773875,0.7557247071721067,0.7120081186294556,0.6627618670463562,-0.231929287314415,0,0,0,-1,-1,5773.108428,unknown,2,2022-06-30T10:05:40.505+02:00,2022-06-30T08:20:05.567+02:00,1540,1.501556,0,0,1217.191,0,0,2022-06-30T10:05:15.030+02:00
2022-06-30T10:05:43.779+02:00,5776.381073416667,0.3436431884765625,0.7530975341796875,0.4687042236328125,5776.371122416667,1.102652237105092,1.204262271670268,-0.729660353273844,-1.229967713356018,-6.664170265197754,0.01101561449468136,-0.3184007406234741,0.1849766373634338,0.872209906578064,XArbitraryZVertical,-0.527637342003636,0.2966981038211238,0.2311383067995963,0.7616719204718247,0.6958876252174377,0.6666164994239807,-0.2671381533145905,0,0,0,-1,-1,5773.108428,unknown,2,2022-06-30T10:05:40.505+02:00,2022-06-30T08:20:05.567+02:00,1540,1.501556,0,0,1217.191,0,0,2022-06-30T10:05:15.030+02:00
2022-06-30T10:05:43.789+02:00,5776.391025416667,0.293548583984375,0.8480224609375,0.41680908203125,5776.381073416667,1.11512208640724,1.14418301894968,-0.7327401206081308,-0.8110066056251526,-7.086221694946289,0.1530318707227707,-0.3479241132736206,0.1090300679206848,0.7547317743301392,XArbitraryZVertical,-0.5230215561218348,0.2695444101468578,0.2507737054900623,0.7687047391379686,0.6767202615737915,0.6689090132713318,-0.307588517665863,0,0,0,-1,-1,5773.108428,unknown,2,2022-06-30T10:05:40.505+02:00,2022-06-30T08:20:05.567+02:00,1540,1.501556,0,0,1217.191,0,0,2022-06-30T10:05:15.030+02:00
2022-06-30T10:05:43.798+02:00,5776.400976416667,0.135162353515625,1.032333374023438,0.4455718994140625,5776.391025416667,1.126246939191016,1.079161350239809,-0.7344834443601942,-0.8318246603012085,-7.462094306945801,0.2643300592899323,-0.3106324672698975,0.08289384841918945,0.8190619945526123,XArbitraryZVertical,-0.5164498608581921,0.2410405335732114,0.2714635735994451,0.7755557502235082,0.6542754173278809,0.6702038645744324,-0.3503580093383789,0,0,0,-1,-1,5773.108428,unknown,2,2022-06-30T10:05:40.505+02:00,2022-06-30T08:20:05.567+02:00,1540,1.501556,0,0,1217.191,0,0,2022-06-30T10:05:15.030+02:00
2022-06-30T10:05:43.808+02:00,5776.410927416667,0.0949859619140625,-0.543487548828125,5.763214111328125,5776.400976416667,1.139877397811366,1.012728617073167,-0.7368062040790228,-1.227311491966248,-7.695560455322266,0.343172699213028,-0.3347035050392151,0.1760965585708618,0.8090016841888428,XArbitraryZVertical,-0.5092928235890595,0.2110079028272745,0.2931561210090783,0.7811247660754653,0.6282516121864319,0.671925961971283,-0.3921929597854614,0,0,0,-1,-1,5773.108428,unknown,2,2022-06-30T10:05:40.505+02:00,2022-06-30T08:20:05.567+02:00,1540,1.501556,0,0,1217.191,0,0,2022-06-30T10:05:15.030+02:00
2022-06-30T10:05:43.818+02:00,5776.420879416667,-5.052841186523438,0.83251953125,-13.55857849121094,5776.410927416667,1.153816528367654,0.9477961281939993,-0.7449418061742694,1.345101356506348,-4.996471405029297,0.2892281115055084,-0.4618581533432007,0.3544045090675354,0.8744996786117554,XArbitraryZVertical,-0.5032507648807802,0.1796515806811745,0.3128498841835099,0.7852317763855543,0.597020149230957,0.6779290437698364,-0.4289279580116272,0,0,0,-1,-1,5773.108428,unknown,2,2022-06-30T10:05:40.505+02:00,2022-06-30T08:20:05.567+02:00,1540,1.501556,0,0,1217.191,0,0,2022-06-30T10:05:15.030+02:00
2022-06-30T10:05:43.828+02:00,5776.430830416667,-2.50408935546875,1.036788940429688,-8.707412719726562,5776.420879416667,1.213161888491678,0.9945236130894425,-0.7758639898721301,-7.695379734039307,5.310902118682861,-0.6691663265228271,-0.5035489201545715,-1.243820428848267,6.15217399597168,XArbitraryZVertical,-0.5248769890545869,0.1732745009665129,0.3155394228114506,0.7713073306475323,0.5985345244407654,0.7003330588340759,-0.3889601826667786,0,0,0,-1,-1,5773.108428,unknown,2,2022-06-30T10:05:40.505+02:00,2022-06-30T08:20:05.567+02:00,1540,1.501556,0,0,1217.191,0,0,2022-06-30T10:05:15.030+02:00
2022-06-30T10:05:43.838+02:00,5776.440782416667,-2.962051391601562,3.133712768554688,-4.71563720703125,5776.430830416667,1.283405987453188,1.071147196326642,-0.8102941120568099,-4.188516139984131,0.2288215607404709,0.1384270340204239,-5.657862186431885,0.1080299019813538,-13.2283296585083,XArbitraryZVertical,-0.5522724038126667,0.1728316319566092,0.311939091563543,0.7535373953409561,0.6050208806991577,0.7244899272918701,-0.3302488327026367,0,0,0,-1,-1,5773.108428,unknown,2,2022-06-30T10:05:40.505+02:00,2022-06-30T08:20:05.567+02:00,1540,1.501556,0,0,1217.191,0,0,2022-06-30T10:05:15.030+02:00
2022-06-30T10:05:43.848+02:00,5776.450733416667,-0.1621856689453125,2.098892211914062,-1.540313720703125,5776.440782416667,1.333039143755238,1.122609191808287,-0.8227527332088237,-3.393961906433105,2.659802675247192,0.4900423288345337,-3.117114543914795,0.3037681579589844,-8.412657737731934,XArbitraryZVertical,-0.567701349894043,0.1741765886577083,0.3124306438172499,0.7414613667979758,0.6130250096321106,0.7330210208892822,-0.2947553992271423,0,0,0,-1,-1,5773.108428,unknown,2,2022-06-30T10:05:40.505+02:00,2022-06-30T08:20:05.567+02:00,1540,1.501556,0,0,1217.191,0,0,2022-06-30T10:05:15.030+02:00
2022-06-30T10:05:43.858+02:00,5776.460684416667,1.0166015625,0.9781494140625,0.757904052734375,5776.450733416667,1.377513055833478,1.192174453585922,-0.8274981245603448,-2.386375904083252,4.203358173370361,1.426061272621155,-3.590842723846436,2.397472381591797,-4.465494632720947,XArbitraryZVertical,-0.5835731161272124,0.1853940724281213,0.3073264594621342,0.7284379562396133,0.6287910938262939,0.7362406253814697,-0.250142902135849,0,0,0,-1,-1,5773.108428,unknown,2,2022-06-30T10:05:40.505+02:00,2022-06-30T08:20:05.567+02:00,1540,1.501556,0,0,1217.191,0,0,2022-06-30T10:05:15.030+02:00
2022-06-30T10:05:43.868+02:00,5776.470636416667,1.78179931640625,0.2934722900390625,1.029342651367188,5776.460684416667,1.41043743692975,1.261469586284766,-0.8132434586529773,-1.022878646850586,4.516952037811279,2.602683067321777,-0.8167187571525574,1.372372627258301,-1.331134796142578,XArbitraryZVertical,-0.5943208569987697,0.2054097880243923,0.3031890345946878,0.7160069354661014,0.654532790184021,0.7265197038650513,-0.2091790735721588,0,0,0,-1,-1,5773.108428,unknown,2,2022-06-30T10:05:40.505+02:00,2022-06-30T08:20:05.567+02:00,1540,1.501556,0,0,1217.191,0,0,2022-06-30T10:05:15.030+02:00
2022-06-30T10:05:43.879+02:00,5776.480587416667,2.125808715820312,-0.060943603515625,0.795989990234375,5776.470636416667,1.428901926997349,1.312536552699803,-0.7969022441904118,-0.6863868236541748,2.589089632034302,1.201344609260559,0.3408549427986145,0.2629551887512207,0.9364083409309387,XArbitraryZVertical,-0.6006868434232066,0.2234347280287143,0.2995909506644286,0.7067513461047502,0.6757462620735168,0.7151944041252136,-0.1785044819116592,0,0,0,-1,-1,5773.108428,unknown,2,2022-06-30T10:05:40.505+02:00,2022-06-30T08:20:05.567+02:00,1540,1.501556,0,0,1217.191,0,0,2022-06-30T10:05:15.030+02:00
2022-06-30T10:05:43.889+02:00,5776.490538416667,1.071319580078125,-0.0587615966796875,0.0165557861328125,5776.480587416667,1.442013505890307,1.335097698447531,-0.7939677102330764,-1.046214818954468,0.1058593839406967,0.03286135569214821,1.100159883499146,-0.4196677803993225,1.193046569824219,XArbitraryZVertical,-0.604966315188123,0.228393685882518,0.2983298042749961,0.7020338106435887,0.6816391348838806,0.7131403088569641,-0.1637041568756104,0,0,0,-1,-1,5773.108428,unknown,2,2022-06-30T10:05:40.505+02:00,2022-06-30T08:20:05.567+02:00,1540,1.501556,0,0,1217.191,0,0,2022-06-30T10:05:15.030+02:00
2022-06-30T10:05:43.898+02:00,5776.500490416667,0.305755615234375,0.4699249267578125,-0.6940765380859375,5776.490538416667,1.456725213736987,1.343955107117611,-0.7987280178325221,-0.9926469326019287,-0.2980114221572876,-0.3439356088638306,1.446061611175537,-0.7774127125740051,0.9528847932815552,XArbitraryZVertical,-0.6088669604107403,0.2254629315492554,0.2992961617811442,0.6991918988411793,0.6797468066215515,0.7164692878723145,-0.1568949818611145,0,0,0,-1,-1,5773.108428,unknown,2,2022-06-30T10:05:40.505+02:00,2022-06-30T08:20:05.567+02:00,1540,1.501556,0,0,1217.191,0,0,2022-06-30T10:05:15.030+02:00
2022-06-30T10:05:43.908+02:00,5776.510441416667,0.17431640625,1.063644409179688,-0.8890228271484375,5776.500490416667,1.462671633338077,1.347429519754582,-0.8026239909796279,0.06653643399477005,0.03425335139036179,-0.1733153760433197,0.3937585949897766,-0.7779431343078613,0.1704684644937515,XArbitraryZVertical,-0.610784393814182,0.2235755203714155,0.2990850505772615,0.6982152553191373,0.6775606274604797,0.7191817760467529,-0.153912827372551,0,0,0,-1,-1,5773.108428,unknown,2,2022-06-30T10:05:40.505+02:00,2022-06-30T08:20:05.567+02:00,1540,1.501556,0,0,1217.191,0,0,2022-06-30T10:05:15.030+02:00
2022-06-30T10:05:43.918+02:00,5776.520393416667,0.164642333984375,1.230117797851562,-0.840972900390625,5776.510441416667,1.448466979360114,1.337741410769826,-0.8017243303142531,2.043295860290527,-0.01684950105845928,-0.109766460955143,-0.370911717414856,-0.2486311793327332,-0.5334575176239014,XArbitraryZVertical,-0.6075780155481058,0.2248096388530771,0.2973497035968641,0.7013507018759004,0.6766670942306519,0.7185564041137695,-0.1606191694736481,0,0,0,-1,-1,5773.108428,unknown,2,2022-06-30T10:05:40.505+02:00,2022-06-30T08:20:05.567+02:00,1540,1.501556,0,0,1217.191,0,0,2022-06-30T10:05:15.030+02:00
2022-06-30T10:05:43.928+02:00,5776.530344416667,0.1697540283203125,1.093978881835938,-0.6411590576171875,5776.520393416667,1.404897952855464,1.30609911355256,-0.7959514728285881,4.022475242614746,-0.058607067912817,-0.2565084993839264,-0.500923216342926,0.3491151928901672,-0.7059943079948425,XArbitraryZVertical,-0.5968286436220667,0.228650878222063,0.2933081965441806,0.7109745369624463,0.6752393841743469,0.7145295739173889,-0.1830286979675293,0,0,0,-1,-1,5773.108428,unknown,2,2022-06-30T10:05:40.505+02:00,2022-06-30T08:20:05.567+02:00,1540,1.501556,0,0,1217.191,0,0,2022-06-30T10:05:15.030+02:00
2022-06-30T10:05:43.938+02:00,5776.540295416667,0.222015380859375,0.77911376953125,-0.442169189453125,5776.530344416667,1.343286730840334,1.262659387056353,-0.7866296387128396,4.697001934051514,0.1468672454357147,-0.3733842670917511,-0.5083300471305847,0.5221410393714905,-0.6267832517623901,XArbitraryZVertical,-0.581414317008489,0.2342273640821714,0.2868988683825818,0.7244198638512206,0.6729721426963806,0.7079770565032959,-0.2141898721456528,0,0,0,-1,-1,5773.108428,unknown,2,2022-06-30T10:05:40.505+02:00,2022-06-30T08:20:05.567+02:00,1540,1.501556,0,0,1217.191,0,0,2022-06-30T10:05:15.030+02:00
2022-06-30T10:05:43.948+02:00,5776.550247416667,0.2666778564453125,0.6497039794921875,-0.2204132080078125,5776.540295416667,1.281567811270107,1.221526917159409,-0.7754543639857981,4.252234935760498,0.3085552155971527,-0.3199087679386139,-0.5012339949607849,0.3939385414123535,-0.3967850208282471,XArbitraryZVertical,-0.5656877172350855,0.2404376693461967,0.2795741310447533,0.737580903587113,0.6709877848625183,0.7000406384468079,-0.2443742603063583,0,0,0,-1,-1,5773.108428,unknown,2,2022-06-30T10:05:40.505+02:00,2022-06-30T08:20:05.567+02:00,1540,1.501556,0,0,1217.191,0,0,2022-06-30T10:05:15.030+02:00
2022-06-30T10:05:43.958+02:00,5776.560198416667,0.2791290283203125,0.718902587890625,-0.033782958984375,5776.550247416667,1.231425630181155,1.190057527348442,-0.7648236697257293,3.236260414123535,0.3859494626522064,-0.2796467542648315,-0.4478227496147156,0.08670419454574585,-0.1740536391735077,XArbitraryZVertical,-0.5526228217548547,0.2460694076864584,0.272975919796009,0.7480254157955342,0.6698377728462219,0.6924098134040833,-0.2681157290935516,0,0,0,-1,-1,5773.108428,unknown,2,2022-06-30T10:05:40.505+02:00,2022-06-30T08:20:05.567+02:00,1540,1.501556,0,0,1217.191,0,0,2022-06-30T10:05:15.030+02:00
2022-06-30T10:05:43.968+02:00,5776.570149416667,0.31854248046875,0.8101806640625,-0.0894317626953125,5776.560198416667,1.195454307418307,1.169867392325832,-0.7577423600896165,2.162980794906616,0.5687049031257629,-0.4108415246009827,-0.4021084904670715,-0.0375789999961853,0.06307736039161682,XArbitraryZVertical,-0.5436037730401097,0.2504985388539147,0.2671162065158639,0.7552446760817599,0.6687861084938049,0.6872832775115967,-0.2834908366203308,0,0,0,-1,-1,5773.108428,unknown,2,2022-06-30T10:05:40.505+02:00,2022-06-30T08:20:05.567+02:00,1540,1.501556,0,0,1217.191,0,0,2022-06-30T10:05:15.030+02:00
2022-06-30T10:05:43.978+02:00,5776.580101416667,0.380401611328125,0.840667724609375,-0.2337799072265625,5776.570149416667,1.170316261666768,1.159390583225816,-0.755345743829786,1.469637632369995,0.797480046749115,-0.5897307991981506,-0.3881582617759705,0.03336232900619507,0.2573565244674683,XArbitraryZVertical,-0.538412861866305,0.2540506908861564,0.261142970504199,0.7598513939680905,0.6672869920730591,0.6855404376983643,-0.2911396622657776,0,0,0,-1,-1,5773.108428,unknown,2,2022-06-30T10:05:40.505+02:00,2022-06-30T08:20:05.567+02:00,1540,1.501556,0,0,1217.191,0,0,2022-06-30T10:05:15.030+02:00
2022-06-30T10:05:43.987+02:00,5776.590052416667,0.4049072265625,0.873779296875,-0.3649139404296875,5776.580101416667,1.150365775954583,1.154230611728599,-0.7560677606182937,1.190755128860474,0.9122992753982544,-0.7028432488441467,-0.3467809557914734,0.124114990234375,0.2049467265605927,XArbitraryZVertical,-0.5353923130665759,0.2572269864762745,0.2547177705766083,0.7630913319472137,0.6653232574462891,0.6860659122467041,-0.2943786978721619,0,0,0,-1,-1,5773.108428,unknown,2,2022-06-30T10:05:40.505+02:00,2022-06-30T08:20:05.567+02:00,1540,1.501556,0,0,1217.191,0,0,2022-06-30T10:05:15.030+02:00
2022-06-30T10:05:43.997+02:00,5776.600003416667,0.37127685546875,0.90728759765625,-0.4590301513671875,5776.590052416667,1.132047096204104,1.15088934848509,-0.7580001981059357,1.100762605667114,0.9567725658416748,-0.7286226153373718,-0.2827226519584656,0.1531974077224731,0.06227880716323853,XArbitraryZVertical,-0.5331308425966403,0.2602729437358571,0.2480348300873618,0.7658383135878697,0.6631240248680115,0.687470555305481,-0.2960590124130249,0,0,0,-1,-1,5773.108428,unknown,2,2022-06-30T10:05:40.505+02:00,2022-06-30T08:20:05.567+02:00,1540,1.501556,0,0,1217.191,0,0,2022-06-30T10:05:15.030+02:00
2022-06-30T10:05:44.007+02:00,5776.609955416667,0.296539306640625,0.9044647216796875,-0.50299072265625,5776.600003416667,1.115028182280838,1.148936562926195,-0.7604420157576688,0.9638792872428894,1.022001147270203,-0.7265429496765137,-0.2561042308807373,0.1845377087593079,-0.06824904680252075,XArbitraryZVertical,-0.5313384588200331,0.2633379324384343,0.2413034863759853,0.7681831378593479,0.6610111594200134,0.6892417669296265,-0.2966651618480682,0,0,0,-1,-1,5773.108428,unknown,2,2022-06-30T10:05:40.505+02:00,2022-06-30T08:20:05.567+02:00,1540,1.501556,0,0,1217.191,0,0,2022-06-30T10:05:15.030+02:00
2022-06-30T10:05:44.017+02:00,5776.619906416667,0.2142181396484375,0.918121337890625,-0.555145263671875,5776.609955416667,1.099472248345251,1.14885356309169,-0.7632249344164739,0.8807640671730042,1.136939167976379,-0.7069555521011353,-0.287957489490509,0.2160323858261108,-0.163097083568573,XArbitraryZVertical,-0.5300422018425792,0.2666244621127294,0.2345179511360907,0.770044205456866,0.6592340469360352,0.6912553906440735,-0.2959333062171936,0,0,0,-1,-1,5773.108428,unknown,2,2022-06-30T10:05:40.505+02:00,2022-06-30T08:20:05.567+02:00,1540,1.501556,0,0,1217.191,0,0,2022-06-30T10:05:15.030+02:00
2022-06-30T10:05:44.027+02:00,5776.629858416667,0.1840972900390625,0.9978790283203125,-0.5064697265625,5776.619906416667,1.084458053445126,1.150332795981102,-0.7660127168752286,0.9048686027526855,1.253896951675415,-0.6845114827156067,-0.3613702654838562,0.2111976742744446,-0.2088208496570587,XArbitraryZVertical,-0.5289782976782463,0.2703644278444378,0.2275122252414185,0.7715719417855533,0.6579092741012573,0.6932672262191772,-0.294170081615448,0,0,0,-1,-1,5773.108428,unknown,2,2022-06-30T10:05:40.505+02:00,2022-06-30T08:20:05.567+02:00,1540,1.501556,0,0,1217.191,0,0,2022-06-30T10:05:15.030+02:00
2022-06-30T10:05:44.037+02:00,5776.639809416667,0.1822509765625,1.147918701171875,-0.4010772705078125,5776.629858416667,1.068206759852752,1.151813309281469,-0.7678318918436176,1.101066827774048,1.305522322654724,-0.5990353226661682,-0.4429730176925659,0.2235443592071533,-0.2624633610248566,XArbitraryZVertical,-0.5274422043674039,0.2747065019345329,0.2203045508912494,0.7731797664537466,0.6571908593177795,0.6945770978927612,-0.2926821112632751,0,0,0,-1,-1,5773.108428,unknown,2,2022-06-30T10:05:40.505+02:00,2022-06-30T08:20:05.567+02:00,1540,1.501556,0,0,1217.191,0,0,2022-06-30T10:05:15.030+02:00
2022-06-30T10:05:44.047+02:00,5776.649760416667,0.20794677734375,1.247421264648438,-0.2507476806640625,5776.639809416667,1.049475221783432,1.151731695298516,-0.7680535224708582,1.38267457485199,1.291369438171387,-0.547490119934082,-0.4729293584823608,0.3031426072120667,-0.2137968838214874,XArbitraryZVertical,-0.5249008290915836,0.2795399149379071,0.2130091251151841,0.7752184642324422,0.6570263504981995,0.6947365403175354,-0.2926731109619141,0,0,0,-1,-1,5773.108428,unknown,2,2022-06-30T10:05:40.505+02:00,2022-06-30T08:20:05.567+02:00,1540,1.501556,0,0,1217.191,0,0,2022-06-30T10:05:15.030+02:00
2022-06-30T10:05:44.057+02:00,5776.659712416667,0.255950927734375,1.25390625,-0.2069549560546875,5776.649760416667,1.02687060115735,1.148562330936433,-0.7667475332018979,1.689955830574036,1.225020170211792,-0.5421296358108521,-0.4746718406677246,0.4541223049163818,-0.1059519052505493,XArbitraryZVertical,-0.5210059893806991,0.2845873508981718,0.205447783467995,0.7780450489033188,0.6569226384162903,0.6937965750694275,-0.2951256036758423,0,0,0,-1,-1,5773.108428,unknown,2,2022-06-30T10:05:40.505+02:00,2022-06-30T08:20:05.567+02:00,1540,1.501556,0,0,1217.191,0,0,2022-06-30T10:05:15.030+02:00
2022-06-30T10:05:44.067+02:00,5776.669663416667,0.2921905517578125,1.184234619140625,-0.2303924560546875,5776.659712416667,1.000640453311456,1.142164464695931,-0.7641432207352921,1.984659910202026,1.14408540725708,-0.5451986789703369,-0.4487156867980957,0.555502712726593,0.04932442307472229,XArbitraryZVertical,-0.5158361485199013,0.28961504829846,0.1976490331501497,0.7816464102849039,0.6566621661186218,0.691918671131134,-0.3000723719596863,0,0,0,-1,-1,5773.108428,unknown,2,2022-06-30T10:05:40.505+02:00,2022-06-30T08:20:05.567+02:00,1540,1.501556,0,0,1217.191,0,0,2022-06-30T10:05:15.030+02:00
2022-06-30T10:05:44.078+02:00,5776.679614416667,0.29693603515625,1.128555297851562,-0.34521484375,5776.669663416667,0.9715045490165563,1.13284131665669,-0.7604465768676173,2.159790754318237,1.032925248146057,-0.5545969605445862,-0.4001972079277039,0.5646612644195557,0.1003088057041168,XArbitraryZVertical,-0.5095807484621719,0.2944409340483571,0.1897091328314397,0.7859022758933161,0.656147837638855,0.6892450451850891,-0.3072640001773834,0,0,0,-1,-1,5773.108428,unknown,2,2022-06-30T10:05:40.505+02:00,2022-06-30T08:20:05.567+02:00,1540,1.501556,0,0,1217.191,0,0,2022-06-30T10:05:15.030+02:00
2022-06-30T10:05:44.087+02:00,5776.689566416667,0.2772064208984375,1.104873657226562,-0.4439544677734375,5776.679614416667,0.9409616809534991,1.121931593638942,-0.7561782745112675,2.21158504486084,1.0074782371521,-0.5803156495094299,-0.3632109761238098,0.4980883598327637,0.08528497815132141,XArbitraryZVertical,-0.5027423804681227,0.2990171367300071,0.1816811509583943,0.7904623546224541,0.6554012298583984,0.6861463189125061,-0.3156777024269104,0,0,0,-1,-1,5773.108428,unknown,2,2022-06-30T10:05:40.505+02:00,2022-06-30T08:20:05.567+02:00,1540,1.501556,0,0,1217.191,0,0,2022-06-30T10:05:15.030+02:00
2022-06-30T10:05:44.097+02:00,5776.699517416667,0.269287109375,1.15118408203125,-0.461029052734375,5776.689566416667,0.909857557156445,1.11088344116857,-0.7517194337492829,2.295968770980835,1.057374238967896,-0.6034207940101624,-0.3576729893684387,0.4456596374511719,-0.02096101641654968,XArbitraryZVertical,-0.4956962026052465,0.3035757053226842,0.1734032618727168,0.7950210968296516,0.6546088457107544,0.682895839214325,-0.3242541253566742,0,0,0,-1,-1,5773.108428,unknown,2,2022-06-30T10:05:40.505+02:00,2022-06-30T08:20:05.567+02:00,1540,1.501556,0,0,1217.191,0,0,2022-06-30T10:05:15.030+02:00
2022-06-30T10:05:44.117+02:00,5776.709469416667,0.280120849609375,1.247528076171875,-0.4190521240234375,5776.699517416667,0.8771607891806867,1.099298539918205,-0.7463097362877076,2.505589962005615,1.091210961341858,-0.573328971862793,-0.3768839240074158,0.4259397387504578,-0.1104659140110016,XArbitraryZVertical,-0.4880061194844906,0.3083919693186656,0.1647716472476025,0.799746636754385,0.6540900468826294,0.6789339780807495,-0.3334888517856598,0,0,0,-1,-1,5773.108428,unknown,2,2022-06-30T10:05:40.505+02:00,2022-06-30T08:20:05.567+02:00,1540,1.501556,0,0,1217.191,0,0,2022-06-30T10:05:15.030+02:00
2022-06-30T10:05:44.118+02:00,5776.719420416667,0.3179473876953125,1.304931640625,-0.259918212890625,5776.709469416667,0.8421801321442379,1.086540979212053,-0.7391223230052955,2.751286506652832,1.101215362548828,-0.5095606446266174,-0.3847974538803101,0.4775446653366089,-0.116960346698761,XArbitraryZVertical,-0.479225774101904,0.3135413133619708,0.1558704206566236,0.8048222671223302,0.654084324836731,0.6736395359039307,-0.3440690040588379,0,0,0,-1,-1,5773.108428,unknown,2,2022-06-30T10:05:40.505+02:00,2022-06-30T08:20:05.567+02:00,1540,1.501556,0,0,1217.191,0,0,2022-06-30T10:05:15.030+02:00
2022-06-30T10:05:44.127+02:00,5776.729371416667,0.352203369140625,1.207199096679688,-0.2342071533203125,5776.719420416667,0.8059389425332429,1.073322615217547,-0.7299482439456093,2.842299699783325,1.13349449634552,-0.4121330976486206,-0.374762237071991,0.5806970596313477,-0.06343349814414978,XArbitraryZVertical,-0.469467518971304,0.3190466965670961,0.1469564811585334,0.8100699151623839,0.6548828482627869,0.6668310761451721,-0.3556188941001892,0,0,0,-1,-1,5773.108428,unknown,2,2022-06-30T10:05:40.505+02:00,2022-06-30T08:20:05.567+02:00,1540,1.501556,0,0,1217.191,0,0,2022-06-30T10:05:15.030+02:00
2022-06-30T10:05:44.137+02:00,5776.739323416667,0.4080810546875,1.053451538085938,-0.2594757080078125,5776.729371416667,0.770418983433301,1.061303696548353,-0.7199521415160417,2.825733184814453,1.187084913253784,-0.4102970957756042,-0.3384008407592773,0.6455830335617065,0.1067783832550049,XArbitraryZVertical,-0.4595244058428231,0.324790509573093,0.1380977345907739,0.8150321817372451,0.6563479900360107,0.6593486666679382,-0.3666968941688538,0,0,0,-1,-1,5773.108428,unknown,2,2022-06-30T10:05:40.505+02:00,2022-06-30T08:20:05.567+02:00,1540,1.501556,0,0,1217.191,0,0,2022-06-30T10:05:15.030+02:00
2022-06-30T10:05:44.147+02:00,5776.749274416667,0.4289703369140625,1.007568359375,-0.217803955078125,5776.739323416667,0.7352789659640653,1.050033580744832,-0.7098780147036202,2.779566049575806,1.176273226737976,-0.4533657431602478,-0.3056992292404175,0.5554578304290771,0.1431488692760468,XArbitraryZVertical,-0.4495498552528449,0.33049471218492,0.1290671408393783,0.8197681121348778,0.6579023003578186,0.6517412662506104,-0.3773563504219055,0,0,0,-1,-1,5773.108428,unknown,2,2022-06-30T10:05:40.505+02:00,2022-06-30T08:20:05.567+02:00,1540,1.501556,0,0,1217.191,0,0,2022-06-30T10:05:15.030+02:00
2022-06-30T10:05:44.157+02:00,5776.759225416667,0.41339111328125,1.0751953125,-0.1794891357421875,5776.749274416667,0.7013749079927565,1.039644512348971,-0.7004229738032696,2.675527572631836,1.168185353279114,-0.5001349449157715,-0.2511496543884277,0.4089105129241943,0.1277990341186523,XArbitraryZVertical,-0.4399410711167654,0.3358784575460697,0.1200132020625738,0.8241567834943577,0.6592304706573486,0.6445411443710327,-0.3872750401496887,0,0,0,-1,-1,5773.108428,unknown,2,2022-06-30T10:05:40.505+02:00,2022-06-30T08:20:05.567+02:00,1540,1.501556,0,0,1217.191,0,0,2022-06-30T10:05:15.030+02:00
2022-06-30T10:05:44.167+02:00,5776.769177416667,0.37408447265625,1.118698120117188,-0.2609405517578125,5776.759225416667,0.6696106594322738,1.031341573728075,-0.6917887428321606,2.395787239074707,1.282296657562256,-0.4947731494903564,-0.2317725419998169,0.3696528077125549,0.1777748465538025,XArbitraryZVertical,-0.4310078188775375,0.3412369689325175,0.1110233706626717,0.8279273016033502,0.6607427000999451,0.6379157304763794,-0.3955791890621185,0,0,0,-1,-1,5773.108428,unknown,2,2022-06-30T10:05:40.505+02:00,2022-06-30T08:20:05.567+02:00,1540,1.501556,0,0,1217.191,0,0,2022-06-30T10:05:15.030+02:00
2022-06-30T10:05:44.177+02:00,5776.779128416667,0.3441009521484375,1.08587646484375,-0.3371124267578125,5776.769177416667,0.6414655654712508,1.027316004179169,-0.6844624172937444,2.123845100402832,1.503153562545776,-0.4995855093002319,-0.2497363090515137,0.4429387450218201,0.2211523652076721,XArbitraryZVertical,-0.423303561616151,0.3471212875684364,0.1021665763976439,0.8305918691495326,0.6631271839141846,0.6322566270828247,-0.4006417989730835,0,0,0,-1,-1,5773.108428,unknown,2,2022-06-30T10:05:40.505+02:00,2022-06-30T08:20:05.567+02:00,1540,1.501556,0,0,1217.191,0,0,2022-06-30T10:05:15.030+02:00
2022-06-30T10:05:44.187+02:00,5776.789079416667,0.3618621826171875,1.095245361328125,-0.34844970703125,5776.779128416667,0.614926864637603,1.026325551227192,-0.6781261962817092,2.097434043884277,1.645028948783875,-0.5450917482376099,-0.2920593619346619,0.4913631677627563,0.1424244940280914,XArbitraryZVertical,-0.4162929851762934,0.3535780895293445,0.09302009938242291,0.8324841698820735,0.666143536567688,0.6273348927497864,-0.4033653736114502,0,0,0,-1,-1,5773.108428,unknown,2,2022-06-30T10:05:40.505+02:00,2022-06-30T08:20:05.567+02:00,1540,1.501556,0,0,1217.191,0,0,2022-06-30T10:05:15.030+02:00
2022-06-30T10:05:44.197+02:00,5776.799031416667,0.367828369140625,1.19219970703125,-0.3165130615234375,5776.789079416667,0.5878486183745686,1.025949247589275,-0.6715360556449479,2.264519691467285,1.673744082450867,-0.5010026693344116,-0.3254121541976929,0.4636872410774231,0.06863725185394287,XArbitraryZVertical,-0.4090146356730597,0.3603221291654759,0.08355409203051445,0.8342024524607831,0.669512927532196,0.6221892237663269,-0.4057499766349792,0,0,0,-1,-1,5773.108428,unknown,2,2022-06-30T10:05:40.505+02:00,2022-06-30T08:20:05.567+02:00,1540,1.501556,0,0,1217.191,0,0,2022-06-30T10:05:15.030+02:00
2022-06-30T10:05:44.206+02:00,5776.808982416667,0.380859375,1.245864868164062,-0.2966766357421875,5776.799031416667,0.5592562535598594,1.025114420117122,-0.6633433471145687,2.442046403884888,1.726393938064575,-0.4345338940620422,-0.3116465210914612,0.4794906973838806,0.06049060821533203,XArbitraryZVertical,-0.400731502268762,0.3673471630267194,0.07393566877476801,0.8360644860099834,0.6735085248947144,0.6157546639442444,-0.4089406430721283,0,0,0,-1,-1,5773.108428,unknown,2,2022-06-30T10:05:40.505+02:00,2022-06-30T08:20:05.567+02:00,1540,1.501556,0,0,1217.191,0,0,2022-06-30T10:05:15.030+02:00
2022-06-30T10:05:44.216+02:00,5776.818934416667,0.4269561767578125,1.252883911132812,-0.22650146484375,5776.808982416667,0.5282486011578434,1.023532119903671,-0.6535208963490344,2.829555511474609,1.768910646438599,-0.4380314350128174,-0.3101648092269897,0.5842140913009644,0.09661984443664551,XArbitraryZVertical,-0.3912313914943572,0.3746616932153754,0.06383602026400698,0.8381477234016922,0.6779929995536804,0.6079855561256409,-0.4131332337856293,0,0,0,-1,-1,5773.108428,unknown,2,2022-06-30T10:05:40.505+02:00,2022-06-30T08:20:05.567+02:00,1540,1.501556,0,0,1217.191,0,0,2022-06-30T10:05:15.030+02:00
2022-06-30T10:05:44.226+02:00,5776.828885416667,0.45953369140625,1.162948608398438,-0.1802520751953125,5776.818934416667,0.4929904861656129,1.019763253738809,-0.6417147342149205,3.192464590072632,1.74479603767395,-0.4888538718223572,-0.3016402125358582,0.6472949385643005,0.1227376461029053,XArbitraryZVertical,-0.3799597386771499,0.3819990224372972,0.05282458134438502,0.8407835825583632,0.6824994683265686,0.598569929599762,-0.4194146990776062,0,0,0,-1,-1,5773.108428,unknown,2,2022-06-30T10:05:40.505+02:00,2022-06-30T08:20:05.567+02:00,1540,1.501556,0,0,1217.191,0,0,2022-06-30T10:05:15.030+02:00
2022-06-30T10:05:44.236+02:00,5776.838836875,0.4723052978515625,0.998809814453125,-0.1563720703125,5776.828885416667,0.4550327004459733,1.014397446711648,-0.6291562295771764,3.344407558441162,1.717926263809204,-0.5912657976150513,-0.2596125602722168,0.6644212007522583,0.2005055546760559,XArbitraryZVertical,-0.3676768387735485,0.3889859234571735,0.04106798615945618,0.8436926537193508,0.6865686178207397,0.588462769985199,-0.4270073771476746,0,0,0,-1,-1,5773.108428,unknown,2,2022-06-30T10:05:40.505+02:00,2022-06-30T08:20:05.567+02:00,1540,1.501556,0,0,1217.191,0,0,2022-06-30T10:05:15.030+02:00
2022-06-30T10:05:44.246+02:00,5776.848788875001,0.4826812744140625,0.9404296875,-0.1017608642578125,5776.838836875,0.4158298592497398,1.008466265114927,-0.6169429409249049,3.359303712844849,1.68896222114563,-0.7157504558563232,-0.2305195331573486,0.5844041705131531,0.2546191811561584,XArbitraryZVertical,-0.3551147040739207,0.3955473980579057,0.02867715629963427,0.8465303140752408,0.6900531053543091,0.5785443782806396,-0.4348716139793396,0,0,0,-1,-1,5773.108428,unknown,2,2022-06-30T10:05:40.505+02:00,2022-06-30T08:20:05.567+02:00,1540,1.501556,0,0,1217.191,0,0,2022-06-30T10:05:15.030+02:00
2022-06-30T10:05:44.256+02:00,5776.858739875001,0.4428253173828125,0.9048309326171875,-0.125885009765625,5776.848788875001,0.3772101160696087,1.002810737014092,-0.6059534567609438,3.178123474121094,1.641773462295532,-0.8191377520561218,-0.2205954790115356,0.4292637705802917,0.2857884168624878,XArbitraryZVertical,-0.3430103271463897,0.4015762619677281,0.01605465646926707,0.8490128861580269,0.6929006576538086,0.5695460438728333,-0.4421608448028564,0,0,0,-1,-1,5773.108428,unknown,2,2022-06-30T10:05:40.505+02:00,2022-06-30T08:20:05.567+02:00,1540,1.501556,0,0,1217.191,0,0,2022-06-30T10:05:15.030+02:00
2022-06-30T10:05:44.266+02:00,5776.868690875001,0.4340362548828125,0.9294281005859375,-0.175933837890625,5776.858739875001,0.3400220495982678,0.9982046672112393,-0.5968912507736521,3.009758234024048,1.676461458206177,-0.9721453785896301,-0.2124851942062378,0.3783556222915649,0.3463645577430725,XArbitraryZVertical,-0.3318467010633343,0.4072037239291092,0.003279771399483608,0.8509125690834967,0.695166289806366,0.5620740056037903,-0.4481257796287537,0,0,0,-1,-1,5773.108428,unknown,2,2022-06-30T10:05:40.505+02:00,2022-06-30T08:20:05.567+02:00,1540,1.501556,0,0,1217.191,0,0,2022-06-30T10:05:15.030+02:00
2022-06-30T10:05:44.276+02:00,5776.878642875,0.4545745849609375,1.087310791015625,-0.169586181640625,5776.868690875001,0.3028142994548637,0.9941905071253307,-0.5891484003305553,3.064680576324463,1.697604537010193,-1.072076916694641,-0.2541642189025879,0.3491776585578918,0.3273864388465881,XArbitraryZVertical,-0.321102891542578,0.4126221352505489,-0.01000401425814261,0.8523707687118776,0.6969894766807556,0.5556532144546509,-0.4532718062400818,0,0,0,-1,-1,5773.108428,unknown,2,2022-06-30T10:05:40.505+02:00,2022-06-30T08:20:05.567+02:00,1540,1.501556,0,0,1217.191,0,0,2022-06-30T10:05:15.030+02:00
2022-06-30T10:05:44.286+02:00,5776.888593875,0.4727020263671875,1.217254638671875,-0.14495849609375,5776.878642875,0.2641343400796167,0.9895276579824112,-0.5811050332108832,3.260650873184204,1.662158489227295,-1.118149638175964,-0.2645450830459595,0.3804801106452942,0.283021867275238,XArbitraryZVertical,-0.3098371523859135,0.4177593687217596,-0.02380903514952354,0.8537630525489761,0.6985811591148376,0.5489479303359985,-0.4589560925960541,0,0,0,-1,-1,5773.108428,unknown,2,2022-06-30T10:05:40.505+02:00,2022-06-30T08:20:05.567+02:00,1540,1.501556,0,0,1217.191,0,0,2022-06-30T10:05:15.030+02:00
2022-06-30T10:05:44.296+02:00,5776.898545875,0.4923553466796875,1.237747192382812,-0.148284912109375,5776.888593875,0.2224102683448086,0.9830423883009457,-0.5716500656348338,3.677014589309692,1.611334443092346,-1.176047563552856,-0.2453036308288574,0.5462901592254639,0.2967475652694702,XArbitraryZVertical,-0.2972875454869041,0.4224370700165014,-0.03837994160681314,0.8553911741335483,0.6998780965805054,0.5410205125808716,-0.4663340747356415,0,0,0,-1,-1,5773.108428,unknown,2,2022-06-30T10:05:40.505+02:00,2022-06-30T08:20:05.567+02:00,1540,1.501556,0,0,1217.191,0,0,2022-06-30T10:05:15.030+02:00
2022-06-30T10:05:44.306+02:00,5776.908496875,0.517425537109375,1.201736450195312,-0.207244873046875,5776.898545875,0.1755679513769129,0.9735733768666719,-0.5598762459060275,4.249810218811035,1.5366370677948,-1.300566077232361,-0.2279481291770935,0.6861732006072998,0.3315305709838867,XArbitraryZVertical,-0.2826765798116556,0.4264378422479128,-0.05427939207921195,0.8574954621539204,0.7006499767303467,0.5310813188552856,-0.4764894247055054,0,0,0,-1,-1,5773.108428,unknown,2,2022-06-30T10:05:40.505+02:00,2022-06-30T08:20:05.567+02:00,1540,1.501556,0,0,1217.191,0,0,2022-06-30T10:05:15.030+02:00
2022-06-30T10:05:44.316+02:00,5776.918447875,0.527099609375,1.2403564453125,-0.20648193359375,5776.908496875,0.1224406686118278,0.9606578458782987,-0.5452048931820827,4.88554859161377,1.483660936355591,-1.414445996284485,-0.2083932757377625,0.7191537022590637,0.3416255414485931,XArbitraryZVertical,-0.2655516671253574,0.4295659577853909,-0.07191897271159746,0.8601064522141278,0.7007485032081604,0.5185933113098145,-0.4899108111858368,0,0,0,-1,-1,5773.108428,unknown,2,2022-06-30T10:05:40.505+02:00,2022-06-30T08:20:05.567+02:00,1540,1.501556,0,0,1217.191,0,0,2022-06-30T10:05:15.030+02:00
2022-06-30T10:05:44.326+02:00,5776.928399875001,0.5074005126953125,1.280426025390625,-0.1703643798828125,5776.918447875,0.06430505588298351,0.9453540245231211,-0.5271924785003863,5.385464191436768,1.413431525230408,-1.446918964385986,-0.1832038164138794,0.6986272931098938,0.2987192273139954,XArbitraryZVertical,-0.2459953559577764,0.4318611514472226,-0.09092805093813615,0.8629683585472878,0.7006292343139648,0.5031089782714844,-0.505964457988739,0,0,0,-1,-1,5773.108428,unknown,2,2022-06-30T10:05:40.505+02:00,2022-06-30T08:20:05.567+02:00,1540,1.501556,0,0,1217.191,0,0,2022-06-30T10:05:15.030+02:00
2022-06-30T10:05:44.336+02:00,5776.938350875001,0.5045013427734375,1.228683471679688,-0.2071990966796875,5776.928399875001,0.002503194112330668,0.9286311996921187,-0.5065343039865406,5.772295475006104,1.383116841316223,-1.621230721473694,-0.1731457114219666,0.7552065849304199,0.3172414302825928,XArbitraryZVertical,-0.224582541151512,0.4332445646687686,-0.1111237072460971,0.8657444333944752,0.7002452611923218,0.4851496517658234,-0.5237236618995667,0,0,0,-1,-1,5773.108428,unknown,2,2022-06-30T10:05:40.505+02:00,2022-06-30T08:20:05.567+02:00,1540,1.501556,0,0,1217.191,0,0,2022-06-30T10:05:15.030+02:00
2022-06-30T10:05:44.346+02:00,5776.948301875001,0.5345001220703125,1.148956298828125,-0.178680419921875,5776.938350875001,-0.06392935013363142,0.9106795159713271,-0.4836045652774828,6.386711120605469,1.356788635253906,-1.815089464187622,-0.1919357776641846,0.8154523372650146,0.3725244998931885,XArbitraryZVertical,-0.2012998055044055,0.4336286667975064,-0.1331177346037384,0.8681728910653053,0.6993361711502075,0.4649733901023865,-0.5428891181945801,0,0,0,-1,-1,5773.108428,unknown,2,2022-06-30T10:05:40.505+02:00,2022-06-30T08:20:05.567+02:00,1540,1.501556,0,0,1217.191,0,0,2022-06-30T10:05:15.030+02:00
2022-06-30T10:05:44.356+02:00,5776.958253875,0.544525146484375,1.129592895507812,-0.0249786376953125,5776.948301875001,-0.1353089369475043,0.8913151717648418,-0.4569141961945085,6.919748783111572,1.252262473106384,-1.905892133712769,-0.1935992836952209,0.7875022888183594,0.3567287921905518,XArbitraryZVertical,-0.1755039266978266,0.4327057733991903,-0.1568139626863654,0.8702720993489295,0.6981005668640137,0.441180944442749,-0.5639281868934631,0,0,0,-1,-1,5773.108428,unknown,2,2022-06-30T10:05:40.505+02:00,2022-06-30T08:20:05.567+02:00,1540,1.501556,0,0,1217.191,0,0,2022-06-30T10:05:15.030+02:00
2022-06-30T10:05:44.366+02:00,5776.968204875,0.52728271484375,1.111770629882812,0.0098419189453125,5776.958253875,-0.2084459629772251,0.8718449000595591,-0.4274680365061483,7.039769172668457,1.142361640930176,-1.976468324661255,-0.1621347069740295,0.734387993812561,0.4068390727043152,XArbitraryZVertical,-0.1483020835243933,0.4304028611107999,-0.1812363043556845,0.8717300072241332,0.6966347098350525,0.4145680069923401,-0.5855197310447693,0,0,0,-1,-1,5773.108428,unknown,2,2022-06-30T10:05:40.505+02:00,2022-06-30T08:20:05.567+02:00,1540,1.501556,0,0,1217.191,0,0,2022-06-30T10:05:15.030+02:00
2022-06-30T10:05:44.376+02:00,5776.978155875,0.5438079833984375,1.036392211914062,-0.0355224609375,5776.968204875,-0.2800058919843069,0.8540856325073369,-0.3981724960208818,6.750124931335449,1.075057506561279,-2.124569416046143,-0.1504632830619812,0.7418581247329712,0.5805401206016541,XArbitraryZVertical,-0.1215955468083468,0.4271475464962116,-0.2056178519138921,0.872055490415294,0.6949883103370667,0.387734442949295,-0.6055189967155457,0,0,0,-1,-1,5773.108428,unknown,2,2022-06-30T10:05:40.505+02:00,2022-06-30T08:20:05.567+02:00,1540,1.501556,0,0,1217.191,0,0,2022-06-30T10:05:15.030+02:00
2022-06-30T10:05:44.386+02:00,5776.988107875,0.59637451171875,0.983734130859375,-0.10546875,5776.978155875,-0.3481482701331741,0.8389428991311394,-0.3714218609509592,6.309686183929443,1.029419183731079,-2.24843430519104,-0.1659270524978638,0.7488296031951904,0.632524847984314,XArbitraryZVertical,-0.09676266166990372,0.4234328691086944,-0.229526492566,0.8710104721766019,0.6932097673416138,0.3629406988620758,-0.6226831674575806,0,0,0,-1,-1,5773.108428,unknown,2,2022-06-30T10:05:40.505+02:00,2022-06-30T08:20:05.567+02:00,1540,1.501556,0,0,1217.191,0,0,2022-06-30T10:05:15.030+02:00
2022-06-30T10:05:44.396+02:00,5776.998058875,0.630279541015625,1.058273315429688,-0.15899658203125,5776.988107875,-0.4124231842647915,0.8262275032971471,-0.3472613966847295,5.91209077835083,0.9612346887588501,-2.288361072540283,-0.1476761102676392,0.6960679292678833,0.6016817092895508,XArbitraryZVertical,-0.07390910319148532,0.4194463259355801,-0.2525958861047328,0.8687909695610523,0.6914840936660767,0.3403239548206329,-0.6372044682502747,0,0,0,-1,-1,5773.108428,unknown,2,2022-06-30T10:05:40.505+02:00,2022-06-30T08:20:05.567+02:00,1540,1.501556,0,0,1217.191,0,0,2022-06-30T10:05:15.030+02:00
2022-06-30T10:05:44.405+02:00,5777.008010875001,0.5911865234375,1.090789794921875,-0.219085693359375,5776.998058875,-0.4732339812433401,0.8152909130072704,-0.324938311501362,5.577726364135742,0.8812549114227295,-2.307516098022461,-0.09345859289169312,0.6644834280014038,0.5443075895309448,XArbitraryZVertical,-0.05265307139495232,0.4151377807183618,-0.2747133050156699,0.8656910235976129,0.6898331046104431,0.3192503154277802,-0.6497765779495239,0,0,0,-1,-1,5773.108428,unknown,2,2022-06-30T10:05:40.505+02:00,2022-06-30T08:20:05.567+02:00,1540,1.501556,0,0,1217.191,0,0,2022-06-30T10:05:15.030+02:00
2022-06-30T10:05:44.416+02:00,5777.017961875001,0.6103668212890625,1.016937255859375,-0.237030029296875,5777.008010875001,-0.531479607650445,0.8060859053221048,-0.3049649414095911,5.266748428344727,0.9105027318000793,-2.46428656578064,-0.05800771713256836,0.7580132484436035,0.5013855695724487,XArbitraryZVertical,-0.03300628339241751,0.4107546833899943,-0.2962604799689019,0.8616385934409433,0.6882872581481934,0.3002597391605377,-0.6603823304176331,0,0,0,-1,-1,5773.108428,unknown,2,2022-06-30T10:05:40.505+02:00,2022-06-30T08:20:05.567+02:00,1540,1.501556,0,0,1217.191,0,0,2022-06-30T10:05:15.030+02:00
2022-06-30T10:05:44.425+02:00,5777.027912875001,0.6382293701171875,0.9545135498046875,-0.189971923828125,5777.017961875001,-0.5879221239967928,0.7985928017586699,-0.2875451165828759,4.949842929840088,0.8859068155288696,-2.540626049041748,-0.09577620029449463,0.8071904182434082,0.4499834775924683,XArbitraryZVertical,-0.01486192830472801,0.4065026890624525,-0.3175111393871471,0.8565754177833734,0.6869627833366394,0.2835989892482758,-0.6690693497657776,0,0,0,-1,-1,5773.108428,unknown,2,2022-06-30T10:05:40.505+02:00,2022-06-30T08:20:05.567+02:00,1540,1.501556,0,0,1217.191,0,0,2022-06-30T10:05:15.030+02:00
2022-06-30T10:05:44.435+02:00,5777.037864875,0.625885009765625,0.9473419189453125,-0.180084228515625,5777.027912875001,-0.6416006944073098,0.7923536573427763,-0.2723288968604218,4.5909104347229,0.8621326088905334,-2.531375646591187,-0.07540154457092285,0.7479616403579712,0.4392642378807068,XArbitraryZVertical,0.001715268300774537,0.4023056889935806,-0.3379198173841169,0.850856854901677,0.6857683658599854,0.2689752280712128,-0.6762943863868713,0,0,0,-1,-1,5773.108428,unknown,2,2022-06-30T10:05:40.505+02:00,2022-06-30T08:20:05.567+02:00,1540,1.501556,0,0,1217.191,0,0,2022-06-30T10:05:15.030+02:00
2022-06-30T10:05:44.445+02:00,5777.047815875,0.6245880126953125,0.94488525390625,-0.199127197265625,5777.037864875,-0.6919715363258663,0.7878075285515578,-0.2595388051274301,4.157345294952393,0.9014059901237488,-2.527570247650146,-0.04683995246887207,0.6978783011436462,0.4918040633201599,XArbitraryZVertical,0.01664594241024973,0.3985409289502109,-0.3572424993369437,0.8445506999543521,0.6850693225860596,0.2566348314285278,-0.6817761063575745,0,0,0,-1,-1,5773.108428,unknown,2,2022-06-30T10:05:40.505+02:00,2022-06-30T08:20:05.567+02:00,1540,1.501556,0,0,1217.191,0,0,2022-06-30T10:05:15.030+02:00
2022-06-30T10:05:44.455+02:00,5777.057766875,0.7030181884765625,0.93878173828125,-0.16180419921875,5777.047815875,-0.7400699435617866,0.7848146968535342,-0.2490823626230742,4.000022888183594,0.930662214756012,-2.605018138885498,-0.05899983644485474,0.7008267641067505,0.5056002140045166,XArbitraryZVertical,0.03021911213713234,0.3952777894684415,-0.3758593973887043,0.8375990384806056,0.6848848462104797,0.2465147376060486,-0.6856845617294312,0,0,0,-1,-1,5773.108428,unknown,2,2022-06-30T10:05:40.505+02:00,2022-06-30T08:20:05.567+02:00,1540,1.501556,0,0,1217.191,0,0,2022-06-30T10:05:15.030+02:00
2022-06-30T10:05:44.465+02:00,5777.067718875001,0.73846435546875,0.9191436767578125,-0.139617919921875,5777.057766875,-0.7886891285673615,0.7818569612120082,-0.2389122965057184,4.162113189697266,0.8265898823738098,-2.662344932556152,-0.0599968433380127,0.7082388401031494,0.4903233647346497,XArbitraryZVertical,0.04363132686186992,0.3916260440362619,-0.3946106750980755,0.8300650260115143,0.68458491563797,0.2366459518671036,-0.6894506812095642,0,0,0,-1,-1,5773.108428,unknown,2,2022-06-30T10:05:40.505+02:00,2022-06-30T08:20:05.567+02:00,1540,1.501556,0,0,1217.191,0,0,2022-06-30T10:05:15.030+02:00
2022-06-30T10:05:44.475+02:00,5777.077669875001,0.7304229736328125,0.855712890625,-0.1463775634765625,5777.067718875001,-0.8386816650615154,0.7779017635032246,-0.2279960537627473,4.226913928985596,0.7288030385971069,-2.759923458099365,0.01939332485198975,0.7127554416656494,0.5321476459503174,XArbitraryZVertical,0.05726423819980906,0.3869687758912672,-0.4137004625824446,0.8220875206382254,0.6836248636245728,0.2260258942842484,-0.6939519643783569,0,0,0,-1,-1,5773.108428,unknown,2,2022-06-30T10:05:40.505+02:00,2022-06-30T08:20:05.567+02:00,1540,1.501556,0,0,1217.191,0,0,2022-06-30T10:05:15.030+02:00
2022-06-30T10:05:44.485+02:00,5777.087621875,0.75299072265625,0.785919189453125,-0.1771392822265625,5777.077669875001,-0.888408803292667,0.7740197047006143,-0.2185685501347622,3.906229019165039,0.7134959697723389,-2.860512018203735,0.05607938766479492,0.7023108005523682,0.5584754347801208,XArbitraryZVertical,0.07002656777494899,0.3821643423280654,-0.4327520709659137,0.8134938859610162,0.6823849678039551,0.2168324589729309,-0.6980934143066406,0,0,0,-1,-1,5773.108428,unknown,2,2022-06-30T10:05:40.505+02:00,2022-06-30T08:20:05.567+02:00,1540,1.501556,0,0,1217.191,0,0,2022-06-30T10:05:15.030+02:00
2022-06-30T10:05:44.495+02:00,5777.097572875,0.764617919921875,0.7701568603515625,-0.1995391845703125,5777.087621875,-0.9356346746139527,0.7711296140298938,-0.2120525744092367,3.502830266952515,0.7367862462997437,-2.8628990650177,0.04908829927444458,0.6452455520629883,0.5546835064888,XArbitraryZVertical,0.08111539434366997,0.3780076521244551,-0.4510113083455464,0.8044373821890934,0.681334912776947,0.2104669362306595,-0.7010610103607178,0,0,0,-1,-1,5773.108428,unknown,2,2022-06-30T10:05:40.505+02:00,2022-06-30T08:20:05.567+02:00,1540,1.501556,0,0,1217.191,0,0,2022-06-30T10:05:15.030+02:00
2022-06-30T10:05:44.505+02:00,5777.107523875,0.786834716796875,0.7421417236328125,-0.2223663330078125,5777.097572875,-0.9800252547517279,0.7694274878483168,-0.2083013782899885,3.106401205062866,0.7945321202278137,-2.886790752410889,0.07230573892593384,0.5791204571723938,0.5256425738334656,XArbitraryZVertical,0.09064601625547428,0.3746897265068111,-0.4682976742681899,0.7950396806213668,0.6806850433349609,0.2067983001470566,-0.7027817964553833,0,0,0,-1,-1,5773.108428,unknown,2,2022-06-30T10:05:40.505+02:00,2022-06-30T08:20:05.567+02:00,1540,1.501556,0,0,1217.191,0,0,2022-06-30T10:05:15.030+02:00
2022-06-30T10:05:44.515+02:00,5777.117475875,0.8147735595703125,0.7412872314453125,-0.26336669921875,5777.107523875,-1.022254419943753,0.7688918803559742,-0.2071714235320156,2.874222993850708,0.8547118306159973,-2.921893119812012,0.08414739370346069,0.5644637942314148,0.5037745833396912,XArbitraryZVertical,0.09887183887270985,0.3722465113794322,-0.4848480895697113,0.785225536286932,0.6804705858230591,0.2056926339864731,-0.7033137679100037,0,0,0,-1,-1,5773.108428,unknown,2,2022-06-30T10:05:40.505+02:00,2022-06-30T08:20:05.567+02:00,1540,1.501556,0,0,1217.191,0,0,2022-06-30T10:05:15.030+02:00
2022-06-30T10:05:44.525+02:00,5777.127426875,0.8071136474609375,0.797454833984375,-0.2986297607421875,5777.117475875,-1.063523456972876,0.7690602633901548,-0.2071907929688701,2.753830194473267,0.8868769407272339,-2.909682273864746,0.1062485575675964,0.5364297032356262,0.4808300137519836,XArbitraryZVertical,0.1065656326808171,0.3701966809586716,-0.5009401356145545,0.775020789438622,0.6805862784385681,0.2057115882635117,-0.7031963467597961,0,0,0,-1,-1,5773.108428,unknown,2,2022-06-30T10:05:40.505+02:00,2022-06-30T08:20:05.567+02:00,1540,1.501556,0,0,1217.191,0,0,2022-06-30T10:05:15.030+02:00
2022-06-30T10:05:44.535+02:00,5777.137377875,0.813232421875,0.847259521484375,-0.3417205810546875,5777.127426875,-1.104030375290961,0.7697384856755675,-0.2076173404531652,2.740631103515625,0.9330154657363892,-2.874922752380371,0.1337718367576599,0.5351577997207642,0.4393048286437988,XArbitraryZVertical,0.1140444496508116,0.3683179375355149,-0.5165515608460882,0.7645326709991204,0.6810018420219421,0.2061289995908737,-0.7026715278625488,0,0,0,-1,-1,5773.108428,unknown,2,2022-06-30T10:05:40.505+02:00,2022-06-30T08:20:05.567+02:00,1540,1.501556,0,0,1217.191,0,0,2022-06-30T10:05:15.030+02:00
2022-06-30T10:05:44.545+02:00,5777.147329875001,0.8445587158203125,0.86773681640625,-0.357269287109375,5777.137377875,-1.144482550773413,0.770736525334658,-0.2074522540625008,2.828360080718994,0.9458561539649963,-2.813064813613892,0.1253872513771057,0.5914869904518127,0.4033861756324768,XArbitraryZVertical,0.1218013427802284,0.3662737631953331,-0.531826013297187,0.753769928249244,0.6817265152931213,0.2059674561023712,-0.7020159363746643,0,0,0,-1,-1,5773.108428,unknown,2,2022-06-30T10:05:40.505+02:00,2022-06-30T08:20:05.567+02:00,1540,1.501556,0,0,1217.191,0,0,2022-06-30T10:05:15.030+02:00
2022-06-30T10:05:44.555+02:00,5777.157280875001,0.873504638671875,0.8282928466796875,-0.3256072998046875,5777.147329875001,-1.185148344879243,0.7717297808959543,-0.2062018951834537,2.924250841140747,0.9352536797523499,-2.748321294784546,0.1306300163269043,0.6425153613090515,0.3598018884658813,XArbitraryZVertical,0.1299861825762048,0.3637888885664026,-0.5468163691814178,0.7428008627156393,0.6826025247573853,0.2047437429428101,-0.7015224695205688,0,0,0,-1,-1,5773.108428,unknown,2,2022-06-30T10:05:40.505+02:00,2022-06-30T08:20:05.567+02:00,1540,1.501556,0,0,1217.191,0,0,2022-06-30T10:05:15.030+02:00
2022-06-30T10:05:44.565+02:00,5777.167232875,0.89190673828125,0.7740020751953125,-0.2817840576171875,5777.157280875001,-1.226170710792744,0.7726699026909699,-0.2036697756241654,3.073081254959106,0.93375563621521,-2.674981832504272,0.1609374284744263,0.6654717922210693,0.3439801335334778,XArbitraryZVertical,0.138666401169706,0.3607588199084188,-0.5615522525554471,0.7316308954076792,0.6836214661598206,0.2022646069526672,-0.7012494206428528,0,0,0,-1,-1,5773.108428,unknown,2,2022-06-30T10:05:40.505+02:00,2022-06-30T08:20:05.567+02:00,1540,1.501556,0,0,1217.191,0,0,2022-06-30T10:05:15.030+02:00
2022-06-30T10:05:44.575+02:00,5777.177183875,0.898712158203125,0.69549560546875,-0.2442626953125,5777.167232875,-1.267498186789436,0.7735485403026832,-0.1996149298894059,3.170102119445801,0.9085692763328552,-2.585220336914062,0.1887000799179077,0.6300005316734314,0.3756222724914551,XArbitraryZVertical,0.147895081829512,0.3570886314539428,-0.5759840781416511,0.7203174305745738,0.6848047375679016,0.1982919275760651,-0.7012295126914978,0,0,0,-1,-1,5773.108428,unknown,2,2022-06-30T10:05:40.505+02:00,2022-06-30T08:20:05.567+02:00,1540,1.501556,0,0,1217.191,0,0,2022-06-30T10:05:15.030+02:00
2022-06-30T10:05:44.585+02:00,5777.187134875,0.9146270751953125,0.6300506591796875,-0.2238006591796875,5777.177183875,-1.308268189872457,0.7745126764599158,-0.1948117984523503,3.107791900634766,0.8996844291687012,-2.482193231582642,0.2057682275772095,0.5804197788238525,0.4194576144218445,XArbitraryZVertical,0.1572382273537035,0.3530656314958243,-0.5898891749991109,0.7089792828288837,0.6861386895179749,0.1935818940401077,-0.7012416124343872,0,0,0,-1,-1,5773.108428,unknown,2,2022-06-30T10:05:40.505+02:00,2022-06-30T08:20:05.567+02:00,1540,1.501556,0,0,1217.191,0,0,2022-06-30T10:05:15.030+02:00
