loggingTime(txt),accelerometerTimestamp_sinceReboot(s),accelerometerAccelerationX(G),accelerometerAccelerationY(G),accelerometerAccelerationZ(G),motionTimestamp_sinceReboot(s),motionYaw(rad),motionRoll(rad),motionPitch(rad),motionRotationRateX(rad/s),motionRotationRateY(rad/s),motionRotationRateZ(rad/s),motionUserAccelerationX(G),motionUserAccelerationY(G),motionUserAccelerationZ(G),motionAttitudeReferenceFrame(txt),motionQuaternionX(R),motionQuaternionY(R),motionQuaternionZ(R),motionQuaternionW(R),motionGravityX(G),motionGravityY(G),motionGravityZ(G),motionMagneticFieldX(µT),motionMagneticFieldY(µT),motionMagneticFieldZ(µT),motionHeading(°),motionMagneticFieldCalibrationAccuracy(Z),activityTimestamp_sinceReboot(s),activity(txt),activityActivityConfidence(Z),activityActivityStartDate(txt),pedometerStartDate(txt),pedometerNumberofSteps(N),pedometerAverageActivePace(s/m),pedometerCurrentPace(s/m),pedometerCurrentCadence(steps/s),pedometerDistance(m),pedometerFloorAscended(N),pedometerFloorDescended(N),pedometerEndDate(txt)
2022-06-30T10:05:52.776+02:00,5785.367167375,-0.034332275390625,-0.1960601806640625,-0.9532623291015625,5785.357216375,0.3366174256840122,-0.06805198506279996,0.1916556303129209,0.111680343747139,0.05518177896738052,-0.007372014224529266,-0.1732820272445679,0.1424039155244827,-0.02491545677185059,XArbitraryZVertical,0.09994721361372218,-0.01736606054956898,0.1634410950406427,0.9813236416717842,-0.06675441563129425,-0.1904844641685486,-0.9794179201126099,0,0,0,-1,-1,5783.297119791667,unknown,2,2022-06-30T10:05:50.694+02:00,2022-06-30T08:20:05.567+02:00,1540,1.501556,0,0,1217.191,0,0,2022-06-30T10:05:15.030+02:00
2022-06-30T10:05:52.778+02:00,5785.377118375,-0.103485107421875,-0.2147064208984375,-0.94195556640625,5785.367167375,0.3361358958255561,-0.06741754517993692,0.1923852759906541,-0.02046044915914536,0.1451067626476288,-0.1220492944121361,0.08356401324272156,-0.005637794733047485,-0.04719853401184082,XArbitraryZVertical,0.1002488781620018,-0.01701694181200619,0.163218604646123,0.9813360170371654,-0.06612364202737808,-0.1912007033824921,-0.9793211817741394,0,0,0,-1,-1,5783.297119791667,unknown,2,2022-06-30T10:05:50.694+02:00,2022-06-30T08:20:05.567+02:00,1540,1.501556,0,0,1217.191,0,0,2022-06-30T10:05:15.030+02:00
2022-06-30T10:05:52.784+02:00,5785.387070375001,-0.1245269775390625,-0.208831787109375,-0.948211669921875,5785.377118375,0.3344316221745048,-0.06522174882948453,0.1917364636913373,-0.1237298473715782,0.1834371089935303,-0.1761346459388733,0.02964846789836884,-0.005496472120285034,0.02632534503936768,XArbitraryZVertical,0.09973793001630592,-0.01607950846242623,0.1625078154258167,0.9815218525170517,-0.06398116052150726,-0.190563827753067,-0.9795876145362854,0,0,0,-1,-1,5783.297119791667,unknown,2,2022-06-30T10:05:50.694+02:00,2022-06-30T08:20:05.567+02:00,1540,1.501556,0,0,1217.191,0,0,2022-06-30T10:05:15.030+02:00
2022-06-30T10:05:52.795+02:00,5785.397021375001,-0.12451171875,-0.1621856689453125,-0.9393463134765625,5785.387070375001,0.3327809302542856,-0.06291260324453463,0.1903770031269142,-0.1578939408063889,0.1745089441537857,-0.121455542743206,-0.04175031930208206,-0.02547743916511536,0.03803485631942749,XArbitraryZVertical,0.09887125384587006,-0.01514243880357742,0.1618444240861332,0.9817339784681278,-0.06173521652817726,-0.1892291009426117,-0.9799903631210327,0,0,0,-1,-1,5783.297119791667,unknown,2,2022-06-30T10:05:50.694+02:00,2022-06-30T08:20:05.567+02:00,1540,1.501556,0,0,1217.191,0,0,2022-06-30T10:05:15.030+02:00
2022-06-30T10:05:52.804+02:00,5785.406973375,-0.0910797119140625,-0.1579437255859375,-0.9529266357421875,5785.397021375001,0.3314558208007315,-0.06056287731557206,0.1888686122529139,-0.1458359360694885,0.2127109169960022,-0.1264750808477402,-0.06507785618305206,-0.02108415961265564,0.03220492601394653,XArbitraryZVertical,0.09793192955219313,-0.01418033999378662,0.1613441728039434,0.9819247824137435,-0.05944954603910446,-0.1877477467060089,-0.9804165363311768,0,0,0,-1,-1,5783.297119791667,unknown,2,2022-06-30T10:05:50.694+02:00,2022-06-30T08:20:05.567+02:00,1540,1.501556,0,0,1217.191,0,0,2022-06-30T10:05:15.030+02:00
2022-06-30T10:05:52.814+02:00,5785.416924375,-0.090179443359375,-0.1720123291015625,-0.96099853515625,5785.406973375,0.3298773523724469,-0.0581221856507282,0.1877485206732475,-0.0952729731798172,0.1970736682415009,-0.166161984205246,-0.06744349002838135,0.02446165680885315,0.04142177104949951,XArbitraryZVertical,0.09717516607226928,-0.01315219247583945,0.160713148747077,0.9821177785386687,-0.05706865713000298,-0.1866474598646164,-0.9807680249214172,0,0,0,-1,-1,5783.297119791667,unknown,2,2022-06-30T10:05:50.694+02:00,2022-06-30T08:20:05.567+02:00,1540,1.501556,0,0,1217.191,0,0,2022-06-30T10:05:15.030+02:00
2022-06-30T10:05:52.824+02:00,5785.426875375,-0.10516357421875,-0.1935882568359375,-0.958648681640625,5785.416924375,0.3280087771154935,-0.05593286653739882,0.1870022975959141,-0.0812612846493721,0.1931641399860382,-0.1938817650079727,-0.03615105897188187,0.02797044813632965,0.0281028151512146,XArbitraryZVertical,0.09662166620925169,-0.01222931046943663,0.1599177049550137,0.9823141555105249,-0.05492908135056496,-0.1859142929315567,-0.9810293912887573,0,0,0,-1,-1,5783.297119791667,unknown,2,2022-06-30T10:05:50.694+02:00,2022-06-30T08:20:05.567+02:00,1540,1.501556,0,0,1217.191,0,0,2022-06-30T10:05:15.030+02:00
2022-06-30T10:05:52.834+02:00,5785.436827375001,-0.1019134521484375,-0.22540283203125,-0.9737701416015625,5785.426875375,0.3258893064693458,-0.05366893881284465,0.1859249049470627,-0.1516359746456146,0.2172183990478516,-0.2186915874481201,-0.03746119141578674,0.01284311711788177,0.02035218477249146,XArbitraryZVertical,0.09589990975942571,-0.01130785970122133,0.159008219220347,0.9825434823773502,-0.05271867662668228,-0.184855580329895,-0.9813506603240967,0,0,0,-1,-1,5783.297119791667,unknown,2,2022-06-30T10:05:50.694+02:00,2022-06-30T08:20:05.567+02:00,1540,1.501556,0,0,1217.191,0,0,2022-06-30T10:05:15.030+02:00
2022-06-30T10:05:52.844+02:00,5785.446778375001,-0.10943603515625,-0.277435302734375,-0.9830474853515625,5785.436827375001,0.3233934735884852,-0.05136156592507494,0.1836894783366851,-0.2704965770244598,0.2382698804140091,-0.2812622785568237,-0.0546887144446373,-0.01093018054962158,0.02323132753372192,XArbitraryZVertical,0.09460599191557197,-0.01047547417007944,0.1579372863217237,0.982850815508082,-0.05047528445720673,-0.1826582103967667,-0.9818799495697021,0,0,0,-1,-1,5783.297119791667,unknown,2,2022-06-30T10:05:50.694+02:00,2022-06-30T08:20:05.567+02:00,1540,1.501556,0,0,1217.191,0,0,2022-06-30T10:05:15.030+02:00
2022-06-30T10:05:52.854+02:00,5785.456730375,0.00701904296875,-0.330963134765625,-0.9898223876953125,5785.446778375001,0.319514738010868,-0.0479166385466986,0.1802968246051718,-0.4482351541519165,0.2784432470798492,-0.4213347136974335,-0.05479197949171066,-0.04608137905597687,0.00889122486114502,XArbitraryZVertical,0.09264986272878868,-0.009237768916376194,0.1562580271214204,0.9833179471384599,-0.04712189733982086,-0.1793216019868851,-0.9826613068580627,0,0,0,-1,-1,5783.297119791667,unknown,2,2022-06-30T10:05:50.694+02:00,2022-06-30T08:20:05.567+02:00,1540,1.501556,0,0,1217.191,0,0,2022-06-30T10:05:15.030+02:00
2022-06-30T10:05:52.864+02:00,5785.466681375,-0.0581512451171875,-0.197784423828125,-0.947784423828125,5785.456730375,0.3154598792863754,-0.04443511423870209,0.1757567665922499,-0.5154021978378296,0.2712268829345703,-0.3140101134777069,-0.06570028513669968,-0.1025821417570114,0.0005751848220825195,XArbitraryZVertical,0.09013055172437962,-0.008072802794987845,0.1545064172390372,0.9838389541335497,-0.04373617470264435,-0.1748532950878143,-0.9836226105690002,0,0,0,-1,-1,5783.297119791667,unknown,2,2022-06-30T10:05:50.694+02:00,2022-06-30T08:20:05.567+02:00,1540,1.501556,0,0,1217.191,0,0,2022-06-30T10:05:15.030+02:00
2022-06-30T10:05:52.874+02:00,5785.476632375,-0.0812530517578125,-0.152801513671875,-0.9645843505859375,5785.466681375,0.312299291924477,-0.04101703114021547,0.1700472255579093,-0.6447257399559021,0.3144719004631042,-0.3096382021903992,0.04743272066116333,-0.1617343723773956,-0.005074501037597656,XArbitraryZVertical,0.08704801409328393,-0.006980583301172077,0.1532011895709233,0.9843289521598734,-0.04041409865021706,-0.1692288964986801,-0.9847478270530701,0,0,0,-1,-1,5783.297119791667,unknown,2,2022-06-30T10:05:50.694+02:00,2022-06-30T08:20:05.567+02:00,1540,1.501556,0,0,1217.191,0,0,2022-06-30T10:05:15.030+02:00
2022-06-30T10:05:52.884+02:00,5785.486584375,-0.0099029541015625,-0.1238861083984375,-0.97967529296875,5785.476632375,0.3082279870758454,-0.0371118998926352,0.1640280028945649,-0.5724341869354248,0.3187521398067474,-0.4229165613651276,-0.02154630422592163,-0.03449109196662903,0.03811383247375488,XArbitraryZVertical,0.08377589314714043,-0.005700085707432826,0.1514603043349491,0.9848903126966612,-0.0366053618490696,-0.1632934510707855,-0.9858981966972351,0,0,0,-1,-1,5783.297119791667,unknown,2,2022-06-30T10:05:50.694+02:00,2022-06-30T08:20:05.567+02:00,1540,1.501556,0,0,1217.191,0,0,2022-06-30T10:05:15.030+02:00
2022-06-30T10:05:52.894+02:00,5785.496535375,-0.0075531005859375,-0.107330322265625,-0.9847259521484375,5785.486584375,0.3040956368770145,-0.03350751300478931,0.1591813143340674,-0.4287007451057434,0.2790781855583191,-0.357919842004776,-0.04817577078938484,0.005708277225494385,0.02221888303756714,XArbitraryZVertical,0.08110777114994525,-0.004466673318665096,0.149645365909373,0.9853973062472126,-0.03307769820094109,-0.1585099250078201,-0.9868031740188599,0,0,0,-1,-1,5783.297119791667,unknown,2,2022-06-30T10:05:50.694+02:00,2022-06-30T08:20:05.567+02:00,1540,1.501556,0,0,1217.191,0,0,2022-06-30T10:05:15.030+02:00
2022-06-30T10:05:52.904+02:00,5785.506487375001,0.0056610107421875,-0.101104736328125,-0.9808349609375,5785.496535375,0.3003340474910028,-0.03021236446693307,0.155790437940475,-0.2776688635349274,0.2648257613182068,-0.3799777328968048,0.01993855461478233,0.03127478063106537,0.007763147354125977,XArbitraryZVertical,0.07918495137768655,-0.003250050037971863,0.1479703887051243,0.9858112709562811,-0.02984192781150341,-0.1551610082387924,-0.9874383807182312,0,0,0,-1,-1,5783.297119791667,unknown,2,2022-06-30T10:05:50.694+02:00,2022-06-30T08:20:05.567+02:00,1540,1.501556,0,0,1217.191,0,0,2022-06-30T10:05:15.030+02:00
2022-06-30T10:05:52.914+02:00,5785.516438375001,0.019561767578125,-0.11474609375,-0.9794921875,5785.506487375001,0.2962399363078431,-0.02714059882222205,0.153802833556515,-0.1504193842411041,0.2301582992076874,-0.4123965203762054,0.01926340907812119,0.04586672782897949,0.003105819225311279,XArbitraryZVertical,0.07797413779627166,-0.00204482663901761,0.1460981386778306,0.9861902277618299,-0.02681692875921726,-0.153197169303894,-0.987831711769104,0,0,0,-1,-1,5783.297119791667,unknown,2,2022-06-30T10:05:50.694+02:00,2022-06-30T08:20:05.567+02:00,1540,1.501556,0,0,1217.191,0,0,2022-06-30T10:05:15.030+02:00
2022-06-30T10:05:52.924+02:00,5785.526389375001,0.019989013671875,-0.1431427001953125,-0.97222900390625,5785.516438375001,0.2921981795017367,-0.02433773023529607,0.1528549717269795,-0.06979803740978241,0.2175932377576828,-0.385680228471756,0.02971217781305313,0.05115556716918945,0.00721275806427002,XArbitraryZVertical,0.07730040923856116,-0.0008891295171387343,0.1442249697605677,0.9865206662163513,-0.02405158802866936,-0.1522604376077652,-0.98804771900177,0,0,0,-1,-1,5783.297119791667,unknown,2,2022-06-30T10:05:50.694+02:00,2022-06-30T08:20:05.567+02:00,1540,1.501556,0,0,1217.191,0,0,2022-06-30T10:05:15.030+02:00
2022-06-30T10:05:52.934+02:00,5785.536341375,0.02960205078125,-0.1737060546875,-0.9704742431640625,5785.526389375001,0.2883395077582723,-0.02162981223245884,0.1522643757865136,-0.07407933473587036,0.2095189094543457,-0.3837985396385193,0.04093924164772034,0.03693045675754547,0.008706808090209961,XArbitraryZVertical,0.07681444906273519,0.0002552763520667601,0.142432285245885,0.9868194030861482,-0.02137789130210876,-0.1516766995191574,-0.9881989359855652,0,0,0,-1,-1,5783.297119791667,unknown,2,2022-06-30T10:05:50.694+02:00,2022-06-30T08:20:05.567+02:00,1540,1.501556,0,0,1217.191,0,0,2022-06-30T10:05:15.030+02:00
2022-06-30T10:05:52.944+02:00,5785.546292375,0.0365447998046875,-0.1780548095703125,-0.97344970703125,5785.536341375,0.2844300393350476,-0.01898085103908079,0.1513266008372827,-0.1324907243251801,0.2096360772848129,-0.3895139694213867,0.03875140473246574,0.007606863975524902,0.01616489887237549,XArbitraryZVertical,0.07616588944725851,0.001345914440830403,0.1406140887588309,0.9871295218823671,-0.01876281015574932,-0.1507496982812881,-0.9883939027786255,0,0,0,-1,-1,5783.297119791667,unknown,2,2022-06-30T10:05:50.694+02:00,2022-06-30T08:20:05.567+02:00,1540,1.501556,0,0,1217.191,0,0,2022-06-30T10:05:15.030+02:00
2022-06-30T10:05:52.954+02:00,5785.556243375,0.0410308837890625,-0.1619873046875,-0.9834442138671875,5785.546292375,0.2805226925284032,-0.01626813514823582,0.1496850449079822,-0.2119122445583344,0.2198576927185059,-0.3830431699752808,0.04568715021014214,-0.0245794951915741,0.01821303367614746,XArbitraryZVertical,0.07516987792454138,0.002421463858446891,0.1388036983666424,0.9874599666905407,-0.01608551666140556,-0.1491267085075378,-0.98868727684021,0,0,0,-1,-1,5783.297119791667,unknown,2,2022-06-30T10:05:50.694+02:00,2022-06-30T08:20:05.567+02:00,1540,1.501556,0,0,1217.191,0,0,2022-06-30T10:05:15.030+02:00
2022-06-30T10:05:52.964+02:00,5785.566195375,0.041259765625,-0.13714599609375,-0.984893798828125,5785.556243375,0.276679201289399,-0.01356102056077486,0.1473236226023356,-0.2629098892211914,0.2131691724061966,-0.3747205436229706,0.04995809122920036,-0.03126367926597595,0.01562684774398804,XArbitraryZVertical,0.07382291704848688,0.003450988338818676,0.1370274150415467,0.9878065082266956,-0.01341370958834887,-0.1467912793159485,-0.989076554775238,0,0,0,-1,-1,5783.297119791667,unknown,2,2022-06-30T10:05:50.694+02:00,2022-06-30T08:20:05.567+02:00,1540,1.501556,0,0,1217.191,0,0,2022-06-30T10:05:15.030+02:00
2022-06-30T10:05:52.988+02:00,5785.576146375,0.038482666015625,-0.1070556640625,-0.987701416015625,5785.566195375,0.2728984521658351,-0.01094485398095519,0.1447524019435592,-0.2552129030227661,0.2053099572658539,-0.3675397932529449,0.05186063796281815,-0.01774002611637115,0.006038188934326172,XArbitraryZVertical,0.07238225991858864,0.004428976814462294,0.1352760019719623,0.9881506680862051,-0.01083017233759165,-0.1442474275827408,-0.9894824028015137,0,0,0,-1,-1,5783.297119791667,unknown,2,2022-06-30T10:05:50.694+02:00,2022-06-30T08:20:05.567+02:00,1540,1.501556,0,0,1217.191,0,0,2022-06-30T10:05:15.030+02:00
2022-06-30T10:05:52.990+02:00,5785.586098375001,0.036346435546875,-0.0860443115234375,-0.9819793701171875,5785.576146375,0.2692371636354285,-0.008411460092281869,0.142396836641551,-0.218161404132843,0.1961947530508041,-0.3557489216327667,0.04958557337522507,0.004769951105117798,0.00494992733001709,XArbitraryZVertical,0.07105707021361896,0.005390444092818435,0.1335746589870435,0.9884733753025375,-0.008326226845383644,-0.1419160962104797,-0.9898436665534973,0,0,0,-1,-1,5783.297119791667,unknown,2,2022-06-30T10:05:50.694+02:00,2022-06-30T08:20:05.567+02:00,1540,1.501556,0,0,1217.191,0,0,2022-06-30T10:05:15.030+02:00
2022-06-30T10:05:52.994+02:00,5785.596049375001,0.03741455078125,-0.0772857666015625,-0.983978271484375,5785.586098375001,0.2657315001055816,-0.006007597046478536,0.1404430100073192,-0.1786667257547379,0.1921143233776093,-0.3363095819950104,0.04443066194653511,0.03292597830295563,0.002434849739074707,XArbitraryZVertical,0.06994204375899432,0.006324940035905871,0.1319391970101508,0.9887669424562993,-0.005948410835117102,-0.1399817764759064,-0.9901362061500549,0,0,0,-1,-1,5783.297119791667,unknown,2,2022-06-30T10:05:50.694+02:00,2022-06-30T08:20:05.567+02:00,1540,1.501556,0,0,1217.191,0,0,2022-06-30T10:05:15.030+02:00
2022-06-30T10:05:53.004+02:00,5785.606000375001,0.0378570556640625,-0.0787200927734375,-0.9919281005859375,5785.596049375001,0.2624672262406995,-0.003662111554303486,0.1388233140452368,-0.1486936509609222,0.1923670619726181,-0.3131294250488281,0.03997289389371872,0.05233338475227356,0.008393526077270508,XArbitraryZVertical,0.06899846313364286,0.007264769603048692,0.1304160035945072,0.9890289900481706,-0.003626872086897492,-0.138377845287323,-0.990372896194458,0,0,0,-1,-1,5783.297119791667,unknown,2,2022-06-30T10:05:50.694+02:00,2022-06-30T08:20:05.567+02:00,1540,1.501556,0,0,1217.191,0,0,2022-06-30T10:05:15.030+02:00
2022-06-30T10:05:53.014+02:00,5785.615952375,0.03594970703125,-0.0820770263671875,-0.996124267578125,5785.606000375001,0.2594463304030686,-0.001359200585013418,0.1374543354567687,-0.128669410943985,0.1950772255659103,-0.2909280955791473,0.03876051306724548,0.0597359836101532,0.006588876247406006,XArbitraryZVertical,0.06818375584847684,0.008211222775487973,0.1290079394431323,0.9892626178136816,-0.001346380217000842,-0.1370219141244888,-0.9905670881271362,0,0,0,-1,-1,5783.297119791667,unknown,2,2022-06-30T10:05:50.694+02:00,2022-06-30T08:20:05.567+02:00,1540,1.501556,0,0,1217.191,0,0,2022-06-30T10:05:15.030+02:00
2022-06-30T10:05:53.023+02:00,5785.625903375,0.037017822265625,-0.085662841796875,-0.9921722412109375,5785.615952375,0.2565960696519018,0.0009449170502212543,0.1362909576596222,-0.102324090898037,0.1962743103504181,-0.2736819982528687,0.03692048788070679,0.05714915692806244,-0.001201748847961426,XArbitraryZVertical,0.067472785203699,0.009179706165822912,0.1276812825098186,0.9894749153125544,0.0009361544507555664,-0.1358694136142731,-0.9907262921333313,0,0,0,-1,-1,5783.297119791667,unknown,2,2022-06-30T10:05:50.694+02:00,2022-06-30T08:20:05.567+02:00,1540,1.501556,0,0,1217.191,0,0,2022-06-30T10:05:15.030+02:00
2022-06-30T10:05:53.033+02:00,5785.635855375001,0.036407470703125,-0.1043701171875,-0.9927978515625,5785.625903375,0.2539479415244058,0.003226913719099198,0.1353515831253813,-0.08741697669029236,0.1963937878608704,-0.2564347386360168,0.0327518954873085,0.05286151170730591,-0.005275428295135498,XArbitraryZVertical,0.06687580964068206,0.01016024520469526,0.1264512470914165,0.98966379791266,0.003197394544258714,-0.1349386870861053,-0.9908487796783447,0,0,0,-1,-1,5783.297119791667,unknown,2,2022-06-30T10:05:50.694+02:00,2022-06-30T08:20:05.567+02:00,1540,1.501556,0,0,1217.191,0,0,2022-06-30T10:05:15.030+02:00
2022-06-30T10:05:53.044+02:00,5785.645806375001,0.037628173828125,-0.118927001953125,-0.988861083984375,5785.635855375001,0.251402659563672,0.00551798056569734,0.1344529306460399,-0.09423813223838806,0.1966417282819748,-0.2528288066387177,0.03154925629496574,0.04838520288467407,-0.001212477684020996,XArbitraryZVertical,0.06630044942106594,0.01115287435323051,0.1252707591160624,0.9898420162748678,0.005468151997774839,-0.134048193693161,-0.9909597039222717,0,0,0,-1,-1,5783.297119791667,unknown,2,2022-06-30T10:05:50.694+02:00,2022-06-30T08:20:05.567+02:00,1540,1.501556,0,0,1217.191,0,0,2022-06-30T10:05:15.030+02:00
2022-06-30T10:05:53.053+02:00,5785.655757375001,0.031890869140625,-0.1259918212890625,-0.98992919921875,5785.645806375001,0.248903446611634,0.007870702137943428,0.1333039483725231,-0.1345006674528122,0.2106986939907074,-0.2499994337558746,0.02860626392066479,0.02853922545909882,-0.001700341701507568,XArbitraryZVertical,0.06559959343770837,0.01216360057070394,0.1241142021573016,0.9900225020448187,0.007800794206559658,-0.1329094916582108,-0.9910975098609924,0,0,0,-1,-1,5783.297119791667,unknown,2,2022-06-30T10:05:50.694+02:00,2022-06-30T08:20:05.567+02:00,1540,1.501556,0,0,1217.191,0,0,2022-06-30T10:05:15.030+02:00
2022-06-30T10:05:53.063+02:00,5785.665709375,0.0212860107421875,-0.1280364990234375,-0.9901123046875,5785.655757375001,0.2464377079573379,0.01033796789050118,0.1316226821161004,-0.1974772363901138,0.2245511263608932,-0.2467844635248184,0.02737939544022083,0.01231579482555389,0.002436220645904541,XArbitraryZVertical,0.0646304298648506,0.0132014115446812,0.1229769260605898,0.9902148511213363,0.01024836394935846,-0.131242960691452,-0.9912972450256348,0,0,0,-1,-1,5783.297119791667,unknown,2,2022-06-30T10:05:50.694+02:00,2022-06-30T08:20:05.567+02:00,1540,1.501556,0,0,1217.191,0,0,2022-06-30T10:05:15.030+02:00
2022-06-30T10:05:53.073+02:00,5785.675660375,0.020538330078125,-0.1173858642578125,-0.99713134765625,5785.665709375,0.2439785466911429,0.01289837675177257,0.1293958418117011,-0.2408211082220078,0.2259197235107422,-0.2497032135725021,0.01910026371479034,0.003043085336685181,0.001628398895263672,XArbitraryZVertical,0.06338785392369253,0.0142550583455702,0.1218436644213696,0.9904206712896246,0.01279019191861153,-0.1290350556373596,-0.9915575385093689,0,0,0,-1,-1,5783.297119791667,unknown,2,2022-06-30T10:05:50.694+02:00,2022-06-30T08:20:05.567+02:00,1540,1.501556,0,0,1217.191,0,0,2022-06-30T10:05:15.030+02:00
2022-06-30T10:05:53.083+02:00,5785.685611375,0.01300048828125,-0.0948638916015625,-0.997406005859375,5785.675660375,0.2415478199854376,0.01543363861194584,0.1269424182063489,-0.239324688911438,0.2259668558835983,-0.242073267698288,0.005976751446723938,-0.001434877514839172,0.001723229885101318,XArbitraryZVertical,0.0620368437432304,0.01528678715296966,0.1207202224389269,0.9906283402013093,0.01530884578824043,-0.1266017556190491,-0.9918354749679565,0,0,0,-1,-1,5783.297119791667,unknown,2,2022-06-30T10:05:50.694+02:00,2022-06-30T08:20:05.567+02:00,1540,1.501556,0,0,1217.191,0,0,2022-06-30T10:05:15.030+02:00
2022-06-30T10:05:53.093+02:00,5785.695563375,0.003692626953125,-0.0939788818359375,-0.9982147216796875,5785.685611375,0.2392047068994602,0.01801161056284264,0.1246475379379171,-0.2120323479175568,0.2355291992425919,-0.2357135117053986,0.00266701728105545,0.006938986480236053,-0.005050718784332275,XArbitraryZVertical,0.06076352818142271,0.01635518361052955,0.1196378197400666,0.9908214697129117,0.01787090115249157,-0.1243250146508217,-0.9920806288719177,0,0,0,-1,-1,5783.297119791667,unknown,2,2022-06-30T10:05:50.694+02:00,2022-06-30T08:20:05.567+02:00,1540,1.501556,0,0,1217.191,0,0,2022-06-30T10:05:15.030+02:00
2022-06-30T10:05:53.103+02:00,5785.705514375,-0.0055389404296875,-0.11309814453125,-1.001800537109375,5785.695563375,0.2368581644683763,0.02064649104521059,0.1226948976498656,-0.168305903673172,0.2378573417663574,-0.2394344806671143,-0.007489750161767006,0.02752324193716049,-0.005135059356689453,XArbitraryZVertical,0.05965889149027668,0.01747489011981737,0.1185523563735577,0.990999876556548,0.02048982307314873,-0.1223872900009155,-0.9922708868980408,0,0,0,-1,-1,5783.297119791667,unknown,2,2022-06-30T10:05:50.694+02:00,2022-06-30T08:20:05.567+02:00,1540,1.501556,0,0,1217.191,0,0,2022-06-30T10:05:15.030+02:00
2022-06-30T10:05:53.113+02:00,5785.715466375001,-0.01318359375,-0.122589111328125,-1.005508422851562,5785.705514375,0.2345029503512596,0.0233213703043278,0.1211558540519732,-0.131661593914032,0.2466124594211578,-0.2355610430240631,-0.01945610158145428,0.02688062191009521,-0.005815029144287109,XArbitraryZVertical,0.05875954531854538,0.01864088874998038,0.1174615600444623,0.9911623088001159,0.0231483168900013,-0.1208596676588058,-0.9923996925354004,0,0,0,-1,-1,5783.297119791667,unknown,2,2022-06-30T10:05:50.694+02:00,2022-06-30T08:20:05.567+02:00,1540,1.501556,0,0,1217.191,0,0,2022-06-30T10:05:15.030+02:00
2022-06-30T10:05:53.123+02:00,5785.725417375001,-0.0113525390625,-0.122283935546875,-1.000946044921875,5785.715466375001,0.2322252870431241,0.02606354532054727,0.1198651961771719,-0.1134272068738937,0.2524661123752594,-0.2258277088403702,-0.03141295537352562,0.006480075418949127,-0.009312927722930908,XArbitraryZVertical,0.0579813545583568,0.01985897707770886,0.1164093668310728,0.9913085920699605,0.02587360329926014,-0.1195783689618111,-0.9924875497817993,0,0,0,-1,-1,5783.297119791667,unknown,2,2022-06-30T10:05:50.694+02:00,2022-06-30T08:20:05.567+02:00,1540,1.501556,0,0,1217.191,0,0,2022-06-30T10:05:15.030+02:00
2022-06-30T10:05:53.133+02:00,5785.735368375001,-0.005401611328125,-0.129730224609375,-1.008682250976562,5785.725417375001,0.229968369407136,0.02885830473920884,0.1187546248570567,-0.09607245028018951,0.2580264806747437,-0.2307576388120651,-0.04183508083224297,-0.004113584756851196,-0.01296490430831909,XArbitraryZVertical,0.0572919339217212,0.02111581996755797,0.1153674415903732,0.9914444455576072,0.02865107730031013,-0.1184756979346275,-0.9925435185432434,0,0,0,-1,-1,5783.297119791667,unknown,2,2022-06-30T10:05:50.694+02:00,2022-06-30T08:20:05.567+02:00,1540,1.501556,0,0,1217.191,0,0,2022-06-30T10:05:15.030+02:00
2022-06-30T10:05:53.143+02:00,5785.745320375,-0.0062408447265625,-0.15081787109375,-1.011947631835938,5785.735368375001,0.2276484242679137,0.03167073236360479,0.1177763056152884,-0.08625257760286331,0.2577098309993744,-0.2416949719190598,-0.04279901832342148,-0.004779890179634094,-0.008371651172637939,XArbitraryZVertical,0.05667058341355405,0.0223886989638352,0.1142934047334011,0.9915766003147388,0.03144607320427895,-0.117504209280014,-0.9925743937492371,0,0,0,-1,-1,5783.297119791667,unknown,2,2022-06-30T10:05:50.694+02:00,2022-06-30T08:20:05.567+02:00,1540,1.501556,0,0,1217.191,0,0,2022-06-30T10:05:15.030+02:00
2022-06-30T10:05:53.153+02:00,5785.755271375,-0.015716552734375,-0.1908111572265625,-1.017440795898438,5785.745320375,0.2251631343623399,0.03454717561777153,0.1167954865779104,-0.09797621518373489,0.2688812911510468,-0.2603276968002319,-0.0397070087492466,-0.01320026069879532,-0.01608771085739136,XArbitraryZVertical,0.05604923951572208,0.02369004477542976,0.1131373811243562,0.9917143496495856,0.03430498763918877,-0.1165301278233528,-0.9925945401191711,0,0,0,-1,-1,5783.297119791667,unknown,2,2022-06-30T10:05:50.694+02:00,2022-06-30T08:20:05.567+02:00,1540,1.501556,0,0,1217.191,0,0,2022-06-30T10:05:15.030+02:00
2022-06-30T10:05:53.163+02:00,5785.765223375,-0.0288238525390625,-0.2379913330078125,-1.031524658203125,5785.755271375,0.2224491402593106,0.0376516849827853,0.115569936390396,-0.1327288597822189,0.2943762838840485,-0.2902936041355133,-0.04363293573260307,-0.03550519794225693,-0.01932239532470703,XArbitraryZVertical,0.05529981109951047,0.02508634253570306,0.1118709459714869,0.9918657373522861,0.03739168122410774,-0.1153128445148468,-0.9926252365112305,0,0,0,-1,-1,5783.297119791667,unknown,2,2022-06-30T10:05:50.694+02:00,2022-06-30T08:20:05.567+02:00,1540,1.501556,0,0,1217.191,0,0,2022-06-30T10:05:15.030+02:00
2022-06-30T10:05:53.172+02:00,5785.775174375,-0.0424041748046875,-0.282867431640625,-1.04010009765625,5785.765223375,0.2194075914222025,0.04108974066059341,0.11375243793978,-0.209813728928566,0.3329189121723175,-0.3342452645301819,-0.05652965977787971,-0.07730404287576675,-0.02474218606948853,XArbitraryZVertical,0.05424637452826743,0.02660926936218926,0.1104445590013892,0.9920439906884471,0.04081269726157188,-0.1135072782635689,-0.9926985502243042,0,0,0,-1,-1,5783.297119791667,unknown,2,2022-06-30T10:05:50.694+02:00,2022-06-30T08:20:05.567+02:00,1540,1.501556,0,0,1217.191,0,0,2022-06-30T10:05:15.030+02:00
2022-06-30T10:05:53.182+02:00,5785.785125375,-0.0564117431640625,-0.30902099609375,-1.045257568359375,5785.775174375,0.215862504602014,0.04506236197029403,0.1110414666965532,-0.307672917842865,0.3908674418926239,-0.3965272605419159,-0.07359393686056137,-0.1271780878305435,-0.03869229555130005,XArbitraryZVertical,0.05273215169075666,0.0283398717211704,0.1087714642812881,0.9922625119928655,0.04476967826485634,-0.1108134165406227,-0.992832362651825,0,0,0,-1,-1,5783.297119791667,unknown,2,2022-06-30T10:05:50.694+02:00,2022-06-30T08:20:05.567+02:00,1540,1.501556,0,0,1217.191,0,0,2022-06-30T10:05:15.030+02:00
2022-06-30T10:05:53.192+02:00,5785.795077375001,-0.0732421875,-0.335418701171875,-1.0430908203125,5785.785125375,0.2117317819508244,0.04971298374499917,0.1070898144074797,-0.4483070075511932,0.4605245292186737,-0.4679814875125885,-0.09181241691112518,-0.1759823560714722,-0.04705709218978882,XArbitraryZVertical,0.05058074071278422,0.03033290681560656,0.1068069202613278,0.9925291049962526,0.04940783977508545,-0.1068852469325066,-0.9930430054664612,0,0,0,-1,-1,5783.297119791667,unknown,2,2022-06-30T10:05:50.694+02:00,2022-06-30T08:20:05.567+02:00,1540,1.501556,0,0,1217.191,0,0,2022-06-30T10:05:15.030+02:00
2022-06-30T10:05:53.202+02:00,5785.805028375001,-0.0837249755859375,-0.3793182373046875,-1.047760009765625,5785.795077375001,0.2068606553596986,0.05527852860707921,0.101539611890169,-0.6151531934738159,0.5603395700454712,-0.5673573613166809,-0.1113779470324516,-0.2076559513807297,-0.05192786455154419,XArbitraryZVertical,0.04760791018191331,0.03269016443426707,0.1044685601193825,0.9928500199253986,0.0549658015370369,-0.1013652160763741,-0.9933297038078308,0,0,0,-1,-1,5783.297119791667,unknown,2,2022-06-30T10:05:50.694+02:00,2022-06-30T08:20:05.567+02:00,1540,1.501556,0,0,1217.191,0,0,2022-06-30T10:05:15.030+02:00
2022-06-30T10:05:53.212+02:00,5785.814979375001,-0.091888427734375,-0.4365081787109375,-1.052902221679688,5785.805028375001,0.2010377719715776,0.06200952402124664,0.09408459002037023,-0.8191627860069275,0.6835837364196777,-0.6856661438941956,-0.1349383145570755,-0.2414730340242386,-0.04942697286605835,XArbitraryZVertical,0.04365770862364699,0.03552586281428564,0.1016409070495753,0.9932276293663038,0.06169571727514267,-0.09394584596157074,-0.9936638474464417,0,0,0,-1,-1,5783.297119791667,unknown,2,2022-06-30T10:05:50.694+02:00,2022-06-30T08:20:05.567+02:00,1540,1.501556,0,0,1217.191,0,0,2022-06-30T10:05:15.030+02:00
2022-06-30T10:05:53.222+02:00,5785.824931375,-0.10260009765625,-0.474151611328125,-1.064117431640625,5785.814979375001,0.1940913051719067,0.07013906859999647,0.0841366901910769,-1.089903593063354,0.8334901332855225,-0.8360508680343628,-0.1535590589046478,-0.2952809631824493,-0.05374741554260254,XArbitraryZVertical,0.03843801247947735,0.03893893042575102,0.09821578623314571,0.9936598959113286,0.0698336660861969,-0.08403746038675308,-0.9940125346183777,0,0,0,-1,-1,5783.297119791667,unknown,2,2022-06-30T10:05:50.694+02:00,2022-06-30T08:20:05.567+02:00,1540,1.501556,0,0,1217.191,0,0,2022-06-30T10:05:15.030+02:00
2022-06-30T10:05:53.232+02:00,5785.834882375,-0.12896728515625,-0.5077667236328125,-1.1025390625,5785.824931375,0.1859222493954445,0.07987247236615598,0.07096720479644862,-1.431697130203247,1.005503058433533,-1.000530242919922,-0.1714755743741989,-0.3656007051467896,-0.05859941244125366,XArbitraryZVertical,0.03159096074734494,0.04301873954463307,0.09410518554572282,0.9941305386810957,0.07958673685789108,-0.07090765237808228,-0.9943028092384338,0,0,0,-1,-1,5783.297119791667,unknown,2,2022-06-30T10:05:50.694+02:00,2022-06-30T08:20:05.567+02:00,1540,1.501556,0,0,1217.191,0,0,2022-06-30T10:05:15.030+02:00
2022-06-30T10:05:53.242+02:00,5785.844834375001,-0.13824462890625,-0.5148468017578125,-1.135650634765625,5785.834882375,0.176304621543584,0.09158619802256908,0.05416622274367144,-1.760004639625549,1.233393788337708,-1.212231636047363,-0.1939245760440826,-0.4200120568275452,-0.06976902484893799,XArbitraryZVertical,0.02291771935927826,0.047964181144877,0.08914845965682852,0.9945988315697045,0.09132407605648041,-0.05413974076509476,-0.994348406791687,0,0,0,-1,-1,5783.297119791667,unknown,2,2022-06-30T10:05:50.694+02:00,2022-06-30T08:20:05.567+02:00,1540,1.501556,0,0,1217.191,0,0,2022-06-30T10:05:15.030+02:00
2022-06-30T10:05:53.252+02:00,5785.854785750001,-0.1558685302734375,-0.4722900390625,-1.107528686523438,5785.844834750001,0.1652101472858928,0.1054276836600379,0.03378980902573879,-2.104456424713135,1.450250267982483,-1.406611084938049,-0.2341400980949402,-0.4739835262298584,-0.1086590886116028,XArbitraryZVertical,0.01246626156951417,0.05389428834374314,0.08327189259139185,0.9949903805630244,0.1051724180579185,-0.03378337994217873,-0.9938799738883972,0,0,0,-1,-1,5783.297119791667,unknown,2,2022-06-30T10:05:50.694+02:00,2022-06-30T08:20:05.567+02:00,1540,1.501556,0,0,1217.191,0,0,2022-06-30T10:05:15.030+02:00
2022-06-30T10:05:53.262+02:00,5785.864736750001,-0.18560791015625,-0.4180450439453125,-1.08489990234375,5785.854785750001,0.1530129597907993,0.1211572693704242,0.008995087293795641,-2.592462062835693,1.668129086494446,-1.591495156288147,-0.2591012120246887,-0.5058520436286926,-0.1430214047431946,XArbitraryZVertical,-0.0001511129794971615,0.06070700491754103,0.07656238202958096,0.9952150126194605,0.1208561807870865,-0.008994965814054012,-0.9926292896270752,0,0,0,-1,-1,5783.297119791667,unknown,2,2022-06-30T10:05:50.694+02:00,2022-06-30T08:20:05.567+02:00,1540,1.501556,0,0,1217.191,0,0,2022-06-30T10:05:15.030+02:00
2022-06-30T10:05:53.272+02:00,5785.87468875,-0.2091217041015625,-0.3527679443359375,-1.00445556640625,5785.864736750001,0.1402169315257881,0.1389518873242504,-0.021706017701564,-3.201487302780151,1.932758688926697,-1.752672791481018,-0.2943414747714996,-0.4939945340156555,-0.1174002885818481,XArbitraryZVertical,-0.01566267795792417,0.06848703171125861,0.06912638112793204,0.9951310583301187,0.1384725570678711,0.02170431241393089,-0.9901283979415894,0,0,0,-1,-1,5783.297119791667,unknown,2,2022-06-30T10:05:50.694+02:00,2022-06-30T08:20:05.567+02:00,1540,1.501556,0,0,1217.191,0,0,2022-06-30T10:05:15.030+02:00
2022-06-30T10:05:53.282+02:00,5785.88463975,-0.2009735107421875,-0.265472412109375,-0.934173583984375,5785.87468875,0.1275020199941352,0.1592772758317873,-0.05908469688661563,-3.842027187347412,2.258095979690552,-1.882413268089294,-0.3439362049102783,-0.4770955741405487,-0.0992807149887085,XArbitraryZVertical,-0.03445064836657122,0.07748238867829492,0.06113309209124383,0.9945212163009663,0.1583279073238373,0.05905032530426979,-0.9856192469596863,0,0,0,-1,-1,5783.297119791667,unknown,2,2022-06-30T10:05:50.694+02:00,2022-06-30T08:20:05.567+02:00,1540,1.501556,0,0,1217.191,0,0,2022-06-30T10:05:15.030+02:00
2022-06-30T10:05:53.292+02:00,5785.89459175,-0.1531829833984375,-0.161651611328125,-0.8741455078125,5785.88463975,0.1155886587019048,0.1823787097495976,-0.1031033817712204,-4.476160526275635,2.575909852981567,-1.963993549346924,-0.3895282745361328,-0.4556889533996582,-0.02626299858093262,XArbitraryZVertical,-0.05648209698243443,0.08782615852370984,0.05276120907489309,0.9931327212573117,0.1804061979055405,0.1029208078980446,-0.9781926870346069,0,0,0,-1,-1,5783.297119791667,unknown,2,2022-06-30T10:05:50.694+02:00,2022-06-30T08:20:05.567+02:00,1540,1.501556,0,0,1217.191,0,0,2022-06-30T10:05:15.030+02:00
2022-06-30T10:05:53.302+02:00,5785.90454275,-0.0848846435546875,-0.048583984375,-0.85089111328125,5785.89459175,0.1054676759337816,0.2082200445118857,-0.1536116511834273,-5.074012279510498,2.882491111755371,-1.977054953575134,-0.4052584767341614,-0.4184808731079102,0.03270596265792847,XArbitraryZVertical,-0.08167030983347347,0.09944913152409651,0.04430656231492396,0.9906950575035649,0.204284593462944,0.1530082523822784,-0.966879665851593,0,0,0,-1,-1,5783.297119791667,unknown,2,2022-06-30T10:05:50.694+02:00,2022-06-30T08:20:05.567+02:00,1540,1.501556,0,0,1217.191,0,0,2022-06-30T10:05:15.030+02:00
2022-06-30T10:05:53.312+02:00,5785.91449375,0.00640869140625,0.101318359375,-0.847503662109375,5785.90454275,0.09804033429186115,0.2370768096550027,-0.2095959450017979,-5.562872886657715,3.190346956253052,-1.935553312301636,-0.3829056024551392,-0.3697165250778198,0.076610267162323,XArbitraryZVertical,-0.1095104698895743,0.1123811112845357,0.03603375504533844,0.9869546338820598,0.229722261428833,0.2080647051334381,-0.9507558941841125,0,0,0,-1,-1,5783.297119791667,unknown,2,2022-06-30T10:05:50.694+02:00,2022-06-30T08:20:05.567+02:00,1540,1.501556,0,0,1217.191,0,0,2022-06-30T10:05:15.030+02:00
2022-06-30T10:05:53.322+02:00,5785.92444575,0.1115875244140625,0.2935333251953125,-0.82720947265625,5785.91449375,0.09399508177752025,0.2693448212162016,-0.2697051803039184,-5.923494815826416,3.487998962402344,-1.84290623664856,-0.3413652777671814,-0.3150314688682556,0.07820707559585571,XArbitraryZVertical,-0.1393303541147766,0.1266407757228804,0.02810087151092854,0.981712565540925,0.2564802765846252,0.2664472758769989,-0.9290983080863953,0,0,0,-1,-1,5783.297119791667,unknown,2,2022-06-30T10:05:50.694+02:00,2022-06-30T08:20:05.567+02:00,1540,1.501556,0,0,1217.191,0,0,2022-06-30T10:05:15.030+02:00
2022-06-30T10:05:53.332+02:00,5785.93439675,0.204864501953125,0.46783447265625,-0.808349609375,5785.92444575,0.09433525820964078,0.3054010831658563,-0.332594535436162,-6.202356815338135,3.737143039703369,-1.666096210479736,-0.2777898907661438,-0.2251783311367035,0.05395692586898804,XArbitraryZVertical,-0.1704967030506384,0.142128521233969,0.02080792324998157,0.9748319707505906,0.2841982245445251,0.3264964818954468,-0.9014607071876526,0,0,0,-1,-1,5783.297119791667,unknown,2,2022-06-30T10:05:50.694+02:00,2022-06-30T08:20:05.567+02:00,1540,1.501556,0,0,1217.191,0,0,2022-06-30T10:05:15.030+02:00
2022-06-30T10:05:53.342+02:00,5785.94434775,0.30322265625,0.6128082275390625,-0.7303009033203125,5785.93439675,0.09998386950314891,0.3455901902219995,-0.3969066810397734,-6.378021240234375,3.922338008880615,-1.453767776489258,-0.2008306384086609,-0.09303417801856995,0.0405234694480896,XArbitraryZVertical,-0.2023978291554329,0.1586459814781637,0.01440526725735207,0.9662604225455877,0.3124178647994995,0.3865673542022705,-0.8677331209182739,0,0,0,-1,-1,5783.297119791667,unknown,2,2022-06-30T10:05:50.694+02:00,2022-06-30T08:20:05.567+02:00,1540,1.501556,0,0,1217.191,0,0,2022-06-30T10:05:15.030+02:00
2022-06-30T10:05:53.352+02:00,5785.95429975,0.3773040771484375,0.6944122314453125,-0.6946563720703125,5785.94434775,0.1114868808636195,0.3900847939354918,-0.4612782853059743,-6.435321807861328,4.053484916687012,-1.227973461151123,-0.1356588006019592,0.0227411687374115,0.0198628306388855,XArbitraryZVertical,-0.2344290740293986,0.1758882624218478,0.00897519684415542,0.956046983714684,0.340522974729538,0.4450931549072266,-0.8282126784324646,0,0,0,-1,-1,5783.297119791667,unknown,2,2022-06-30T10:05:50.694+02:00,2022-06-30T08:20:05.567+02:00,1540,1.501556,0,0,1217.191,0,0,2022-06-30T10:05:15.030+02:00
2022-06-30T10:05:53.362+02:00,5785.96425075,0.45941162109375,0.7902069091796875,-0.63238525390625,5785.95429975,0.1289548157570024,0.4393354600707067,-0.5237517846003817,-6.253108978271484,4.177054405212402,-0.9875051975250244,-0.06509873270988464,0.1126755475997925,0.05341243743896484,XArbitraryZVertical,-0.2657082390329467,0.1937584026638788,0.00444350303535981,0.9443712354509538,0.3683210611343384,0.5001325011253357,-0.7837136387825012,0,0,0,-1,-1,5783.297119791667,unknown,2,2022-06-30T10:05:50.694+02:00,2022-06-30T08:20:05.567+02:00,1540,1.501556,0,0,1217.191,0,0,2022-06-30T10:05:15.030+02:00
2022-06-30T10:05:53.372+02:00,5785.974202750001,0.5131072998046875,0.88946533203125,-0.5450897216796875,5785.96425075,0.1520144203079364,0.4933007161200069,-0.5814751458209759,-5.885550498962402,4.216867923736572,-0.6963115930557251,-0.01840788125991821,0.1451548933982849,0.04136562347412109,XArbitraryZVertical,-0.2949425570895742,0.2121267062194463,0.000757933727355673,0.9316709088289662,0.3957116603851318,0.549257218837738,-0.7360222935676575,0,0,0,-1,-1,5783.297119791667,unknown,2,2022-06-30T10:05:50.694+02:00,2022-06-30T08:20:05.567+02:00,1540,1.501556,0,0,1217.191,0,0,2022-06-30T10:05:15.030+02:00
2022-06-30T10:05:53.382+02:00,5785.984153750001,0.5577850341796875,0.9125213623046875,-0.4578857421875,5785.974202750001,0.180142813392453,0.5511095482157287,-0.6333249472252724,-5.449963092803955,4.159722328186035,-0.4879679977893829,0.03732967376708984,0.1983786225318909,0.0543360710144043,XArbitraryZVertical,-0.3216911472835784,0.2305515326542816,-0.002128935387501326,0.9183443367878295,0.4220816791057587,0.5918281674385071,-0.6867215633392334,0,0,0,-1,-1,5783.297119791667,unknown,2,2022-06-30T10:05:50.694+02:00,2022-06-30T08:20:05.567+02:00,1540,1.501556,0,0,1217.191,0,0,2022-06-30T10:05:15.030+02:00
2022-06-30T10:05:53.392+02:00,5785.994104750001,0.6208038330078125,0.8893280029296875,-0.32635498046875,5785.984153750001,0.2116266893293547,0.6109443611458967,-0.6792827282317726,-5.040970325469971,3.997875213623047,-0.392706036567688,0.06680065393447876,0.2612301111221313,0.09219425916671753,XArbitraryZVertical,-0.3458976256233269,0.2484204087217664,-0.004659585327399471,0.9047764610209481,0.4463064074516296,0.6282351016998291,-0.6372842788696289,0,0,0,-1,-1,5783.297119791667,unknown,2,2022-06-30T10:05:50.694+02:00,2022-06-30T08:20:05.567+02:00,1540,1.501556,0,0,1217.191,0,0,2022-06-30T10:05:15.030+02:00
2022-06-30T10:05:53.402+02:00,5786.00405675,0.6827850341796875,0.8490447998046875,-0.2668304443359375,5785.994104750001,0.2459855719537432,0.6718977218936251,-0.7204708412872047,-4.77896785736084,3.808143615722656,-0.3193018436431885,0.08999982476234436,0.2527827024459839,0.130265474319458,XArbitraryZVertical,-0.3681237749967003,0.2653471529301544,-0.006936976354507407,0.8910823081180965,0.467784970998764,0.6597386002540588,-0.5881515741348267,0,0,0,-1,-1,5783.297119791667,unknown,2,2022-06-30T10:05:50.694+02:00,2022-06-30T08:20:05.567+02:00,1540,1.501556,0,0,1217.191,0,0,2022-06-30T10:05:15.030+02:00
2022-06-30T10:05:53.411+02:00,5786.01400775,0.7373046875,0.803741455078125,-0.21380615234375,5786.00405675,0.2840826445263903,0.7347505484385499,-0.7576699149746255,-4.583859443664551,3.661733388900757,-0.1806145161390305,0.1337971985340118,0.2020972967147827,0.2126612067222595,XArbitraryZVertical,-0.3889241721736476,0.281477763147814,-0.008745598254366478,0.8771726121373667,0.4870064258575439,0.68723064661026,-0.5390164852142334,0,0,0,-1,-1,5783.297119791667,unknown,2,2022-06-30T10:05:50.694+02:00,2022-06-30T08:20:05.567+02:00,1540,1.501556,0,0,1217.191,0,0,2022-06-30T10:05:15.030+02:00
2022-06-30T10:05:53.421+02:00,5786.02395975,0.7646484375,0.7891082763671875,-0.2003021240234375,5786.01400775,0.3265191605445666,0.800169108991289,-0.7906285164842234,-4.408535480499268,3.525526523590088,-0.02651228569447994,0.1781145334243774,0.1382492184638977,0.2231465280056,XArbitraryZVertical,-0.4083942821185602,0.2970277197616424,-0.009845696513336154,0.8630711199464606,0.504670262336731,0.710795521736145,-0.4899773001670837,0,0,0,-1,-1,5783.297119791667,unknown,2,2022-06-30T10:05:50.694+02:00,2022-06-30T08:20:05.567+02:00,1540,1.501556,0,0,1217.191,0,0,2022-06-30T10:05:15.030+02:00
2022-06-30T10:05:53.432+02:00,5786.03391075,0.7710418701171875,0.852630615234375,-0.1591033935546875,5786.02395975,0.3722485730862224,0.8673524434587768,-0.8188798374184503,-4.117674350738525,3.343237400054932,0.1113854944705963,0.2164052724838257,0.07336032390594482,0.2280164361000061,XArbitraryZVertical,-0.4263366372601841,0.3119705085751301,-0.01035324196780541,0.8490020525074146,0.5208992958068848,0.730381190776825,-0.4418229460716248,0,0,0,-1,-1,5783.297119791667,unknown,2,2022-06-30T10:05:50.694+02:00,2022-06-30T08:20:05.567+02:00,1540,1.501556,0,0,1217.191,0,0,2022-06-30T10:05:15.030+02:00
2022-06-30T10:05:53.441+02:00,5786.04386175,0.7574310302734375,0.9359588623046875,-0.153564453125,5786.03391075,0.4195947910480244,0.9344045498302256,-0.841974198022116,-3.80027174949646,3.109752893447876,0.2380510270595551,0.2290276288986206,0.04314893484115601,0.1954945921897888,XArbitraryZVertical,-0.4424747262136346,0.3260637789620678,-0.01031400584427813,0.835339603100692,0.5356206297874451,0.7459594011306763,-0.3957970440387726,0,0,0,-1,-1,5783.297119791667,unknown,2,2022-06-30T10:05:50.694+02:00,2022-06-30T08:20:05.567+02:00,1540,1.501556,0,0,1217.191,0,0,2022-06-30T10:05:15.030+02:00
2022-06-30T10:05:53.451+02:00,5786.053813750001,0.73602294921875,0.962371826171875,-0.14373779296875,5786.04386175,0.4676486353089149,1.000330756128718,-0.8602481663319511,-3.529528617858887,2.878477334976196,0.3577587604522705,0.2220761179924011,0.09462612867355347,0.1931266188621521,XArbitraryZVertical,-0.4569423376955133,0.3392469860659079,-0.009733570605576879,0.8222047089976242,0.5489655733108521,0.7580044269561768,-0.3522303700447083,0,0,0,-1,-1,5783.297119791667,unknown,2,2022-06-30T10:05:50.694+02:00,2022-06-30T08:20:05.567+02:00,1540,1.501556,0,0,1217.191,0,0,2022-06-30T10:05:15.030+02:00
2022-06-30T10:05:53.461+02:00,5786.063764750001,0.7152557373046875,0.9101104736328125,-0.0878143310546875,5786.053813750001,0.5157474266150193,1.064528093965917,-0.8740713173837954,-3.259578227996826,2.659121990203857,0.4638087749481201,0.1962172985076904,0.169011116027832,0.1576110422611237,XArbitraryZVertical,-0.469900666874544,0.3515756380526667,-0.008602376643914727,0.8096382599796946,0.5612136721611023,0.766947865486145,-0.3111758828163147,0,0,0,-1,-1,5783.297119791667,unknown,2,2022-06-30T10:05:50.694+02:00,2022-06-30T08:20:05.567+02:00,1540,1.501556,0,0,1217.191,0,0,2022-06-30T10:05:15.030+02:00
2022-06-30T10:05:53.477+02:00,5786.073715750001,0.692596435546875,0.8480682373046875,-0.044586181640625,5786.063764750001,0.5620793430815946,1.125660942009837,-0.8838072574679834,-2.893011093139648,2.464093208312988,0.5199328660964966,0.1636130809783936,0.1892127394676208,0.1293409466743469,XArbitraryZVertical,-0.4812787507254581,0.3630856693768683,-0.007200728750465468,0.7978018159874009,0.5724096894264221,0.7731590867042542,-0.273079127073288,0,0,0,-1,-1,5783.297119791667,unknown,2,2022-06-30T10:05:50.694+02:00,2022-06-30T08:20:05.567+02:00,1540,1.501556,0,0,1217.191,0,0,2022-06-30T10:05:15.030+02:00
2022-06-30T10:05:53.481+02:00,5786.08366775,0.6884918212890625,0.8116607666015625,0.003570556640625,5786.073715750001,0.6036987213162111,1.181594838372843,-0.8895976245832314,-2.409173011779785,2.294296979904175,0.5631410479545593,0.1326265931129456,0.133292019367218,0.1511341482400894,XArbitraryZVertical,-0.4906696303644522,0.3738567900256276,-0.005966101914507999,0.7870443180941723,0.5826289653778076,0.7768184542655945,-0.2389488220214844,0,0,0,-1,-1,5783.297119791667,unknown,2,2022-06-30T10:05:50.694+02:00,2022-06-30T08:20:05.567+02:00,1540,1.501556,0,0,1217.191,0,0,2022-06-30T10:05:15.030+02:00
2022-06-30T10:05:53.491+02:00,5786.09361875,0.6680755615234375,0.8009796142578125,0.0345458984375,5786.08366775,0.6386894202969013,1.230646050494165,-0.8916637603099555,-1.853171586990356,2.091868877410889,0.6285964250564575,0.1004663109779358,0.06995034217834473,0.164971798658371,XArbitraryZVertical,-0.4978189990530918,0.3839232768002641,-0.00501494239726791,0.7776593074223273,0.5921299457550049,0.778117835521698,-0.2095583230257034,0,0,0,-1,-1,5783.297119791667,unknown,2,2022-06-30T10:05:50.694+02:00,2022-06-30T08:20:05.567+02:00,1540,1.501556,0,0,1217.191,0,0,2022-06-30T10:05:15.030+02:00
2022-06-30T10:05:53.501+02:00,5786.10357075,0.63763427734375,0.8126220703125,0.086883544921875,5786.09361875,0.6647104093407796,1.270652430370685,-0.8903245177768888,-1.182935476303101,1.883291840553284,0.6629906296730042,0.08745908737182617,0.03438478708267212,0.1895860731601715,XArbitraryZVertical,-0.5023693850314876,0.3932137468549373,-0.004539738099464248,0.7700566656677208,0.6010324954986572,0.7772759795188904,-0.1860159039497375,0,0,0,-1,-1,5783.297119791667,unknown,2,2022-06-30T10:05:50.694+02:00,2022-06-30T08:20:05.567+02:00,1540,1.501556,0,0,1217.191,0,0,2022-06-30T10:05:15.030+02:00
2022-06-30T10:05:53.511+02:00,5786.11352175,0.6175689697265625,0.835845947265625,0.2058258056640625,5786.10357075,0.6808930521459018,1.300951267483123,-0.8864732376225447,-0.5986298322677612,1.681354761123657,0.6587535738945007,0.05880290269851685,0.02613240480422974,0.2030650526285172,XArbitraryZVertical,-0.5043651676091422,0.4016914584036582,-0.004754936990433145,0.7643540307856758,0.6092725396156311,0.774847149848938,-0.1685194969177246,0,0,0,-1,-1,5783.297119791667,unknown,2,2022-06-30T10:05:50.694+02:00,2022-06-30T08:20:05.567+02:00,1540,1.501556,0,0,1217.191,0,0,2022-06-30T10:05:15.030+02:00
2022-06-30T10:05:53.521+02:00,5786.12347275,0.6098480224609375,0.8352508544921875,0.3337249755859375,5786.11352175,0.6900926382565628,1.323816229511147,-0.8813656632521213,-0.3097210228443146,1.48684287071228,0.6383457779884338,0.02083849906921387,0.04101383686065674,0.2423943877220154,XArbitraryZVertical,-0.5046737464527032,0.4093272628535043,-0.005399404123295917,0.760083175095979,0.6167956590652466,0.771608293056488,-0.155511200428009,0,0,0,-1,-1,5783.297119791667,unknown,2,2022-06-30T10:05:50.694+02:00,2022-06-30T08:20:05.567+02:00,1540,1.501556,0,0,1217.191,0,0,2022-06-30T10:05:15.030+02:00
2022-06-30T10:05:53.531+02:00,5786.13342475,0.62701416015625,0.8216552734375,0.4513092041015625,5786.12347275,0.6962833740998107,1.342404623176681,-0.8758617147475923,-0.2237385958433151,1.294579029083252,0.6304414868354797,-0.006137967109680176,0.06775033473968506,0.3508045077323914,XArbitraryZVertical,-0.5043031516475376,0.416159557853748,-0.005979978294500661,0.7566067363487832,0.6237068176269531,0.7680955529212952,-0.1449791043996811,0,0,0,-1,-1,5783.297119791667,unknown,2,2022-06-30T10:05:50.694+02:00,2022-06-30T08:20:05.567+02:00,1540,1.501556,0,0,1217.191,0,0,2022-06-30T10:05:15.030+02:00
2022-06-30T10:05:53.541+02:00,5786.14337575,0.6465606689453125,0.7940673828125,0.5640106201171875,5786.13342475,0.7019742761651924,1.358745128911609,-0.8702445707862253,-0.2637579143047333,1.115898489952087,0.6339597702026367,-0.02035260200500488,0.07076424360275269,0.469399094581604,XArbitraryZVertical,-0.5038342817461764,0.4222721763179292,-0.006137538538035164,0.7535247440462922,0.6302004456520081,0.7644866108894348,-0.1356744468212128,0,0,0,-1,-1,5783.297119791667,unknown,2,2022-06-30T10:05:50.694+02:00,2022-06-30T08:20:05.567+02:00,1540,1.501556,0,0,1217.191,0,0,2022-06-30T10:05:15.030+02:00
2022-06-30T10:05:53.551+02:00,5786.15332775,0.6592559814453125,0.73626708984375,0.616729736328125,5786.14337575,0.7093066685301384,1.374424073399005,-0.8649019663509822,-0.4730865061283112,0.9122241735458374,0.6075375080108643,-0.009233057498931885,0.0606236457824707,0.5778812170028687,XArbitraryZVertical,-0.5038272447203547,0.4276352233958019,-0.00559326080169249,0.7505032019175564,0.6362471580505371,0.7610316872596741,-0.1265724450349808,0,0,0,-1,-1,5783.297119791667,unknown,2,2022-06-30T10:05:50.694+02:00,2022-06-30T08:20:05.567+02:00,1540,1.501556,0,0,1217.191,0,0,2022-06-30T10:05:15.030+02:00
2022-06-30T10:05:53.561+02:00,5786.16327875,0.65716552734375,0.689666748046875,0.6348114013671875,5786.15332775,0.7203505811161085,1.390825487058524,-0.8605316997907633,-0.7864798903465271,0.6950977444648743,0.5248104333877563,0.005057156085968018,0.03587800264358521,0.6807249784469604,XArbitraryZVertical,-0.5049321067351926,0.4320719772667697,-0.004162534088322214,0.7472215748296678,0.6415033936500549,0.7581893801689148,-0.116714745759964,0,0,0,-1,-1,5783.297119791667,unknown,2,2022-06-30T10:05:50.694+02:00,2022-06-30T08:20:05.567+02:00,1540,1.501556,0,0,1217.191,0,0,2022-06-30T10:05:15.030+02:00
2022-06-30T10:05:53.571+02:00,5786.17322975,0.6345062255859375,0.691741943359375,0.662261962890625,5786.16327875,0.73584172968991,1.408288126465043,-0.8575295208564525,-1.119384527206421,0.4564579129219055,0.4213390350341797,0.01356887817382812,-0.01996129751205444,0.7225923538208008,XArbitraryZVertical,-0.5074333783990829,0.4354077057975351,-0.00181686401194161,0.7435914719673317,0.6456870436668396,0.7562284469604492,-0.1058629900217056,0,0,0,-1,-1,5783.297119791667,unknown,2,2022-06-30T10:05:50.694+02:00,2022-06-30T08:20:05.567+02:00,1540,1.501556,0,0,1217.191,0,0,2022-06-30T10:05:15.030+02:00
2022-06-30T10:05:53.581+02:00,5786.183181750001,0.6165618896484375,0.734283447265625,0.6975555419921875,5786.17322975,0.7558149129571112,1.426836388096937,-0.8558064525153474,-1.417443990707397,0.2429605573415756,0.3358123898506165,0.00833737850189209,-0.0654330849647522,0.7288669347763062,XArbitraryZVertical,-0.511321881620196,0.4376322454713705,0.00143931234186731,0.7396120584152454,0.6488280892372131,0.755099892616272,-0.0940558984875679,0,0,0,-1,-1,5783.297119791667,unknown,2,2022-06-30T10:05:50.694+02:00,2022-06-30T08:20:05.567+02:00,1540,1.501556,0,0,1217.191,0,0,2022-06-30T10:05:15.030+02:00
2022-06-30T10:05:53.591+02:00,5786.193132750001,0.6185150146484375,0.7780914306640625,0.7371368408203125,5786.183181750001,0.778797935155325,1.445516639062385,-0.8546298752131434,-1.525860786437988,0.02520834840834141,0.3201333582401276,-0.01684665679931641,-0.06258594989776611,0.7442924976348877,XArbitraryZVertical,-0.5160771908168985,0.4389178608325542,0.005512519717442557,0.7355169749330795,0.6513528227806091,0.7543279528617859,-0.08203089237213135,0,0,0,-1,-1,5783.297119791667,unknown,2,2022-06-30T10:05:50.694+02:00,2022-06-30T08:20:05.567+02:00,1540,1.501556,0,0,1217.191,0,0,2022-06-30T10:05:15.030+02:00
2022-06-30T10:05:53.601+02:00,5786.203083750001,0.625213623046875,0.774932861328125,0.79278564453125,5786.193132750001,0.8020216297308731,1.461965876484575,-0.8531024385984034,-1.464847564697266,-0.2421716898679733,0.3453942537307739,-0.0371965765953064,-0.01904094219207764,0.7689862251281738,XArbitraryZVertical,-0.5208428405499524,0.4393258582508652,0.0102851807813213,0.7318536186498079,0.6537583470344543,0.7533243298530579,-0.07143104821443558,0,0,0,-1,-1,5783.297119791667,unknown,2,2022-06-30T10:05:50.694+02:00,2022-06-30T08:20:05.567+02:00,1540,1.501556,0,0,1217.191,0,0,2022-06-30T10:05:15.030+02:00
2022-06-30T10:05:53.610+02:00,5786.21303575,0.6243133544921875,0.7422027587890625,0.828338623046875,5786.203083750001,0.8232387945577102,1.473908573469916,-0.8510605625033414,-1.269713163375854,-0.5686659216880798,0.3514162003993988,-0.03757947683334351,0.02611148357391357,0.8009036779403687,XArbitraryZVertical,-0.5250549892771174,0.4386726283064304,0.01560787684172848,0.7291364221070658,0.6560943722724915,0.7519799470901489,-0.06376716494560242,0,0,0,-1,-1,5783.297119791667,unknown,2,2022-06-30T10:05:50.694+02:00,2022-06-30T08:20:05.567+02:00,1540,1.501556,0,0,1217.191,0,0,2022-06-30T10:05:15.030+02:00
2022-06-30T10:05:53.620+02:00,5786.22298675,0.6114501953125,0.753875732421875,0.862579345703125,5786.21303575,0.8411398937048513,1.479918511626939,-0.8486684914733111,-1.06751561164856,-0.9210143685340881,0.3532676100730896,-0.03304183483123779,0.02453190088272095,0.8527712821960449,XArbitraryZVertical,-0.5284255264163827,0.4367761987285206,0.02136310349319809,0.7276926625071047,0.6582552790641785,0.7504009604454041,-0.05998602882027626,0,0,0,-1,-1,5783.297119791667,unknown,2,2022-06-30T10:05:50.694+02:00,2022-06-30T08:20:05.567+02:00,1540,1.501556,0,0,1217.191,0,0,2022-06-30T10:05:15.030+02:00
2022-06-30T10:05:53.632+02:00,5786.23293875,0.5929412841796875,0.77197265625,0.9047393798828125,5786.22298675,0.8571567851171568,1.481032851380411,-0.8461083436903374,-1.027022957801819,-1.266150593757629,0.3547779619693756,-0.0359199047088623,-0.006503403186798096,0.8877627849578857,XArbitraryZVertical,-0.5312856174705961,0.4336165757532161,0.02777123196085602,0.7272834070718791,0.660233199596405,0.7487062811851501,-0.0594245158135891,0,0,0,-1,-1,5783.297119791667,unknown,2,2022-06-30T10:05:50.694+02:00,2022-06-30T08:20:05.567+02:00,1540,1.501556,0,0,1217.191,0,0,2022-06-30T10:05:15.030+02:00
2022-06-30T10:05:53.641+02:00,5786.24288975,0.5979461669921875,0.8249664306640625,0.97247314453125,5786.23293875,0.8729630474524375,1.478496614049609,-0.8436730696721274,-1.028714060783386,-1.625029921531677,0.3206287622451782,-0.05044376850128174,0.006786108016967773,0.9238457083702087,XArbitraryZVertical,-0.5340514282127811,0.4291336900745285,0.0350301859726749,0.7276031423734571,0.661893904209137,0.7470897436141968,-0.0612666979432106,0,0,0,-1,-1,5783.297119791667,unknown,2,2022-06-30T10:05:50.694+02:00,2022-06-30T08:20:05.567+02:00,1540,1.501556,0,0,1217.191,0,0,2022-06-30T10:05:15.030+02:00
2022-06-30T10:05:53.650+02:00,5786.25284075,0.615447998046875,0.899871826171875,1.08258056640625,5786.24288975,0.8887359849827748,1.472128393903087,-0.8417255913278086,-1.046820878982544,-2.021515607833862,0.2793223857879639,-0.0699957013130188,0.02617901563644409,0.970362663269043,XArbitraryZVertical,-0.5368069629986887,0.4231151489985852,0.04314376038024773,0.7286635512770095,0.6629369258880615,0.7457937598228455,-0.06562370806932449,0,0,0,-1,-1,5783.297119791667,unknown,2,2022-06-30T10:05:50.694+02:00,2022-06-30T08:20:05.567+02:00,1540,1.501556,0,0,1217.191,0,0,2022-06-30T10:05:15.030+02:00
2022-06-30T10:05:53.660+02:00,5786.262792750001,0.6280975341796875,0.9062957763671875,1.197219848632812,5786.25284075,0.9055037301136775,1.462344531013731,-0.8402568864890717,-1.174607872962952,-2.464765548706055,0.2505250871181488,-0.06540530920028687,0.08015203475952148,1.044697761535645,XArbitraryZVertical,-0.5397268170641347,0.4154304359391727,0.05239403192969583,0.7303201209453638,0.6633513569831848,0.7448145747184753,-0.07222503423690796,0,0,0,-1,-1,5783.297119791667,unknown,2,2022-06-30T10:05:50.694+02:00,2022-06-30T08:20:05.567+02:00,1540,1.501556,0,0,1217.191,0,0,2022-06-30T10:05:15.030+02:00
2022-06-30T10:05:53.671+02:00,5786.272743750001,0.63238525390625,0.907745361328125,1.273788452148438,5786.262792750001,0.9246094996162594,1.449399457577704,-0.8395706637351877,-1.35179591178894,-3.000379800796509,0.1869445890188217,-0.0474202036857605,0.1555155515670776,1.163447976112366,XArbitraryZVertical,-0.5431064282544563,0.4057111345364937,0.06311850040140402,0.7324275692394047,0.6628681421279907,0.7443565130233765,-0.08086776733398438,0,0,0,-1,-1,5783.297119791667,unknown,2,2022-06-30T10:05:50.694+02:00,2022-06-30T08:20:05.567+02:00,1540,1.501556,0,0,1217.191,0,0,2022-06-30T10:05:15.030+02:00
2022-06-30T10:05:53.680+02:00,5786.28269575,0.6168670654296875,0.9943695068359375,1.355941772460938,5786.272743750001,0.9466294360977058,1.433000778698889,-0.8398099423196426,-1.579641938209534,-3.595381021499634,0.1646299660205841,-0.03317898511886597,0.1617797017097473,1.288921594619751,XArbitraryZVertical,-0.5469970301769352,0.3936282620816568,0.07558487710509146,0.734940861978026,0.6612764000892639,0.7445162534713745,-0.09170208126306534,0,0,0,-1,-1,5783.297119791667,unknown,2,2022-06-30T10:05:50.694+02:00,2022-06-30T08:20:05.567+02:00,1540,1.501556,0,0,1217.191,0,0,2022-06-30T10:05:15.030+02:00
2022-06-30T10:05:53.690+02:00,5786.29264675,0.56793212890625,1.077743530273438,1.283050537109375,5786.28269575,0.9721082983338025,1.412992060115457,-0.8406452022485875,-1.858940958976746,-4.252007007598877,0.1762902140617371,-0.0263097882270813,0.1626719236373901,1.378604412078857,XArbitraryZVertical,-0.5512945085767841,0.3790332136672022,0.09017956391642702,0.7377506039389847,0.6586949825286865,0.7450736165046692,-0.1048163771629333,0,0,0,-1,-1,5783.297119791667,unknown,2,2022-06-30T10:05:50.694+02:00,2022-06-30T08:20:05.567+02:00,1540,1.501556,0,0,1217.191,0,0,2022-06-30T10:05:15.030+02:00
2022-06-30T10:05:53.700+02:00,5786.30259775,0.5509490966796875,1.10986328125,1.205215454101562,5786.29264675,1.003493746952689,1.390793505466496,-0.8425205306289705,-2.354338645935059,-4.916754245758057,0.160606861114502,-0.03796321153640747,0.2480465173721313,1.475102424621582,XArbitraryZVertical,-0.5564689973025925,0.3616099234869411,0.1073009009730887,0.7403155058737335,0.6548300981521606,0.7463231086730957,-0.1191610395908356,0,0,0,-1,-1,5783.297119791667,unknown,2,2022-06-30T10:05:50.694+02:00,2022-06-30T08:20:05.567+02:00,1540,1.501556,0,0,1217.191,0,0,2022-06-30T10:05:15.030+02:00
2022-06-30T10:05:53.710+02:00,5786.31254975,0.5472412109375,1.225631713867188,1.335113525390625,5786.30259775,1.040666462218626,1.36572978628169,-0.8456673474013235,-2.582437515258789,-5.741659164428711,0.1814423799514771,-0.08140373229980469,0.3293298482894897,1.418105721473694,XArbitraryZVertical,-0.5622963573544618,0.3410206192184355,0.1270538603649603,0.7425531450476213,0.6493357419967651,0.7484138607978821,-0.1350554823875427,0,0,0,-1,-1,5783.297119791667,unknown,2,2022-06-30T10:05:50.694+02:00,2022-06-30T08:20:05.567+02:00,1540,1.501556,0,0,1217.191,0,0,2022-06-30T10:05:15.030+02:00
2022-06-30T10:05:53.720+02:00,5786.32250075,0.338348388671875,1.474472045898438,1.273223876953125,5786.31254975,1.077184281331032,1.331998050281908,-0.8488379385325519,-2.334976673126221,-6.504930019378662,0.2873615920543671,-0.09115386009216309,0.3593505024909973,1.361530780792236,XArbitraryZVertical,-0.566745979985917,0.317239913045566,0.1491274300900236,0.745599733235256,0.6421027183532715,0.750512957572937,-0.1563156694173813,0,0,0,-1,-1,5783.297119791667,unknown,2,2022-06-30T10:05:50.694+02:00,2022-06-30T08:20:05.567+02:00,1540,1.501556,0,0,1217.191,0,0,2022-06-30T10:05:15.030+02:00
2022-06-30T10:05:53.730+02:00,5786.33245175,0.16668701171875,1.31524658203125,1.078857421875,5786.32250075,1.117677872575216,1.29493697595689,-0.8526552355938775,-2.892441034317017,-7.05321216583252,0.3264145255088806,-0.08586764335632324,0.4726017713546753,1.514331459999084,XArbitraryZVertical,-0.5708355657662267,0.2907535664764584,0.1735598005797215,0.7479881061200252,0.6331086158752441,0.7530301809310913,-0.1792182475328445,0,0,0,-1,-1,5783.297119791667,unknown,2,2022-06-30T10:05:50.694+02:00,2022-06-30T08:20:05.567+02:00,1540,1.501556,0,0,1217.191,0,0,2022-06-30T10:05:15.030+02:00
2022-06-30T10:05:53.740+02:00,5786.34240375,-0.1278076171875,1.467117309570312,0.8745574951171875,5786.33245175,1.160131431319257,1.253695093203093,-0.8572571898606497,-2.874731779098511,-7.704367637634277,0.4369295835494995,-0.2835336327552795,0.7184219360351562,1.477309942245483,XArbitraryZVertical,-0.5739621328209522,0.2617715357666896,0.1998007137250304,0.7497484873595843,0.6218817234039307,0.7560502290725708,-0.2040862590074539,0,0,0,-1,-1,5783.297119791667,unknown,2,2022-06-30T10:05:50.694+02:00,2022-06-30T08:20:05.567+02:00,1540,1.501556,0,0,1217.191,0,0,2022-06-30T10:05:15.030+02:00
2022-06-30T10:05:53.750+02:00,5786.35235475,-0.505096435546875,1.439788818359375,0.328887939453125,5786.34240375,1.206166906005981,1.209010111079735,-0.8637310596717247,-3.108863115310669,-8.229825019836426,0.3020490705966949,-0.4408671259880066,0.554975152015686,1.308781981468201,XArbitraryZVertical,-0.5764005697965657,0.2297824557471773,0.2278963419857881,0.7503503405881893,0.6075538396835327,0.7602715492248535,-0.229924812912941,0,0,0,-1,-1,5783.297119791667,unknown,2,2022-06-30T10:05:50.694+02:00,2022-06-30T08:20:05.567+02:00,1540,1.501556,0,0,1217.191,0,0,2022-06-30T10:05:15.030+02:00
2022-06-30T10:05:53.760+02:00,5786.36230675,-1.248458862304688,-0.5087738037109375,2.275238037109375,5786.35235475,1.248107957606135,1.158437574950105,-0.872089880172822,-2.583802461624146,-8.343968391418457,0.2490692138671875,-0.7171191573143005,0.7014425992965698,1.132344722747803,XArbitraryZVertical,-0.5767610619939131,0.196094344520014,0.2556508048801889,0.7506906136696291,0.5893112421035767,0.765674889087677,-0.2577873766422272,0,0,0,-1,-1,5783.297119791667,unknown,2,2022-06-30T10:05:50.694+02:00,2022-06-30T08:20:05.567+02:00,1540,1.501556,0,0,1217.191,0,0,2022-06-30T10:05:15.030+02:00
2022-06-30T10:05:53.770+02:00,5786.37225775,-4.78790283203125,2.265365600585938,-14.2099609375,5786.36230675,1.257738375091774,1.105166401081429,-0.8828821544946579,0.07535888999700546,3.518933534622192,1.24993896484375,-1.072428941726685,0.667216956615448,0.6139609813690186,XArbitraryZVertical,-0.5732436960189479,0.1698677043519701,0.2713348386255068,0.754263938270881,0.5673321485519409,0.7725720405578613,-0.2850732505321503,0,0,0,-1,-1,5783.297119791667,unknown,2,2022-06-30T10:05:50.694+02:00,2022-06-30T08:20:05.567+02:00,1540,1.501556,0,0,1217.191,0,0,2022-06-30T10:05:15.030+02:00
2022-06-30T10:05:53.780+02:00,5786.38220875,-2.469970703125,3.164764404296875,-8.3946533203125,5786.37225775,1.342488133982612,1.186772365327465,-0.8849537240731673,-4.540044784545898,5.519324779510498,0.3498393595218658,-1.83565616607666,-1.28265917301178,2.512516021728516,XArbitraryZVertical,-0.5922577298922421,0.174904800512058,0.2784968762892421,0.7355805736655682,0.5871970057487488,0.7738856673240662,-0.2372781783342361,0,0,0,-1,-1,5783.297119791667,unknown,2,2022-06-30T10:05:50.694+02:00,2022-06-30T08:20:05.567+02:00,1540,1.501556,0,0,1217.191,0,0,2022-06-30T10:05:15.030+02:00
2022-06-30T10:05:53.790+02:00,5786.392160750001,-3.153182983398438,1.35107421875,-3.690185546875,5786.38220875,1.414314353682886,1.253002295536855,-0.8974046713650952,-2.937638282775879,-0.9387450218200684,0.2922343015670776,-5.380316734313965,1.483654975891113,-14.01509094238281,XArbitraryZVertical,-0.6103546398749373,0.1732976742619863,0.2808412521254683,0.7201135253027343,0.5924135446548462,0.7817109823226929,-0.194870263338089,0,0,0,-1,-1,5783.297119791667,unknown,2,2022-06-30T10:05:50.694+02:00,2022-06-30T08:20:05.567+02:00,1540,1.501556,0,0,1217.191,0,0,2022-06-30T10:05:15.030+02:00
2022-06-30T10:05:53.800+02:00,5786.402111750001,0.381072998046875,0.3697357177734375,0.576019287109375,5786.392160750001,1.443799086510778,1.291943689179877,-0.9015421207758713,-1.796351552009583,3.836762428283691,0.4073286652565002,-3.066407442092896,2.380480051040649,-8.223886489868164,XArbitraryZVertical,-0.6191596222685759,0.1767986377449977,0.2781232451343761,0.712763046434751,0.5964364409446716,0.7842845916748047,-0.1707672029733658,0,0,0,-1,-1,5783.297119791667,unknown,2,2022-06-30T10:05:50.694+02:00,2022-06-30T08:20:05.567+02:00,1540,1.501556,0,0,1217.191,0,0,2022-06-30T10:05:15.030+02:00
2022-06-30T10:05:53.810+02:00,5786.41206375,1.871170043945312,-0.18316650390625,1.190536499023438,5786.402111750001,1.463143595778986,1.351650938915352,-0.8892897082069207,0.2780939638614655,4.304057121276855,2.538742303848267,-3.768080711364746,0.5744499564170837,-3.553234338760376,XArbitraryZVertical,-0.6269733424943151,0.1960325361833845,0.2702983815475468,0.7038569106912149,0.6148974895477295,0.7766245007514954,-0.1369513422250748,0,0,0,-1,-1,5783.297119791667,unknown,2,2022-06-30T10:05:50.694+02:00,2022-06-30T08:20:05.567+02:00,1540,1.501556,0,0,1217.191,0,0,2022-06-30T10:05:15.030+02:00
2022-06-30T10:05:53.819+02:00,5786.42201475,2.527297973632812,-0.1710205078125,-0.0465850830078125,5786.41206375,1.452328242689984,1.371634724222799,-0.8619888589865721,1.757596492767334,1.361578345298767,2.050744771957397,-0.2569892406463623,-0.3894026875495911,0.7048038840293884,XArbitraryZVertical,-0.6238152494725797,0.2155508478271164,0.2690492561186315,0.7014306403885648,0.6380620002746582,0.7591386437416077,-0.1287847310304642,0,0,0,-1,-1,5783.297119791667,unknown,2,2022-06-30T10:05:50.694+02:00,2022-06-30T08:20:05.567+02:00,1540,1.501556,0,0,1217.191,0,0,2022-06-30T10:05:15.030+02:00
2022-06-30T10:05:53.830+02:00,5786.43196575,1.582427978515625,0.1606597900390625,-0.93145751953125,5786.42201475,1.436525030159757,1.363062786495841,-0.8518684509271592,0.7224884033203125,-0.4181373715400696,-0.371975839138031,1.226750135421753,-0.9356784820556641,1.326363325119019,XArbitraryZVertical,-0.619137662153351,0.2208054791418193,0.2694201178973827,0.7037943004126775,0.6444195508956909,0.7525122165679932,-0.1358269900083542,0,0,0,-1,-1,5783.297119791667,unknown,2,2022-06-30T10:05:50.694+02:00,2022-06-30T08:20:05.567+02:00,1540,1.501556,0,0,1217.191,0,0,2022-06-30T10:05:15.030+02:00
2022-06-30T10:05:53.839+02:00,5786.44191775,0.18505859375,1.200637817382812,-0.9150238037109375,5786.43196575,1.422944134001208,1.347436136934916,-0.858081176373318,0.8944857120513916,-0.6003668308258057,-1.025070905685425,1.889650821685791,-0.9276095628738403,0.0982564240694046,XArbitraryZVertical,-0.6166861640534809,0.2174335158989073,0.2674594134560677,0.7077331941496023,0.6376468539237976,0.7565892338752747,-0.1448416858911514,0,0,0,-1,-1,5783.297119791667,unknown,2,2022-06-30T10:05:50.694+02:00,2022-06-30T08:20:05.567+02:00,1540,1.501556,0,0,1217.191,0,0,2022-06-30T10:05:15.030+02:00
2022-06-30T10:05:53.849+02:00,5786.45186875,-0.4583892822265625,1.769790649414062,-0.87078857421875,5786.44191775,1.397340694324889,1.321809214332601,-0.8639128786267062,2.236634731292725,-0.6460940837860107,-0.839190661907196,0.9529884457588196,-0.5997297167778015,-0.7714144587516785,XArbitraryZVertical,-0.6116124579098049,0.2142628411266937,0.2643583927677633,0.7142382507211122,0.6294392347335815,0.7603896856307983,-0.1600432693958282,0,0,0,-1,-1,5783.297119791667,unknown,2,2022-06-30T10:05:50.694+02:00,2022-06-30T08:20:05.567+02:00,1540,1.501556,0,0,1217.191,0,0,2022-06-30T10:05:15.030+02:00
2022-06-30T10:05:53.859+02:00,5786.46181975,-0.647186279296875,1.509063720703125,-0.8254852294921875,5786.45186875,1.34759644020862,1.278405813033885,-0.8626214038618288,4.053787708282471,-0.4369094371795654,-0.6945911645889282,-0.4377836585044861,0.4410876631736755,-0.7275373339653015,XArbitraryZVertical,-0.6003353289642858,0.2141358626044228,0.2600167152106357,0.7253513364689887,0.6228418946266174,0.7595502734184265,-0.1874866485595703,0,0,0,-1,-1,5783.297119791667,unknown,2,2022-06-30T10:05:50.694+02:00,2022-06-30T08:20:05.567+02:00,1540,1.501556,0,0,1217.191,0,0,2022-06-30T10:05:15.030+02:00
2022-06-30T10:05:53.869+02:00,5786.471771750001,-0.2709808349609375,0.953704833984375,-0.608673095703125,5786.46181975,1.279316411560974,1.22448377651104,-0.8557610791374861,4.626287460327148,-0.02932248823344707,-0.7822694182395935,-1.075108528137207,1.014720678329468,-0.6482424736022949,XArbitraryZVertical,-0.5845655733906734,0.2168177618665122,0.2531340916677755,0.7397271628254565,0.6167189478874207,0.7550701498985291,-0.2225462943315506,0,0,0,-1,-1,5783.297119791667,unknown,2,2022-06-30T10:05:50.694+02:00,2022-06-30T08:20:05.567+02:00,1540,1.501556,0,0,1217.191,0,0,2022-06-30T10:05:15.030+02:00
2022-06-30T10:05:53.879+02:00,5786.481722750001,0.02020263671875,0.528778076171875,-0.52899169921875,5786.471771750001,1.21616763386271,1.177472763271869,-0.8470949384973128,3.723530769348145,0.1157372295856476,-0.5948100686073303,-1.258787035942078,0.7597039937973022,-0.571704626083374,XArbitraryZVertical,-0.5697463197836785,0.2202242964450958,0.2458122696711443,0.7526398895002214,0.6116004586219788,0.7493599653244019,-0.2537807822227478,0,0,0,-1,-1,5783.297119791667,unknown,2,2022-06-30T10:05:50.694+02:00,2022-06-30T08:20:05.567+02:00,1540,1.501556,0,0,1217.191,0,0,2022-06-30T10:05:15.030+02:00
2022-06-30T10:05:53.889+02:00,5786.49167475,0.1785888671875,0.552581787109375,-0.4614410400390625,5786.481722750001,1.169404565705663,1.145088516858916,-0.8396141998351564,2.600038051605225,0.4227656424045563,-0.5401154756546021,-0.8791323304176331,0.2093194127082825,-0.3329155743122101,XArbitraryZVertical,-0.5587396960098984,0.22345264034851,0.2395099786288366,0.7619145709541519,0.6081511378288269,0.7443855404853821,-0.2757577300071716,0,0,0,-1,-1,5783.297119791667,unknown,2,2022-06-30T10:05:50.694+02:00,2022-06-30T08:20:05.567+02:00,1540,1.501556,0,0,1217.191,0,0,2022-06-30T10:05:15.030+02:00
2022-06-30T10:05:53.899+02:00,5786.50162575,0.2512359619140625,0.7812042236328125,-0.406097412109375,5786.49167475,1.138222050933616,1.127984157703604,-0.8361522445544201,1.549907803535461,0.7754589915275574,-0.5848448872566223,-0.5854683518409729,-0.2132911086082458,-0.241770476102829,XArbitraryZVertical,-0.552298318149283,0.226618264141361,0.2333746029457538,0.7675591679857333,0.6056706309318542,0.7420693635940552,-0.2872214615345001,0,0,0,-1,-1,5783.297119791667,unknown,2,2022-06-30T10:05:50.694+02:00,2022-06-30T08:20:05.567+02:00,1540,1.501556,0,0,1217.191,0,0,2022-06-30T10:05:15.030+02:00
2022-06-30T10:05:53.909+02:00,5786.51157675,0.210662841796875,1.07098388671875,-0.34967041015625,5786.50162575,1.11689662887954,1.120708277831773,-0.8359890663388445,1.130851745605469,0.9268156290054321,-0.6169065237045288,-0.4250852465629578,-0.1893780827522278,-0.1697679460048676,XArbitraryZVertical,-0.548983566367832,0.2297398874728504,0.2272245183499413,0.770847353809142,0.6036738157272339,0.7419599890708923,-0.2916732430458069,0,0,0,-1,-1,5783.297119791667,unknown,2,2022-06-30T10:05:50.694+02:00,2022-06-30T08:20:05.567+02:00,1540,1.501556,0,0,1217.191,0,0,2022-06-30T10:05:15.030+02:00
2022-06-30T10:05:53.919+02:00,5786.52152875,0.170562744140625,1.259078979492188,-0.3077392578125,5786.51157675,1.097795443969764,1.11618758324479,-0.8366322503423521,1.170997619628906,1.02021312713623,-0.6142244935035706,-0.350684642791748,0.03881329298019409,-0.1119079291820526,XArbitraryZVertical,-0.5464426442159237,0.2330355898093917,0.2208969803427111,0.773498169384945,0.6019202470779419,0.742391049861908,-0.2941896915435791,0,0,0,-1,-1,5783.297119791667,unknown,2,2022-06-30T10:05:50.694+02:00,2022-06-30T08:20:05.567+02:00,1540,1.501556,0,0,1217.191,0,0,2022-06-30T10:05:15.030+02:00
2022-06-30T10:05:53.929+02:00,5786.53147975,0.1842498779296875,1.2728271484375,-0.24212646484375,5786.52152875,1.07641027720605,1.110796044820811,-0.8365774197544448,1.431199312210083,1.073207259178162,-0.6466103196144104,-0.3896993398666382,0.328629732131958,-0.05222189426422119,XArbitraryZVertical,-0.5433292924078815,0.2367887150133396,0.2140955245685469,0.7764583449232804,0.6003618836402893,0.7423543334007263,-0.2974487543106079,0,0,0,-1,-1,5783.297119791667,unknown,2,2022-06-30T10:05:50.694+02:00,2022-06-30T08:20:05.567+02:00,1540,1.501556,0,0,1217.191,0,0,2022-06-30T10:05:15.030+02:00
2022-06-30T10:05:53.939+02:00,5786.54143175,0.168243408203125,1.174041748046875,-0.2689208984375,5786.53147975,1.050483744550545,1.101941633691437,-0.8355786079415537,1.785779714584351,1.013015270233154,-0.7363154888153076,-0.4278033375740051,0.5173943638801575,-0.004651755094528198,XArbitraryZVertical,-0.5390224659587184,0.2406468326297334,0.2066953439458638,0.7802697931510125,0.5983657836914062,0.7416847348213196,-0.3030877709388733,0,0,0,-1,-1,5783.297119791667,unknown,2,2022-06-30T10:05:50.694+02:00,2022-06-30T08:20:05.567+02:00,1540,1.501556,0,0,1217.191,0,0,2022-06-30T10:05:15.030+02:00
2022-06-30T10:05:53.949+02:00,5786.55138275,0.12347412109375,1.063796997070312,-0.360260009765625,5786.54143175,1.020085008904652,1.089361888905146,-0.8338968449616109,1.971792459487915,1.006318092346191,-0.8285468816757202,-0.4113609194755554,0.532271683216095,0.06904131174087524,XArbitraryZVertical,-0.5335791726271495,0.2443547660150002,0.1986653696969405,0.7849306631530998,0.595610499382019,0.7405556440353394,-0.3111680150032043,0,0,0,-1,-1,5783.297119791667,unknown,2,2022-06-30T10:05:50.694+02:00,2022-06-30T08:20:05.567+02:00,1540,1.501556,0,0,1217.191,0,0,2022-06-30T10:05:15.030+02:00
2022-06-30T10:05:53.959+02:00,5786.56133375,0.091888427734375,1.121017456054688,-0.4103851318359375,5786.55138275,0.9886423242219984,1.076523726044839,-0.8320854244463751,1.960541129112244,1.081510901451111,-0.8072013854980469,-0.4245034456253052,0.4347046613693237,0.05050340294837952,XArbitraryZVertical,-0.5279281479785759,0.2481523983988149,0.190220318937552,0.7896381617443916,0.5927465558052063,0.739337146282196,-0.3194245100021362,0,0,0,-1,-1,5783.297119791667,unknown,2,2022-06-30T10:05:50.694+02:00,2022-06-30T08:20:05.567+02:00,1540,1.501556,0,0,1217.191,0,0,2022-06-30T10:05:15.030+02:00
2022-06-30T10:05:53.969+02:00,5786.57128575,0.0355072021484375,1.250518798828125,-0.32550048828125,5786.56133375,0.9577251779113193,1.064508762876715,-0.8292096739407836,2.007461309432983,1.090998649597168,-0.6933475732803345,-0.4672491550445557,0.3263993859291077,-0.03270739316940308,XArbitraryZVertical,-0.5220799157706479,0.2523016783337382,0.1819591836558194,0.7941456457189741,0.5907230377197266,0.7373977899551392,-0.327552855014801,0,0,0,-1,-1,5783.297119791667,unknown,2,2022-06-30T10:05:50.694+02:00,2022-06-30T08:20:05.567+02:00,1540,1.501556,0,0,1217.191,0,0,2022-06-30T10:05:15.030+02:00
2022-06-30T10:05:53.979+02:00,5786.58123675,0.018768310546875,1.33123779296875,-0.216827392578125,5786.57128575,0.9265969789395962,1.052403661083704,-0.8249486695651717,2.116389751434326,1.085928201675415,-0.6364752054214478,-0.4975505471229553,0.3865044713020325,-0.07415243983268738,XArbitraryZVertical,-0.5157371776254317,0.2567071636704265,0.1739175113912589,0.798667158892357,0.5894386172294617,0.7345129251480103,-0.3362331986427307,0,0,0,-1,-1,5783.297119791667,unknown,2,2022-06-30T10:05:50.694+02:00,2022-06-30T08:20:05.567+02:00,1540,1.501556,0,0,1217.191,0,0,2022-06-30T10:05:15.030+02:00
2022-06-30T10:05:53.989+02:00,5786.59118775,0.0640869140625,1.378402709960938,-0.084747314453125,5786.58123675,0.8941372829261734,1.03933920159574,-0.8191900148437967,2.311691045761108,1.056931376457214,-0.5785638689994812,-0.5531255602836609,0.5199258923530579,0.02054217457771301,XArbitraryZVertical,-0.5086220626941136,0.2613085213826364,0.1658843828800159,0.8034325154764256,0.5886324644088745,0.7305930256843567,-0.3460429012775421,0,0,0,-1,-1,5783.297119791667,unknown,2,2022-06-30T10:05:50.694+02:00,2022-06-30T08:20:05.567+02:00,1540,1.501556,0,0,1217.191,0,0,2022-06-30T10:05:15.030+02:00
2022-06-30T10:05:53.999+02:00,5786.601139750001,0.1044158935546875,1.327545166015625,-0.0672760009765625,5786.59118775,0.8598256331560984,1.024464209836454,-0.8118227165888124,2.4949631690979,0.9792382121086121,-0.5851181745529175,-0.5692352652549744,0.6056951284408569,0.1407193839550018,XArbitraryZVertical,-0.5005384952722886,0.2658715748200452,0.1578591103749708,0.8086123634387016,0.5880032181739807,0.7255427241325378,-0.3575470447540283,0,0,0,-1,-1,5783.297119791667,unknown,2,2022-06-30T10:05:50.694+02:00,2022-06-30T08:20:05.567+02:00,1540,1.501556,0,0,1217.191,0,0,2022-06-30T10:05:15.030+02:00
2022-06-30T10:05:54.008+02:00,5786.611090750001,0.1723175048828125,1.261077880859375,-0.1519317626953125,5786.601139750001,0.8238841947007172,1.008056841791618,-0.8038596940441339,2.585267305374146,0.9427423477172852,-0.6752876043319702,-0.522839367389679,0.6583629846572876,0.2854691743850708,XArbitraryZVertical,-0.491852682873812,0.2701343389279297,0.1495334746657399,0.8140934228797991,0.5869260430335999,0.7200398445129395,-0.3702167570590973,0,0,0,-1,-1,5783.297119791667,unknown,2,2022-06-30T10:05:50.694+02:00,2022-06-30T08:20:05.567+02:00,1540,1.501556,0,0,1217.191,0,0,2022-06-30T10:05:15.030+02:00
2022-06-30T10:05:54.018+02:00,5786.62104275,0.1884002685546875,1.20587158203125,-0.2339019775390625,5786.611090750001,0.7873775907377072,0.9909598567885441,-0.7957919772856066,2.567168951034546,0.8860340118408203,-0.7064047455787659,-0.4809360504150391,0.6131272912025452,0.3160908818244934,XArbitraryZVertical,-0.4829390698029615,0.2740187097933519,0.1409677447007336,0.8196412748313701,0.5853517651557922,0.7144179940223694,-0.3833672106266022,0,0,0,-1,-1,5783.297119791667,unknown,2,2022-06-30T10:05:50.694+02:00,2022-06-30T08:20:05.567+02:00,1540,1.501556,0,0,1217.191,0,0,2022-06-30T10:05:15.030+02:00
2022-06-30T10:05:54.029+02:00,5786.63099375,0.1714630126953125,1.159423828125,-0.2208709716796875,5786.62104275,0.7523226773627276,0.9747062165540687,-0.7878544835363257,2.429493427276611,0.8681062459945679,-0.7032535672187805,-0.4114007949829102,0.5522364377975464,0.2440693378448486,XArbitraryZVertical,-0.4742718922867144,0.2776066618254944,0.1325531582812623,0.824882118459318,0.5837180018424988,0.7088415026664734,-0.3960014283657074,0,0,0,-1,-1,5783.297119791667,unknown,2,2022-06-30T10:05:50.694+02:00,2022-06-30T08:20:05.567+02:00,1540,1.501556,0,0,1217.191,0,0,2022-06-30T10:05:15.030+02:00
2022-06-30T10:05:54.038+02:00,5786.64094475,0.16741943359375,1.151962280273438,-0.2135009765625,5786.63099375,0.719416884396045,0.9603056840495046,-0.7802612835050171,2.305989742279053,0.918516993522644,-0.6879886388778687,-0.3939483761787415,0.5024064779281616,0.1735374927520752,XArbitraryZVertical,-0.466094969319398,0.2811327639196116,0.1243123105930126,0.8296181282914616,0.5823483467102051,0.7034651637077332,-0.4074397087097168,0,0,0,-1,-1,5783.297119791667,unknown,2,2022-06-30T10:05:50.694+02:00,2022-06-30T08:20:05.567+02:00,1540,1.501556,0,0,1217.191,0,0,2022-06-30T10:05:15.030+02:00
2022-06-30T10:05:54.048+02:00,5786.65089675,0.175750732421875,1.123931884765625,-0.23260498046875,5786.64094475,0.6881588771797013,0.9479488023155543,-0.7727757316049646,2.225764274597168,1.006030797958374,-0.6782780289649963,-0.4100673794746399,0.4612985849380493,0.1967933773994446,XArbitraryZVertical,-0.4582642666410277,0.2848887067118344,0.1160953973353644,0.8338789127720626,0.5815300941467285,0.6981253027915955,-0.4176645874977112,0,0,0,-1,-1,5783.297119791667,unknown,2,2022-06-30T10:05:50.694+02:00,2022-06-30T08:20:05.567+02:00,1540,1.501556,0,0,1217.191,0,0,2022-06-30T10:05:15.030+02:00
2022-06-30T10:05:54.058+02:00,5786.66084775,0.2027740478515625,1.097686767578125,-0.233062744140625,5786.65089675,0.6572713569789,0.9369149403384865,-0.7654641954772587,2.253310680389404,1.094613194465637,-0.755114734172821,-0.4135645627975464,0.459090530872345,0.2135661840438843,XArbitraryZVertical,-0.4505717038325994,0.288879565438063,0.1075490650387958,0.8378347267340668,0.5809838175773621,0.6928718090057373,-0.4270674586296082,0,0,0,-1,-1,5783.297119791667,unknown,2,2022-06-30T10:05:50.694+02:00,2022-06-30T08:20:05.567+02:00,1540,1.501556,0,0,1217.191,0,0,2022-06-30T10:05:15.030+02:00
2022-06-30T10:05:54.068+02:00,5786.670799750001,0.23297119140625,1.121963500976562,-0.1771240234375,5786.66084775,0.6254371899368217,0.9261522647906393,-0.7581938716783015,2.371878623962402,1.158166646957397,-0.8161123394966125,-0.4046145677566528,0.4363207817077637,0.2037058472633362,XArbitraryZVertical,-0.4427162585558685,0.2929961438377054,0.09840469789106526,0.8417079279809407,0.5803650617599487,0.6876111626625061,-0.4363111555576324,0,0,0,-1,-1,5783.297119791667,unknown,2,2022-06-30T10:05:50.694+02:00,2022-06-30T08:20:05.567+02:00,1540,1.501556,0,0,1217.191,0,0,2022-06-30T10:05:15.030+02:00
2022-06-30T10:05:54.078+02:00,5786.680750750001,0.220703125,1.140029907226562,-0.1549835205078125,5786.670799750001,0.5916470825279058,0.9146567649605685,-0.7497666356522437,2.57877516746521,1.189187407493591,-0.8296781778335571,-0.3771083354949951,0.4162187576293945,0.2134099900722504,XArbitraryZVertical,-0.4340494000694096,0.2972618607064567,0.08874546726863229,0.8457899915427222,0.579882025718689,0.6814680099487305,-0.4464730024337769,0,0,0,-1,-1,5783.297119791667,unknown,2,2022-06-30T10:05:50.694+02:00,2022-06-30T08:20:05.567+02:00,1540,1.501556,0,0,1217.191,0,0,2022-06-30T10:05:15.030+02:00
2022-06-30T10:05:54.089+02:00,5786.690701750001,0.227569580078125,1.088287353515625,-0.1822662353515625,5786.680750750001,0.5567554966898992,0.903212086625483,-0.7406228574293752,2.601011753082275,1.27661120891571,-0.8829032778739929,-0.3466329574584961,0.4472157955169678,0.2797945737838745,XArbitraryZVertical,-0.4248830683134616,0.3016867909022785,0.07862803380208989,0.8498689094427809,0.579603910446167,0.6747477650642395,-0.4569189250469208,0,0,0,-1,-1,5783.297119791667,unknown,2,2022-06-30T10:05:50.694+02:00,2022-06-30T08:20:05.567+02:00,1540,1.501556,0,0,1217.191,0,0,2022-06-30T10:05:15.030+02:00
2022-06-30T10:05:54.098+02:00,5786.70065375,0.2241668701171875,1.082839965820312,-0.23529052734375,5786.690701750001,0.521846978221261,0.8928416382459229,-0.7315240545148488,2.593668937683105,1.357977509498596,-0.9125730395317078,-0.3588892817497253,0.4720253348350525,0.3117525577545166,XArbitraryZVertical,-0.4156996994473182,0.3063096069111328,0.06810903597670449,0.8536564393854174,0.5795921683311462,0.66800457239151,-0.466736376285553,0,0,0,-1,-1,5783.297119791667,unknown,2,2022-06-30T10:05:50.694+02:00,2022-06-30T08:20:05.567+02:00,1540,1.501556,0,0,1217.191,0,0,2022-06-30T10:05:15.030+02:00
2022-06-30T10:05:54.108+02:00,5786.71060475,0.2081756591796875,1.065826416015625,-0.37274169921875,5786.70065375,0.4880084213897966,0.8844212368839712,-0.7229057168757799,2.444722652435303,1.487497329711914,-0.9502313733100891,-0.3525041937828064,0.4267208576202393,0.2929646074771881,XArbitraryZVertical,-0.4068545884597812,0.3112134036379662,0.05739144296899474,0.8569258062081455,0.5800735354423523,0.661566436290741,-0.4752311110496521,0,0,0,-1,-1,5783.297119791667,unknown,2,2022-06-30T10:05:50.694+02:00,2022-06-30T08:20:05.567+02:00,1540,1.501556,0,0,1217.191,0,0,2022-06-30T10:05:15.030+02:00
2022-06-30T10:05:54.118+02:00,5786.72055675,0.22344970703125,1.09710693359375,-0.44012451171875,5786.71060475,0.4550822262425189,0.8784372645879945,-0.7154221963435018,2.375305891036987,1.67205548286438,-1.041753530502319,-0.3568474650382996,0.4269038438796997,0.2465498447418213,XArbitraryZVertical,-0.3985828591621375,0.3165617599959158,0.04619805986951265,0.8595267187141478,0.581014096736908,0.6559361815452576,-0.4818406999111176,0,0,0,-1,-1,5783.297119791667,unknown,2,2022-06-30T10:05:50.694+02:00,2022-06-30T08:20:05.567+02:00,1540,1.501556,0,0,1217.191,0,0,2022-06-30T10:05:15.030+02:00
2022-06-30T10:05:54.128+02:00,5786.73050775,0.2187042236328125,1.188583374023438,-0.4073333740234375,5786.72055675,0.4221117752157634,0.8742225864525948,-0.7080799766903737,2.434916496276855,1.805920481681824,-1.013282418251038,-0.3744811415672302,0.4154499173164368,0.1146200299263,XArbitraryZVertical,-0.3903070512586674,0.3224583298239271,0.03451882877184852,0.8616783421228096,0.5826566219329834,0.6503764986991882,-0.4873620569705963,0,0,0,-1,-1,5783.297119791667,unknown,2,2022-06-30T10:05:50.694+02:00,2022-06-30T08:20:05.567+02:00,1540,1.501556,0,0,1217.191,0,0,2022-06-30T10:05:15.030+02:00
2022-06-30T10:05:54.138+02:00,5786.74045875,0.194305419921875,1.2744140625,-0.305267333984375,5786.73050775,0.3887546543676257,0.8709671434071807,-0.6994398956829703,2.600275278091431,1.881596565246582,-0.9367082715034485,-0.3618941903114319,0.4533177018165588,0.05273246765136719,XArbitraryZVertical,-0.3813553069896047,0.3288456758308004,0.02270886448695845,0.8636625825103066,0.5853437185287476,0.6437891721725464,-0.4928573071956635,0,0,0,-1,-1,5783.297119791667,unknown,2,2022-06-30T10:05:50.694+02:00,2022-06-30T08:20:05.567+02:00,1540,1.501556,0,0,1217.191,0,0,2022-06-30T10:05:15.030+02:00
2022-06-30T10:05:54.148+02:00,5786.75041075,0.190673828125,1.174789428710938,-0.3308258056640625,5786.74045875,0.354633327228222,0.8682514342319635,-0.6894570081332897,2.718452215194702,1.974315762519836,-0.9423763155937195,-0.3701748847961426,0.55246502161026,0.09123951196670532,XArbitraryZVertical,-0.3716131994418173,0.33558460962856,0.01069678919312197,0.8655473819395829,0.588878870010376,0.6361182928085327,-0.4985732138156891,0,0,0,-1,-1,5783.297119791667,unknown,2,2022-06-30T10:05:50.694+02:00,2022-06-30T08:20:05.567+02:00,1540,1.501556,0,0,1217.191,0,0,2022-06-30T10:05:15.030+02:00
2022-06-30T10:05:54.158+02:00,5786.76036175,0.2397918701171875,1.02899169921875,-0.38848876953125,5786.75041075,0.3186856225100634,0.8657206123519224,-0.678901794630396,2.93636417388916,2.081903219223022,-1.06701672077179,-0.398390531539917,0.6464752554893494,0.1991178393363953,XArbitraryZVertical,-0.3611893692808122,0.3425630855109563,-0.00208468265747589,0.8672880393410295,0.5926958322525024,0.6279386878013611,-0.5043855309486389,0,0,0,-1,-1,5783.297119791667,unknown,2,2022-06-30T10:05:50.694+02:00,2022-06-30T08:20:05.567+02:00,1540,1.501556,0,0,1217.191,0,0,2022-06-30T10:05:15.030+02:00
2022-06-30T10:05:54.168+02:00,5786.77031275,0.274505615234375,1.047958374023438,-0.3125762939453125,5786.76036175,0.2793239638107549,0.8620780376193293,-0.6675527790507857,3.232967376708984,2.118515253067017,-1.195528984069824,-0.4055531620979309,0.5557233691215515,0.1803206205368042,XArbitraryZVertical,-0.3497024964391668,0.3494778860198918,-0.01605358741298521,0.8690890160172421,0.5962268114089966,0.6190659403800964,-0.5111467242240906,0,0,0,-1,-1,5783.297119791667,unknown,2,2022-06-30T10:05:50.694+02:00,2022-06-30T08:20:05.567+02:00,1540,1.501556,0,0,1217.191,0,0,2022-06-30T10:05:15.030+02:00
2022-06-30T10:05:54.177+02:00,5786.78026475,0.2528839111328125,1.0364990234375,-0.2499542236328125,5786.77031275,0.2379464274767495,0.8578381857928857,-0.6557241662729578,3.261386871337891,2.150028228759766,-1.286820888519287,-0.359760046005249,0.4192582368850708,0.1299344897270203,XArbitraryZVertical,-0.337513143287201,0.3561924634293353,-0.03078607368183188,0.8707836405153735,0.5995517373085022,0.6097334027290344,-0.5184236168861389,0,0,0,-1,-1,5783.297119791667,unknown,2,2022-06-30T10:05:50.694+02:00,2022-06-30T08:20:05.567+02:00,1540,1.501556,0,0,1217.191,0,0,2022-06-30T10:05:15.030+02:00
2022-06-30T10:05:54.189+02:00,5786.79021575,0.2547149658203125,1.09515380859375,-0.2263641357421875,5786.78026475,0.1957839950049125,0.8538949838820972,-0.6445077434181173,3.336334705352783,2.185308218002319,-1.420906782150269,-0.3281152248382568,0.4471532106399536,0.2126678228378296,XArbitraryZVertical,-0.3252841715353686,0.3627230076504325,-0.04613496240324545,0.8720629968721516,0.6026206612586975,0.6008049845695496,-0.5252444744110107,0,0,0,-1,-1,5783.297119791667,unknown,2,2022-06-30T10:05:50.694+02:00,2022-06-30T08:20:05.567+02:00,1540,1.501556,0,0,1217.191,0,0,2022-06-30T10:05:15.030+02:00
2022-06-30T10:05:54.203+02:00,5786.800167750001,0.2264251708984375,1.0977783203125,-0.269500732421875,5786.79021575,0.1521510628974433,0.8496816427510563,-0.6331582572854603,3.44351053237915,2.204339504241943,-1.488365411758423,-0.352601170539856,0.4448050856590271,0.2822921276092529,XArbitraryZVertical,-0.312591858459859,0.3690026889433013,-0.06214157641137957,0.8730760924743415,0.6054849624633789,0.5916937589645386,-0.5322467088699341,0,0,0,-1,-1,5783.297119791667,unknown,2,2022-06-30T10:05:50.694+02:00,2022-06-30T08:20:05.567+02:00,1540,1.501556,0,0,1217.191,0,0,2022-06-30T10:05:15.030+02:00
2022-06-30T10:05:54.208+02:00,5786.810118750001,0.2242584228515625,0.9785919189453125,-0.3217926025390625,5786.800167750001,0.107508192376694,0.8456733923375758,-0.622044838897039,3.498049259185791,2.270423412322998,-1.655078411102295,-0.3535159230232239,0.5124554634094238,0.3126329779624939,XArbitraryZVertical,-0.299665883471001,0.3751021917898728,-0.07875308673023948,0.8736684970486659,0.6082307100296021,0.5826981663703918,-0.5389974117279053,0,0,0,-1,-1,5783.297119791667,unknown,2,2022-06-30T10:05:50.694+02:00,2022-06-30T08:20:05.567+02:00,1540,1.501556,0,0,1217.191,0,0,2022-06-30T10:05:15.030+02:00
2022-06-30T10:05:54.217+02:00,5786.820069750001,0.2595062255859375,1.000274658203125,-0.2647247314453125,5786.810118750001,0.06075559246929818,0.8414654614650211,-0.6114620053838448,3.627050876617432,2.317214250564575,-1.823902606964111,-0.3840961456298828,0.5237129926681519,0.2761298418045044,XArbitraryZVertical,-0.2864442037575136,0.3809649153909107,-0.09643794392950562,0.8737936121281854,0.6105212569236755,0.5740651488304138,-0.545630931854248,0,0,0,-1,-1,5783.297119791667,unknown,2,2022-06-30T10:05:50.694+02:00,2022-06-30T08:20:05.567+02:00,1540,1.501556,0,0,1217.191,0,0,2022-06-30T10:05:15.030+02:00
2022-06-30T10:05:54.227+02:00,5786.83002175,0.2303314208984375,1.065780639648438,-0.2334442138671875,5786.820069750001,0.01304047868979869,0.8372793183998245,-0.601000634320688,3.625278234481812,2.318231821060181,-1.868591904640198,-0.388401210308075,0.4131236672401428,0.2303794622421265,XArbitraryZVertical,-0.2729626181706503,0.3865297387169875,-0.1146358249449122,0.8734671106042253,0.6126594543457031,0.5654680728912354,-0.5521723628044128,0,0,0,-1,-1,5783.297119791667,unknown,2,2022-06-30T10:05:50.694+02:00,2022-06-30T08:20:05.567+02:00,1540,1.501556,0,0,1217.191,0,0,2022-06-30T10:05:15.030+02:00
2022-06-30T10:05:54.237+02:00,5786.83997275,0.244842529296875,1.149368286132812,-0.2402801513671875,5786.83002175,-0.03515689993701306,0.833513241413222,-0.5908273176573174,3.730853796005249,2.367465972900391,-1.995789766311646,-0.3552964925765991,0.443226158618927,0.2935893535614014,XArbitraryZVertical,-0.2593681032707388,0.3918813449850755,-0.1332093310555271,0.8725895262047303,0.6148025989532471,0.5570482611656189,-0.5583143830299377,0,0,0,-1,-1,5783.297119791667,unknown,2,2022-06-30T10:05:50.694+02:00,2022-06-30T08:20:05.567+02:00,1540,1.501556,0,0,1217.191,0,0,2022-06-30T10:05:15.030+02:00
2022-06-30T10:05:54.247+02:00,5786.849923875,0.248321533203125,1.179580688476562,-0.2538299560546875,5786.83997275,-0.08618553502626573,0.8289001461899181,-0.5796672373177834,4.115452766418457,2.368236541748047,-2.098247289657593,-0.3864338994026184,0.518034815788269,0.3318656086921692,XArbitraryZVertical,-0.2447301479864144,0.3968023516941115,-0.1527656701387425,0.871388368109326,0.6167652010917664,0.5477455854415894,-0.5653101205825806,0,0,0,-1,-1,5783.297119791667,unknown,2,2022-06-30T10:05:50.694+02:00,2022-06-30T08:20:05.567+02:00,1540,1.501556,0,0,1217.191,0,0,2022-06-30T10:05:15.030+02:00
2022-06-30T10:05:54.257+02:00,5786.859874875,0.2725982666015625,1.1224365234375,-0.2289276123046875,5786.849923875,-0.14175455745147,0.8222044073085542,-0.5665983845772498,4.570335865020752,2.353287935256958,-2.354671955108643,-0.3733158707618713,0.6126029491424561,0.3339699506759644,XArbitraryZVertical,-0.2284195780574033,0.4008731681442066,-0.1737529954483743,0.8700201723967744,0.6181583404541016,0.5367650985717773,-0.5742504000663757,0,0,0,-1,-1,5783.297119791667,unknown,2,2022-06-30T10:05:50.694+02:00,2022-06-30T08:20:05.567+02:00,1540,1.501556,0,0,1217.191,0,0,2022-06-30T10:05:15.030+02:00
2022-06-30T10:05:54.267+02:00,5786.869825875,0.3044586181640625,1.110321044921875,-0.16888427734375,5786.859874875,-0.2028356897152576,0.8130206178109874,-0.5518902761770749,5.030910015106201,2.311598062515259,-2.567785024642944,-0.3702051043510437,0.6552826166152954,0.3314361572265625,XArbitraryZVertical,-0.2104489966686172,0.4038292106704546,-0.1966526713375794,0.8683092356049488,0.6185265779495239,0.5242977738380432,-0.5852663516998291,0,0,0,-1,-1,5783.297119791667,unknown,2,2022-06-30T10:05:50.694+02:00,2022-06-30T08:20:05.567+02:00,1540,1.501556,0,0,1217.191,0,0,2022-06-30T10:05:15.030+02:00
2022-06-30T10:05:54.277+02:00,5786.879777875,0.2914276123046875,1.146804809570312,-0.104522705078125,5786.869825875,-0.2677323196837425,0.8019898038399589,-0.5350706600544405,5.355698585510254,2.229420185089111,-2.71497631072998,-0.3456861972808838,0.6125343441963196,0.3691728711128235,XArbitraryZVertical,-0.1909639393995609,0.4055643081874811,-0.2207716247661348,0.8662044868074148,0.6182844042778015,0.5099018216133118,-0.5981007218360901,0,0,0,-1,-1,5783.297119791667,unknown,2,2022-06-30T10:05:50.694+02:00,2022-06-30T08:20:05.567+02:00,1540,1.501556,0,0,1217.191,0,0,2022-06-30T10:05:15.030+02:00
2022-06-30T10:05:54.287+02:00,5786.889728875,0.2767333984375,1.1539306640625,-0.12890625,5786.879777875,-0.3350034031384496,0.7899826406015481,-0.5174206756344839,5.456108570098877,2.156816244125366,-2.927461624145508,-0.3128973245620728,0.6156806945800781,0.4428366422653198,XArbitraryZVertical,-0.1708112017157131,0.4061562705353116,-0.2458281913127,0.8633824204926496,0.6173559427261353,0.4946401119232178,-0.6117212176322937,0,0,0,-1,-1,5783.297119791667,unknown,2,2022-06-30T10:05:50.694+02:00,2022-06-30T08:20:05.567+02:00,1540,1.501556,0,0,1217.191,0,0,2022-06-30T10:05:15.030+02:00
2022-06-30T10:05:54.297+02:00,5786.899679875,0.27337646484375,1.138565063476562,-0.202972412109375,5786.889728875,-0.403063761805835,0.7779799137361021,-0.5005516955743972,5.351611614227295,2.107901334762573,-3.122373580932617,-0.3243108987808228,0.6668949127197266,0.5204193592071533,XArbitraryZVertical,-0.1509800000177317,0.4058741932135202,-0.271474888061327,0.859518882185007,0.6157385110855103,0.4799096286296844,-0.6249423623085022,0,0,0,-1,-1,5783.297119791667,unknown,2,2022-06-30T10:05:50.694+02:00,2022-06-30T08:20:05.567+02:00,1540,1.501556,0,0,1217.191,0,0,2022-06-30T10:05:15.030+02:00
2022-06-30T10:05:54.307+02:00,5786.909631875001,0.2609100341796875,1.111602783203125,-0.2769012451171875,5786.899679875,-0.4698733584541177,0.7671578258320966,-0.4854609562979648,5.044262409210205,2.082280158996582,-3.224945068359375,-0.3371632099151611,0.6873142719268799,0.5078041553497314,XArbitraryZVertical,-0.1322020843798003,0.4051756155844263,-0.2970168455474363,0.8544802488787411,0.6138966083526611,0.4666160941123962,-0.6367106437683105,0,0,0,-1,-1,5783.297119791667,unknown,2,2022-06-30T10:05:50.694+02:00,2022-06-30T08:20:05.567+02:00,1540,1.501556,0,0,1217.191,0,0,2022-06-30T10:05:15.030+02:00
2022-06-30T10:05:54.317+02:00,5786.919582875001,0.2599029541015625,1.094940185546875,-0.2713775634765625,5786.909631875001,-0.5338610406252965,0.7583585582445315,-0.4731209988033702,4.628521919250488,2.083844423294067,-3.310916662216187,-0.3388074040412903,0.6828980445861816,0.4432463049888611,XArbitraryZVertical,-0.115084994820134,0.4045318331617571,-0.3218896787841668,0.848231410883487,0.6121838688850403,0.4556666612625122,-0.6462188959121704,0,0,0,-1,-1,5783.297119791667,unknown,2,2022-06-30T10:05:50.694+02:00,2022-06-30T08:20:05.567+02:00,1540,1.501556,0,0,1217.191,0,0,2022-06-30T10:05:15.030+02:00
2022-06-30T10:05:54.327+02:00,5786.929534875,0.2547607421875,1.141616821289062,-0.235015869140625,5786.919582875001,-0.5955380032018247,0.7511398190826359,-0.4631090568161049,4.449516296386719,2.063776969909668,-3.36101245880127,-0.3496760129928589,0.6648706197738647,0.3770215511322021,XArbitraryZVertical,-0.09935644276382245,0.4039390931847047,-0.3461275865121488,0.8409263831247732,0.6105860471725464,0.446731835603714,-0.6539230346679688,0,0,0,-1,-1,5783.297119791667,unknown,2,2022-06-30T10:05:50.694+02:00,2022-06-30T08:20:05.567+02:00,1540,1.501556,0,0,1217.191,0,0,2022-06-30T10:05:15.030+02:00
2022-06-30T10:05:54.337+02:00,5786.939485875,0.241180419921875,1.135147094726562,-0.2092742919921875,5786.929534875,-0.6565968415257297,0.7443443748324255,-0.4537685376764661,4.405611991882324,2.024816751480103,-3.4496750831604,-0.3490258455276489,0.6565840244293213,0.3897197842597961,XArbitraryZVertical,-0.08410737462740728,0.4029605211683213,-0.3700907847378381,0.8328155282215031,0.6089288592338562,0.4383558034896851,-0.661097526550293,0,0,0,-1,-1,5783.297119791667,unknown,2,2022-06-30T10:05:50.694+02:00,2022-06-30T08:20:05.567+02:00,1540,1.501556,0,0,1217.191,0,0,2022-06-30T10:05:15.030+02:00
2022-06-30T10:05:54.347+02:00,5786.949436875,0.231597900390625,1.091140747070312,-0.1612091064453125,5786.939485875,-0.7179287599529832,0.7377654008799009,-0.4452620569271241,4.338823318481445,2.007283449172974,-3.581571340560913,-0.3522917628288269,0.7109220623970032,0.4328083992004395,XArbitraryZVertical,-0.06927211973000016,0.4016081805025147,-0.3941246980317114,0.8237585020103363,0.6070526242256165,0.4306944012641907,-0.6678245067596436,0,0,0,-1,-1,5783.297119791667,unknown,2,2022-06-30T10:05:50.694+02:00,2022-06-30T08:20:05.567+02:00,1540,1.501556,0,0,1217.191,0,0,2022-06-30T10:05:15.030+02:00
2022-06-30T10:05:54.357+02:00,5786.959388875001,0.2210235595703125,1.128067016601562,-0.1903839111328125,5786.949436875,-0.7794288075750986,0.7314125009617729,-0.4378100687301851,4.268444061279297,2.017781734466553,-3.696937084197998,-0.3637441992759705,0.7111896276473999,0.4647630453109741,XArbitraryZVertical,-0.0549719034458695,0.3999491982365356,-0.4181690335620779,0.8137280712724885,0.6049246788024902,0.4239571094512939,-0.6740374565124512,0,0,0,-1,-1,5783.297119791667,unknown,2,2022-06-30T10:05:50.694+02:00,2022-06-30T08:20:05.567+02:00,1540,1.501556,0,0,1217.191,0,0,2022-06-30T10:05:15.030+02:00
2022-06-30T10:05:54.367+02:00,5786.969339875001,0.1850433349609375,1.2347412109375,-0.2425537109375,5786.959388875001,-0.840918730546909,0.7257467360417194,-0.4308080842939584,4.268660068511963,2.057079315185547,-3.737484931945801,-0.371453583240509,0.673535168170929,0.5184486508369446,XArbitraryZVertical,-0.04087917701496604,0.3981205128024233,-0.4420428651820082,0.8027622819940397,0.6030515432357788,0.4176051914691925,-0.6796578764915466,0,0,0,-1,-1,5783.297119791667,unknown,2,2022-06-30T10:05:50.694+02:00,2022-06-30T08:20:05.567+02:00,1540,1.501556,0,0,1217.191,0,0,2022-06-30T10:05:15.030+02:00
2022-06-30T10:05:54.377+02:00,5786.979291875,0.14971923828125,1.293685913085938,-0.2920074462890625,5786.969339875001,-0.9031721624761118,0.7205786236525267,-0.4240954547734149,4.26101541519165,2.099915981292725,-3.929777383804321,-0.3803433179855347,0.7165701389312744,0.4944723844528198,XArbitraryZVertical,-0.02680412206568995,0.3960471522735478,-0.4659872823589321,0.7907489934952813,0.6013669967651367,0.4114965498447418,-0.6848563551902771,0,0,0,-1,-1,5783.297119791667,unknown,2,2022-06-30T10:05:50.694+02:00,2022-06-30T08:20:05.567+02:00,1540,1.501556,0,0,1217.191,0,0,2022-06-30T10:05:15.030+02:00
2022-06-30T10:05:54.387+02:00,5786.989242875,0.14691162109375,1.352676391601562,-0.287811279296875,5786.979291875,-0.9671547196564979,0.7155759136979045,-0.4185362782613332,4.307675838470459,2.162438631057739,-4.154361248016357,-0.4143814444541931,0.8283172845840454,0.4470182657241821,XArbitraryZVertical,-0.01300203266105206,0.3937573950982729,-0.4904151030239879,0.7773539013418362,0.5994248986244202,0.4064235091209412,-0.6895720958709717,0,0,0,-1,-1,5783.297119791667,unknown,2,2022-06-30T10:05:50.694+02:00,2022-06-30T08:20:05.567+02:00,1540,1.501556,0,0,1217.191,0,0,2022-06-30T10:05:15.030+02:00
2022-06-30T10:05:54.397+02:00,5786.999193875,0.09613037109375,1.42034912109375,-0.2718353271484375,5786.989242875,-1.032693142167674,0.7108498469085917,-0.4131603354535275,4.374151229858398,2.215918302536011,-4.246599674224854,-0.4478568434715271,0.8921797871589661,0.4020355939865112,XArbitraryZVertical,0.0009268685454607658,0.391123497969844,-0.5150797553101895,0.7627021404687701,0.5975762605667114,0.4015057384967804,-0.6940430998802185,0,0,0,-1,-1,5783.297119791667,unknown,2,2022-06-30T10:05:50.694+02:00,2022-06-30T08:20:05.567+02:00,1540,1.501556,0,0,1217.191,0,0,2022-06-30T10:05:15.030+02:00
2022-06-30T10:05:54.407+02:00,5787.009145875,0.085968017578125,1.423065185546875,-0.1974945068359375,5786.999193875,-1.09925855064867,0.7066490124935194,-0.4081069465021248,4.353493690490723,2.284317493438721,-4.414721012115479,-0.4490534067153931,0.9558035135269165,0.4102701544761658,XArbitraryZVertical,0.014879142107546,0.3882497794105634,-0.539725329126182,0.7468180553995299,0.5959652066230774,0.3968724608421326,-0.6980814337730408,0,0,0,-1,-1,5783.297119791667,unknown,2,2022-06-30T10:05:50.694+02:00,2022-06-30T08:20:05.567+02:00,1540,1.501556,0,0,1217.191,0,0,2022-06-30T10:05:15.030+02:00
2022-06-30T10:05:54.417+02:00,5787.019096875,0.077117919921875,1.389633178710938,-0.1234893798828125,5787.009145875,-1.166312460872214,0.7029598074315414,-0.4045211751866413,4.198452949523926,2.303974390029907,-4.536976337432861,-0.4981714487075806,1.026770114898682,0.4295212030410767,XArbitraryZVertical,0.02828865690944772,0.3853848180527638,-0.5641886800663185,0.7296365744204216,0.5943019986152649,0.3935786187648773,-0.7013565897941589,0,0,0,-1,-1,5783.297119791667,unknown,2,2022-06-30T10:05:50.694+02:00,2022-06-30T08:20:05.567+02:00,1540,1.501556,0,0,1217.191,0,0,2022-06-30T10:05:15.030+02:00
2022-06-30T10:05:54.427+02:00,5787.029047875,0.08056640625,1.375579833984375,-0.0728607177734375,5787.019096875,-1.232234469892223,0.7002223086261758,-0.4032836905024913,3.81658935546875,2.367892503738403,-4.610851764678955,-0.5067249536514282,1.030624151229858,0.5058582425117493,XArbitraryZVertical,0.04065818523617053,0.3829758775667285,-0.5878806394469613,0.7113880098134128,0.5926932096481323,0.3924407064914703,-0.7033527493476868,0,0,0,-1,-1,5783.297119791667,unknown,2,2022-06-30T10:05:50.694+02:00,2022-06-30T08:20:05.567+02:00,1540,1.501556,0,0,1217.191,0,0,2022-06-30T10:05:15.030+02:00
2022-06-30T10:05:54.437+02:00,5787.038999875001,0.1128692626953125,1.432098388671875,-0.08056640625,5787.029047875,-1.295532198457621,0.6993987845691191,-0.4056227965102943,3.363503456115723,2.478221654891968,-4.634190559387207,-0.5144030451774597,0.9950417280197144,0.5796468257904053,XArbitraryZVertical,0.05159842284430229,0.3817976787079285,-0.6102986310373468,0.6921733230944342,0.5915212035179138,0.3945910930633545,-0.7031362652778625,0,0,0,-1,-1,5783.297119791667,unknown,2,2022-06-30T10:05:50.694+02:00,2022-06-30T08:20:05.567+02:00,1540,1.501556,0,0,1217.191,0,0,2022-06-30T10:05:15.030+02:00
2022-06-30T10:05:54.446+02:00,5787.048950875001,0.1751556396484375,1.496078491210938,-0.0834503173828125,5787.038999875001,-1.356783609066103,0.7002300794251577,-0.4108769707455274,3.123712301254272,2.569902181625366,-4.69953441619873,-0.510194718837738,0.9761660099029541,0.6281884908676147,XArbitraryZVertical,0.06153153172935871,0.381692643842671,-0.6315541818326025,0.6720595581680217,0.5907613635063171,0.3994134664535522,-0.7010492086410522,0,0,0,-1,-1,5783.297119791667,unknown,2,2022-06-30T10:05:50.694+02:00,2022-06-30T08:20:05.567+02:00,1540,1.501556,0,0,1217.191,0,0,2022-06-30T10:05:15.030+02:00
2022-06-30T10:05:54.456+02:00,5787.058902875,0.2334747314453125,1.487564086914062,-0.0398712158203125,5787.048950875001,-1.417783247079431,0.7013141572543695,-0.4180125473627574,3.019182443618774,2.587224006652832,-4.80094051361084,-0.4767975211143494,1.026153087615967,0.6176466941833496,XArbitraryZVertical,0.07084274566271839,0.3819355244801896,-0.6521768721891733,0.6509777585010635,0.5896670818328857,0.4059449136257172,-0.6982131004333496,0,0,0,-1,-1,5783.297119791667,unknown,2,2022-06-30T10:05:50.694+02:00,2022-06-30T08:20:05.567+02:00,1540,1.501556,0,0,1217.191,0,0,2022-06-30T10:05:15.030+02:00
2022-06-30T10:05:54.466+02:00,5787.068853875,0.2725830078125,1.533981323242188,0.070343017578125,5787.058902875,-1.479107764811415,0.7019214477779635,-0.4260523848480753,3.002275943756104,2.571269035339355,-4.819882869720459,-0.4128085970878601,1.082798838615417,0.6118898391723633,XArbitraryZVertical,0.07980064357960027,0.38204945636056,-0.672268044075251,0.6290673886317407,0.5879645347595215,0.4132793247699738,-0.6953401565551758,0,0,0,-1,-1,5783.297119791667,unknown,2,2022-06-30T10:05:50.694+02:00,2022-06-30T08:20:05.567+02:00,1540,1.501556,0,0,1217.191,0,0,2022-06-30T10:05:15.030+02:00
2022-06-30T10:05:54.476+02:00,5787.078804875,0.309356689453125,1.561798095703125,0.165313720703125,5787.068853875,-1.540427593708858,0.7016077497512092,-0.4342197867689953,2.956719636917114,2.504801511764526,-4.795833587646484,-0.3520731329917908,1.066861033439636,0.6530520915985107,XArbitraryZVertical,0.08846876608005569,0.3817219854360298,-0.6916647739175938,0.6066806687760496,0.5855481624603271,0.42070272564888,-0.6929231882095337,0,0,0,-1,-1,5783.297119791667,unknown,2,2022-06-30T10:05:50.694+02:00,2022-06-30T08:20:05.567+02:00,1540,1.501556,0,0,1217.191,0,0,2022-06-30T10:05:15.030+02:00
2022-06-30T10:05:54.486+02:00,5787.088756875,0.405487060546875,1.48760986328125,0.2546844482421875,5787.078804875,-1.601381022796055,0.7003073224164931,-0.4427943948941255,2.867198467254639,2.433419227600098,-4.793885707855225,-0.309717059135437,1.105515003204346,0.7612434029579163,XArbitraryZVertical,0.09663169856054846,0.3810671570769736,-0.710265923831674,0.5839284738192986,0.5823003053665161,0.4284660220146179,-0.6909002661705017,0,0,0,-1,-1,5783.297119791667,unknown,2,2022-06-30T10:05:50.694+02:00,2022-06-30T08:20:05.567+02:00,1540,1.501556,0,0,1217.191,0,0,2022-06-30T10:05:15.030+02:00
2022-06-30T10:05:54.496+02:00,5787.098707875,0.516510009765625,1.40948486328125,0.359405517578125,5787.088756875,-1.661323424171442,0.6980130078332484,-0.4520892642729303,2.658062696456909,2.315329074859619,-4.711601734161377,-0.2687720656394958,1.124951958656311,0.8544673323631287,XArbitraryZVertical,0.1040408925236454,0.3802614260324939,-0.7278984227843346,0.5610175301851869,0.5781290531158447,0.4368458688259125,-0.6891534924507141,0,0,0,-1,-1,5783.297119791667,unknown,2,2022-06-30T10:05:50.694+02:00,2022-06-30T08:20:05.567+02:00,1540,1.501556,0,0,1217.191,0,0,2022-06-30T10:05:15.030+02:00
2022-06-30T10:05:54.506+02:00,5787.108659875001,0.6196441650390625,1.393508911132812,0.41851806640625,5787.098707875,-1.718492398800838,0.6950686586383726,-0.4626776100169619,2.303799867630005,2.166721820831299,-4.565572738647461,-0.1676154732704163,1.041263818740845,0.9419462084770203,XArbitraryZVertical,0.110296169160097,0.3797419133622108,-0.7440957384950079,0.5384724059213152,0.5731028914451599,0.4463458061218262,-0.6872616410255432,0,0,0,-1,-1,5783.297119791667,unknown,2,2022-06-30T10:05:50.694+02:00,2022-06-30T08:20:05.567+02:00,1540,1.501556,0,0,1217.191,0,0,2022-06-30T10:05:15.030+02:00
2022-06-30T10:05:54.516+02:00,5787.118610875001,0.73028564453125,1.38543701171875,0.468475341796875,5787.108659875001,-1.772061725835304,0.6915114890874559,-0.4751954704076871,1.892524003982544,1.979809403419495,-4.429995536804199,-0.05053651332855225,0.9519723653793335,1.044343829154968,XArbitraryZVertical,0.1150736418219182,0.3798538519592843,-0.7587081707003175,0.5165569263873049,0.5670468807220459,0.4575122594833374,-0.6849381923675537,0,0,0,-1,-1,5783.297119791667,unknown,2,2022-06-30T10:05:50.694+02:00,2022-06-30T08:20:05.567+02:00,1540,1.501556,0,0,1217.191,0,0,2022-06-30T10:05:15.030+02:00
2022-06-30T10:05:54.526+02:00,5787.128561875001,0.840667724609375,1.367919921875,0.5193634033203125,5787.118610875001,-1.822136749325045,0.6868608293004552,-0.4893913459414634,1.594075083732605,1.742740035057068,-4.260011196136475,0.05996423959732056,0.9234199523925781,1.100995063781738,XArbitraryZVertical,0.1183242882749887,0.3804746399860296,-0.7718511334438156,0.4954637817564007,0.5596802830696106,0.4700887799263,-0.682476818561554,0,0,0,-1,-1,5783.297119791667,unknown,2,2022-06-30T10:05:50.694+02:00,2022-06-30T08:20:05.567+02:00,1540,1.501556,0,0,1217.191,0,0,2022-06-30T10:05:15.030+02:00
2022-06-30T10:05:54.536+02:00,5787.138513875,0.9202423095703125,1.35064697265625,0.51690673828125,5787.128561875001,-1.869454417632444,0.6802072101396379,-0.5038987223014202,1.421329140663147,1.448978424072266,-4.072871685028076,0.1795065999031067,0.9025934338569641,1.149287104606628,XArbitraryZVertical,0.1202691767656183,0.3809586772217548,-0.7838165946287901,0.4754340730521046,0.550779402256012,0.4828433394432068,-0.6808116436004639,0,0,0,-1,-1,5783.297119791667,unknown,2,2022-06-30T10:05:50.694+02:00,2022-06-30T08:20:05.567+02:00,1540,1.501556,0,0,1217.191,0,0,2022-06-30T10:05:15.030+02:00
2022-06-30T10:05:54.546+02:00,5787.148464875,0.98492431640625,1.308303833007812,0.5240631103515625,5787.138513875,-1.914704815589424,0.6710512026176179,-0.518371529067388,1.26506781578064,1.159900903701782,-3.940348148345947,0.3005473613739014,0.8724534511566162,1.199645042419434,XArbitraryZVertical,0.1209206396744365,0.3811003562344801,-0.7948681814951681,0.4564267656649209,0.5401207208633423,0.4954662621021271,-0.6802814602851868,0,0,0,-1,-1,5783.297119791667,unknown,2,2022-06-30T10:05:50.694+02:00,2022-06-30T08:20:05.567+02:00,1540,1.501556,0,0,1217.191,0,0,2022-06-30T10:05:15.030+02:00
2022-06-30T10:05:54.556+02:00,5787.158416875001,1.05999755859375,1.234649658203125,0.5515899658203125,5787.148464875,-1.958278324503839,0.6592797683238292,-0.5328384390287269,1.114986181259155,0.8696498870849609,-3.812680959701538,0.3926132917404175,0.8426664471626282,1.197761654853821,XArbitraryZVertical,0.1202652691893827,0.380931596698713,-0.8051545986965793,0.4383531827007756,0.5276294350624084,0.5079803466796875,-0.6808547377586365,0,0,0,-1,-1,5783.297119791667,unknown,2,2022-06-30T10:05:50.694+02:00,2022-06-30T08:20:05.567+02:00,1540,1.501556,0,0,1217.191,0,0,2022-06-30T10:05:15.030+02:00
2022-06-30T10:05:54.566+02:00,5787.168367875001,1.156723022460938,1.147689819335938,0.5513916015625,5787.158416875001,-1.999618956092227,0.6452516937960864,-0.5473461373893741,0.862221896648407,0.585350513458252,-3.613615751266479,0.4713844060897827,0.7878807783126831,1.206292271614075,XArbitraryZVertical,0.1183005366146458,0.380644832424292,-0.8145751932361965,0.4214045460477245,0.5135402679443359,0.5204229354858398,-0.6822289824485779,0,0,0,-1,-1,5783.297119791667,unknown,2,2022-06-30T10:05:50.694+02:00,2022-06-30T08:20:05.567+02:00,1540,1.501556,0,0,1217.191,0,0,2022-06-30T10:05:15.030+02:00
2022-06-30T10:05:54.576+02:00,5787.178318875001,1.254379272460938,1.101425170898438,0.5335235595703125,5787.168367875001,-2.036993468091516,0.6300576925261311,-0.5626923848526025,0.4420917630195618,0.3234243988990784,-3.351158142089844,0.5616469979286194,0.701184093952179,1.235008716583252,XArbitraryZVertical,0.1149064501066667,0.3809031472785296,-0.8227343493598693,0.4059772070158543,0.4983509480953217,0.5334653854370117,-0.6834185719490051,0,0,0,-1,-1,5783.297119791667,unknown,2,2022-06-30T10:05:50.694+02:00,2022-06-30T08:20:05.567+02:00,1540,1.501556,0,0,1217.191,0,0,2022-06-30T10:05:15.030+02:00
2022-06-30T10:05:54.586+02:00,5787.188270875,1.331039428710938,1.048965454101562,0.4323883056640625,5787.178318875001,-2.068972541191192,0.6147606983815287,-0.5798639328879465,-0.1023498550057411,0.07766225934028625,-3.063232660293579,0.6742396354675293,0.5997795462608337,1.234768629074097,XArbitraryZVertical,0.1099957192026848,0.3823774002719794,-0.8293129109728714,0.3923376008777427,0.4824838042259216,0.5479100942611694,-0.6833769083023071,0,0,0,-1,-1,5783.297119791667,unknown,2,2022-06-30T10:05:50.694+02:00,2022-06-30T08:20:05.567+02:00,1540,1.501556,0,0,1217.191,0,0,2022-06-30T10:05:15.030+02:00
2022-06-30T10:05:54.596+02:00,5787.198221875,1.398468017578125,1.016021728515625,0.325897216796875,5787.188270875,-2.095313869017347,0.5998129187751811,-0.5992290128118559,-0.5885932445526123,-0.1476313173770905,-2.766180515289307,0.788241982460022,0.5374190807342529,1.21514892578125,XArbitraryZVertical,0.1036407931026923,0.3852868993931293,-0.8342839385220625,0.3805034627621406,0.466137707233429,0.564005970954895,-0.6816251873970032,0,0,0,-1,-1,5783.297119791667,unknown,2,2022-06-30T10:05:50.694+02:00,2022-06-30T08:20:05.567+02:00,1540,1.501556,0,0,1217.191,0,0,2022-06-30T10:05:15.030+02:00
2022-06-30T10:05:54.606+02:00,5787.208172875,1.430221557617188,0.9991912841796875,0.149566650390625,5787.198221875,-2.116044064818321,0.5852506923014938,-0.6201412584888022,-0.9758290648460388,-0.3916084766387939,-2.422338247299194,0.8814918994903564,0.4678151607513428,1.110747575759888,XArbitraryZVertical,0.09604894117158744,0.3893520481342596,-0.837737511462838,0.3706418255351162,0.4495479166507721,0.5811501145362854,-0.6783591508865356,0,0,0,-1,-1,5783.297119791667,unknown,2,2022-06-30T10:05:50.694+02:00,2022-06-30T08:20:05.567+02:00,1540,1.501556,0,0,1217.191,0,0,2022-06-30T10:05:15.030+02:00
2022-06-30T10:05:54.616+02:00,5787.218124875,1.47412109375,0.9874114990234375,-0.01226806640625,5787.208172875,-2.131940137692517,0.5710612816487188,-0.6413486635569833,-1.154593825340271,-0.5683369636535645,-2.072227716445923,0.9653511643409729,0.4177449345588684,1.000044584274292,XArbitraryZVertical,0.08768476141121362,0.3940022342249208,-0.8399503100554399,0.3627080768699692,0.4331172704696655,0.598276674747467,-0.6741472482681274,0,0,0,-1,-1,5783.297119791667,unknown,2,2022-06-30T10:05:50.694+02:00,2022-06-30T08:20:05.567+02:00,1540,1.501556,0,0,1217.191,0,0,2022-06-30T10:05:15.030+02:00
2022-06-30T10:05:54.626+02:00,5787.228075875,1.522323608398438,0.9401397705078125,-0.13885498046875,5787.218124875,-2.144316248543205,0.5571745033577354,-0.6609880929299617,-1.098698496818542,-0.7137244939804077,-1.712943196296692,1.012802362442017,0.3852940201759338,0.8195602297782898,XArbitraryZVertical,0.07923510588649142,0.3984031618779845,-0.8413555240518289,0.3565355480739227,0.4174195528030396,0.6138971447944641,-0.6699934601783752,0,0,0,-1,-1,5783.297119791667,unknown,2,2022-06-30T10:05:50.694+02:00,2022-06-30T08:20:05.567+02:00,1540,1.501556,0,0,1217.191,0,0,2022-06-30T10:05:15.030+02:00
2022-06-30T10:05:54.635+02:00,5787.238027875001,1.53515625,0.8790130615234375,-0.262847900390625,5787.228075875,-2.154080841797794,0.5432769638041987,-0.6775983499552999,-0.951607882976532,-0.8624500632286072,-1.349124193191528,1.071380496025085,0.360487699508667,0.6546401977539062,XArbitraryZVertical,0.07109301965029746,0.4018603377871079,-0.842313697742245,0.3520822409576563,0.402741014957428,0.6269237399101257,-0.6669080853462219,0,0,0,-1,-1,5783.297119791667,unknown,2,2022-06-30T10:05:50.694+02:00,2022-06-30T08:20:05.567+02:00,1540,1.501556,0,0,1217.191,0,0,2022-06-30T10:05:15.030+02:00
2022-06-30T10:05:54.645+02:00,5787.247978875001,1.527389526367188,0.8185272216796875,-0.39190673828125,5787.238027875001,-2.160850462659113,0.5297857735076014,-0.6915196441607981,-0.9485573768615723,-0.9884528517723083,-0.9908967018127441,1.133065223693848,0.3024311661720276,0.5258297324180603,XArbitraryZVertical,0.06324153282941876,0.4045469449587053,-0.8427894861357926,0.3493539407682607,0.3892587423324585,0.6377084851264954,-0.664684534072876,0,0,0,-1,-1,5783.297119791667,unknown,2,2022-06-30T10:05:50.694+02:00,2022-06-30T08:20:05.567+02:00,1540,1.501556,0,0,1217.191,0,0,2022-06-30T10:05:15.030+02:00
2022-06-30T10:05:54.655+02:00,5787.257929875001,1.538253784179688,0.7519683837890625,-0.5348358154296875,5787.247978875001,-2.163204706948674,0.5179778902138494,-0.7044062720342035,-1.141645312309265,-1.080546617507935,-0.6146506071090698,1.157873868942261,0.2314314842224121,0.3991914391517639,XArbitraryZVertical,0.05548988036191533,0.4073097759861231,-0.8424104220887367,0.3483741098541945,0.3772828578948975,0.6475815176963806,-0.6620392203330994,0,0,0,-1,-1,5783.297119791667,unknown,2,2022-06-30T10:05:50.694+02:00,2022-06-30T08:20:05.567+02:00,1540,1.501556,0,0,1217.191,0,0,2022-06-30T10:05:15.030+02:00
2022-06-30T10:05:54.665+02:00,5787.267881875,1.546875,0.737152099609375,-0.68927001953125,5787.257929875001,-2.159559288581252,0.5092603278376602,-0.7173654556165812,-1.394492626190186,-1.145988941192627,-0.1854257434606552,1.160015225410461,0.1611254215240479,0.266013503074646,XArbitraryZVertical,0.04780496132895683,0.4107975413036659,-0.8408017276728659,0.3493031226149378,0.3673747181892395,0.6574017405509949,-0.6579201221466064,0,0,0,-1,-1,5783.297119791667,unknown,2,2022-06-30T10:05:50.694+02:00,2022-06-30T08:20:05.567+02:00,1540,1.501556,0,0,1217.191,0,0,2022-06-30T10:05:15.030+02:00
2022-06-30T10:05:54.675+02:00,5787.277832875,1.51373291015625,0.747650146484375,-0.8916015625,5787.267881875,-2.149640567945628,0.5041246504610455,-0.7303702924103438,-1.609923720359802,-1.208478689193726,0.2082957178354263,1.178423523902893,0.08482277393341064,0.11742103099823,XArbitraryZVertical,0.04030483183433001,0.4150266798925845,-0.8379346125107902,0.3521279881278342,0.3598306477069855,0.6671455502510071,-0.6522567272186279,0,0,0,-1,-1,5783.297119791667,unknown,2,2022-06-30T10:05:50.694+02:00,2022-06-30T08:20:05.567+02:00,1540,1.501556,0,0,1217.191,0,0,2022-06-30T10:05:15.030+02:00
2022-06-30T10:05:54.685+02:00,5787.287784875,1.486328125,0.72515869140625,-1.056930541992188,5787.277832875,-2.134590141791956,0.5020550736507086,-0.7429261462613533,-1.66385281085968,-1.236642956733704,0.5282120108604431,1.192454695701599,0.06070613861083984,-0.04366403818130493,XArbitraryZVertical,0.03308709629422071,0.4196454549869771,-0.834083225109549,0.3565223730437171,0.3544207811355591,0.6764459013938904,-0.6456058621406555,0,0,0,-1,-1,5783.297119791667,unknown,2,2022-06-30T10:05:50.694+02:00,2022-06-30T08:20:05.567+02:00,1540,1.501556,0,0,1217.191,0,0,2022-06-30T10:05:15.030+02:00
2022-06-30T10:05:54.695+02:00,5787.297735875,1.437637329101562,0.739166259765625,-1.174270629882812,5787.287784875,-2.115826290533318,0.502496230124635,-0.7534594538334002,-1.502794146537781,-1.244622230529785,0.8747441172599792,1.162479043006897,0.0634840726852417,-0.252432107925415,XArbitraryZVertical,0.02658493211123529,0.4239205070460692,-0.8296689477668601,0.362262389449,0.3512542843818665,0.684165894985199,-0.6391692757606506,0,0,0,-1,-1,5783.297119791667,unknown,2,2022-06-30T10:05:50.694+02:00,2022-06-30T08:20:05.567+02:00,1540,1.501556,0,0,1217.191,0,0,2022-06-30T10:05:15.030+02:00
2022-06-30T10:05:54.705+02:00,5787.307686875,1.384597778320312,0.7166290283203125,-1.308807373046875,5787.297735875,-2.094309714298555,0.5050158329278999,-0.7605719363918638,-1.259473443031311,-1.207466840744019,1.169968843460083,1.135828137397766,0.03582262992858887,-0.4229229092597961,XArbitraryZVertical,0.02117875064066138,0.4272560493308824,-0.8250061286507527,0.3692811290880671,0.3505004048347473,0.6893358826637268,-0.634007453918457,0,0,0,-1,-1,5783.297119791667,unknown,2,2022-06-30T10:05:50.694+02:00,2022-06-30T08:20:05.567+02:00,1540,1.501556,0,0,1217.191,0,0,2022-06-30T10:05:15.030+02:00
