loggingTime(txt),accelerometerTimestamp_sinceReboot(s),accelerometerAccelerationX(G),accelerometerAccelerationY(G),accelerometerAccelerationZ(G),motionTimestamp_sinceReboot(s),motionYaw(rad),motionRoll(rad),motionPitch(rad),motionRotationRateX(rad/s),motionRotationRateY(rad/s),motionRotationRateZ(rad/s),motionUserAccelerationX(G),motionUserAccelerationY(G),motionUserAccelerationZ(G),motionAttitudeReferenceFrame(txt),motionQuaternionX(R),motionQuaternionY(R),motionQuaternionZ(R),motionQuaternionW(R),motionGravityX(G),motionGravityY(G),motionGravityZ(G),motionMagneticFieldX(µT),motionMagneticFieldY(µT),motionMagneticFieldZ(µT),motionHeading(°),motionMagneticFieldCalibrationAccuracy(Z),activityTimestamp_sinceReboot(s),activity(txt),activityActivityConfidence(Z),activityActivityStartDate(txt),pedometerStartDate(txt),pedometerNumberofSteps(N),pedometerAverageActivePace(s/m),pedometerCurrentPace(s/m),pedometerCurrentCadence(steps/s),pedometerDistance(m),pedometerFloorAscended(N),pedometerFloorDescended(N),pedometerEndDate(txt)
2022-06-30T10:06:02.140+02:00,5794.731421875001,0.0604705810546875,-0.31683349609375,-0.9262847900390625,5794.721469875,0.5597101352483514,0.08420634558099023,0.324438446099683,-0.02148456871509552,-0.02781717292964458,-0.06443186849355698,-0.1030196100473404,0.1205191016197205,-0.009431719779968262,XArbitraryZVertical,0.1436141937874288,0.08449391786960485,0.2788819587942697,0.9457593040430291,0.07971899956464767,-0.3187765777111053,-0.9444714784622192,0,0,0,-1,-1,5793.488897916667,unknown,2,2022-06-30T10:06:00.886+02:00,2022-06-30T08:20:05.567+02:00,1540,1.501556,0,0,1217.191,0,0,2022-06-30T10:05:15.030+02:00
2022-06-30T10:06:02.142+02:00,5794.741372875001,0.0275726318359375,-0.3060760498046875,-0.9223480224609375,5794.731421875001,0.5588698704094324,0.08424286649637305,0.3238398066269793,-0.1205112785100937,0.01349218375980854,-0.1169560626149178,0.01219474524259567,0.008348852396011353,-0.02143645286560059,XArbitraryZVertical,0.1433603402389989,0.08437138887254335,0.2784885513893324,0.945924726896508,0.07976953685283661,-0.3182091116905212,-0.9446585774421692,0,0,0,-1,-1,5793.488897916667,unknown,2,2022-06-30T10:06:00.886+02:00,2022-06-30T08:20:05.567+02:00,1540,1.501556,0,0,1217.191,0,0,2022-06-30T10:05:15.030+02:00
2022-06-30T10:06:02.149+02:00,5794.751323875001,0.046173095703125,-0.292633056640625,-0.9376983642578125,5794.741372875001,0.557801918729651,0.08474255004912705,0.3223984201872196,-0.1962908655405045,0.07351307570934296,-0.1288138628005981,-0.01981015503406525,8.761882781982422e-06,0.01878982782363892,XArbitraryZVertical,0.1426513548445713,0.08434026476936932,0.2780221497866422,0.9461718604362563,0.08028029650449753,-0.3168423175811768,-0.9450746178627014,0,0,0,-1,-1,5793.488897916667,unknown,2,2022-06-30T10:06:00.886+02:00,2022-06-30T08:20:05.567+02:00,1540,1.501556,0,0,1217.191,0,0,2022-06-30T10:05:15.030+02:00
2022-06-30T10:06:02.159+02:00,5794.761275875,0.05474853515625,-0.2576141357421875,-0.9396820068359375,5794.751323875001,0.5569833235029316,0.08501425331797781,0.3204637416510812,-0.201481357216835,0.05325175076723099,-0.1056267768144608,-0.0530167818069458,0.00893065333366394,0.02331376075744629,XArbitraryZVertical,0.1417290884189682,0.08415449554159339,0.277657759975882,0.9464339054189556,0.08058897405862808,-0.3150067329406738,-0.9456617832183838,0,0,0,-1,-1,5793.488897916667,unknown,2,2022-06-30T10:06:00.886+02:00,2022-06-30T08:20:05.567+02:00,1540,1.501556,0,0,1217.191,0,0,2022-06-30T10:05:15.030+02:00
2022-06-30T10:06:02.169+02:00,5794.771226875,0.0712127685546875,-0.25714111328125,-0.9418487548828125,5794.761275875,0.5557453242040087,0.08671890454944901,0.3183944874438129,-0.1765773445367813,0.05876403301954269,-0.117949090898037,-0.03608450293540955,0.02040907740592957,0.008472025394439697,XArbitraryZVertical,0.1405616423726705,0.08460047088793318,0.2771951409552431,0.9467037488542129,0.08225715905427933,-0.3130421340465546,-0.9461703896522522,0,0,0,-1,-1,5793.488897916667,unknown,2,2022-06-30T10:06:00.886+02:00,2022-06-30T08:20:05.567+02:00,1540,1.501556,0,0,1217.191,0,0,2022-06-30T10:05:15.030+02:00
2022-06-30T10:06:02.178+02:00,5794.781178875,0.0840606689453125,-0.2811126708984375,-0.94183349609375,5794.771226875,0.5545109907150819,0.08775932959900244,0.3165432799090077,-0.1570707559585571,0.05944393947720528,-0.1423923820257187,-0.02854408323764801,0.053669273853302,0.00697791576385498,XArbitraryZVertical,0.1395899391781761,0.08476251467382116,0.2766853738004956,0.946982110925468,0.08329217880964279,-0.3112834393978119,-0.9466599225997925,0,0,0,-1,-1,5793.488897916667,unknown,2,2022-06-30T10:06:00.886+02:00,2022-06-30T08:20:05.567+02:00,1540,1.501556,0,0,1217.191,0,0,2022-06-30T10:05:15.030+02:00
2022-06-30T10:06:02.188+02:00,5794.791129875,0.0857696533203125,-0.3039093017578125,-0.945281982421875,5794.781178875,0.5531136515700223,0.08881728245394047,0.3146799975582095,-0.1755301207304001,0.06750325858592987,-0.1509249210357666,-0.01313261687755585,0.05237105488777161,0.00529855489730835,XArbitraryZVertical,0.1386170882790677,0.08492126542436954,0.276098148220423,0.9472821612799055,0.08434495329856873,-0.309512197971344,-0.9471473693847656,0,0,0,-1,-1,5793.488897916667,unknown,2,2022-06-30T10:06:00.886+02:00,2022-06-30T08:20:05.567+02:00,1540,1.501556,0,0,1217.191,0,0,2022-06-30T10:05:15.030+02:00
2022-06-30T10:06:02.198+02:00,5794.801080875,0.089202880859375,-0.3121185302734375,-0.9455718994140625,5794.791129875,0.5518838690517919,0.08965313229592722,0.3122380086452496,-0.2353942543268204,0.07843952625989914,-0.139315664768219,-0.001143775880336761,0.02607649564743042,0.005993008613586426,XArbitraryZVertical,0.1373925547091828,0.08491192662458703,0.2755734148248662,0.94761416602505,0.08520402014255524,-0.3071891963481903,-0.9478265047073364,0,0,0,-1,-1,5793.488897916667,unknown,2,2022-06-30T10:06:00.886+02:00,2022-06-30T08:20:05.567+02:00,1540,1.501556,0,0,1217.191,0,0,2022-06-30T10:05:15.030+02:00
2022-06-30T10:06:02.209+02:00,5794.811032875,0.0666656494140625,-0.309906005859375,-0.95184326171875,5794.801080875,0.5509829959592157,0.0900697968634131,0.3086454163017781,-0.3292049169540405,0.08911168575286865,-0.1338885426521301,7.156282663345337e-05,-0.0001409947872161865,0.003601968288421631,XArbitraryZVertical,0.1356640161396504,0.08457724193332924,0.2751737552966655,0.9480091854929761,0.08569765090942383,-0.3037683367729187,-0.9488839507102966,0,0,0,-1,-1,5793.488897916667,unknown,2,2022-06-30T10:06:00.886+02:00,2022-06-30T08:20:05.567+02:00,1540,1.501556,0,0,1217.191,0,0,2022-06-30T10:05:15.030+02:00
2022-06-30T10:06:02.218+02:00,5794.820983875,-0.0484161376953125,-0.350189208984375,-0.9518890380859375,5794.811032875,0.5495628110640313,0.09146772645434226,0.3047664043563998,-0.4312660396099091,0.09276314824819565,-0.2405372262001038,0.002071432769298553,-0.01204821467399597,0.004357516765594482,XArbitraryZVertical,0.133685550393138,0.08463711305629053,0.2745912535211875,0.9484537776993861,0.08713101595640182,-0.3000703454017639,-0.9499294757843018,0,0,0,-1,-1,5793.488897916667,unknown,2,2022-06-30T10:06:00.886+02:00,2022-06-30T08:20:05.567+02:00,1540,1.501556,0,0,1217.191,0,0,2022-06-30T10:05:15.030+02:00
2022-06-30T10:06:02.228+02:00,5794.830935875,0.172088623046875,-0.4581146240234375,-0.986785888671875,5794.820983875,0.5458570570273622,0.09378660082696633,0.2991272898446254,-0.6416226029396057,0.180631548166275,-0.5003586411476135,-0.02282538264989853,-0.01521968841552734,-0.0004488229751586914,XArbitraryZVertical,0.1308390089661075,0.08475806964118898,0.2729767753022166,0.9493055445535619,0.08949059247970581,-0.2946863770484924,-0.9513944387435913,0,0,0,-1,-1,5793.488897916667,unknown,2,2022-06-30T10:06:00.886+02:00,2022-06-30T08:20:05.567+02:00,1540,1.501556,0,0,1217.191,0,0,2022-06-30T10:05:15.030+02:00
2022-06-30T10:06:02.238+02:00,5794.840886875,0.090728759765625,-0.31500244140625,-0.927886962890625,5794.830935875,0.5429601394907413,0.09626516417060052,0.2923694607015099,-0.660433828830719,0.1563246101140976,-0.1816765069961548,-0.1404542773962021,-0.06196731328964233,0.001241147518157959,XArbitraryZVertical,0.1274026192996316,0.08487326673918832,0.2717419826812452,0.9501165801740159,0.09203771501779556,-0.2882219552993774,-0.9531301856040955,0,0,0,-1,-1,5793.488897916667,unknown,2,2022-06-30T10:06:00.886+02:00,2022-06-30T08:20:05.567+02:00,1540,1.501556,0,0,1217.191,0,0,2022-06-30T10:05:15.030+02:00
2022-06-30T10:06:02.248+02:00,5794.850837875,0.03643798828125,-0.247772216796875,-0.939727783203125,5794.840886875,0.5419092804342051,0.09831667296289573,0.2848464446613216,-0.8133249282836914,0.206037700176239,-0.2289528697729111,0.07788514345884323,-0.1771045625209808,-0.03171569108963013,XArbitraryZVertical,0.1235795190243104,0.08481150674878569,0.2713416738083005,0.9507412565911427,0.09420304745435715,-0.2810100913047791,-0.9550701975822449,0,0,0,-1,-1,5793.488897916667,unknown,2,2022-06-30T10:06:00.886+02:00,2022-06-30T08:20:05.567+02:00,1540,1.501556,0,0,1217.191,0,0,2022-06-30T10:05:15.030+02:00
2022-06-30T10:06:02.258+02:00,5794.860790500001,0.0784149169921875,-0.2183380126953125,-0.965057373046875,5794.850837875,0.5394324342359592,0.1012454310992437,0.2766472315642513,-0.7474636435508728,0.2328647971153259,-0.3797509074211121,-0.006501100957393646,-0.0418705940246582,0.02916336059570312,XArbitraryZVertical,0.1193734617849836,0.08499878381743434,0.2702995524624842,0.9515583914157854,0.09722942858934402,-0.2731319069862366,-0.9570503830909729,0,0,0,-1,-1,5793.488897916667,unknown,2,2022-06-30T10:06:00.886+02:00,2022-06-30T08:20:05.567+02:00,1540,1.501556,0,0,1217.191,0,0,2022-06-30T10:05:15.030+02:00
2022-06-30T10:06:02.269+02:00,5794.870741500001,0.084136962890625,-0.19818115234375,-0.9651031494140625,5794.860790500001,0.5365704956031843,0.1041711716869669,0.2698370213682696,-0.5443462133407593,0.2036146074533463,-0.3014808893203735,-0.06378262490034103,0.01880210638046265,0.01886177062988281,XArbitraryZVertical,0.1158467353221651,0.08535064283124705,0.2690655702851144,0.9523122067112455,0.1002201810479164,-0.26657435297966,-0.9585896134376526,0,0,0,-1,-1,5793.488897916667,unknown,2,2022-06-30T10:06:00.886+02:00,2022-06-30T08:20:05.567+02:00,1540,1.501556,0,0,1217.191,0,0,2022-06-30T10:05:15.030+02:00
2022-06-30T10:06:02.278+02:00,5794.880692500001,0.102081298828125,-0.204803466796875,-0.964141845703125,5794.870741500001,0.5341638521589173,0.1067918038565819,0.2652023675928649,-0.3330127000808716,0.197427824139595,-0.2770354747772217,-0.02444803714752197,0.04376649856567383,-0.005515575408935547,XArbitraryZVertical,0.1133818005073429,0.08587001054745855,0.2680343550167221,0.9528528365221213,0.1028625294566154,-0.2621045708656311,-0.9595417976379395,0,0,0,-1,-1,5793.488897916667,unknown,2,2022-06-30T10:06:00.886+02:00,2022-06-30T08:20:05.567+02:00,1540,1.501556,0,0,1217.191,0,0,2022-06-30T10:05:15.030+02:00
2022-06-30T10:06:02.288+02:00,5794.8906445,0.110992431640625,-0.2417449951171875,-0.957855224609375,5794.880692500001,0.531332030090589,0.1093816040406024,0.2623247336281456,-0.1868841797113419,0.1737257987260818,-0.3324819803237915,-0.02129257470369339,0.06114527583122253,-0.005085170269012451,XArbitraryZVertical,0.1117808989627188,0.0865796982508952,0.2668060345197265,0.95332245725741,0.1054291054606438,-0.2593264579772949,-0.96001797914505,0,0,0,-1,-1,5793.488897916667,unknown,2,2022-06-30T10:06:00.886+02:00,2022-06-30T08:20:05.567+02:00,1540,1.501556,0,0,1217.191,0,0,2022-06-30T10:05:15.030+02:00
2022-06-30T10:06:02.298+02:00,5794.9005955,0.1024017333984375,-0.2806549072265625,-0.9451751708984375,5794.8906445,0.5279214293719953,0.1118775840687826,0.2604246013573997,-0.1294523179531097,0.154119074344635,-0.3628020584583282,-0.00579892098903656,0.05268734693527222,-0.003902137279510498,XArbitraryZVertical,0.1106876330466711,0.087340497956374,0.2653008496865575,0.9538005138907028,0.1078797802329063,-0.257490873336792,-0.9602397680282593,0,0,0,-1,-1,5793.488897916667,unknown,2,2022-06-30T10:06:00.886+02:00,2022-06-30T08:20:05.567+02:00,1540,1.501556,0,0,1217.191,0,0,2022-06-30T10:05:15.030+02:00
2022-06-30T10:06:02.308+02:00,5794.910547500001,0.097442626953125,-0.3090362548828125,-0.938751220703125,5794.9005955,0.5243624587705836,0.1143476317162924,0.2585378062818796,-0.1774733662605286,0.1623847335577011,-0.3649203479290009,0.0006854832172393799,0.01392218470573425,0.002596080303192139,XArbitraryZVertical,0.1096134093445546,0.08808655104949631,0.2637198163625752,0.9542942388955351,0.110306516289711,-0.2556672394275665,-0.9604513049125671,0,0,0,-1,-1,5793.488897916667,unknown,2,2022-06-30T10:06:00.886+02:00,2022-06-30T08:20:05.567+02:00,1540,1.501556,0,0,1217.191,0,0,2022-06-30T10:05:15.030+02:00
2022-06-30T10:06:02.318+02:00,5794.920498500001,0.104766845703125,-0.315399169921875,-0.9401702880859375,5794.910547500001,0.5208256312718966,0.1168808086184586,0.255850622552744,-0.2814541161060333,0.1669371277093887,-0.3791837096214294,-0.01041755825281143,-0.02758651971817017,0.01567250490188599,XArbitraryZVertical,0.108149066822575,0.08876899314597612,0.2621397022535983,0.9548333827709314,0.1128188669681549,-0.2530684471130371,-0.9608476758003235,0,0,0,-1,-1,5793.488897916667,unknown,2,2022-06-30T10:06:00.886+02:00,2022-06-30T08:20:05.567+02:00,1540,1.501556,0,0,1217.191,0,0,2022-06-30T10:05:15.030+02:00
2022-06-30T10:06:02.328+02:00,5794.930449500001,0.116912841796875,-0.276519775390625,-0.9458160400390625,5794.920498500001,0.5173365374488051,0.1194538772107059,0.2520931509260803,-0.377441942691803,0.1776162087917328,-0.382485955953598,-0.01796112954616547,-0.05960480868816376,0.02274030447006226,XArbitraryZVertical,0.1061665407843672,0.0893470154189232,0.2605659000857697,0.9554324896028374,0.1154033243656158,-0.2494314908981323,-0.9614915251731873,0,0,0,-1,-1,5793.488897916667,unknown,2,2022-06-30T10:06:00.886+02:00,2022-06-30T08:20:05.567+02:00,1540,1.501556,0,0,1217.191,0,0,2022-06-30T10:05:15.030+02:00
2022-06-30T10:06:02.338+02:00,5794.9404015,0.11407470703125,-0.2253570556640625,-0.9416961669921875,5794.930449500001,0.5139243025200007,0.1220350624475878,0.2476720311903177,-0.4152377843856812,0.175879031419754,-0.3825450837612152,-0.0132514089345932,-0.07025152444839478,0.02210533618927002,XArbitraryZVertical,0.1038629178755201,0.08985918456422351,0.2590129566417249,0.9560597319586278,0.118017815053463,-0.2451476901769638,-0.9622756242752075,0,0,0,-1,-1,5793.488897916667,unknown,2,2022-06-30T10:06:00.886+02:00,2022-06-30T08:20:05.567+02:00,1540,1.501556,0,0,1217.191,0,0,2022-06-30T10:05:15.030+02:00
2022-06-30T10:06:02.348+02:00,5794.9503525,0.106201171875,-0.1995086669921875,-0.948516845703125,5794.9404015,0.510470644600536,0.1245686369594012,0.2431308592331668,-0.3969444036483765,0.1691868156194687,-0.3982930779457092,-0.003680095076560974,-0.0357772558927536,0.01725220680236816,XArbitraryZVertical,0.1015111759814398,0.09034019278279345,0.2574274682311209,0.9566950772661875,0.1205925047397614,-0.2407425791025162,-0.9630682468414307,0,0,0,-1,-1,5793.488897916667,unknown,2,2022-06-30T10:06:00.886+02:00,2022-06-30T08:20:05.567+02:00,1540,1.501556,0,0,1217.191,0,0,2022-06-30T10:05:15.030+02:00
2022-06-30T10:06:02.358+02:00,5794.9603045,0.1038055419921875,-0.1923828125,-0.939910888671875,5794.9503525,0.5068600818571053,0.1270121645317715,0.2390060905821929,-0.3299842774868011,0.1550014913082123,-0.4047139585018158,-0.008995875716209412,0.01137998700141907,0.02205133438110352,XArbitraryZVertical,0.09937965171365329,0.09082908388190601,0.2557602629970639,0.9573194470556878,0.123070165514946,-0.2367370873689651,-0.963747501373291,0,0,0,-1,-1,5793.488897916667,unknown,2,2022-06-30T10:06:00.886+02:00,2022-06-30T08:20:05.567+02:00,1540,1.501556,0,0,1217.191,0,0,2022-06-30T10:05:15.030+02:00
2022-06-30T10:06:02.368+02:00,5794.9702555,0.10064697265625,-0.20062255859375,-0.9339141845703125,5794.9603045,0.5032004423742537,0.1293151762305326,0.2355128687091727,-0.2761783003807068,0.1399941742420197,-0.3960011601448059,-0.01919448375701904,0.03383299708366394,0.01575881242752075,XArbitraryZVertical,0.09757358513234612,0.09133199398027014,0.2540654048308775,0.9579084684642235,0.1253952383995056,-0.2333417236804962,-0.9642757177352905,0,0,0,-1,-1,5793.488897916667,unknown,2,2022-06-30T10:06:00.886+02:00,2022-06-30T08:20:05.567+02:00,1540,1.501556,0,0,1217.191,0,0,2022-06-30T10:05:15.030+02:00
2022-06-30T10:06:02.378+02:00,5794.9802065,0.0999755859375,-0.219268798828125,-0.92864990234375,5794.9702555,0.4995554370585308,0.1315453620986322,0.232332374821515,-0.2686431705951691,0.1423529386520386,-0.3967761695384979,-0.02383702993392944,0.03786499798297882,0.02481359243392944,XArbitraryZVertical,0.09592837759354234,0.09184487909713371,0.2523732015892883,0.9584728137983708,0.1276421397924423,-0.2302478551864624,-0.9647245407104492,0,0,0,-1,-1,5793.488897916667,unknown,2,2022-06-30T10:06:00.886+02:00,2022-06-30T08:20:05.567+02:00,1540,1.501556,0,0,1217.191,0,0,2022-06-30T10:05:15.030+02:00
2022-06-30T10:06:02.388+02:00,5794.990158500001,0.103607177734375,-0.2339324951171875,-0.9228973388671875,5794.9802065,0.4959073790018788,0.1338034367239588,0.2289668211556908,-0.3094415366649628,0.1505514979362488,-0.4004392027854919,-0.02927631139755249,0.02634881436824799,0.03128212690353394,XArbitraryZVertical,0.09419268998253251,0.09235557541323998,0.2506719081117482,0.9590422246220752,0.1299228668212891,-0.2269714325666428,-0.9651963710784912,0,0,0,-1,-1,5793.488897916667,unknown,2,2022-06-30T10:06:00.886+02:00,2022-06-30T08:20:05.567+02:00,1540,1.501556,0,0,1217.191,0,0,2022-06-30T10:05:15.030+02:00
2022-06-30T10:06:02.412+02:00,5795.000109500001,0.10943603515625,-0.238616943359375,-0.9215545654296875,5794.990158500001,0.4923502076453111,0.1361105505257001,0.2249656605248881,-0.3915971219539642,0.1574632078409195,-0.399275928735733,-0.03229635953903198,0.003804028034210205,0.03713613748550415,XArbitraryZVertical,0.09214247207305055,0.09282633851118408,0.2489984628302961,0.9596316058414803,0.1322715133428574,-0.22307288646698,-0.9657860994338989,0,0,0,-1,-1,5793.488897916667,unknown,2,2022-06-30T10:06:00.886+02:00,2022-06-30T08:20:05.567+02:00,1540,1.501556,0,0,1217.191,0,0,2022-06-30T10:05:15.030+02:00
2022-06-30T10:06:02.414+02:00,5795.0100615,0.12213134765625,-0.2255859375,-0.9281005859375,5795.000109500001,0.4888892681793038,0.1384322858111514,0.2200569037017055,-0.4881115853786469,0.1593879610300064,-0.4052630066871643,-0.03105618059635162,-0.01564739644527435,0.04365187883377075,XArbitraryZVertical,0.08965019502861561,0.09321056295926779,0.2473465757675341,0.9602574077124947,0.134662926197052,-0.2182851582765579,-0.966549277305603,0,0,0,-1,-1,5793.488897916667,unknown,2,2022-06-30T10:06:00.886+02:00,2022-06-30T08:20:05.567+02:00,1540,1.501556,0,0,1217.191,0,0,2022-06-30T10:05:15.030+02:00
2022-06-30T10:06:02.418+02:00,5795.0200125,0.1272125244140625,-0.1902618408203125,-0.9517974853515625,5795.0100615,0.4855135837088809,0.1407199066882541,0.2142329231795871,-0.5703617334365845,0.1605240702629089,-0.4125153124332428,-0.0276140421628952,-0.02601905167102814,0.04592639207839966,XArbitraryZVertical,0.086717927797287,0.09348527840920821,0.2457061438072743,0.9609208809098773,0.1370496600866318,-0.2125979512929916,-0.9674810171127319,0,0,0,-1,-1,5793.488897916667,unknown,2,2022-06-30T10:06:00.886+02:00,2022-06-30T08:20:05.567+02:00,1540,1.501556,0,0,1217.191,0,0,2022-06-30T10:05:15.030+02:00
2022-06-30T10:06:02.427+02:00,5795.0299635,0.125640869140625,-0.1421966552734375,-0.961517333984375,5795.0200125,0.4821747880066163,0.1429963213164168,0.2078848071132543,-0.591769278049469,0.1583135575056076,-0.417170375585556,-0.01731030642986298,-0.01919527351856232,0.0403822660446167,XArbitraryZVertical,0.08353299102944227,0.09370601006526015,0.2440610162942781,0.9616005661195466,0.1394412070512772,-0.2063907086849213,-0.9684828519821167,0,0,0,-1,-1,5793.488897916667,unknown,2,2022-06-30T10:06:00.886+02:00,2022-06-30T08:20:05.567+02:00,1540,1.501556,0,0,1217.191,0,0,2022-06-30T10:05:15.030+02:00
2022-06-30T10:06:02.438+02:00,5795.0399155,0.1153106689453125,-0.116424560546875,-0.97845458984375,5795.0299635,0.4787581631410848,0.1451483975910122,0.2015744728708306,-0.5540949106216431,0.1371291726827621,-0.4332146048545837,-0.01449859142303467,0.009950265288352966,0.01765239238739014,XArbitraryZVertical,0.08038537684597541,0.0938787711260745,0.2423629895504358,0.9622813188672568,0.1417106986045837,-0.2002121657133102,-0.9694499373435974,0,0,0,-1,-1,5793.488897916667,unknown,2,2022-06-30T10:06:00.886+02:00,2022-06-30T08:20:05.567+02:00,1540,1.501556,0,0,1217.191,0,0,2022-06-30T10:05:15.030+02:00
2022-06-30T10:06:02.447+02:00,5795.0498665,0.10589599609375,-0.1172332763671875,-0.984039306640625,5795.0399155,0.475032081023477,0.1471160804825108,0.1957815887515614,-0.4859078824520111,0.1155707389116287,-0.4605003893375397,-0.01814514398574829,0.05233654379844666,0.008782863616943359,XArbitraryZVertical,0.0775247782578511,0.09402018848281918,0.2405104820383966,0.962966764768973,0.1437855958938599,-0.1945332586765289,-0.9703001976013184,0,0,0,-1,-1,5793.488897916667,unknown,2,2022-06-30T10:06:00.886+02:00,2022-06-30T08:20:05.567+02:00,1540,1.501556,0,0,1217.191,0,0,2022-06-30T10:05:15.030+02:00
2022-06-30T10:06:02.457+02:00,5795.0598175,0.1019439697265625,-0.1135406494140625,-0.9803924560546875,5795.0498665,0.4709644068154454,0.1489848401518862,0.1905672682267995,-0.4283338189125061,0.1101959496736526,-0.4866310656070709,-0.03043696284294128,0.07299131155014038,-0.007434844970703125,XArbitraryZVertical,0.07497215100540544,0.09417694536428037,0.2384946874096148,0.9636546379663087,0.145747184753418,-0.1894159317016602,-0.9710197448730469,0,0,0,-1,-1,5793.488897916667,unknown,2,2022-06-30T10:06:00.886+02:00,2022-06-30T08:20:05.567+02:00,1540,1.501556,0,0,1217.191,0,0,2022-06-30T10:05:15.030+02:00
2022-06-30T10:06:02.467+02:00,5795.069769500001,0.0945587158203125,-0.0933685302734375,-0.9782867431640625,5795.0598175,0.4666785767951356,0.1508574588299345,0.1858016600825244,-0.3932526707649231,0.1154889240860939,-0.4931946098804474,-0.04180368781089783,0.06750111281871796,-0.01241284608840942,XArbitraryZVertical,0.07264707745675078,0.09438823247566132,0.2363771039016447,0.9643335005832298,0.1476992517709732,-0.1847344487905502,-0.9716265201568604,0,0,0,-1,-1,5793.488897916667,unknown,2,2022-06-30T10:06:00.886+02:00,2022-06-30T08:20:05.567+02:00,1540,1.501556,0,0,1217.191,0,0,2022-06-30T10:05:15.030+02:00
2022-06-30T10:06:02.477+02:00,5795.079720500001,0.09375,-0.08453369140625,-0.991668701171875,5795.069769500001,0.4623113693433271,0.152811866035279,0.1812807579272202,-0.3699188530445099,0.1266318559646606,-0.5020424723625183,-0.04777997732162476,0.06674876809120178,-0.008240997791290283,XArbitraryZVertical,0.07043574447392684,0.09467337318834154,0.2342219563135975,0.964995312483958,0.1497235298156738,-0.1802894920110703,-0.972151517868042,0,0,0,-1,-1,5793.488897916667,unknown,2,2022-06-30T10:06:00.886+02:00,2022-06-30T08:20:05.567+02:00,1540,1.501556,0,0,1217.191,0,0,2022-06-30T10:05:15.030+02:00
2022-06-30T10:06:02.487+02:00,5795.0896725,0.10211181640625,-0.087310791015625,-1.001129150390625,5795.079720500001,0.4577833799060756,0.1548746019359385,0.1770675883564022,-0.3227515518665314,0.1304517835378647,-0.5147645473480225,-0.05728603899478912,0.08277519047260284,-0.005704283714294434,XArbitraryZVertical,0.06836995281823222,0.09504898654620043,0.231993913506616,0.9656449576872147,0.151844322681427,-0.1761437803506851,-0.9725824594497681,0,0,0,-1,-1,5793.488897916667,unknown,2,2022-06-30T10:06:00.886+02:00,2022-06-30T08:20:05.567+02:00,1540,1.501556,0,0,1217.191,0,0,2022-06-30T10:05:15.030+02:00
2022-06-30T10:06:02.497+02:00,5795.0996235,0.1116485595703125,-0.092010498046875,-1.009429931640625,5795.0896725,0.4531087857980875,0.1569345937147961,0.1733935417684632,-0.2604849636554718,0.1277888864278793,-0.5141049027442932,-0.06019803881645203,0.08799222111701965,-0.01876848936080933,XArbitraryZVertical,0.06657470545696401,0.09548654657620861,0.2297030494781436,0.9662745693743253,0.1539476215839386,-0.1725259870290756,-0.9729002714157104,0,0,0,-1,-1,5793.488897916667,unknown,2,2022-06-30T10:06:00.886+02:00,2022-06-30T08:20:05.567+02:00,1540,1.501556,0,0,1217.191,0,0,2022-06-30T10:05:15.030+02:00
2022-06-30T10:06:02.507+02:00,5795.1095745,0.117156982421875,-0.110809326171875,-1.013381958007812,5795.0996235,0.448378639896983,0.1590180601602807,0.1702541091884553,-0.2194095551967621,0.1378545463085175,-0.5097297430038452,-0.05394789576530457,0.08212192356586456,-0.02802181243896484,XArbitraryZVertical,0.06504105561561342,0.09599977069568816,0.2273952906415641,0.9668739001790229,0.1560592800378799,-0.1694327890872955,-0.9731073975563049,0,0,0,-1,-1,5793.488897916667,unknown,2,2022-06-30T10:06:00.886+02:00,2022-06-30T08:20:05.567+02:00,1540,1.501556,0,0,1217.191,0,0,2022-06-30T10:05:15.030+02:00
2022-06-30T10:06:02.517+02:00,5795.119526500001,0.1178741455078125,-0.1395111083984375,-1.023880004882812,5795.1095745,0.4436285953338662,0.1612142718156848,0.1672887634419626,-0.2233403921127319,0.1522942036390305,-0.5161868333816528,-0.04662787914276123,0.07449899613857269,-0.03617602586746216,XArbitraryZVertical,0.06358291803718151,0.09659313310620554,0.2250812008657788,0.9674530839800943,0.1582760065793991,-0.1665095835924149,-0.9732539653778076,0,0,0,-1,-1,5793.488897916667,unknown,2,2022-06-30T10:06:00.886+02:00,2022-06-30T08:20:05.567+02:00,1540,1.501556,0,0,1217.191,0,0,2022-06-30T10:05:15.030+02:00
2022-06-30T10:06:02.527+02:00,5795.129477500001,0.1258544921875,-0.16046142578125,-1.013824462890625,5795.119526500001,0.4388866681420432,0.1635870191118121,0.1640173424058682,-0.2745197415351868,0.1719702184200287,-0.5163418054580688,-0.04351614415645599,0.0524735301733017,-0.03997409343719482,XArbitraryZVertical,0.061959305488174,0.09724755480666004,0.2227616873150934,0.9680295850570494,0.1606726944446564,-0.1632829457521439,-0.9734079241752625,0,0,0,-1,-1,5793.488897916667,unknown,2,2022-06-30T10:06:00.886+02:00,2022-06-30T08:20:05.567+02:00,1540,1.501556,0,0,1217.191,0,0,2022-06-30T10:05:15.030+02:00
2022-06-30T10:06:02.537+02:00,5795.1394295,0.1291961669921875,-0.1610260009765625,-1.007904052734375,5795.129477500001,0.4342948440056633,0.1661676677880074,0.1601249041998693,-0.3450197577476501,0.2035406678915024,-0.5088458061218262,-0.04541434347629547,0.01993033289909363,-0.05027055740356445,XArbitraryZVertical,0.06000723528497458,0.09795096737680149,0.2204952522190479,0.9686004290926754,0.1632880717515945,-0.1594415158033371,-0.9736095070838928,0,0,0,-1,-1,5793.488897916667,unknown,2,2022-06-30T10:06:00.886+02:00,2022-06-30T08:20:05.567+02:00,1540,1.501556,0,0,1217.191,0,0,2022-06-30T10:05:15.030+02:00
2022-06-30T10:06:02.547+02:00,5795.1493805,0.13360595703125,-0.1457672119140625,-0.9947357177734375,5795.1394295,0.4299114834265113,0.1690602198457132,0.1556392364833542,-0.3928413391113281,0.2366304397583008,-0.5000805854797363,-0.04036819934844971,-0.005449861288070679,-0.03999620676040649,XArbitraryZVertical,0.0577261021864609,0.09876005489562535,0.2183119079719182,0.9691512544027114,0.1662222743034363,-0.1550116389989853,-0.9738283157348633,0,0,0,-1,-1,5793.488897916667,unknown,2,2022-06-30T10:06:00.886+02:00,2022-06-30T08:20:05.567+02:00,1540,1.501556,0,0,1217.191,0,0,2022-06-30T10:05:15.030+02:00
2022-06-30T10:06:02.557+02:00,5795.1593315,0.1302947998046875,-0.136993408203125,-0.9852142333984375,5795.1493805,0.4256810727564311,0.1721039873232457,0.1508421893292544,-0.4068349003791809,0.2504189312458038,-0.494956374168396,-0.04011525213718414,-0.0107552707195282,-0.03386485576629639,XArbitraryZVertical,0.0552734735476299,0.09962537433009042,0.2161871273082958,0.9696818200676142,0.1693110018968582,-0.1502708047628403,-0.9740392565727234,0,0,0,-1,-1,5793.488897916667,unknown,2,2022-06-30T10:06:00.886+02:00,2022-06-30T08:20:05.567+02:00,1540,1.501556,0,0,1217.191,0,0,2022-06-30T10:05:15.030+02:00
2022-06-30T10:06:02.567+02:00,5795.1692835,0.1347503662109375,-0.129241943359375,-0.996429443359375,5795.1593315,0.4214346457257535,0.1753109153722038,0.1460503991550246,-0.3865529596805573,0.2728455364704132,-0.5025231242179871,-0.03895188868045807,-0.0002355575561523438,-0.02054661512374878,XArbitraryZVertical,0.05281072490924501,0.1005806233004082,0.2140489671953802,0.9701946818213667,0.1725574135780334,-0.1455317288637161,-0.9741891026496887,0,0,0,-1,-1,5793.488897916667,unknown,2,2022-06-30T10:06:00.886+02:00,2022-06-30T08:20:05.567+02:00,1540,1.501556,0,0,1217.191,0,0,2022-06-30T10:05:15.030+02:00
2022-06-30T10:06:02.577+02:00,5795.1792345,0.1562957763671875,-0.102081298828125,-1.0054931640625,5795.1692835,0.4170514935235581,0.1787101500388888,0.1416454064568073,-0.3239186108112335,0.2858335077762604,-0.5062337517738342,-0.04568576812744141,0.004178732633590698,-0.01099592447280884,XArbitraryZVertical,0.05052720285967519,0.1016751055722881,0.2118528737774601,0.9706841131122231,0.1759801506996155,-0.1411722302436829,-0.9742183685302734,0,0,0,-1,-1,5793.488897916667,unknown,2,2022-06-30T10:06:00.886+02:00,2022-06-30T08:20:05.567+02:00,1540,1.501556,0,0,1217.191,0,0,2022-06-30T10:05:15.030+02:00
2022-06-30T10:06:02.587+02:00,5795.189186500001,0.190399169921875,-0.0672149658203125,-1.003341674804688,5795.1792345,0.4126723427211483,0.1821199493354861,0.1379814571409066,-0.2359632402658463,0.278801828622818,-0.4814163446426392,-0.04464355111122131,0.008302003145217896,-0.02231472730636597,XArbitraryZVertical,0.04860836215077072,0.1028583247606414,0.2096766629963395,0.9711297965671846,0.1793934851884842,-0.1375440359115601,-0.9741147756576538,0,0,0,-1,-1,5793.488897916667,unknown,2,2022-06-30T10:06:00.886+02:00,2022-06-30T08:20:05.567+02:00,1540,1.501556,0,0,1217.191,0,0,2022-06-30T10:05:15.030+02:00
2022-06-30T10:06:02.597+02:00,5795.199137500001,0.2250823974609375,-0.05230712890625,-1.009658813476562,5795.189186500001,0.4083448793928955,0.1855016294074608,0.1353252688589271,-0.1230958104133606,0.2859982252120972,-0.4658616185188293,-0.02645798027515411,0.03283122181892395,-0.03163504600524902,XArbitraryZVertical,0.04718616061607678,0.1041362727301828,0.2075553091465871,0.9715193975344177,0.1827533394098282,-0.1349126100540161,-0.9738581776618958,0,0,0,-1,-1,5793.488897916667,unknown,2,2022-06-30T10:06:00.886+02:00,2022-06-30T08:20:05.567+02:00,1540,1.501556,0,0,1217.191,0,0,2022-06-30T10:05:15.030+02:00
2022-06-30T10:06:02.607+02:00,5795.209088500001,0.2476348876953125,-0.078826904296875,-1.0263671875,5795.199137500001,0.4039102048598268,0.1888980224315955,0.1338185779873125,-0.007209558039903641,0.2825323939323425,-0.4608783721923828,0.004300922155380249,0.0662044882774353,-0.02991127967834473,XArbitraryZVertical,0.04633403023913379,0.1055364347289142,0.2054215176080603,0.9718627439932025,0.1860978454351425,-0.133419543504715,-0.9734304547309875,0,0,0,-1,-1,5793.488897916667,unknown,2,2022-06-30T10:06:00.886+02:00,2022-06-30T08:20:05.567+02:00,1540,1.501556,0,0,1217.191,0,0,2022-06-30T10:05:15.030+02:00
2022-06-30T10:06:02.616+02:00,5795.2190405,0.258392333984375,-0.1311492919921875,-1.03765869140625,5795.209088500001,0.3992016031924466,0.1922794714772095,0.133326802894401,0.09024828672409058,0.2764659821987152,-0.4785047769546509,0.0356810986995697,0.08062492311000824,-0.03679901361465454,XArbitraryZVertical,0.04599918761379484,0.1070239920684092,0.2031915115251882,0.9721847422414557,0.1894008964300156,-0.1329321563243866,-0.9728598594665527,0,0,0,-1,-1,5793.488897916667,unknown,2,2022-06-30T10:06:00.886+02:00,2022-06-30T08:20:05.567+02:00,1540,1.501556,0,0,1217.191,0,0,2022-06-30T10:05:15.030+02:00
2022-06-30T10:06:02.626+02:00,5795.2289915,0.24041748046875,-0.182952880859375,-1.04388427734375,5795.2190405,0.3942138482456504,0.1956495885887473,0.1336005797127713,0.1515044569969177,0.2779445648193359,-0.4880822896957397,0.05496308207511902,0.05437648296356201,-0.05418694019317627,XArbitraryZVertical,0.0460610537104143,0.10857357277348,0.2008553507887791,0.9724954048682899,0.1926713883876801,-0.1332034915685654,-0.9721803069114685,0,0,0,-1,-1,5793.488897916667,unknown,2,2022-06-30T10:06:00.886+02:00,2022-06-30T08:20:05.567+02:00,1540,1.501556,0,0,1217.191,0,0,2022-06-30T10:05:15.030+02:00
2022-06-30T10:06:02.636+02:00,5795.2389425,0.209747314453125,-0.2299346923828125,-1.040908813476562,5795.2289915,0.3890521759448916,0.1991993940853945,0.1340697311131349,0.1362203061580658,0.3048986792564392,-0.5069681406021118,0.06228309869766235,0.00251905620098114,-0.06622987985610962,XArbitraryZVertical,0.04621779456990813,0.110224643188857,0.1984465776592806,0.9727967618575213,0.1961088329553604,-0.133668452501297,-0.9714288711547852,0,0,0,-1,-1,5793.488897916667,unknown,2,2022-06-30T10:06:00.886+02:00,2022-06-30T08:20:05.567+02:00,1540,1.501556,0,0,1217.191,0,0,2022-06-30T10:05:15.030+02:00
2022-06-30T10:06:02.646+02:00,5795.2488945,0.1685333251953125,-0.2718963623046875,-1.046905517578125,5795.2389425,0.3837070715880727,0.203186809047469,0.1338511383033783,0.02948480844497681,0.3625889122486115,-0.5489123463630676,0.04043042659759521,-0.04950116574764252,-0.07321655750274658,XArbitraryZVertical,0.04601501859958053,0.1120210808847296,0.195928905454132,0.9731113997771703,0.1999866366386414,-0.1334518194198608,-0.9706677794456482,0,0,0,-1,-1,5793.488897916667,unknown,2,2022-06-30T10:06:00.886+02:00,2022-06-30T08:20:05.567+02:00,1540,1.501556,0,0,1217.191,0,0,2022-06-30T10:05:15.030+02:00
2022-06-30T10:06:02.656+02:00,5795.2588455,0.1201629638671875,-0.306060791015625,-1.060028076171875,5795.2488945,0.3781573261438444,0.207858908390182,0.1321421796873157,-0.1429756432771683,0.4440723359584808,-0.6055631041526794,0.005180642008781433,-0.09817685186862946,-0.0709642767906189,XArbitraryZVertical,0.04504018480404846,0.1140135466931899,0.1932593124205348,0.9734594607218628,0.2045662552118301,-0.1317579448223114,-0.9699445962905884,0,0,0,-1,-1,5793.488897916667,unknown,2,2022-06-30T10:06:00.886+02:00,2022-06-30T08:20:05.567+02:00,1540,1.501556,0,0,1217.191,0,0,2022-06-30T10:05:15.030+02:00
2022-06-30T10:06:02.666+02:00,5795.268797500001,0.0855865478515625,-0.316497802734375,-1.0556640625,5795.2588455,0.3724069325967019,0.2134723301775539,0.1284602031012999,-0.3386306464672089,0.5423480272293091,-0.6695216298103333,-0.04157616198062897,-0.1437892764806747,-0.07765704393386841,XArbitraryZVertical,0.04303564992087773,0.1162912798424864,0.1904159534199561,0.9738409425379183,0.210109069943428,-0.1281071901321411,-0.9692485332489014,0,0,0,-1,-1,5793.488897916667,unknown,2,2022-06-30T10:06:00.886+02:00,2022-06-30T08:20:05.567+02:00,1540,1.501556,0,0,1217.191,0,0,2022-06-30T10:05:15.030+02:00
2022-06-30T10:06:02.676+02:00,5795.278748500001,0.059539794921875,-0.3255615234375,-1.088134765625,5795.268797500001,0.3665069330968452,0.2201689250988702,0.1227203797487823,-0.5287262797355652,0.6608027815818787,-0.7341296672821045,-0.09658943116664886,-0.1836483180522919,-0.0915067195892334,XArbitraryZVertical,0.03994747901007625,0.1189263999433164,0.1874097081620345,0.9742373689013207,0.2167519927024841,-0.1224125772714615,-0.9685214161872864,0,0,0,-1,-1,5793.488897916667,unknown,2,2022-06-30T10:06:00.886+02:00,2022-06-30T08:20:05.567+02:00,1540,1.501556,0,0,1217.191,0,0,2022-06-30T10:05:15.030+02:00
2022-06-30T10:06:02.686+02:00,5795.288699500001,0.031097412109375,-0.3697662353515625,-1.128921508789062,5795.278748500001,0.3602252195606317,0.2281570396585659,0.1150385788111416,-0.6931807398796082,0.8017382621765137,-0.8361780643463135,-0.139101579785347,-0.2017129063606262,-0.08801758289337158,XArbitraryZVertical,0.03583196558871932,0.1220360542712394,0.1841196546167821,0.9746400849636262,0.2246877253055573,-0.1147850155830383,-0.9676465392112732,0,0,0,-1,-1,5793.488897916667,unknown,2,2022-06-30T10:06:00.886+02:00,2022-06-30T08:20:05.567+02:00,1540,1.501556,0,0,1217.191,0,0,2022-06-30T10:05:15.030+02:00
2022-06-30T10:06:02.696+02:00,5795.2986515,-0.0070037841796875,-0.4244384765625,-1.147186279296875,5795.288699500001,0.3531495085114828,0.2377507452836619,0.1054937592634973,-0.840908944606781,0.9770419001579285,-0.9868743419647217,-0.174668550491333,-0.2202634215354919,-0.1216675639152527,XArbitraryZVertical,0.03073298973269114,0.1257849782236301,0.1803317826729562,0.9750456717122342,0.2342079281806946,-0.1052981987595558,-0.9664672613143921,0,0,0,-1,-1,5793.488897916667,unknown,2,2022-06-30T10:06:00.886+02:00,2022-06-30T08:20:05.567+02:00,1540,1.501556,0,0,1217.191,0,0,2022-06-30T10:05:15.030+02:00
2022-06-30T10:06:02.706+02:00,5795.3086025,-0.0643768310546875,-0.4605255126953125,-1.158782958984375,5795.2986515,0.3450059325533553,0.2491601416828075,0.09379944115648776,-1.054880499839783,1.16500198841095,-1.161841511726379,-0.214409127831459,-0.2761043906211853,-0.1640619039535522,XArbitraryZVertical,0.02452347609213171,0.130264208378883,0.1758701995846379,0.9754483894034497,0.2455061227083206,-0.09366195648908615,-0.964859664440155,0,0,0,-1,-1,5793.488897916667,unknown,2,2022-06-30T10:06:00.886+02:00,2022-06-30T08:20:05.567+02:00,1540,1.501556,0,0,1217.191,0,0,2022-06-30T10:05:15.030+02:00
2022-06-30T10:06:02.716+02:00,5795.318554500001,-0.1120758056640625,-0.46405029296875,-1.150985717773438,5795.3086025,0.3358645758755136,0.262680349432043,0.07915688060275311,-1.336231470108032,1.407094240188599,-1.353112936019897,-0.2658609747886658,-0.3453643620014191,-0.1845127940177917,XArbitraryZVertical,0.01680295881344027,0.1355760592406875,0.1706837982249943,0.9758093707244324,0.2588568031787872,-0.07907424122095108,-0.9626736044883728,0,0,0,-1,-1,5793.488897916667,unknown,2,2022-06-30T10:06:00.886+02:00,2022-06-30T08:20:05.567+02:00,1540,1.501556,0,0,1217.191,0,0,2022-06-30T10:05:15.030+02:00
2022-06-30T10:06:02.726+02:00,5795.328505500001,-0.1324920654296875,-0.4320068359375,-1.128204345703125,5795.318554500001,0.32606749740985,0.2786907906489244,0.06088006636881434,-1.686588287353516,1.680838346481323,-1.514725565910339,-0.3389647603034973,-0.3996831774711609,-0.1991477608680725,XArbitraryZVertical,0.007206722576276331,0.1418817087438369,0.1648359773956818,0.9760362945425808,0.2745875418186188,-0.06084246560931206,-0.959635317325592,0,0,0,-1,-1,5793.488897916667,unknown,2,2022-06-30T10:06:00.886+02:00,2022-06-30T08:20:05.567+02:00,1540,1.501556,0,0,1217.191,0,0,2022-06-30T10:05:15.030+02:00
2022-06-30T10:06:02.736+02:00,5795.338456500001,-0.1253509521484375,-0.3901824951171875,-1.095947265625,5795.328505500001,0.3161886906404359,0.297286613865463,0.03851068461711207,-2.052242755889893,1.963768601417542,-1.662023663520813,-0.4047859311103821,-0.4255492687225342,-0.1955599188804626,XArbitraryZVertical,-0.004507124387850159,0.1492204011302829,0.1584875773465911,0.9760096101863356,0.2927097380161285,-0.03850116580724716,-0.9554259181022644,0,0,0,-1,-1,5793.488897916667,unknown,2,2022-06-30T10:06:00.886+02:00,2022-06-30T08:20:05.567+02:00,1540,1.501556,0,0,1217.191,0,0,2022-06-30T10:05:15.030+02:00
2022-06-30T10:06:02.746+02:00,5795.3484085,-0.1009521484375,-0.3502044677734375,-1.0782470703125,5795.338456500001,0.3064479339059714,0.3183900814346491,0.01209403795078,-2.411243200302124,2.231550931930542,-1.81133759021759,-0.4455074965953827,-0.4199132323265076,-0.1785333156585693,XArbitraryZVertical,-0.01829364987024505,0.157574623024957,0.1516398008530975,0.975623400310776,0.3130150735378265,-0.01209374330937862,-0.9496711492538452,0,0,0,-1,-1,5793.488897916667,unknown,2,2022-06-30T10:06:00.886+02:00,2022-06-30T08:20:05.567+02:00,1540,1.501556,0,0,1217.191,0,0,2022-06-30T10:05:15.030+02:00
2022-06-30T10:06:02.756+02:00,5795.3583595,-0.0776519775390625,-0.3072357177734375,-1.042343139648438,5795.3484085,0.2969551257478034,0.3418755013323236,-0.0181578799690609,-2.710469961166382,2.50099778175354,-1.97015655040741,-0.4605507254600525,-0.4083395004272461,-0.1539751291275024,XArbitraryZVertical,-0.03401132526516229,0.1669044846784659,0.1442432165523823,0.9747718020556141,0.335199385881424,0.01815688237547874,-0.9419722557067871,0,0,0,-1,-1,5793.488897916667,unknown,2,2022-06-30T10:06:00.886+02:00,2022-06-30T08:20:05.567+02:00,1540,1.501556,0,0,1217.191,0,0,2022-06-30T10:05:15.030+02:00
2022-06-30T10:06:02.766+02:00,5795.3683115,-0.051513671875,-0.23809814453125,-0.992919921875,5795.3583595,0.287691116926887,0.3677255849467633,-0.05171623529008876,-2.961718797683716,2.767497301101685,-2.109994888305664,-0.4599658846855164,-0.4018977880477905,-0.1463474035263062,XArbitraryZVertical,-0.05135663177299497,0.1772360027581992,0.1362084436759236,0.9733432860840154,0.3590133488178253,0.05169318616390228,-0.9318997859954834,0,0,0,-1,-1,5793.488897916667,unknown,2,2022-06-30T10:06:00.886+02:00,2022-06-30T08:20:05.567+02:00,1540,1.501556,0,0,1217.191,0,0,2022-06-30T10:05:15.030+02:00
2022-06-30T10:06:02.776+02:00,5795.3782625,-0.030548095703125,-0.16656494140625,-0.9551544189453125,5795.3683115,0.2791821878239063,0.3958073209346318,-0.08805148749404336,-3.178646802902222,2.995511531829834,-2.189391374588013,-0.4617119431495667,-0.3951736092567444,-0.1232321858406067,XArbitraryZVertical,-0.07006277020390067,0.1885090539863563,0.1277210298270714,0.9712069196459598,0.3840595781803131,0.08793774992227554,-0.9191110730171204,0,0,0,-1,-1,5793.488897916667,unknown,2,2022-06-30T10:06:00.886+02:00,2022-06-30T08:20:05.567+02:00,1540,1.501556,0,0,1217.191,0,0,2022-06-30T10:05:15.030+02:00
2022-06-30T10:06:02.786+02:00,5795.3882135,0.0400543212890625,-0.07415771484375,-0.851043701171875,5795.3782625,0.2718475563219487,0.4258244564138551,-0.1269389116216039,-3.3946533203125,3.20158576965332,-2.271815538406372,-0.4612622559070587,-0.3646965622901917,-0.08954900503158569,XArbitraryZVertical,-0.08999851378695967,0.2005361089182675,0.1189002457173427,0.9682708043481237,0.4097481966018677,0.1265982836484909,-0.9033710956573486,0,0,0,-1,-1,5793.488897916667,unknown,2,2022-06-30T10:06:00.886+02:00,2022-06-30T08:20:05.567+02:00,1540,1.501556,0,0,1217.191,0,0,2022-06-30T10:05:15.030+02:00
2022-06-30T10:06:02.796+02:00,5795.398165500001,0.1307525634765625,0.0535888671875,-0.7341766357421875,5795.3882135,0.2661079005436666,0.4575651030156644,-0.1679221890466655,-3.558970928192139,3.348433494567871,-2.264430999755859,-0.4660996496677399,-0.3336991965770721,-0.07064270973205566,XArbitraryZVertical,-0.1109360023734514,0.2131601310398618,0.1098985976604718,0.9644575290700065,0.4355511963367462,0.1671341210603714,-0.8845119476318359,0,0,0,-1,-1,5793.488897916667,unknown,2,2022-06-30T10:06:00.886+02:00,2022-06-30T08:20:05.567+02:00,1540,1.501556,0,0,1217.191,0,0,2022-06-30T10:05:15.030+02:00
2022-06-30T10:06:02.806+02:00,5795.408116500001,0.2349853515625,0.193206787109375,-0.6346588134765625,5795.398165500001,0.2629060727684601,0.4907721083397046,-0.2102129081258861,-3.726335048675537,3.451591968536377,-2.170623779296875,-0.4208779036998749,-0.2828259468078613,0.01151013374328613,XArbitraryZVertical,-0.1325585633143647,0.226166347742208,0.1011798455790948,0.9597081914843972,0.4609318971633911,0.208668127655983,-0.8625540137290955,0,0,0,-1,-1,5793.488897916667,unknown,2,2022-06-30T10:06:00.886+02:00,2022-06-30T08:20:05.567+02:00,1540,1.501556,0,0,1217.191,0,0,2022-06-30T10:05:15.030+02:00
2022-06-30T10:06:02.815+02:00,5795.418067500001,0.360595703125,0.29278564453125,-0.5600738525390625,5795.408116500001,0.2631338863787507,0.5255384642919367,-0.2537369915067288,-3.933728694915771,3.52919340133667,-2.044842958450317,-0.3548634350299835,-0.197434276342392,0.1031790375709534,XArbitraryZVertical,-0.1549321412657974,0.2394119529103091,0.09308399696100979,0.9539462934797797,0.4856157004833221,0.2510230541229248,-0.83735591173172,0,0,0,-1,-1,5793.488897916667,unknown,2,2022-06-30T10:06:00.886+02:00,2022-06-30T08:20:05.567+02:00,1540,1.501556,0,0,1217.191,0,0,2022-06-30T10:05:15.030+02:00
2022-06-30T10:06:02.825+02:00,5795.4280195,0.493438720703125,0.40435791015625,-0.492889404296875,5795.418067500001,0.2670158669551808,0.561970591980815,-0.2980013689632184,-4.051071166992188,3.583810329437256,-1.90819525718689,-0.2743842601776123,-0.1004035770893097,0.1742513179779053,XArbitraryZVertical,-0.1778620991785936,0.2528040628789199,0.08567513530866476,0.9471615894753922,0.5093693137168884,0.2936102449893951,-0.8089103698730469,0,0,0,-1,-1,5793.488897916667,unknown,2,2022-06-30T10:06:00.886+02:00,2022-06-30T08:20:05.567+02:00,1540,1.501556,0,0,1217.191,0,0,2022-06-30T10:05:15.030+02:00
2022-06-30T10:06:02.835+02:00,5795.4379705,0.5939788818359375,0.5163116455078125,-0.3593902587890625,5795.4280195,0.2744949563712553,0.5998875603918947,-0.3419128274894057,-4.107908248901367,3.561295509338379,-1.73621392250061,-0.1712753176689148,-0.04250428080558777,0.217546820640564,XArbitraryZVertical,-0.2008365086752688,0.266184584300077,0.07900962202630341,0.9394509426110331,0.5318707227706909,0.3352898061275482,-0.7776209115982056,0,0,0,-1,-1,5793.488897916667,unknown,2,2022-06-30T10:06:00.886+02:00,2022-06-30T08:20:05.567+02:00,1540,1.501556,0,0,1217.191,0,0,2022-06-30T10:05:15.030+02:00
2022-06-30T10:06:02.845+02:00,5795.4479225,0.6704559326171875,0.5959014892578125,-0.31536865234375,5795.4379705,0.2854409651630057,0.6389408926068579,-0.3846624553536814,-4.065469264984131,3.509969234466553,-1.57969069480896,-0.05932927131652832,0.02911150455474854,0.2511789202690125,XArbitraryZVertical,-0.2234784677815536,0.279326117225389,0.07312740737945905,0.9309600901868714,0.5527677536010742,0.3752462863922119,-0.7440685629844666,0,0,0,-1,-1,5793.488897916667,unknown,2,2022-06-30T10:06:00.886+02:00,2022-06-30T08:20:05.567+02:00,1540,1.501556,0,0,1217.191,0,0,2022-06-30T10:05:15.030+02:00
2022-06-30T10:06:02.855+02:00,5795.4578735,0.748748779296875,0.68243408203125,-0.264862060546875,5795.4479225,0.2991244132311413,0.6788051933536473,-0.425462297682104,-3.966233253479004,3.415087938308716,-1.43681526184082,0.02209031581878662,0.1035696268081665,0.3495438694953918,XArbitraryZVertical,-0.245352709422364,0.2921213294051699,0.06783216410725354,0.9218817141625572,0.5718882083892822,0.4127418994903564,-0.7089343667030334,0,0,0,-1,-1,5793.488897916667,unknown,2,2022-06-30T10:06:00.886+02:00,2022-06-30T08:20:05.567+02:00,1540,1.501556,0,0,1217.191,0,0,2022-06-30T10:05:15.030+02:00
2022-06-30T10:06:02.865+02:00,5795.4678245,0.824676513671875,0.75860595703125,-0.2149200439453125,5795.4578735,0.3153504330312124,0.7192071001624309,-0.4638036961367621,-3.824857711791992,3.304708242416382,-1.261533498764038,0.08126342296600342,0.1485482156276703,0.3574814796447754,XArbitraryZVertical,-0.2662371136263908,0.3044545653995636,0.06317027058187825,0.9123787186640757,0.589192271232605,0.447353184223175,-0.6728504300117493,0,0,0,-1,-1,5793.488897916667,unknown,2,2022-06-30T10:06:00.886+02:00,2022-06-30T08:20:05.567+02:00,1540,1.501556,0,0,1217.191,0,0,2022-06-30T10:05:15.030+02:00
2022-06-30T10:06:02.875+02:00,5795.477776500001,0.882843017578125,0.793212890625,-0.1654052734375,5795.4678245,0.3340423630225852,0.7599856016561963,-0.4993157267404641,-3.702275037765503,3.151426076889038,-1.094010591506958,0.1439463496208191,0.2036091089248657,0.3714874982833862,XArbitraryZVertical,-0.2860062482340568,0.3162680854281723,0.05923321724791953,0.9025887996216707,0.6048021912574768,0.4788249135017395,-0.6363498568534851,0,0,0,-1,-1,5793.488897916667,unknown,2,2022-06-30T10:06:00.886+02:00,2022-06-30T08:20:05.567+02:00,1540,1.501556,0,0,1217.191,0,0,2022-06-30T10:05:15.030+02:00
2022-06-30T10:06:02.885+02:00,5795.487727500001,0.95306396484375,0.8049468994140625,-0.1064605712890625,5795.477776500001,0.3546278726325119,0.8005219536072755,-0.5323786389681099,-3.520872116088867,2.975250959396362,-1.02881646156311,0.2062875032424927,0.251021683216095,0.3850409388542175,XArbitraryZVertical,-0.3047760101541508,0.3273086112216687,0.05582805882097102,0.8926723336594632,0.6183887720108032,0.5075842142105103,-0.5999613404273987,0,0,0,-1,-1,5793.488897916667,unknown,2,2022-06-30T10:06:00.886+02:00,2022-06-30T08:20:05.567+02:00,1540,1.501556,0,0,1217.191,0,0,2022-06-30T10:05:15.030+02:00
2022-06-30T10:06:02.895+02:00,5795.4976795,1.012619018554688,0.8402862548828125,-0.0691986083984375,5795.487727500001,0.3753132186360268,0.8399269528019651,-0.5621757467342831,-3.156260013580322,2.77567720413208,-0.911776065826416,0.2528434991836548,0.2601844668388367,0.3993790149688721,XArbitraryZVertical,-0.3219282972530088,0.3375942896849629,0.05254242011425907,0.8829674162977341,0.6299992799758911,0.5330283641815186,-0.5647845268249512,0,0,0,-1,-1,5793.488897916667,unknown,2,2022-06-30T10:06:00.886+02:00,2022-06-30T08:20:05.567+02:00,1540,1.501556,0,0,1217.191,0,0,2022-06-30T10:05:15.030+02:00
2022-06-30T10:06:02.905+02:00,5795.5076305,1.061233520507812,0.830230712890625,-0.0438385009765625,5795.4976795,0.3954150733102721,0.8774251778230058,-0.587832560847255,-2.79044508934021,2.563290357589722,-0.7804243564605713,0.3130648136138916,0.2503880858421326,0.4253906607627869,XArbitraryZVertical,-0.3370156576087488,0.3471234365139251,0.04953413066677839,0.8737689275774111,0.6399989128112793,0.5545586943626404,-0.5318515300750732,0,0,0,-1,-1,5793.488897916667,unknown,2,2022-06-30T10:06:00.886+02:00,2022-06-30T08:20:05.567+02:00,1540,1.501556,0,0,1217.191,0,0,2022-06-30T10:05:15.030+02:00
2022-06-30T10:06:02.917+02:00,5795.5175815,1.10089111328125,0.8051910400390625,-0.01007080078125,5795.5076305,0.4145580134584702,0.9126103532789794,-0.60958668120839,-2.439763069152832,2.341331005096436,-0.6300529837608337,0.3640053868293762,0.2677575945854187,0.4323104619979858,XArbitraryZVertical,-0.3501277374697012,0.3558874180469292,0.04682500876070795,0.8651949465127037,0.648613452911377,0.5725286602973938,-0.501509428024292,0,0,0,-1,-1,5793.488897916667,unknown,2,2022-06-30T10:06:00.886+02:00,2022-06-30T08:20:05.567+02:00,1540,1.501556,0,0,1217.191,0,0,2022-06-30T10:05:15.030+02:00
2022-06-30T10:06:02.926+02:00,5795.527533500001,1.0811767578125,0.79638671875,-0.07391357421875,5795.5175815,0.4331546505718097,0.9454434498792552,-0.6275619213432265,-2.170696973800659,2.095432758331299,-0.4340259432792664,0.4049569964408875,0.2430577278137207,0.4300065040588379,XArbitraryZVertical,-0.3614513056866571,0.3639096776918679,0.04472832957801519,0.857276081893055,0.6562763452529907,0.5871729850769043,-0.4738453924655914,0,0,0,-1,-1,5793.488897916667,unknown,2,2022-06-30T10:06:00.886+02:00,2022-06-30T08:20:05.567+02:00,1540,1.501556,0,0,1217.191,0,0,2022-06-30T10:05:15.030+02:00
2022-06-30T10:06:02.935+02:00,5795.537484500001,1.016769409179688,0.795074462890625,-0.0496063232421875,5795.527533500001,0.4523967322651478,0.9764543056245429,-0.6425006851523474,-2.141714572906494,1.860506534576416,-0.2459178119897842,0.4375802278518677,0.2059916257858276,0.4382357895374298,XArbitraryZVertical,-0.3715752269635476,0.3711851487905452,0.04360378946891263,0.8498541793156172,0.6633106470108032,0.5991993546485901,-0.4483068585395813,0,0,0,-1,-1,5793.488897916667,unknown,2,2022-06-30T10:06:00.886+02:00,2022-06-30T08:20:05.567+02:00,1540,1.501556,0,0,1217.191,0,0,2022-06-30T10:05:15.030+02:00
2022-06-30T10:06:02.945+02:00,5795.5474365,0.9428558349609375,0.831573486328125,-0.024444580078125,5795.537484500001,0.4742853438635329,1.007444535058206,-0.6559112762928231,-2.267249345779419,1.726887345314026,-0.08950430154800415,0.4111479520797729,0.1865050196647644,0.3492953777313232,XArbitraryZVertical,-0.3815573159735055,0.3779012754397905,0.04365407139122214,0.8424363885521613,0.6700286269187927,0.6098816990852356,-0.4232092797756195,0,0,0,-1,-1,5793.488897916667,unknown,2,2022-06-30T10:06:00.886+02:00,2022-06-30T08:20:05.567+02:00,1540,1.501556,0,0,1217.191,0,0,2022-06-30T10:05:15.030+02:00
2022-06-30T10:06:02.955+02:00,5795.5573875,0.9008636474609375,0.9339447021484375,0.0539703369140625,5795.5474365,0.498692827239315,1.039094851066602,-0.6678707897049413,-2.263343095779419,1.624553561210632,0.05519536137580872,0.3400193452835083,0.1757587790489197,0.3484609127044678,XArbitraryZVertical,-0.3914648075625612,0.384345537678087,0.04467707331694414,0.8348879827896394,0.6767499446868896,0.6193156838417053,-0.3980676233768463,0,0,0,-1,-1,5793.488897916667,unknown,2,2022-06-30T10:06:00.886+02:00,2022-06-30T08:20:05.567+02:00,1540,1.501556,0,0,1217.191,0,0,2022-06-30T10:05:15.030+02:00
2022-06-30T10:06:02.965+02:00,5795.5673385,0.889892578125,0.9892120361328125,0.12030029296875,5795.5573875,0.5236970684426228,1.070060883230513,-0.6779534126889172,-2.155412435531616,1.459577441215515,0.1208644509315491,0.2596182823181152,0.2043731212615967,0.3494620621204376,XArbitraryZVertical,-0.4007794497838978,0.3904130386847148,0.04625559700645456,0.8275348380996557,0.6832373738288879,0.6272003650665283,-0.3739069700241089,0,0,0,-1,-1,5793.488897916667,unknown,2,2022-06-30T10:06:00.886+02:00,2022-06-30T08:20:05.567+02:00,1540,1.501556,0,0,1217.191,0,0,2022-06-30T10:05:15.030+02:00
2022-06-30T10:06:02.975+02:00,5795.5772905,0.893646240234375,0.9254150390625,0.178375244140625,5795.5673385,0.5483514111738239,1.098928251351186,-0.6864537798649187,-2.040724992752075,1.227670192718506,0.1810590773820877,0.2118924260139465,0.3001464605331421,0.4055644571781158,XArbitraryZVertical,-0.4094212642321369,0.3956981011389655,0.0482516895929319,0.8206515391007613,0.6889710426330566,0.6337981820106506,-0.351594477891922,0,0,0,-1,-1,5793.488897916667,unknown,2,2022-06-30T10:06:00.886+02:00,2022-06-30T08:20:05.567+02:00,1540,1.501556,0,0,1217.191,0,0,2022-06-30T10:05:15.030+02:00
2022-06-30T10:06:02.985+02:00,5795.5872415,0.8836822509765625,0.839202880859375,0.242095947265625,5795.5772905,0.5723117028372507,1.12530421911941,-0.6929944524251452,-1.875497460365295,1.012918472290039,0.2925731241703033,0.195644199848175,0.3503682613372803,0.4518086016178131,XArbitraryZVertical,-0.4171931935539911,0.4002443357439132,0.05077407297329729,0.8143563523547601,0.6942482590675354,0.6388437747955322,-0.3315086364746094,0,0,0,-1,-1,5793.488897916667,unknown,2,2022-06-30T10:06:00.886+02:00,2022-06-30T08:20:05.567+02:00,1540,1.501556,0,0,1217.191,0,0,2022-06-30T10:05:15.030+02:00
2022-06-30T10:06:02.995+02:00,5795.597193500001,0.8513031005859375,0.7590789794921875,0.2068634033203125,5795.5872415,0.5957653914421709,1.149281026316425,-0.6976427939684224,-1.825943231582642,0.7898741960525513,0.3744299113750458,0.1943668127059937,0.2830020189285278,0.4919256269931793,XArbitraryZVertical,-0.4241778746304009,0.4041011928759777,0.05392812732982631,0.8086204994588324,0.699279248714447,0.6424130201339722,-0.3135507106781006,0,0,0,-1,-1,5793.488897916667,unknown,2,2022-06-30T10:06:00.886+02:00,2022-06-30T08:20:05.567+02:00,1540,1.501556,0,0,1217.191,0,0,2022-06-30T10:05:15.030+02:00
2022-06-30T10:06:03.005+02:00,5795.607144500001,0.806884765625,0.729156494140625,0.195526123046875,5795.597193500001,0.6198194440212795,1.171433473982204,-0.7014405467525843,-1.872008919715881,0.5410229563713074,0.4031030833721161,0.1798819303512573,0.1938840746879578,0.5391291379928589,XArbitraryZVertical,-0.4309919049207119,0.4070985336487854,0.05778918464710914,0.8032292325098721,0.7038002014160156,0.6453188061714172,-0.2970335185527802,0,0,0,-1,-1,5793.488897916667,unknown,2,2022-06-30T10:06:00.886+02:00,2022-06-30T08:20:05.567+02:00,1540,1.501556,0,0,1217.191,0,0,2022-06-30T10:05:15.030+02:00
2022-06-30T10:06:03.015+02:00,5795.617095500001,0.766693115234375,0.787933349609375,0.2336578369140625,5795.607144500001,0.6444198879394938,1.191315474615432,-0.7047172922331987,-1.863090038299561,0.2669325768947601,0.4251950681209564,0.1437044739723206,0.1112604737281799,0.489061027765274,XArbitraryZVertical,-0.4377251899935921,0.4090203896735916,0.06236077666196092,0.7982544350398917,0.7075984477996826,0.6478185057640076,-0.2821979522705078,0,0,0,-1,-1,5793.488897916667,unknown,2,2022-06-30T10:06:00.886+02:00,2022-06-30T08:20:05.567+02:00,1540,1.501556,0,0,1217.191,0,0,2022-06-30T10:05:15.030+02:00
2022-06-30T10:06:03.024+02:00,5795.6270475,0.7589111328125,0.85150146484375,0.285430908203125,5795.617095500001,0.669014831372521,1.208817345756581,-0.7071651689587164,-1.816900491714478,0.06150363013148308,0.4939928650856018,0.09594088792800903,0.07947522401809692,0.4647344946861267,XArbitraryZVertical,-0.4441501724306081,0.4100320216981451,0.06756462589857243,0.7937502797841598,0.7109437584877014,0.6496813297271729,-0.2692087292671204,0,0,0,-1,-1,5793.488897916667,unknown,2,2022-06-30T10:06:00.886+02:00,2022-06-30T08:20:05.567+02:00,1540,1.501556,0,0,1217.191,0,0,2022-06-30T10:05:15.030+02:00
2022-06-30T10:06:03.034+02:00,5795.6369985,0.776885986328125,0.8632049560546875,0.3563385009765625,5795.6270475,0.6929755106157641,1.223960353443993,-0.7080992004518427,-1.664470195770264,-0.1532922983169556,0.6053404211997986,0.05232530832290649,0.1375423073768616,0.4918635487556458,XArbitraryZVertical,-0.4499068664292005,0.4104641098131777,0.07338522737259981,0.7897580116106067,0.714367687702179,0.6503911018371582,-0.2582060396671295,0,0,0,-1,-1,5793.488897916667,unknown,2,2022-06-30T10:06:00.886+02:00,2022-06-30T08:20:05.567+02:00,1540,1.501556,0,0,1217.191,0,0,2022-06-30T10:05:15.030+02:00
2022-06-30T10:06:03.044+02:00,5795.6469495,0.80670166015625,0.81634521484375,0.437225341796875,5795.6369985,0.7151104458302602,1.235670221834282,-0.7073386399935329,-1.474520325660706,-0.3884340822696686,0.670535147190094,0.04110187292098999,0.2016883492469788,0.5354165434837341,XArbitraryZVertical,-0.4546493933927375,0.4102449743378191,0.07969031450617048,0.7865382682511681,0.7178090214729309,0.649813175201416,-0.2499859780073166,0,0,0,-1,-1,5793.488897916667,unknown,2,2022-06-30T10:06:00.886+02:00,2022-06-30T08:20:05.567+02:00,1540,1.501556,0,0,1217.191,0,0,2022-06-30T10:05:15.030+02:00
2022-06-30T10:06:03.054+02:00,5795.6569015,0.819183349609375,0.7596893310546875,0.5027618408203125,5795.6469495,0.7353213064112598,1.243536970835659,-0.7054207976701243,-1.330273747444153,-0.6669219136238098,0.7026405930519104,0.05595368146896362,0.2148507237434387,0.6010698080062866,XArbitraryZVertical,-0.4584999346472622,0.4091601104606045,0.08641517256366951,0.7841544625030583,0.7209321260452271,0.6483542323112488,-0.2447316348552704,0,0,0,-1,-1,5793.488897916667,unknown,2,2022-06-30T10:06:00.886+02:00,2022-06-30T08:20:05.567+02:00,1540,1.501556,0,0,1217.191,0,0,2022-06-30T10:05:15.030+02:00
2022-06-30T10:06:03.064+02:00,5795.6668525,0.79949951171875,0.72967529296875,0.5385894775390625,5795.6569015,0.7541636533164421,1.247603138874667,-0.702843431160011,-1.260351777076721,-0.9583467841148376,0.7106674909591675,0.08319801092147827,0.1699554324150085,0.6795531511306763,XArbitraryZVertical,-0.4617067629789246,0.4070169605916847,0.09364849082787152,0.7825561181662405,0.7235035300254822,0.6463898420333862,-0.2423281222581863,0,0,0,-1,-1,5793.488897916667,unknown,2,2022-06-30T10:06:00.886+02:00,2022-06-30T08:20:05.567+02:00,1540,1.501556,0,0,1217.191,0,0,2022-06-30T10:05:15.030+02:00
2022-06-30T10:06:03.075+02:00,5795.676804500001,0.7714691162109375,0.729034423828125,0.563568115234375,5795.6668525,0.7729939551608886,1.248817763213117,-0.7003413134551401,-1.332085847854614,-1.232164740562439,0.6908890008926392,0.09385395050048828,0.1152106523513794,0.7447216510772705,XArbitraryZVertical,-0.4647915182729992,0.403718660194905,0.1014970273963462,0.7814591703026021,0.7253292202949524,0.6444786787033081,-0.2419601827859879,0,0,0,-1,-1,5793.488897916667,unknown,2,2022-06-30T10:06:00.886+02:00,2022-06-30T08:20:05.567+02:00,1540,1.501556,0,0,1217.191,0,0,2022-06-30T10:05:15.030+02:00
2022-06-30T10:06:03.084+02:00,5795.686755500001,0.7363739013671875,0.775054931640625,0.5922698974609375,5795.676804500001,0.7927600811384692,1.247831779200764,-0.6982162173107872,-1.411688208580017,-1.521421432495117,0.6873912811279297,0.073111891746521,0.0868229866027832,0.78169846534729,XArbitraryZVertical,-0.4680395614131562,0.3992296242776611,0.1100982732102545,0.7806619306754912,0.7263874411582947,0.6428523659706116,-0.2431093454360962,0,0,0,-1,-1,5793.488897916667,unknown,2,2022-06-30T10:06:00.886+02:00,2022-06-30T08:20:05.567+02:00,1540,1.501556,0,0,1217.191,0,0,2022-06-30T10:05:15.030+02:00
2022-06-30T10:06:03.094+02:00,5795.696706500001,0.694000244140625,0.8148193359375,0.601104736328125,5795.686755500001,0.8132393816006781,1.244248124698705,-0.6963396729403037,-1.463639259338379,-1.837986350059509,0.6821222305297852,0.04481601715087891,0.08762073516845703,0.8096652626991272,XArbitraryZVertical,-0.4713062395815391,0.3934738721169344,0.1195068488069901,0.7802352150792389,0.726652979850769,0.6414138078689575,-0.2460974752902985,0,0,0,-1,-1,5793.488897916667,unknown,2,2022-06-30T10:06:00.886+02:00,2022-06-30T08:20:05.567+02:00,1540,1.501556,0,0,1217.191,0,0,2022-06-30T10:05:15.030+02:00
2022-06-30T10:06:03.104+02:00,5795.7066585,0.6679840087890625,0.8404083251953125,0.627288818359375,5795.696706500001,0.8341273294687399,1.237609484201524,-0.6947881594546947,-1.462821960449219,-2.188366651535034,0.6637818217277527,0.01043087244033813,0.1348323822021484,0.8435107469558716,XArbitraryZVertical,-0.4744825189697908,0.3863233619296915,0.1297002382774478,0.7802554939692562,0.725942850112915,0.6402227282524109,-0.2512412071228027,0,0,0,-1,-1,5793.488897916667,unknown,2,2022-06-30T10:06:00.886+02:00,2022-06-30T08:20:05.567+02:00,1540,1.501556,0,0,1217.191,0,0,2022-06-30T10:05:15.030+02:00
2022-06-30T10:06:03.114+02:00,5795.7166095,0.6385650634765625,0.9019317626953125,0.6945953369140625,5795.7066585,0.8539563544975798,1.226435024276659,-0.6932428426032666,-1.324710965156555,-2.611889839172363,0.6583772301673889,-0.03002029657363892,0.1757845878601074,0.8607754111289978,XArbitraryZVertical,-0.4770358175340226,0.3776258991205982,0.1405693298389714,0.7810735295995717,0.7240204215049744,0.6390348672866821,-0.2596710324287415,0,0,0,-1,-1,5793.488897916667,unknown,2,2022-06-30T10:06:00.886+02:00,2022-06-30T08:20:05.567+02:00,1540,1.501556,0,0,1217.191,0,0,2022-06-30T10:05:15.030+02:00
2022-06-30T10:06:03.124+02:00,5795.726561500001,0.6034393310546875,0.945343017578125,0.7081298828125,5795.7166095,0.8724204198966478,1.209878123638502,-0.6915385234908581,-1.240925550460815,-3.087261438369751,0.6535384058952332,-0.05265611410140991,0.2026854753494263,0.8992950916290283,XArbitraryZVertical,-0.4787337585144417,0.3671657212034788,0.1522605283093248,0.7828283346959893,0.7206399440765381,0.6377230286598206,-0.272006630897522,0,0,0,-1,-1,5793.488897916667,unknown,2,2022-06-30T10:06:00.886+02:00,2022-06-30T08:20:05.567+02:00,1540,1.501556,0,0,1217.191,0,0,2022-06-30T10:05:15.030+02:00
2022-06-30T10:06:03.134+02:00,5795.736512500001,0.57098388671875,1.017349243164062,0.6670379638671875,5795.726561500001,0.8899036664346208,1.18764770786626,-0.6898171972144089,-1.159783005714417,-3.624107599258423,0.6690880656242371,-0.07686775922775269,0.2655357122421265,0.9829632043838501,XArbitraryZVertical,-0.479591238344995,0.3546944571016571,0.1649575097580903,0.7854764163375966,0.7154326438903809,0.6363961696624756,-0.2883681654930115,0,0,0,-1,-1,5793.488897916667,unknown,2,2022-06-30T10:06:00.886+02:00,2022-06-30T08:20:05.567+02:00,1540,1.501556,0,0,1217.191,0,0,2022-06-30T10:05:15.030+02:00
2022-06-30T10:06:03.144+02:00,5795.746463500001,0.48175048828125,1.018234252929688,0.5312347412109375,5795.736512500001,0.9072372289896561,1.159717306638639,-0.6878933240630943,-1.208292365074158,-4.201807975769043,0.7348675131797791,-0.1047822833061218,0.3104323148727417,1.016853928565979,XArbitraryZVertical,-0.4795987383452426,0.3400337985347055,0.1790470941495193,0.7888627221912239,0.7082214951515198,0.6349110007286072,-0.3087241351604462,0,0,0,-1,-1,5793.488897916667,unknown,2,2022-06-30T10:06:00.886+02:00,2022-06-30T08:20:05.567+02:00,1540,1.501556,0,0,1217.191,0,0,2022-06-30T10:05:15.030+02:00
2022-06-30T10:06:03.154+02:00,5795.7564155,0.389373779296875,0.9134674072265625,0.440582275390625,5795.746463500001,0.9270752564082927,1.127618874718856,-0.6869770179459228,-1.535101175308228,-4.784209251403809,0.7078396081924438,-0.1274903416633606,0.3831465244293213,0.9985809326171875,XArbitraryZVertical,-0.4795976444445519,0.3228226560339437,0.1948539384761704,0.7923405746035749,0.6984739303588867,0.6342028379440308,-0.3315432667732239,0,0,0,-1,-1,5793.488897916667,unknown,2,2022-06-30T10:06:00.886+02:00,2022-06-30T08:20:05.567+02:00,1540,1.501556,0,0,1217.191,0,0,2022-06-30T10:05:15.030+02:00
2022-06-30T10:06:03.164+02:00,5795.7663665,0.29022216796875,0.8786773681640625,0.44525146484375,5795.7564155,0.9502668878512391,1.091803610651112,-0.688091287658907,-1.782579898834229,-5.371736526489258,0.7212715744972229,-0.203776478767395,0.3831704258918762,0.8872498273849487,XArbitraryZVertical,-0.4799317875979027,0.302750345301981,0.2123346257450816,0.7955637853959305,0.6855266690254211,0.6350639462471008,-0.3560154139995575,0,0,0,-1,-1,5793.488897916667,unknown,2,2022-06-30T10:06:00.886+02:00,2022-06-30T08:20:05.567+02:00,1540,1.501556,0,0,1217.191,0,0,2022-06-30T10:05:15.030+02:00
2022-06-30T10:06:03.174+02:00,5795.7763185,0.1657562255859375,0.96722412109375,0.410400390625,5795.7663665,0.9774330402350009,1.052741433910874,-0.6907268660391636,-2.173937082290649,-5.944035053253174,0.8453999161720276,-0.2802705764770508,0.2763699293136597,0.8222670555114746,XArbitraryZVertical,-0.4803916424681902,0.2799666913237949,0.231799864582581,0.7981925797973455,0.6696441173553467,0.6370975971221924,-0.3816850483417511,0,0,0,-1,-1,5793.488897916667,unknown,2,2022-06-30T10:06:00.886+02:00,2022-06-30T08:20:05.567+02:00,1540,1.501556,0,0,1217.191,0,0,2022-06-30T10:05:15.030+02:00
2022-06-30T10:06:03.184+02:00,5795.7862695,-0.0379638671875,1.113510131835938,0.372344970703125,5795.7763185,1.009892738384648,1.011724059379633,-0.6949689290555006,-2.58265233039856,-6.458168506622314,0.9939391016960144,-0.3609106540679932,0.2383159399032593,0.8526374101638794,XArbitraryZVertical,-0.4811099618364224,0.2546371700574608,0.2534644234220053,0.7996555497540881,0.6511325836181641,0.6403615474700928,-0.4073862433433533,0,0,0,-1,-1,5793.488897916667,unknown,2,2022-06-30T10:06:00.886+02:00,2022-06-30T08:20:05.567+02:00,1540,1.501556,0,0,1217.191,0,0,2022-06-30T10:05:15.030+02:00
2022-06-30T10:06:03.194+02:00,5795.7962205,-0.36956787109375,1.19073486328125,-0.027862548828125,5795.7862695,1.046895011191864,0.969186264551116,-0.7020784640998691,-2.937406778335571,-6.841274261474609,0.9085211157798767,-0.463694155216217,0.3214182257652283,0.8425195813179016,XArbitraryZVertical,-0.4822009775459173,0.2267653396271013,0.2765986753682437,0.7997204616353945,0.6294500827789307,0.6458060145378113,-0.4321193993091583,0,0,0,-1,-1,5793.488897916667,unknown,2,2022-06-30T10:06:00.886+02:00,2022-06-30T08:20:05.567+02:00,1540,1.501556,0,0,1217.191,0,0,2022-06-30T10:05:15.030+02:00
2022-06-30T10:06:03.204+02:00,5795.806172500001,-1.209579467773438,-0.8679351806640625,3.064117431640625,5795.7962205,1.084386215805525,0.9247939575465026,-0.7132179571011942,-2.943539142608643,-6.926643371582031,0.6244139075279236,-0.6418356895446777,0.4592395424842834,0.8276129364967346,XArbitraryZVertical,-0.4833376178546847,0.1968518909615112,0.2993755521091386,0.798754355552193,0.6038715243339539,0.6542707681655884,-0.4552681744098663,0,0,0,-1,-1,5793.488897916667,unknown,2,2022-06-30T10:06:00.886+02:00,2022-06-30T08:20:05.567+02:00,1540,1.501556,0,0,1217.191,0,0,2022-06-30T10:05:15.030+02:00
2022-06-30T10:06:03.214+02:00,5795.816123500001,-4.304962158203125,2.7567138671875,-11.7374267578125,5795.806172500001,1.084740236270391,0.8638357103291837,-0.7245611899500427,4.881252765655518,-0.9462223052978516,-0.9491619467735291,-0.9389031529426575,0.5279281139373779,0.4584959745407104,XArbitraryZVertical,-0.4777189205843679,0.1691309592826485,0.3112695830766889,0.8039220795183668,0.5693349838256836,0.6628069281578064,-0.4863587021827698,0,0,0,-1,-1,5793.488897916667,unknown,2,2022-06-30T10:06:00.886+02:00,2022-06-30T08:20:05.567+02:00,1540,1.501556,0,0,1217.191,0,0,2022-06-30T10:05:15.030+02:00
2022-06-30T10:06:03.224+02:00,5795.8260755,-2.969741821289062,0.7333526611328125,-8.479537963867188,5795.816123500001,1.131806569466569,0.9050287559363901,-0.733645515554841,-5.389006614685059,5.684830188751221,1.693247079849243,-1.793701171875,-1.537516713142395,3.522879362106323,XArbitraryZVertical,-0.4911046892062851,0.1715668168881651,0.3177654707751232,0.7927207583009351,0.5841214060783386,0.6695817708969116,-0.4587620198726654,0,0,0,-1,-1,5793.488897916667,unknown,2,2022-06-30T10:06:00.886+02:00,2022-06-30T08:20:05.567+02:00,1540,1.501556,0,0,1217.191,0,0,2022-06-30T10:05:15.030+02:00
2022-06-30T10:06:03.234+02:00,5795.8360265,-3.24066162109375,1.022308349609375,-5.840225219726562,5795.8260755,1.180663976686995,0.9703378387955947,-0.7619829326156081,-4.186355113983154,0.4410313665866852,-0.4031717479228973,-4.90187931060791,2.066356658935547,-11.32865238189697,XArbitraryZVertical,-0.5142381215836889,0.1765553189942215,0.3130298889079033,0.7787166498118807,0.5969169139862061,0.6903573870658875,-0.408774733543396,0,0,0,-1,-1,5793.488897916667,unknown,2,2022-06-30T10:06:00.886+02:00,2022-06-30T08:20:05.567+02:00,1540,1.501556,0,0,1217.191,0,0,2022-06-30T10:05:15.030+02:00
2022-06-30T10:06:03.243+02:00,5795.8459775,-0.800506591796875,1.864959716796875,-2.32275390625,5795.8360265,1.210724733231044,0.9994051784093402,-0.779420355487716,-1.784325122833252,1.906221508979797,-0.355820894241333,-3.568069458007812,0.03048568964004517,-8.094853401184082,XArbitraryZVertical,-0.5264355053432176,0.1747095509438574,0.3123327604388149,0.7712267204119121,0.5983274579048157,0.7028672099113464,-0.3846844732761383,0,0,0,-1,-1,5793.488897916667,unknown,2,2022-06-30T10:06:00.886+02:00,2022-06-30T08:20:05.567+02:00,1540,1.501556,0,0,1217.191,0,0,2022-06-30T10:05:15.030+02:00
2022-06-30T10:06:03.254+02:00,5795.855928875,0.3088531494140625,0.9564666748046875,0.4596710205078125,5795.8459775,1.238149935373074,1.047655226235638,-0.7891886225624792,-2.277954578399658,3.50084662437439,0.7627080678939819,-3.85086989402771,0.312526524066925,-5.488294124603271,XArbitraryZVertical,-0.5390576331420242,0.1828965104132312,0.3072524218131862,0.7626018958177975,0.6102079749107361,0.7097819447517395,-0.3519314825534821,0,0,0,-1,-1,5793.488897916667,unknown,2,2022-06-30T10:06:00.886+02:00,2022-06-30T08:20:05.567+02:00,1540,1.501556,0,0,1217.191,0,0,2022-06-30T10:05:15.030+02:00
2022-06-30T10:06:03.263+02:00,5795.865879875,0.880157470703125,0.65887451171875,1.149948120117188,5795.855928875,1.261418446562589,1.104461232291367,-0.782976774455565,-0.08643074333667755,4.306171417236328,1.79789125919342,-1.433637857437134,1.159567356109619,-2.004058837890625,XArbitraryZVertical,-0.5483030894159496,0.2000402476565508,0.3024208248965746,0.7535843028810508,0.6331309080123901,0.7053925395011902,-0.3186952471733093,0,0,0,-1,-1,5793.488897916667,unknown,2,2022-06-30T10:06:00.886+02:00,2022-06-30T08:20:05.567+02:00,1540,1.501556,0,0,1217.191,0,0,2022-06-30T10:05:15.030+02:00
2022-06-30T10:06:03.273+02:00,5795.875831875001,1.371444702148438,0.149993896484375,0.3175048828125,5795.865879875,1.265010783800338,1.145245138998178,-0.7678180109601702,0.7109423279762268,3.037307739257812,0.900908350944519,-0.34641033411026,0.2618998289108276,0.7566671967506409,XArbitraryZVertical,-0.5509027311275884,0.219107292750407,0.2970134971435996,0.7485193931901561,0.6552631855010986,0.694567084312439,-0.2969963550567627,0,0,0,-1,-1,5793.488897916667,unknown,2,2022-06-30T10:06:00.886+02:00,2022-06-30T08:20:05.567+02:00,1540,1.501556,0,0,1217.191,0,0,2022-06-30T10:05:15.030+02:00
2022-06-30T10:06:03.284+02:00,5795.885782875001,1.096633911132812,0.1520538330078125,-0.62359619140625,5795.875831875001,1.253725402539109,1.156487407817963,-0.7643436899857485,1.116543054580688,0.7387195229530334,-0.7539154887199402,0.2193915247917175,-0.03318870067596436,1.440528631210327,XArbitraryZVertical,-0.5504100855539713,0.2275046146794951,0.2907229697237583,0.7488462284995347,0.6607656478881836,0.6920633912086487,-0.2905807793140411,0,0,0,-1,-1,5793.488897916667,unknown,2,2022-06-30T10:06:00.886+02:00,2022-06-30T08:20:05.567+02:00,1540,1.501556,0,0,1217.191,0,0,2022-06-30T10:05:15.030+02:00
2022-06-30T10:06:03.293+02:00,5795.895733875001,0.22119140625,1.029342651367188,-1.218399047851562,5795.885782875001,1.230537945992025,1.141642513353953,-0.7668473030228988,1.821707606315613,-0.3302288353443146,-0.883425235748291,0.7166426777839661,-0.543874204158783,0.6171401739120483,XArbitraryZVertical,-0.5462792428641952,0.2275109333643212,0.2853400101737407,0.7539224515717655,0.6548018455505371,0.6938683986663818,-0.2996355295181274,0,0,0,-1,-1,5793.488897916667,unknown,2,2022-06-30T10:06:00.886+02:00,2022-06-30T08:20:05.567+02:00,1540,1.501556,0,0,1217.191,0,0,2022-06-30T10:05:15.030+02:00
2022-06-30T10:06:03.303+02:00,5795.905685875,-0.4388580322265625,1.837631225585938,-1.418960571289062,5795.895733875001,1.196620292952583,1.116260464272675,-0.7629399463831691,3.038317680358887,0.02213841304183006,-0.4815312623977661,0.4472163319587708,-0.5389953255653381,-0.3062510788440704,XArbitraryZVertical,-0.5377875874889646,0.2282801686551907,0.2805162120872854,0.7615664987873988,0.6494173407554626,0.6910494565963745,-0.3173453509807587,0,0,0,-1,-1,5793.488897916667,unknown,2,2022-06-30T10:06:00.886+02:00,2022-06-30T08:20:05.567+02:00,1540,1.501556,0,0,1217.191,0,0,2022-06-30T10:05:15.030+02:00
2022-06-30T10:06:03.313+02:00,5795.915636875,-0.779388427734375,1.777130126953125,-1.288986206054688,5795.905685875,1.146524082029361,1.085864996136356,-0.7488583925482758,4.750606060028076,0.7171438336372375,-0.3605177402496338,-0.4268271923065186,0.3485397696495056,-0.8769617080688477,XArbitraryZVertical,-0.5238892172073394,0.2341395425991696,0.2734544893743928,0.771972400004963,0.6480182409286499,0.6808030009269714,-0.3414375185966492,0,0,0,-1,-1,5793.488897916667,unknown,2,2022-06-30T10:06:00.886+02:00,2022-06-30T08:20:05.567+02:00,1540,1.501556,0,0,1217.191,0,0,2022-06-30T10:05:15.030+02:00
2022-06-30T10:06:03.323+02:00,5795.925587875,-0.6428680419921875,1.279266357421875,-0.8613433837890625,5795.915636875,1.078818743395153,1.049888900343623,-0.7280686849327462,5.94334077835083,1.155510425567627,-0.8368415832519531,-1.086314678192139,1.172202110290527,-1.047471523284912,XArbitraryZVertical,-0.5049028711574478,0.2435742652059478,0.2622408131918159,0.7854772647513366,0.6474563479423523,0.6654292345046997,-0.3714893460273743,0,0,0,-1,-1,5793.488897916667,unknown,2,2022-06-30T10:06:00.886+02:00,2022-06-30T08:20:05.567+02:00,1540,1.501556,0,0,1217.191,0,0,2022-06-30T10:05:15.030+02:00
2022-06-30T10:06:03.333+02:00,5795.935539875,-0.307098388671875,0.8854827880859375,-0.53314208984375,5795.925587875,1.005580507879638,1.01457942979058,-0.7062442293490667,5.654641151428223,1.40479838848114,-0.9992827177047729,-1.425508618354797,1.128149271011353,-0.8872989416122437,XArbitraryZVertical,-0.4845214017973805,0.2537621905836642,0.2479843331502354,0.7995921743297973,0.6461199522018433,0.648980975151062,-0.4016875326633453,0,0,0,-1,-1,5793.488897916667,unknown,2,2022-06-30T10:06:00.886+02:00,2022-06-30T08:20:05.567+02:00,1540,1.501556,0,0,1217.191,0,0,2022-06-30T10:05:15.030+02:00
2022-06-30T10:06:03.343+02:00,5795.945490875,-0.006195068359375,0.7700042724609375,-0.33502197265625,5795.935539875,0.9433180118808996,0.9904049194346525,-0.6866979576536315,4.471719264984131,1.769778370857239,-0.8391795754432678,-1.289575576782227,0.6452794671058655,-0.437279611825943,XArbitraryZVertical,-0.4671777946229484,0.2640320214511935,0.2339397925492978,0.8107429665791588,0.6467071771621704,0.6339870095252991,-0.4240640103816986,0,0,0,-1,-1,5793.488897916667,unknown,2,2022-06-30T10:06:00.886+02:00,2022-06-30T08:20:05.567+02:00,1540,1.501556,0,0,1217.191,0,0,2022-06-30T10:05:15.030+02:00
2022-06-30T10:06:03.353+02:00,5795.955442875001,0.1973724365234375,0.8383331298828125,-0.4119873046875,5795.945490875,0.8969053437783747,0.9807681292609353,-0.6727191538691993,3.181725263595581,2.153746128082275,-0.8612294793128967,-0.9569903016090393,0.2623677253723145,-0.09797745943069458,XArbitraryZVertical,-0.4551212618818398,0.2743758485970298,0.2209702635269384,0.8177741734880313,0.6498914957046509,0.6231150031089783,-0.4351650476455688,0,0,0,-1,-1,5793.488897916667,unknown,2,2022-06-30T10:06:00.886+02:00,2022-06-30T08:20:05.567+02:00,1540,1.501556,0,0,1217.191,0,0,2022-06-30T10:05:15.030+02:00
2022-06-30T10:06:03.363+02:00,5795.965393875001,0.3144989013671875,1.053070068359375,-0.51226806640625,5795.955442875001,0.8610405105670056,0.981496674347118,-0.6657000428567896,2.357736825942993,2.436672449111938,-1.109387874603271,-0.6600237488746643,0.1523944735527039,0.1020893156528473,XArbitraryZVertical,-0.4477730115281738,0.2845057827819956,0.207950822288139,0.8217738239719755,0.6538283228874207,0.6176098585128784,-0.4371115863323212,0,0,0,-1,-1,5793.488897916667,unknown,2,2022-06-30T10:06:00.886+02:00,2022-06-30T08:20:05.567+02:00,1540,1.501556,0,0,1217.191,0,0,2022-06-30T10:05:15.030+02:00
2022-06-30T10:06:03.373+02:00,5795.975344875001,0.2032470703125,1.206161499023438,-0.5478363037109375,5795.965393875001,0.829699526995711,0.9868015685145106,-0.6639624875666991,2.034544229507446,2.520750045776367,-1.328275203704834,-0.4596601128578186,0.2220908403396606,0.02224043011665344,XArbitraryZVertical,-0.4431678520299235,0.2940888529708838,0.1943284118262467,0.8242272097761203,0.6570322513580322,0.6162423491477966,-0.4342280030250549,0,0,0,-1,-1,5793.488897916667,unknown,2,2022-06-30T10:06:00.886+02:00,2022-06-30T08:20:05.567+02:00,1540,1.501556,0,0,1217.191,0,0,2022-06-30T10:05:15.030+02:00
2022-06-30T10:06:03.383+02:00,5795.985296875,0.0059051513671875,1.272216796875,-0.566314697265625,5795.975344875001,0.7988335280698708,0.9938356467328507,-0.665282223328294,1.902459025382996,2.743836402893066,-1.55461859703064,-0.3448895215988159,0.4357889294624329,-0.08311671018600464,XArbitraryZVertical,-0.4396777942646198,0.3034923576027073,0.1796943100725326,0.82600588831557,0.6593881249427795,0.6172811985015869,-0.4291516542434692,0,0,0,-1,-1,5793.488897916667,unknown,2,2022-06-30T10:06:00.886+02:00,2022-06-30T08:20:05.567+02:00,1540,1.501556,0,0,1217.191,0,0,2022-06-30T10:05:15.030+02:00
2022-06-30T10:06:03.396+02:00,5795.995247875,-0.1207275390625,1.364898681640625,-0.6368560791015625,5795.985296875,0.7671026894551471,1.003010404640439,-0.6686329286342825,2.004013299942017,3.059291839599609,-1.706273436546326,-0.4583033919334412,0.5862476825714111,-0.1258672475814819,XArbitraryZVertical,-0.4367557411324486,0.3134641308723292,0.1636852517585497,0.8271588776652704,0.6615502238273621,0.6199138760566711,-0.4219693243503571,0,0,0,-1,-1,5793.488897916667,unknown,2,2022-06-30T10:06:00.886+02:00,2022-06-30T08:20:05.567+02:00,1540,1.501556,0,0,1217.191,0,0,2022-06-30T10:05:15.030+02:00
2022-06-30T10:06:03.406+02:00,5796.005199875,-0.175048828125,1.533843994140625,-0.6551361083984375,5795.995247875,0.7323762986500496,1.012904013395821,-0.6717640425222942,2.324097156524658,3.248965263366699,-1.720056295394897,-0.6581377387046814,0.6498491168022156,-0.1519409120082855,XArbitraryZVertical,-0.4330984561694705,0.3244051508025528,0.1463332314938605,0.8281144999527665,0.664042592048645,0.6223677396774292,-0.414374053478241,0,0,0,-1,-1,5793.488897916667,unknown,2,2022-06-30T10:06:00.886+02:00,2022-06-30T08:20:05.567+02:00,1540,1.501556,0,0,1217.191,0,0,2022-06-30T10:05:15.030+02:00
2022-06-30T10:06:03.413+02:00,5796.015150875,-0.23309326171875,1.775009155273438,-0.538360595703125,5796.005199875,0.6920213985879853,1.020359183849686,-0.6718876279188329,3.077657222747803,3.291965961456299,-1.617940664291382,-0.7877755761146545,0.7424342632293701,-0.2274845838546753,XArbitraryZVertical,-0.42698973005595,0.336145639195492,0.1279719131570784,0.8296438938824988,0.6670477390289307,0.6224644184112549,-0.4093717634677887,0,0,0,-1,-1,5793.488897916667,unknown,2,2022-06-30T10:06:00.886+02:00,2022-06-30T08:20:05.567+02:00,1540,1.501556,0,0,1217.191,0,0,2022-06-30T10:05:15.030+02:00
2022-06-30T10:06:03.423+02:00,5796.025101875,-0.2930450439453125,1.837692260742188,-0.32379150390625,5796.015150875,0.6442693856048828,1.023480600400033,-0.6676243611634582,3.746193170547485,3.308943510055542,-1.595262408256531,-0.8456314206123352,0.9147217869758606,-0.246471494436264,XArbitraryZVertical,-0.4174547849477163,0.3484236246973987,0.1086034652128736,0.8321885511229506,0.6705823540687561,0.6191221475601196,-0.4086649715900421,0,0,0,-1,-1,5793.488897916667,unknown,2,2022-06-30T10:06:00.886+02:00,2022-06-30T08:20:05.567+02:00,1540,1.501556,0,0,1217.191,0,0,2022-06-30T10:05:15.030+02:00
2022-06-30T10:06:03.432+02:00,5796.035053875,-0.2682647705078125,1.759033203125,-0.1224365234375,5796.025101875,0.5908868055530335,1.023513980227613,-0.6613576964135683,4.08851432800293,3.319261074066162,-1.715386152267456,-0.9069895148277283,1.160820245742798,-0.127707451581955,XArbitraryZVertical,-0.4056838622841153,0.3606852618229571,0.08799553521278174,0.8352146886884717,0.6738960146903992,0.6141888499259949,-0.4106535017490387,0,0,0,-1,-1,5793.488897916667,unknown,2,2022-06-30T10:06:00.886+02:00,2022-06-30T08:20:05.567+02:00,1540,1.501556,0,0,1217.191,0,0,2022-06-30T10:05:15.030+02:00
2022-06-30T10:06:03.443+02:00,5796.045004875,-0.2471466064453125,1.713470458984375,-0.0649871826171875,5796.035053875,0.534912946071855,1.022041287446043,-0.6547440953716333,4.148535251617432,3.277157306671143,-1.770435929298401,-0.9697865843772888,1.22873592376709,0.08996346592903137,XArbitraryZVertical,-0.3928897212558024,0.3725050658908129,0.06660256492519251,0.8381179613418529,0.6767413020133972,0.6089562773704529,-0.4137552976608276,0,0,0,-1,-1,5793.488897916667,unknown,2,2022-06-30T10:06:00.886+02:00,2022-06-30T08:20:05.567+02:00,1540,1.501556,0,0,1217.191,0,0,2022-06-30T10:05:15.030+02:00
2022-06-30T10:06:03.452+02:00,5796.054956875,-0.2420196533203125,1.693939208984375,-0.11669921875,5796.045004875,0.480117387280211,1.02129878555662,-0.6490208032576961,3.889785051345825,3.27142333984375,-1.809166789054871,-0.947659969329834,1.154626607894897,0.2936342060565948,XArbitraryZVertical,-0.3803306827699253,0.3838138137529688,0.04523693207686921,0.8402315943263392,0.6793949604034424,0.6044065952301025,-0.4160710573196411,0,0,0,-1,-1,5796.038124875,unknown,2,2022-06-30T10:06:03.435+02:00,2022-06-30T08:20:05.567+02:00,1540,1.501556,0,0,1217.191,0,0,2022-06-30T10:05:15.030+02:00
2022-06-30T10:06:03.463+02:00,5796.064907875,-0.25030517578125,1.7615966796875,-0.245819091796875,5796.054956875,0.4281541644385297,1.022738608007987,-0.6451054466662877,3.630096912384033,3.334321737289429,-1.859905004501343,-0.9291548132896423,1.112187623977661,0.3513347208499908,XArbitraryZVertical,-0.3687310722063126,0.3948117010629765,0.02412991094379726,0.8411770619690606,0.6820079684257507,0.6012827157974243,-0.4163222312927246,0,0,0,-1,-1,5796.038124875,unknown,2,2022-06-30T10:06:03.435+02:00,2022-06-30T08:20:05.567+02:00,1540,1.501556,0,0,1217.191,0,0,2022-06-30T10:05:15.030+02:00
2022-06-30T10:06:03.474+02:00,5796.074858875,-0.278778076171875,1.867111206054688,-0.301971435546875,5796.064907875,0.378751213260209,1.026657998430134,-0.6429550945431841,3.398704767227173,3.418509483337402,-1.87770140171051,-0.926758885383606,1.094376087188721,0.2976148128509521,XArbitraryZVertical,-0.3580319123824452,0.4057782378846576,0.003190756934315732,0.8409202613084332,0.6847390532493591,0.5995631217956543,-0.414314329624176,0,0,0,-1,-1,5796.038124875,unknown,2,2022-06-30T10:06:03.435+02:00,2022-06-30T08:20:05.567+02:00,1540,1.501556,0,0,1217.191,0,0,2022-06-30T10:05:15.030+02:00
2022-06-30T10:06:03.485+02:00,5796.084810875001,-0.336669921875,2.000030517578125,-0.20660400390625,5796.074858875,0.3302123284464877,1.031728994634298,-0.6411106974326918,3.509306669235229,3.458800792694092,-1.818498373031616,-0.9380844235420227,1.16351056098938,0.1655842661857605,XArbitraryZVertical,-0.3473073909579923,0.4167442060344031,-0.01763194515921114,0.8398754989520553,0.6877790689468384,0.5980859398841858,-0.4114036858081818,0,0,0,-1,-1,5796.038124875,unknown,2,2022-06-30T10:06:03.435+02:00,2022-06-30T08:20:05.567+02:00,1540,1.501556,0,0,1217.191,0,0,2022-06-30T10:05:15.030+02:00
2022-06-30T10:06:03.494+02:00,5796.094761875001,-0.3901824951171875,2.134613037109375,0.017364501953125,5796.084810875001,0.2800559467754478,1.036512504244602,-0.6377444561458143,3.832382678985596,3.530802249908447,-1.724965929985046,-0.9702462553977966,1.271726369857788,0.1071601510047913,XArbitraryZVertical,-0.3353167106763013,0.4277811549838388,-0.03864412235120075,0.8384943087251884,0.6914680600166321,0.5953847765922546,-0.4091319739818573,0,0,0,-1,-1,5796.038124875,unknown,2,2022-06-30T10:06:03.435+02:00,2022-06-30T08:20:05.567+02:00,1540,1.501556,0,0,1217.191,0,0,2022-06-30T10:05:15.030+02:00
2022-06-30T10:06:03.502+02:00,5796.104713875,-0.3993072509765625,2.1873779296875,0.124725341796875,5796.094761875001,0.2267886104129979,1.04049329666719,-0.6321398598926738,4.082566261291504,3.638436794281006,-1.685550451278687,-1.032629013061523,1.409157991409302,0.2014532089233398,XArbitraryZVertical,-0.3214377748474078,0.438917960103561,-0.06020353980455942,0.836901705041904,0.6959589719772339,0.5908724665641785,-0.4080575704574585,0,0,0,-1,-1,5796.038124875,unknown,2,2022-06-30T10:06:03.435+02:00,2022-06-30T08:20:05.567+02:00,1540,1.501556,0,0,1217.191,0,0,2022-06-30T10:05:15.030+02:00
2022-06-30T10:06:03.512+02:00,5796.114664875,-0.2924346923828125,2.121566772460938,-0.0204925537109375,5796.104713875,0.1726935180684328,1.045397257976275,-0.6267288377932668,4.097672462463379,3.748080492019653,-1.797737598419189,-1.090889930725098,1.548114418983459,0.4236014783382416,XArbitraryZVertical,-0.307061284160598,0.450105230216989,-0.08223135119396016,0.834479834245329,0.7007073760032654,0.5864984393119812,-0.4062373042106628,0,0,0,-1,-1,5796.038124875,unknown,2,2022-06-30T10:06:03.435+02:00,2022-06-30T08:20:05.567+02:00,1540,1.501556,0,0,1217.191,0,0,2022-06-30T10:05:15.030+02:00
2022-06-30T10:06:03.522+02:00,5796.124615875,-0.2002410888671875,2.17626953125,-0.0376129150390625,5796.114664875,0.1161402498478517,1.049656756692306,-0.6207909553560202,4.523305892944336,3.743451833724976,-1.744759202003479,-1.104746580123901,1.605699062347412,0.529700756072998,XArbitraryZVertical,-0.291572006661961,0.4609749637949014,-0.1049587428715795,0.831547617353487,0.7054392099380493,0.5816787481307983,-0.4049756824970245,0,0,0,-1,-1,5796.038124875,unknown,2,2022-06-30T10:06:03.435+02:00,2022-06-30T08:20:05.567+02:00,1540,1.501556,0,0,1217.191,0,0,2022-06-30T10:05:15.030+02:00
2022-06-30T10:06:03.532+02:00,5796.134567875,-0.2096405029296875,2.11114501953125,0.0154266357421875,5796.124615875,0.05570346132600876,1.05180445064227,-0.6122311038181094,4.862257957458496,3.741655826568604,-1.702266931533813,-1.003039717674255,1.546871900558472,0.3854216933250427,XArbitraryZVertical,-0.2738636819728861,0.4712126645182499,-0.1282552112370789,0.8285578242233557,0.7106049656867981,0.5746947526931763,-0.4059146046638489,0,0,0,-1,-1,5796.038124875,unknown,2,2022-06-30T10:06:03.435+02:00,2022-06-30T08:20:05.567+02:00,1540,1.501556,0,0,1217.191,0,0,2022-06-30T10:05:15.030+02:00
2022-06-30T10:06:03.542+02:00,5796.144518875,-0.2289886474609375,2.06378173828125,0.0895538330078125,5796.134567875,-0.007512952712275678,1.053298183120805,-0.6027430518352161,5.174843788146973,3.820159196853638,-1.806615233421326,-0.9161582589149475,1.609364986419678,0.3699186742305756,XArbitraryZVertical,-0.2548037236784873,0.4809460632942064,-0.1522985694008219,0.824967319520915,0.7159171104431152,0.5669043064117432,-0.4075318872928619,0,0,0,-1,-1,5796.038124875,unknown,2,2022-06-30T10:06:03.435+02:00,2022-06-30T08:20:05.567+02:00,1540,1.501556,0,0,1217.191,0,0,2022-06-30T10:05:15.030+02:00
2022-06-30T10:06:03.552+02:00,5796.154469875,-0.296173095703125,2.23541259765625,0.1190032958984375,5796.144518875,-0.0744892239100886,1.053686552961016,-0.5925987311271844,5.456687927246094,3.839238405227661,-1.912711620330811,-0.9306778311729431,1.552626252174377,0.425502210855484,XArbitraryZVertical,-0.2343078574201689,0.4899611114070571,-0.1774934200581579,0.8206911853958104,0.7210373282432556,0.5585185289382935,-0.4100758731365204,0,0,0,-1,-1,5796.038124875,unknown,2,2022-06-30T10:06:03.435+02:00,2022-06-30T08:20:05.567+02:00,1540,1.501556,0,0,1217.191,0,0,2022-06-30T10:05:15.030+02:00
2022-06-30T10:06:03.562+02:00,5796.164421875001,-0.3774566650390625,2.350738525390625,0.1142730712890625,5796.154469875,-0.1436118082760015,1.053696264133875,-0.5823643391631051,5.621721267700195,3.884062528610229,-2.017804145812988,-0.9549608826637268,1.513781428337097,0.5024266839027405,XArbitraryZVertical,-0.212960258557244,0.4982081276450077,-0.2033824255187463,0.8155196000499567,0.7259722352027893,0.5500000715255737,-0.4128731787204742,0,0,0,-1,-1,5796.038124875,unknown,2,2022-06-30T10:06:03.435+02:00,2022-06-30T08:20:05.567+02:00,1540,1.501556,0,0,1217.191,0,0,2022-06-30T10:05:15.030+02:00
2022-06-30T10:06:03.572+02:00,5796.174372875001,-0.40484619140625,2.435150146484375,0.0662078857421875,5796.164421875001,-0.2160408646013578,1.053125427092906,-0.5719096088106946,6.030293941497803,3.954731225967407,-2.189339160919189,-1.026866436004639,1.694173574447632,0.5351133346557617,XArbitraryZVertical,-0.1904608822276828,0.5056376695848269,-0.230355520424148,0.8093155526532551,0.7306933999061584,0.5412387847900391,-0.4161103963851929,0,0,0,-1,-1,5796.038124875,unknown,2,2022-06-30T10:06:03.435+02:00,2022-06-30T08:20:05.567+02:00,1540,1.501556,0,0,1217.191,0,0,2022-06-30T10:05:15.030+02:00
2022-06-30T10:06:03.582+02:00,5796.184324875,-0.4230804443359375,2.501266479492188,-0.0311431884765625,5796.174372875001,-0.2930448044524091,1.051502280325572,-0.5606761008563702,6.411040306091309,4.048423767089844,-2.304699420928955,-1.112705945968628,1.818979382514954,0.5345595479011536,XArbitraryZVertical,-0.1663387980107581,0.5120429808937363,-0.2587191691837052,0.8020024202467478,0.7352493405342102,0.5317589044570923,-0.4202867746353149,0,0,0,-1,-1,5796.038124875,unknown,2,2022-06-30T10:06:03.435+02:00,2022-06-30T08:20:05.567+02:00,1540,1.501556,0,0,1217.191,0,0,2022-06-30T10:05:15.030+02:00
2022-06-30T10:06:03.592+02:00,5796.194275875,-0.4396820068359375,2.588653564453125,-0.0071258544921875,5796.184324875,-0.3741331222204907,1.049786927371301,-0.5480895074879871,6.874012470245361,4.199858665466309,-2.392261981964111,-1.145120143890381,1.914092302322388,0.4910529851913452,XArbitraryZVertical,-0.1403896824893462,0.5175597011618751,-0.288186081868755,0.7933294154346455,0.7402739524841309,0.5210575461387634,-0.4248453974723816,0,0,0,-1,-1,5796.038124875,unknown,2,2022-06-30T10:06:03.435+02:00,2022-06-30T08:20:05.567+02:00,1540,1.501556,0,0,1217.191,0,0,2022-06-30T10:05:15.030+02:00
2022-06-30T10:06:03.602+02:00,5796.204226875,-0.4794158935546875,2.683029174804688,0.05078125,5796.194275875,-0.460654671765066,1.047535558746609,-0.5336760041881453,7.522669315338135,4.312234878540039,-2.532204151153564,-1.168824195861816,1.992564678192139,0.399075984954834,XArbitraryZVertical,-0.1121631390724952,0.521833018203822,-0.3190918156688379,0.7831285383775395,0.745743989944458,0.5087016224861145,-0.4302194714546204,0,0,0,-1,-1,5796.038124875,unknown,2,2022-06-30T10:06:03.435+02:00,2022-06-30T08:20:05.567+02:00,1540,1.501556,0,0,1217.191,0,0,2022-06-30T10:05:15.030+02:00
2022-06-30T10:06:03.612+02:00,5796.214178875,-0.559051513671875,2.785232543945312,-0.1247406005859375,5796.204226875,-0.5550616787197195,1.043901310822074,-0.5165302921656248,8.390632629394531,4.49190616607666,-2.725847721099854,-1.19128680229187,2.094787120819092,0.4301227927207947,XArbitraryZVertical,-0.08085519258072936,0.5242499365240484,-0.3520883298553818,0.7711409793746811,0.7516048550605774,0.4938660860061646,-0.4372488856315613,0,0,0,-1,-1,5796.038124875,unknown,2,2022-06-30T10:06:03.435+02:00,2022-06-30T08:20:05.567+02:00,1540,1.501556,0,0,1217.191,0,0,2022-06-30T10:05:15.030+02:00
2022-06-30T10:06:03.622+02:00,5796.224129875,-0.69635009765625,2.748870849609375,-0.2451324462890625,5796.214178875,-0.6566410843559073,1.040633618197161,-0.4975946274493353,8.887277603149414,4.790465831756592,-2.986681938171387,-1.237520694732666,2.205715656280518,0.4951333701610565,XArbitraryZVertical,-0.04686609508113559,0.5250023043531267,-0.3870458426898477,0.7565524925126971,0.7581049203872681,0.4773132503032684,-0.4443522989749908,0,0,0,-1,-1,5796.038124875,unknown,2,2022-06-30T10:06:03.435+02:00,2022-06-30T08:20:05.567+02:00,1540,1.501556,0,0,1217.191,0,0,2022-06-30T10:05:15.030+02:00
2022-06-30T10:06:03.632+02:00,5796.234081875,-0.863922119140625,2.727447509765625,-0.115081787109375,5796.224129875,-0.7633755671611151,1.040011965334041,-0.4783072105088289,9.3489990234375,5.170981884002686,-3.295923471450806,-1.32467794418335,2.324955224990845,0.3246600031852722,XArbitraryZVertical,-0.01095960626352155,0.5245755593703643,-0.4232826387505241,0.7386015781194735,0.7656266689300537,0.4602770209312439,-0.4494007527828217,0,0,0,-1,-1,5796.038124875,unknown,2,2022-06-30T10:06:03.435+02:00,2022-06-30T08:20:05.567+02:00,1540,1.501556,0,0,1217.191,0,0,2022-06-30T10:05:15.030+02:00
2022-06-30T10:06:03.642+02:00,5796.244032875,-0.9141693115234375,2.716537475585938,0.190032958984375,5796.234081875,-0.8734763747672064,1.043914442820172,-0.4616397494626192,9.322447776794434,5.636534214019775,-3.75368595123291,-1.470248818397522,2.303453683853149,0.2050723433494568,XArbitraryZVertical,0.02559970150965984,0.5236813894165719,-0.4602952675341848,0.7164013104804127,0.7738988995552063,0.4454168081283569,-0.4502049088478088,0,0,0,-1,-1,5796.038124875,unknown,2,2022-06-30T10:06:03.435+02:00,2022-06-30T08:20:05.567+02:00,1540,1.501556,0,0,1217.191,0,0,2022-06-30T10:05:15.030+02:00
2022-06-30T10:06:03.651+02:00,5796.253983875,-0.9694366455078125,2.74072265625,0.333831787109375,5796.244032875,-0.9823742439433847,1.053934899963026,-0.4496179254681435,8.872500419616699,6.014091014862061,-3.949402809143066,-1.646892070770264,2.292825698852539,0.3299598097801208,XArbitraryZVertical,0.06134383437441823,0.5231788451759072,-0.4962807623406172,0.6900915849654309,0.7829701900482178,0.4346214532852173,-0.4450416564941406,0,0,0,-1,-1,5796.038124875,unknown,2,2022-06-30T10:06:03.435+02:00,2022-06-30T08:20:05.567+02:00,1540,1.501556,0,0,1217.191,0,0,2022-06-30T10:05:15.030+02:00
2022-06-30T10:06:03.661+02:00,5796.263935875,-1.02288818359375,2.862228393554688,0.2944488525390625,5796.253983875,-1.085828828668052,1.070859044012043,-0.4432692146439847,8.080104827880859,6.357278347015381,-4.093646049499512,-1.706964254379272,2.287642002105713,0.6230744123458862,XArbitraryZVertical,0.09526978001658068,0.5238348411788353,-0.5294912331466068,0.6604240138082719,0.7927952408790588,0.4288949966430664,-0.4330414533615112,0,0,0,-1,-1,5796.038124875,unknown,2,2022-06-30T10:06:03.435+02:00,2022-06-30T08:20:05.567+02:00,1540,1.501556,0,0,1217.191,0,0,2022-06-30T10:05:15.030+02:00
2022-06-30T10:06:03.671+02:00,5796.273886875,-1.064682006835938,3.0028076171875,0.289581298828125,5796.263935875,-1.182237101099394,1.094107032818475,-0.4444661191046936,7.261322498321533,6.626365184783936,-4.343057155609131,-1.771627187728882,2.310746431350708,0.7480911612510681,XArbitraryZVertical,0.1264574501645872,0.5261927663919973,-0.5594510763530185,0.6278091423656468,0.8021907806396484,0.4299759268760681,-0.4142593741416931,0,0,0,-1,-1,5796.038124875,unknown,2,2022-06-30T10:06:03.435+02:00,2022-06-30T08:20:05.567+02:00,1540,1.501556,0,0,1217.191,0,0,2022-06-30T10:05:15.030+02:00
2022-06-30T10:06:03.681+02:00,5796.283838875001,-1.131820678710938,3.196121215820312,0.437286376953125,5796.273886875,-1.272880529734662,1.121927518934982,-0.4526555217315111,6.747737884521484,6.872660636901855,-4.452484607696533,-1.833091974258423,2.424872875213623,0.6846923828125,XArbitraryZVertical,0.155315946881552,0.5298634207994828,-0.5864243508487441,0.5926451029394666,0.810204029083252,0.4373551607131958,-0.3902434110641479,0,0,0,-1,-1,5796.038124875,unknown,2,2022-06-30T10:06:03.435+02:00,2022-06-30T08:20:05.567+02:00,1540,1.501556,0,0,1217.191,0,0,2022-06-30T10:05:15.030+02:00
2022-06-30T10:06:03.691+02:00,5796.293789875001,-1.196762084960938,3.357101440429688,0.7326507568359375,5796.283838875001,-1.361080811115397,1.151984916452115,-0.4644686160772173,6.728206157684326,6.994627952575684,-4.383152961730957,-1.881470561027527,2.554859638214111,0.6531730890274048,XArbitraryZVertical,0.1834918388021787,0.5334181534350276,-0.610956074370037,0.5554534403915645,0.8167887926101685,0.447947770357132,-0.3635916411876678,0,0,0,-1,-1,5796.038124875,unknown,2,2022-06-30T10:06:03.435+02:00,2022-06-30T08:20:05.567+02:00,1540,1.501556,0,0,1217.191,0,0,2022-06-30T10:05:15.030+02:00
2022-06-30T10:06:03.701+02:00,5796.303740875001,-1.182479858398438,3.420989990234375,1.037582397460938,5796.293789875001,-1.45072372667879,1.180692086932915,-0.476886062659947,7.041473388671875,6.920252799987793,-4.234073162078857,-1.953500986099243,2.737106084823608,0.7751424908638,XArbitraryZVertical,0.2120165962022037,0.5349027815888193,-0.6339077706386729,0.516806629634164,0.8216805458068848,0.459014892578125,-0.3378559648990631,0,0,0,-1,-1,5796.038124875,unknown,2,2022-06-30T10:06:03.435+02:00,2022-06-30T08:20:05.567+02:00,1540,1.501556,0,0,1217.191,0,0,2022-06-30T10:05:15.030+02:00
2022-06-30T10:06:03.711+02:00,5796.313692875,-0.999755859375,3.337966918945312,1.462539672851562,5796.303740875001,-1.543226265634944,1.205376768273563,-0.4892240645719584,7.302824020385742,6.66016149520874,-4.157272338867188,-2.021178483963013,2.887160062789917,1.048075199127197,XArbitraryZVertical,0.2404929599982808,0.5333394714373162,-0.6557413061304694,0.4771955278541261,0.8244167566299438,0.469941109418869,-0.3154242932796478,0,0,0,-1,-1,5796.038124875,unknown,2,2022-06-30T10:06:03.435+02:00,2022-06-30T08:20:05.567+02:00,1540,1.501556,0,0,1217.191,0,0,2022-06-30T10:05:15.030+02:00
2022-06-30T10:06:03.721+02:00,5796.323643875,-0.706451416015625,3.053619384765625,1.891983032226562,5796.313692875,-1.636160627496691,1.22524828139335,-0.5029610993977283,7.068807125091553,6.21715784072876,-4.171420097351074,-2.006848812103271,2.938967704772949,1.334348678588867,XArbitraryZVertical,0.2672908468092887,0.5293133471377802,-0.6761434654833166,0.4372792453149887,0.8243694305419922,0.4820220470428467,-0.2967659533023834,0,0,0,-1,-1,5796.038124875,unknown,2,2022-06-30T10:06:03.435+02:00,2022-06-30T08:20:05.567+02:00,1540,1.501556,0,0,1217.191,0,0,2022-06-30T10:05:15.030+02:00
2022-06-30T10:06:03.731+02:00,5796.333595875,-0.4049530029296875,2.802963256835938,2.133758544921875,5796.323643875,-1.724456298418325,1.241179843464293,-0.5193571684135558,6.395006656646729,5.643886566162109,-4.030558109283447,-1.82115912437439,2.841644525527954,1.743539094924927,XArbitraryZVertical,0.2908019036996823,0.5243421047796889,-0.6941694001287152,0.3982819783650161,0.8214035630226135,0.4963221848011017,-0.2809992134571075,0,0,0,-1,-1,5796.038124875,unknown,2,2022-06-30T10:06:03.435+02:00,2022-06-30T08:20:05.567+02:00,1540,1.501556,0,0,1217.191,0,0,2022-06-30T10:05:15.030+02:00
2022-06-30T10:06:03.741+02:00,5796.343546875,-0.173614501953125,2.597335815429688,2.155563354492188,5796.333595875,-1.803772471092137,1.254177253925445,-0.5376633531107422,5.475284099578857,5.012458324432373,-3.869083881378174,-1.522665619850159,2.541488647460938,2.159409046173096,XArbitraryZVertical,0.3104287213108389,0.5195393978076885,-0.7090725480815389,0.3618412315891728,0.8162145018577576,0.5121304392814636,-0.2674256563186646,0,0,0,-1,-1,5796.038124875,unknown,2,2022-06-30T10:06:03.435+02:00,2022-06-30T08:20:05.567+02:00,1540,1.501556,0,0,1217.191,0,0,2022-06-30T10:05:15.030+02:00
2022-06-30T10:06:03.751+02:00,5796.353497875,0.0585479736328125,2.389190673828125,2.158981323242188,5796.343546875,-1.873889426031982,1.264430203833977,-0.558487687623153,4.748544692993164,4.386567115783691,-3.793335437774658,-1.213521122932434,2.273058891296387,2.389529705047607,XArbitraryZVertical,0.3260112109033175,0.5155883116529328,-0.7213031111153375,0.3280356974896518,0.80856853723526,0.529904305934906,-0.2557707726955414,0,0,0,-1,-1,5796.038124875,unknown,2,2022-06-30T10:06:03.435+02:00,2022-06-30T08:20:05.567+02:00,1540,1.501556,0,0,1217.191,0,0,2022-06-30T10:05:15.030+02:00
2022-06-30T10:06:03.761+02:00,5796.363449875001,0.2398681640625,2.235198974609375,2.235458374023438,5796.353497875,-1.93886604865606,1.269741478725597,-0.5798011421729206,4.525590896606445,3.714366912841797,-3.580003261566162,-0.9725605249404907,2.049478054046631,2.403630495071411,XArbitraryZVertical,0.3384061908477732,0.5113197341912682,-0.7321112230945905,0.2967266093254688,0.7989462614059448,0.5478575825691223,-0.2480667531490326,0,0,0,-1,-1,5796.038124875,unknown,2,2022-06-30T10:06:03.435+02:00,2022-06-30T08:20:05.567+02:00,1540,1.501556,0,0,1217.191,0,0,2022-06-30T10:05:15.030+02:00
2022-06-30T10:06:03.771+02:00,5796.373400875001,0.4150238037109375,2.094833374023438,2.338409423828125,5796.363449875001,-2.003117936116203,1.26755505509336,-0.5993303121261496,4.547956943511963,3.026497840881348,-3.377681970596313,-0.7294910550117493,1.825100898742676,2.405552387237549,XArbitraryZVertical,0.3483717797052134,0.5053234624578639,-0.7427084473209649,0.2677116656585408,0.7880393266677856,0.5640896558761597,-0.2465706020593643,0,0,0,-1,-1,5796.038124875,unknown,2,2022-06-30T10:06:03.435+02:00,2022-06-30T08:20:05.567+02:00,1540,1.501556,0,0,1217.191,0,0,2022-06-30T10:05:15.030+02:00
2022-06-30T10:06:03.781+02:00,5796.383351875001,0.6260223388671875,1.875961303710938,2.397735595703125,5796.373400875001,-2.068075712665423,1.257315384064476,-0.6170680097347329,4.565634727478027,2.388887643814087,-3.278701066970825,-0.5359636545181274,1.65655255317688,2.486960172653198,XArbitraryZVertical,0.35590585901847,0.4975744032391823,-0.7535657405677302,0.2406024798370495,0.7758321762084961,0.5786463618278503,-0.2515014708042145,0,0,0,-1,-1,5796.038124875,unknown,2,2022-06-30T10:06:03.435+02:00,2022-06-30T08:20:05.567+02:00,1540,1.501556,0,0,1217.191,0,0,2022-06-30T10:05:15.030+02:00
2022-06-30T10:06:03.791+02:00,5796.393303875,0.8340911865234375,1.603302001953125,2.380172729492188,5796.383351875001,-2.132559346640715,1.24044523337346,-0.6333026083426551,4.321043014526367,1.806825041770935,-3.137535095214844,-0.3474676609039307,1.503023147583008,2.599881410598755,XArbitraryZVertical,0.3610208107085039,0.4888028313948005,-0.7644307331203438,0.2153638659858713,0.762491762638092,0.5918101668357849,-0.2614715397357941,0,0,0,-1,-1,5796.038124875,unknown,2,2022-06-30T10:06:03.435+02:00,2022-06-30T08:20:05.567+02:00,1540,1.501556,0,0,1217.191,0,0,2022-06-30T10:05:15.030+02:00
2022-06-30T10:06:03.801+02:00,5796.403254875,1.056900024414062,1.364089965820312,2.30572509765625,5796.393303875,-2.192131725699161,1.220318785758888,-0.6486730564135508,3.644200801849365,1.320551991462708,-2.982062339782715,-0.1224200129508972,1.271831750869751,2.671344041824341,XArbitraryZVertical,0.3636791800616452,0.4805553718380923,-0.7743899329980981,0.1926766462406244,0.7484425902366638,0.6041294932365417,-0.2736079692840576,0,0,0,-1,-1,5796.038124875,unknown,2,2022-06-30T10:06:03.435+02:00,2022-06-30T08:20:05.567+02:00,1540,1.501556,0,0,1217.191,0,0,2022-06-30T10:05:15.030+02:00
2022-06-30T10:06:03.811+02:00,5796.413206875,1.276504516601562,1.188064575195312,2.177444458007812,5796.403254875,-2.242494152540556,1.200631929292281,-0.6642720950097123,2.742312908172607,0.9014230966567993,-2.786190509796143,0.1000556349754333,0.9868157505989075,2.665017366409302,XArbitraryZVertical,0.3640508481586943,0.4743889104172264,-0.782599572324379,0.1730897604037149,0.7340357899665833,0.6164861917495728,-0.2848442792892456,0,0,0,-1,-1,5796.038124875,unknown,2,2022-06-30T10:06:03.435+02:00,2022-06-30T08:20:05.567+02:00,1540,1.501556,0,0,1217.191,0,0,2022-06-30T10:05:15.030+02:00
2022-06-30T10:06:03.821+02:00,5796.423157875,1.43475341796875,1.0770263671875,1.978485107421875,5796.413206875,-2.282381790963613,1.182754523765439,-0.6805232151242635,1.894641757011414,0.4961338043212891,-2.575152158737183,0.3374432325363159,0.7348901629447937,2.59981632232666,XArbitraryZVertical,0.3623881988425726,0.4707753116322445,-0.7889604889109439,0.1568021043302175,0.7194570899009705,0.6291998028755188,-0.2940908074378967,0,0,0,-1,-1,5796.038124875,unknown,2,2022-06-30T10:06:03.435+02:00,2022-06-30T08:20:05.567+02:00,1540,1.501556,0,0,1217.191,0,0,2022-06-30T10:05:15.030+02:00
2022-06-30T10:06:03.831+02:00,5796.433108875,1.502532958984375,1.00201416015625,1.720993041992188,5796.423157875,-2.312973262432727,1.166610274690798,-0.6971236196082161,1.235431671142578,0.1806618869304657,-2.340729236602783,0.5715906023979187,0.5460494160652161,2.478962421417236,XArbitraryZVertical,0.3591092317763208,0.4693419447856039,-0.7938147308372109,0.1435859089676521,0.7049141526222229,0.6420150399208069,-0.3015173971652985,0,0,0,-1,-1,5796.038124875,unknown,2,2022-06-30T10:06:03.435+02:00,2022-06-30T08:20:05.567+02:00,1540,1.501556,0,0,1217.191,0,0,2022-06-30T10:05:15.030+02:00
2022-06-30T10:06:03.841+02:00,5796.443060875,1.52044677734375,0.9862518310546875,1.532272338867188,5796.433108875,-2.336870041322229,1.152019887386295,-0.7133602368925184,0.8341203927993774,0.005828925874084234,-2.124346971511841,0.743928849697113,0.4226479530334473,2.285975694656372,XArbitraryZVertical,0.3549713241269508,0.4693083300716818,-0.7975744531957456,0.1327407332311801,0.6908248066902161,0.654378354549408,-0.3074901103973389,0,0,0,-1,-1,5796.038124875,unknown,2,2022-06-30T10:06:03.435+02:00,2022-06-30T08:20:05.567+02:00,1540,1.501556,0,0,1217.191,0,0,2022-06-30T10:05:15.030+02:00
2022-06-30T10:06:03.851+02:00,5796.453011875,1.541061401367188,0.929107666015625,1.372512817382812,5796.443060875,-2.355802172521584,1.138945987838786,-0.7290082035788072,0.4738240540027618,-0.1180674508213997,-1.925292611122131,0.8251708149909973,0.3358838558197021,2.033164501190186,XArbitraryZVertical,0.3504329690803299,0.4702247043500452,-0.8004910699890303,0.123691426402398,0.6773624420166016,0.6661302447319031,-0.3121709227561951,0,0,0,-1,-1,5796.038124875,unknown,2,2022-06-30T10:06:03.435+02:00,2022-06-30T08:20:05.567+02:00,1540,1.501556,0,0,1217.191,0,0,2022-06-30T10:05:15.030+02:00
2022-06-30T10:06:03.860+02:00,5796.462963875,1.60888671875,0.8623046875,1.224533081054688,5796.453011875,-2.369995934679615,1.127870238329947,-0.7439330060255609,0.172424390912056,-0.1976489275693893,-1.692511200904846,0.855640709400177,0.3090647459030151,1.847630262374878,XArbitraryZVertical,0.3457735518610099,0.4719765389618609,-0.8025925212184289,0.1162937274629047,0.6648063659667969,0.6771870851516724,-0.3153575956821442,0,0,0,-1,-1,5796.038124875,unknown,2,2022-06-30T10:06:03.435+02:00,2022-06-30T08:20:05.567+02:00,1540,1.501556,0,0,1217.191,0,0,2022-06-30T10:05:15.030+02:00
2022-06-30T10:06:03.870+02:00,5796.472914875,1.67333984375,0.7754364013671875,1.09222412109375,5796.462963875,-2.379082622020044,1.119241890051123,-0.7580306321549981,-0.211863100528717,-0.297970712184906,-1.449297785758972,0.8876566290855408,0.2416149377822876,1.68939745426178,XArbitraryZVertical,0.3411048604111448,0.4745580707745831,-0.8038678476821361,0.1106277237959848,0.6534050107002258,0.6874926686286926,-0.3168842196464539,0,0,0,-1,-1,5796.038124875,unknown,2,2022-06-30T10:06:03.435+02:00,2022-06-30T08:20:05.567+02:00,1540,1.501556,0,0,1217.191,0,0,2022-06-30T10:05:15.030+02:00
2022-06-30T10:06:03.880+02:00,5796.482865875,1.722259521484375,0.7110137939453125,0.952850341796875,5796.472914875,-2.381742975458272,1.114052916398542,-0.7717036761234281,-0.636796236038208,-0.3768811225891113,-1.193257570266724,0.9656321406364441,0.1649473309516907,1.540628433227539,XArbitraryZVertical,0.3363994521066841,0.4783178108688392,-0.8041306239059089,0.106870989052311,0.643254816532135,0.6973572969436646,-0.3160949647426605,0,0,0,-1,-1,5796.038124875,unknown,2,2022-06-30T10:06:03.435+02:00,2022-06-30T08:20:05.567+02:00,1540,1.501556,0,0,1217.191,0,0,2022-06-30T10:05:15.030+02:00
2022-06-30T10:06:03.890+02:00,5796.492817875001,1.722640991210938,0.752197265625,0.7636566162109375,5796.482865875,-2.378168866093334,1.112384422567439,-0.7846852159133284,-0.9604169130325317,-0.4720481038093567,-0.9302536249160767,1.038785576820374,0.06883388757705688,1.405359745025635,XArbitraryZVertical,0.3317669516582985,0.4830767256542747,-0.8034585109602508,0.1049859569794011,0.6345545053482056,0.7066024541854858,-0.3131351470947266,0,0,0,-1,-1,5796.038124875,unknown,2,2022-06-30T10:06:03.435+02:00,2022-06-30T08:20:05.567+02:00,1540,1.501556,0,0,1217.191,0,0,2022-06-30T10:05:15.030+02:00
2022-06-30T10:06:03.900+02:00,5796.502768875001,1.64697265625,0.829010009765625,0.60736083984375,5796.492817875001,-2.369562478313089,1.113325715223974,-0.7967640045806607,-1.200490832328796,-0.5773229002952576,-0.7264105081558228,1.095114231109619,-0.004083991050720215,1.261596083641052,XArbitraryZVertical,0.3271428302879961,0.4884720082258525,-0.8021232829296301,0.1047428465628664,0.6271456480026245,0.7150977849960327,-0.3087453246116638,0,0,0,-1,-1,5796.038124875,unknown,2,2022-06-30T10:06:03.435+02:00,2022-06-30T08:20:05.567+02:00,1540,1.501556,0,0,1217.191,0,0,2022-06-30T10:05:15.030+02:00
2022-06-30T10:06:03.910+02:00,5796.512720875,1.566024780273438,0.8110198974609375,0.4482269287109375,5796.502768875001,-2.35661311492977,1.116320437489795,-0.8082231736411233,-1.435619235038757,-0.6950740814208984,-0.5521750450134277,1.101977586746216,0.0291363000869751,1.066905498504639,XArbitraryZVertical,0.3223666838979115,0.4944244304361253,-0.8002568793889224,0.1058921320066698,0.6206636428833008,0.7230609059333801,-0.303248405456543,0,0,0,-1,-1,5796.038124875,unknown,2,2022-06-30T10:06:03.435+02:00,2022-06-30T08:20:05.567+02:00,1540,1.501556,0,0,1217.191,0,0,2022-06-30T10:05:15.030+02:00
2022-06-30T10:06:03.920+02:00,5796.522671875,1.512054443359375,0.80389404296875,0.30322265625,5796.512720875,-2.339455584969564,1.121336863900154,-0.8190601368269514,-1.635082840919495,-0.8091307282447815,-0.3826411962509155,1.031889677047729,0.09850573539733887,0.9040703773498535,XArbitraryZVertical,0.3174221761534098,0.5008878003462982,-0.7978800950497066,0.1083612052979537,0.6150832772254944,0.7305043339729309,-0.2967091500759125,0,0,0,-1,-1,5796.038124875,unknown,2,2022-06-30T10:06:03.435+02:00,2022-06-30T08:20:05.567+02:00,1540,1.501556,0,0,1217.191,0,0,2022-06-30T10:05:15.030+02:00
2022-06-30T10:06:03.930+02:00,5796.532622875,1.457015991210938,0.834686279296875,0.20159912109375,5796.522671875,-2.318750990720142,1.127790339830782,-0.8290972141083086,-1.77409827709198,-0.9518706202507019,-0.2292684316635132,0.9556952118873596,0.07369804382324219,0.7378031611442566,XArbitraryZVertical,0.3122502774153376,0.5076532692583565,-0.795129891903543,0.1120555866857584,0.610329806804657,0.7373217940330505,-0.2895758450031281,0,0,0,-1,-1,5796.038124875,unknown,2,2022-06-30T10:06:03.435+02:00,2022-06-30T08:20:05.567+02:00,1540,1.501556,0,0,1217.191,0,0,2022-06-30T10:05:15.030+02:00
2022-06-30T10:06:03.940+02:00,5796.542574875,1.430526733398438,0.8673553466796875,0.05810546875,5796.532622875,-2.296307852681183,1.134355276696822,-0.8377470423065787,-1.672435164451599,-1.070982933044434,-0.06363604962825775,0.9056397676467896,0.06075656414031982,0.5860792994499207,XArbitraryZVertical,0.3069122361557848,0.514175806190299,-0.792336933796195,0.1167491697577792,0.6064149737358093,0.7431374788284302,-0.2828562259674072,0,0,0,-1,-1,5796.038124875,unknown,2,2022-06-30T10:06:03.435+02:00,2022-06-30T08:20:05.567+02:00,1540,1.501556,0,0,1217.191,0,0,2022-06-30T10:05:15.030+02:00
2022-06-30T10:06:03.950+02:00,5796.552525875,1.405181884765625,0.8887939453125,0.004547119140625,5796.542574875,-2.274605752647654,1.139429964729883,-0.8440666285967677,-1.520405769348145,-1.16473400592804,0.1226512715220451,0.8534519672393799,0.08733493089675903,0.4794055819511414,XArbitraryZVertical,0.3016694622845761,0.5197042471371983,-0.7899243255553643,0.1221581637749157,0.6035643219947815,0.7473512887954712,-0.2778060734272003,0,0,0,-1,-1,5796.038124875,unknown,2,2022-06-30T10:06:03.435+02:00,2022-06-30T08:20:05.567+02:00,1540,1.501556,0,0,1217.191,0,0,2022-06-30T10:05:15.030+02:00
2022-06-30T10:06:03.960+02:00,5796.562477875001,1.426498413085938,0.9048614501953125,-0.0775604248046875,5796.552525875,-2.252944362300443,1.143619352393816,-0.8482219767141655,-1.448055982589722,-1.253492474555969,0.3118377029895782,0.8286357522010803,0.1172495484352112,0.3320919275283813,XArbitraryZVertical,0.2965726414099381,0.5244536405178905,-0.7877261968940175,0.1283766267211378,0.6018912792205811,0.7501057386398315,-0.2739861011505127,0,0,0,-1,-1,5796.038124875,unknown,2,2022-06-30T10:06:03.435+02:00,2022-06-30T08:20:05.567+02:00,1540,1.501556,0,0,1217.191,0,0,2022-06-30T10:05:15.030+02:00
2022-06-30T10:06:03.970+02:00,5796.572428875001,1.420455932617188,0.957855224609375,-0.1551361083984375,5796.562477875001,-2.230364413201455,1.147757332111831,-0.8503831821060893,-1.501030802726746,-1.327050924301147,0.5104788541793823,0.8036420345306396,0.1372605562210083,0.2753744423389435,XArbitraryZVertical,0.2916780370526409,0.5286874927553918,-0.7855230359665516,0.1355247139297293,0.6015400886535645,0.7515332698822021,-0.2708269059658051,0,0,0,-1,-1,5796.038124875,unknown,2,2022-06-30T10:06:03.435+02:00,2022-06-30T08:20:05.567+02:00,1540,1.501556,0,0,1217.191,0,0,2022-06-30T10:05:15.030+02:00
2022-06-30T10:06:03.980+02:00,5796.582379875001,1.433273315429688,0.964019775390625,-0.2156219482421875,5796.572428875001,-2.20437465056611,1.15390699418232,-0.8515430719715233,-1.737481355667114,-1.359594702720642,0.6729041934013367,0.8241018056869507,0.1525635123252869,0.1892094612121582,XArbitraryZVertical,0.2868752236462304,0.5332146499454485,-0.7827675066318639,0.1437354736010223,0.6023969054222107,0.7522979378700256,-0.2667694985866547,0,0,0,-1,-1,5796.038124875,unknown,2,2022-06-30T10:06:03.435+02:00,2022-06-30T08:20:05.567+02:00,1540,1.501556,0,0,1217.191,0,0,2022-06-30T10:05:15.030+02:00
2022-06-30T10:06:03.990+02:00,5796.592331875,1.50970458984375,1.01007080078125,-0.22076416015625,5796.582379875001,-2.17388238468977,1.163679335589363,-0.851732345450243,-1.97752857208252,-1.282924890518188,0.9051363468170166,0.8156119585037231,0.2054325342178345,0.1056779026985168,XArbitraryZVertical,0.2824704799364986,0.5383341176919483,-0.7791071622988308,0.1529670243099008,0.6048442721366882,0.752422571182251,-0.2608136236667633,0,0,0,-1,-1,5796.038124875,unknown,2,2022-06-30T10:06:03.435+02:00,2022-06-30T08:20:05.567+02:00,1540,1.501556,0,0,1217.191,0,0,2022-06-30T10:05:15.030+02:00
2022-06-30T10:06:04.000+02:00,5796.602282875,1.578826904296875,1.070419311523438,-0.2740936279296875,5796.592331875,-2.138566424457939,1.178006383384784,-0.8504609697471964,-2.235572099685669,-1.181934475898743,1.13053023815155,0.8238715529441833,0.2124351263046265,0.03686589002609253,XArbitraryZVertical,0.27883419118067,0.5440659454068389,-0.774346496814753,0.1631911778217674,0.609402060508728,0.751584529876709,-0.2524874806404114,0,0,0,-1,-1,5796.038124875,unknown,2,2022-06-30T10:06:03.435+02:00,2022-06-30T08:20:05.567+02:00,1540,1.501556,0,0,1217.191,0,0,2022-06-30T10:05:15.030+02:00
2022-06-30T10:06:04.010+02:00,5796.612233875,1.5909423828125,1.110931396484375,-0.3198089599609375,5796.602282875,-2.099246235743962,1.196338840334853,-0.8477589541248078,-2.377782821655273,-1.055666565895081,1.308197617530823,0.8938890099525452,0.2602711915969849,0.02125194668769836,XArbitraryZVertical,0.2759186653769632,0.5503281219552939,-0.7685526009089476,0.1741686296091433,0.6158158183097839,0.7497994899749756,-0.2420156896114349,0,0,0,-1,-1,5796.038124875,unknown,2,2022-06-30T10:06:03.435+02:00,2022-06-30T08:20:05.567+02:00,1540,1.501556,0,0,1217.191,0,0,2022-06-30T10:05:15.030+02:00
2022-06-30T10:06:04.020+02:00,5796.622185875,1.6165771484375,1.128814697265625,-0.3183746337890625,5796.612233875,-2.05888636215036,1.217196543615129,-0.8430098102319492,-2.289386749267578,-0.8088333606719971,1.493488192558289,0.9547640681266785,0.3237705230712891,-0.04374323785305023,XArbitraryZVertical,0.274112730025269,0.5564954747651133,-0.7621259582133568,0.1853080908472683,0.6240630745887756,0.7466486692428589,-0.2303500026464462,0,0,0,-1,-1,5796.038124875,unknown,2,2022-06-30T10:06:03.435+02:00,2022-06-30T08:20:05.567+02:00,1540,1.501556,0,0,1217.191,0,0,2022-06-30T10:05:15.030+02:00
2022-06-30T10:06:04.030+02:00,5796.632136875,1.64105224609375,1.202056884765625,-0.20648193359375,5796.622185875,-2.020321014732039,1.239489027356933,-0.8351603460192571,-2.047304153442383,-0.4690371751785278,1.722961902618408,0.9563772678375244,0.3695272207260132,-0.1015268564224243,XArbitraryZVertical,0.2741064495894727,0.561893925059619,-0.7554242695509307,0.1961509718224368,0.6345654129981995,0.741404116153717,-0.2182817459106445,0,0,0,-1,-1,5796.038124875,unknown,2,2022-06-30T10:06:03.435+02:00,2022-06-30T08:20:05.567+02:00,1540,1.501556,0,0,1217.191,0,0,2022-06-30T10:05:15.030+02:00
2022-06-30T10:06:04.040+02:00,5796.642088875,1.703292846679688,1.222976684570312,0.0222930908203125,5796.632136875,-1.984255442339433,1.263767255350352,-0.8239019139092978,-1.910699129104614,0.01989224553108215,1.948060631752014,0.9689841866493225,0.395012378692627,-0.11305171251297,XArbitraryZVertical,0.2764313760842805,0.566501902026745,-0.7483734157086488,0.2063942648125051,0.6475932598114014,0.7338021993637085,-0.2053225785493851,0,0,0,-1,-1,5796.038124875,unknown,2,2022-06-30T10:06:03.435+02:00,2022-06-30T08:20:05.567+02:00,1540,1.501556,0,0,1217.191,0,0,2022-06-30T10:05:15.030+02:00
2022-06-30T10:06:04.049+02:00,5796.652039875,1.829376220703125,1.217300415039062,0.34783935546875,5796.642088875,-1.949772393659802,1.29196479901061,-0.80948829856412,-1.797543287277222,0.5971885919570923,2.184040069580078,0.9778278470039368,0.4781224131584167,-0.01660721004009247,XArbitraryZVertical,0.2814861355019013,0.5708137860235599,-0.7405273479062636,0.2157693766761379,0.6632246375083923,0.7239342331886292,-0.1898743510246277,0,0,0,-1,-1,5796.038124875,unknown,2,2022-06-30T10:06:03.435+02:00,2022-06-30T08:20:05.567+02:00,1540,1.501556,0,0,1217.191,0,0,2022-06-30T10:05:15.030+02:00
2022-06-30T10:06:04.059+02:00,5796.661990875,1.90826416015625,1.142410278320312,0.6343841552734375,5796.652039875,-1.915602529111232,1.325597531356255,-0.7920846563078267,-1.955520510673523,1.246111273765564,2.415227890014648,1.021938562393188,0.5111574530601501,0.1927914768457413,XArbitraryZVertical,0.2893846829282067,0.5753325095186639,-0.7314101799215524,0.2242501294152015,0.6813545823097229,0.7118189930915833,-0.1704980134963989,0,0,0,-1,-1,5796.038124875,unknown,2,2022-06-30T10:06:03.435+02:00,2022-06-30T08:20:05.567+02:00,1540,1.501556,0,0,1217.191,0,0,2022-06-30T10:05:15.030+02:00
2022-06-30T10:06:04.069+02:00,5796.671942875,1.901214599609375,1.072006225585938,0.8571624755859375,5796.661990875,-1.878677304718514,1.367637830110803,-0.772512354729239,-2.309008359909058,1.967723846435547,2.561544179916382,1.127945303916931,0.5193635821342468,0.4923348426818848,XArbitraryZVertical,0.2999782086605146,0.5811759725567702,-0.7200871858998464,0.2317802612780487,0.7014311552047729,0.6979367136955261,-0.1444951295852661,0,0,0,-1,-1,5796.038124875,unknown,2,2022-06-30T10:06:03.435+02:00,2022-06-30T08:20:05.567+02:00,1540,1.501556,0,0,1217.191,0,0,2022-06-30T10:05:15.030+02:00
2022-06-30T10:06:04.079+02:00,5796.681893875,1.781112670898438,1.161788940429688,1.094253540039062,5796.671942875,-1.838336530670885,1.418855524126386,-0.7517104352860806,-2.752712488174438,2.730843782424927,2.547981023788452,1.186158657073975,0.4595208168029785,0.744953989982605,XArbitraryZVertical,0.3128622641678657,0.5889248248019893,-0.7061710703967172,0.2379227156836762,0.7221057415008545,0.6828892827033997,-0.1105695068836212,0,0,0,-1,-1,5796.038124875,unknown,2,2022-06-30T10:06:03.435+02:00,2022-06-30T08:20:05.567+02:00,1540,1.501556,0,0,1217.191,0,0,2022-06-30T10:05:15.030+02:00
