loggingTime(txt),accelerometerTimestamp_sinceReboot(s),accelerometerAccelerationX(G),accelerometerAccelerationY(G),accelerometerAccelerationZ(G),motionTimestamp_sinceReboot(s),motionYaw(rad),motionRoll(rad),motionPitch(rad),motionRotationRateX(rad/s),motionRotationRateY(rad/s),motionRotationRateZ(rad/s),motionUserAccelerationX(G),motionUserAccelerationY(G),motionUserAccelerationZ(G),motionAttitudeReferenceFrame(txt),motionQuaternionX(R),motionQuaternionY(R),motionQuaternionZ(R),motionQuaternionW(R),motionGravityX(G),motionGravityY(G),motionGravityZ(G),motionMagneticFieldX(µT),motionMagneticFieldY(µT),motionMagneticFieldZ(µT),motionHeading(°),motionMagneticFieldCalibrationAccuracy(Z),activityTimestamp_sinceReboot(s),activity(txt),activityActivityConfidence(Z),activityActivityStartDate(txt),pedometerStartDate(txt),pedometerNumberofSteps(N),pedometerAverageActivePace(s/m),pedometerCurrentPace(s/m),pedometerCurrentCadence(steps/s),pedometerDistance(m),pedometerFloorAscended(N),pedometerFloorDescended(N),pedometerEndDate(txt)
2022-06-30T10:06:13.462+02:00,5806.046161041667,0.0750732421875,-0.1741180419921875,-0.9527740478515625,5806.036209041667,0.9334026420998413,0.1106139664345776,0.2120844621436035,-0.3049573600292206,0.08173973858356476,-0.09388546645641327,0.04139164090156555,-0.09243448078632355,0.01156717538833618,XArbitraryZVertical,0.06964729384629322,0.09664057985783125,0.4519564878154892,0.884050427540109,0.1079152002930641,-0.210498109459877,-0.971619725227356,0,0,0,-1,-1,5803.677212000001,unknown,2,2022-06-30T10:06:11.074+02:00,2022-06-30T08:20:05.567+02:00,1540,1.501556,0,0,1217.191,0,0,2022-06-30T10:05:15.030+02:00
2022-06-30T10:06:13.464+02:00,5806.056112041667,0.1182403564453125,-0.15673828125,-0.965087890625,5806.046161041667,0.9328036644541643,0.1114869222309184,0.2093209170096041,-0.1997150927782059,0.05296796560287476,-0.08405373990535736,-0.05026481300592422,-0.03779439628124237,0.04190844297409058,XArbitraryZVertical,0.06824999477648225,0.09639590950269078,0.4517189072885479,0.8843075977726033,0.108827643096447,-0.2077956944704056,-0.9720995426177979,0,0,0,-1,-1,5803.677212000001,unknown,2,2022-06-30T10:06:11.074+02:00,2022-06-30T08:20:05.567+02:00,1540,1.501556,0,0,1217.191,0,0,2022-06-30T10:05:15.030+02:00
2022-06-30T10:06:13.465+02:00,5806.066063041667,0.1045379638671875,-0.1690673828125,-0.9538726806640625,5806.056112041667,0.9321563721430751,0.1107485383951308,0.2091062164847859,-0.01293668616563082,-0.0273005086928606,-0.1194199845194817,-0.03304191678762436,0.03346775472164154,0.01944983005523682,XArbitraryZVertical,0.0683523408254844,0.09599993807041839,0.451407214982289,0.8845018178133142,0.1081147566437721,-0.2075856626033783,-0.9722239375114441,0,0,0,-1,-1,5803.677212000001,unknown,2,2022-06-30T10:06:11.074+02:00,2022-06-30T08:20:05.567+02:00,1540,1.501556,0,0,1217.191,0,0,2022-06-30T10:05:15.030+02:00
2022-06-30T10:06:13.473+02:00,5806.076015041667,0.1116943359375,-0.22613525390625,-0.9567718505859375,5806.066063041667,0.9305894784334376,0.1108919365747984,0.2095339134270967,0.0568983219563961,-0.01926596835255623,-0.1774269640445709,0.009995616972446442,0.05126586556434631,0.007032155990600586,XArbitraryZVertical,0.0685855472061208,0.09610396195209953,0.450719523832447,0.8848231963442151,0.1082443371415138,-0.2080040276050568,-0.9721201062202454,0,0,0,-1,-1,5803.677212000001,unknown,2,2022-06-30T10:06:11.074+02:00,2022-06-30T08:20:05.567+02:00,1540,1.501556,0,0,1217.191,0,0,2022-06-30T10:05:15.030+02:00
2022-06-30T10:06:13.483+02:00,5806.085966041667,0.105926513671875,-0.246612548828125,-0.96466064453125,5806.076015041667,0.9287760633971075,0.1108629684159706,0.2094353180805335,0.02812100201845169,-0.01147196162492037,-0.1773087233304977,-0.003680884838104248,0.03884032368659973,0.01827085018157959,XArbitraryZVertical,0.06863527773292277,0.09600724842442769,0.4499159517051886,0.8852386789180223,0.1082184463739395,-0.2079075872898102,-0.9721435904502869,0,0,0,-1,-1,5803.677212000001,unknown,2,2022-06-30T10:06:11.074+02:00,2022-06-30T08:20:05.567+02:00,1540,1.501556,0,0,1217.191,0,0,2022-06-30T10:05:15.030+02:00
2022-06-30T10:06:13.493+02:00,5806.095918041667,0.105804443359375,-0.2263946533203125,-0.974945068359375,5806.085966041667,0.9271453800830538,0.1110763980101412,0.2087248007225599,-0.06053369864821434,0.01284290477633476,-0.1542468518018723,0.003251656889915466,-0.0189225822687149,0.01549512147903442,XArbitraryZVertical,0.06834913397387783,0.09588987103144184,0.4492003875288271,0.8856367658442369,0.1084422767162323,-0.2072125524282455,-0.9722670316696167,0,0,0,-1,-1,5803.677212000001,unknown,2,2022-06-30T10:06:11.074+02:00,2022-06-30T08:20:05.567+02:00,1540,1.501556,0,0,1217.191,0,0,2022-06-30T10:05:15.030+02:00
2022-06-30T10:06:13.503+02:00,5806.105869041667,0.11102294921875,-0.2095184326171875,-0.9850921630859375,5806.095918041667,0.9257047709788478,0.1117373774109249,0.2075891573572319,-0.1258168369531631,0.03918023407459259,-0.1508641093969345,-0.003184974193572998,-0.04051101207733154,0.007767677307128906,XArbitraryZVertical,0.06776392772445516,0.09588458051489752,0.4485829961597995,0.8859952256337489,0.1091110706329346,-0.2061014175415039,-0.9724283814430237,0,0,0,-1,-1,5803.677212000001,unknown,2,2022-06-30T10:06:11.074+02:00,2022-06-30T08:20:05.567+02:00,1540,1.501556,0,0,1217.191,0,0,2022-06-30T10:05:15.030+02:00
2022-06-30T10:06:13.513+02:00,5806.115821041667,0.111907958984375,-0.203125,-0.986541748046875,5806.105869041667,0.9242142691650611,0.1126318026140765,0.2064336741354186,-0.1287577003240585,0.04714982956647873,-0.1687121093273163,-0.004203438758850098,-0.02142393589019775,-0.002378761768341064,XArbitraryZVertical,0.0671199835610979,0.09597763613759118,0.4479504949724782,0.8863541011579052,0.1100074797868729,-0.2049705982208252,-0.9725664258003235,0,0,0,-1,-1,5803.677212000001,unknown,2,2022-06-30T10:06:11.074+02:00,2022-06-30T08:20:05.567+02:00,1540,1.501556,0,0,1217.191,0,0,2022-06-30T10:05:15.030+02:00
2022-06-30T10:06:13.523+02:00,5806.125772041667,0.10693359375,-0.2196807861328125,-0.990997314453125,5806.115821041667,0.9224223349895507,0.1138352119711307,0.2058059702126473,-0.1263336837291718,0.05016399547457695,-0.1988207399845123,-0.0001698434352874756,-0.00516211986541748,-0.01253128051757812,XArbitraryZVertical,0.06665694914426326,0.09631394245147995,0.4471949677376839,0.8867340047430332,0.1111923903226852,-0.2043561935424805,-0.9725609421730042,0,0,0,-1,-1,5803.677212000001,unknown,2,2022-06-30T10:06:11.074+02:00,2022-06-30T08:20:05.567+02:00,1540,1.501556,0,0,1217.191,0,0,2022-06-30T10:05:15.030+02:00
2022-06-30T10:06:13.533+02:00,5806.135723041667,-0.09375,-0.2700958251953125,-0.9851837158203125,5806.125772041667,0.9204715817007755,0.1143308595249867,0.2046722669429354,-0.1548736542463303,0.05005622282624245,-0.2572132647037506,0.0002067685127258301,0.0001214146614074707,-0.01380658149719238,XArbitraryZVertical,0.06613440101984866,0.09622166754558152,0.4463432584346205,0.8872121866251544,0.1117007806897163,-0.2032462805509567,-0.9727352857589722,0,0,0,-1,-1,5803.677212000001,unknown,2,2022-06-30T10:06:11.074+02:00,2022-06-30T08:20:05.567+02:00,1540,1.501556,0,0,1217.191,0,0,2022-06-30T10:05:15.030+02:00
2022-06-30T10:06:13.543+02:00,5806.145675041667,0.240081787109375,-0.376190185546875,-1.009765625,5806.135723041667,0.9161211540324854,0.1161316362199446,0.2010565494658147,-0.4334442913532257,0.215993270277977,-0.599521815776825,-0.006603501737117767,-0.01997596025466919,-0.01774126291275024,XArbitraryZVertical,0.06432824104918995,0.09609279068113101,0.4444591047473362,0.8883040732430826,0.1135366931557655,-0.1997047066688538,-0.9732561111450195,0,0,0,-1,-1,5803.677212000001,unknown,2,2022-06-30T10:06:11.074+02:00,2022-06-30T08:20:05.567+02:00,1540,1.501556,0,0,1217.191,0,0,2022-06-30T10:05:15.030+02:00
2022-06-30T10:06:13.553+02:00,5806.155626041667,0.20477294921875,-0.25628662109375,-0.99517822265625,5806.145675041667,0.9130283108765539,0.1186687260399458,0.1956860277397496,-0.4823485910892487,0.143903985619545,-0.1046225726604462,-0.2098812609910965,-0.07565617561340332,-0.01116794347763062,XArbitraryZVertical,0.06151348043860128,0.09595916512483499,0.4431410979879095,0.8891759566973125,0.1161308586597443,-0.1944395154714584,-0.9740158319473267,0,0,0,-1,-1,5803.677212000001,unknown,2,2022-06-30T10:06:11.074+02:00,2022-06-30T08:20:05.567+02:00,1540,1.501556,0,0,1217.191,0,0,2022-06-30T10:05:15.030+02:00
2022-06-30T10:06:13.563+02:00,5806.165578041667,0.068695068359375,-0.1424407958984375,-0.9859771728515625,5806.155626041667,0.9129591064078859,0.120363115881719,0.1905891663520524,-0.5367068648338318,0.2035614550113678,-0.1245411485433578,0.1221828460693359,-0.1867526322603226,-0.0349767804145813,XArbitraryZVertical,0.05886214837440489,0.09560751160366733,0.4431334457714391,0.8893971490366545,0.1178985238075256,-0.1894374191761017,-0.9747889041900635,0,0,0,-1,-1,5803.677212000001,unknown,2,2022-06-30T10:06:11.074+02:00,2022-06-30T08:20:05.567+02:00,1540,1.501556,0,0,1217.191,0,0,2022-06-30T10:05:15.030+02:00
2022-06-30T10:06:13.573+02:00,5806.175529041667,0.093902587890625,-0.1395111083984375,-1.003753662109375,5806.165578041667,0.9108969987515011,0.1230403724601093,0.1848918298715891,-0.5201324224472046,0.2378896027803421,-0.3819274008274078,0.08413417637348175,-0.07244628667831421,-0.01965320110321045,XArbitraryZVertical,0.05581925425321603,0.09550745154483679,0.4422553442568901,0.8900409698844608,0.1206383630633354,-0.1838402152061462,-0.9755250811576843,0,0,0,-1,-1,5803.677212000001,unknown,2,2022-06-30T10:06:11.074+02:00,2022-06-30T08:20:05.567+02:00,1540,1.501556,0,0,1217.191,0,0,2022-06-30T10:05:15.030+02:00
2022-06-30T10:06:13.583+02:00,5806.185480041667,0.104217529296875,-0.134246826171875,-0.9910736083984375,5806.175529041667,0.9077679768708641,0.1258907080072774,0.1801839087120989,-0.3317233920097351,0.2185028493404388,-0.3137664496898651,-0.05483108758926392,0.03676983714103699,-0.009952127933502197,XArbitraryZVertical,0.05323168482978278,0.09567570063912989,0.4409030114404486,0.8908519339561344,0.1235257461667061,-0.1792105138301849,-0.9760251045227051,0,0,0,-1,-1,5803.677212000001,unknown,2,2022-06-30T10:06:11.074+02:00,2022-06-30T08:20:05.567+02:00,1540,1.501556,0,0,1217.191,0,0,2022-06-30T10:05:15.030+02:00
2022-06-30T10:06:13.593+02:00,5806.195432041667,0.1196136474609375,-0.13134765625,-0.97119140625,5806.185480041667,0.9054341620054887,0.1285424478519754,0.1773356514707935,-0.1901116669178009,0.2319888323545456,-0.241686686873436,-0.03227622807025909,0.03689666092395782,-0.02755731344223022,XArbitraryZVertical,0.05148355432042586,0.09618345514748346,0.4399070822934624,0.8913921499999212,0.1261783987283707,-0.1764076352119446,-0.9761963486671448,0,0,0,-1,-1,5803.677212000001,unknown,2,2022-06-30T10:06:11.074+02:00,2022-06-30T08:20:05.567+02:00,1540,1.501556,0,0,1217.191,0,0,2022-06-30T10:05:15.030+02:00
2022-06-30T10:06:13.603+02:00,5806.205383041667,0.144683837890625,-0.1530609130859375,-0.96612548828125,5806.195432041667,0.9028525552219389,0.1313773978674232,0.1754214529407283,-0.1279356479644775,0.2435253858566284,-0.3162080347537994,-0.02477224171161652,0.04027645289897919,-0.01490592956542969,XArbitraryZVertical,0.05012724828809156,0.09697111829889866,0.4388092002381925,0.8919250840020028,0.1289893537759781,-0.1745231449604034,-0.9761677384376526,0,0,0,-1,-1,5803.677212000001,unknown,2,2022-06-30T10:06:11.074+02:00,2022-06-30T08:20:05.567+02:00,1540,1.501556,0,0,1217.191,0,0,2022-06-30T10:05:15.030+02:00
2022-06-30T10:06:13.613+02:00,5806.215335041667,0.147308349609375,-0.17724609375,-0.957977294921875,5806.205383041667,0.8996348801128997,0.1343602627665575,0.1739105006176225,-0.09416303783655167,0.2451501786708832,-0.3428471088409424,-0.01232247054576874,0.04168763756752014,0.004847347736358643,XArbitraryZVertical,0.04895269847481534,0.09789902032916428,0.4374312549525175,0.8925656357687179,0.131935715675354,-0.1730351746082306,-0.9760388135910034,0,0,0,-1,-1,5803.677212000001,unknown,2,2022-06-30T10:06:11.074+02:00,2022-06-30T08:20:05.567+02:00,1540,1.501556,0,0,1217.191,0,0,2022-06-30T10:05:15.030+02:00
2022-06-30T10:06:13.623+02:00,5806.225286041667,0.146881103515625,-0.1842041015625,-0.9509429931640625,5806.215335041667,0.8964164979054102,0.1374235524711961,0.172502068715946,-0.1039251163601875,0.2605304718017578,-0.3245669007301331,0.009725183248519897,0.01858703792095184,0.009745001792907715,XArbitraryZVertical,0.04780972671760612,0.09888863979067893,0.4360520295021648,0.8931930743913741,0.1349582374095917,-0.1716478168964386,-0.9758705496788025,0,0,0,-1,-1,5803.677212000001,unknown,2,2022-06-30T10:06:11.074+02:00,2022-06-30T08:20:05.567+02:00,1540,1.501556,0,0,1217.191,0,0,2022-06-30T10:05:15.030+02:00
2022-06-30T10:06:13.633+02:00,5806.235237041667,0.162261962890625,-0.1888885498046875,-0.95159912109375,5806.225286041667,0.8933233451030343,0.1405477079331053,0.1708292270489682,-0.1455905437469482,0.2621379494667053,-0.3292239606380463,0.009261563420295715,-0.007246419787406921,0.01774972677230835,XArbitraryZVertical,0.04653165879301085,0.09985619679618009,0.4347226056891081,0.8938008485134027,0.1380463838577271,-0.1699995696544647,-0.9757270812988281,0,0,0,-1,-1,5803.677212000001,unknown,2,2022-06-30T10:06:11.074+02:00,2022-06-30T08:20:05.567+02:00,1540,1.509928,0,0,1217.191,0,0,2022-06-30T10:06:13.625+02:00
2022-06-30T10:06:13.643+02:00,5806.245189041667,0.1779937744140625,-0.17840576171875,-0.955047607421875,5806.235237041667,0.8902496072856075,0.1436244179033878,0.168677791952844,-0.1907854527235031,0.2538118362426758,-0.3317545056343079,0.005780920386314392,-0.01632493734359741,0.02471441030502319,XArbitraryZVertical,0.0450506438115991,0.1007060550781243,0.4333895141380643,0.8944284706170071,0.1410997658967972,-0.1678790599107742,-0.9756574630737305,0,0,0,-1,-1,5803.677212000001,unknown,2,2022-06-30T10:06:11.074+02:00,2022-06-30T08:20:05.567+02:00,1540,1.509928,0,0,1217.191,0,0,2022-06-30T10:06:13.625+02:00
2022-06-30T10:06:13.653+02:00,5806.255140041667,0.1810302734375,-0.1564483642578125,-0.9498291015625,5806.245189041667,0.8872257279954198,0.1466122633443657,0.1661983499471147,-0.2114394009113312,0.2477438896894455,-0.3310463428497314,0.01818692684173584,-0.02345415949821472,0.02404111623764038,XArbitraryZVertical,0.04344130827265878,0.1014529518142246,0.4320664055781029,0.8950635443050249,0.1440746188163757,-0.1654342859983444,-0.9756402969360352,0,0,0,-1,-1,5803.677212000001,unknown,2,2022-06-30T10:06:11.074+02:00,2022-06-30T08:20:05.567+02:00,1540,1.509928,0,0,1217.191,0,0,2022-06-30T10:06:13.625+02:00
2022-06-30T10:06:13.663+02:00,5806.265092041667,0.18359375,-0.1360015869140625,-0.952728271484375,5806.255140041667,0.8842811159294601,0.1495442835882722,0.1635958230023823,-0.2167867571115494,0.2478504329919815,-0.3238944411277771,0.03099513053894043,-0.01553857326507568,0.0205884575843811,XArbitraryZVertical,0.04178682148877776,0.1021557605628558,0.4307697030042621,0.8956872957694834,0.1469982415437698,-0.1628670692443848,-0.9756361246109009,0,0,0,-1,-1,5803.677212000001,unknown,2,2022-06-30T10:06:11.074+02:00,2022-06-30T08:20:05.567+02:00,1540,1.509928,0,0,1217.191,0,0,2022-06-30T10:06:13.625+02:00
2022-06-30T10:06:13.673+02:00,5806.275043041667,0.1877288818359375,-0.1208648681640625,-0.95916748046875,5806.265092041667,0.8814154012983698,0.1524492195031645,0.1610286653368915,-0.2063837200403214,0.2461812645196915,-0.3133178055286407,0.03113508224487305,0.003885388374328613,0.02578586339950562,XArbitraryZVertical,0.04015215716678745,0.1028605491681139,0.429502506897072,0.8962895925332297,0.1498947739601135,-0.1603336483240128,-0.9756150245666504,0,0,0,-1,-1,5803.677212000001,unknown,2,2022-06-30T10:06:11.074+02:00,2022-06-30T08:20:05.567+02:00,1540,1.509928,0,0,1217.191,0,0,2022-06-30T10:06:13.625+02:00
2022-06-30T10:06:13.683+02:00,5806.284994041667,0.1974334716796875,-0.108428955078125,-0.96124267578125,5806.275043041667,0.8786973335588771,0.1552708796354716,0.1585946978249643,-0.1913927793502808,0.2369624674320221,-0.2925155758857727,0.03088641166687012,0.02192921936511993,0.02284252643585205,XArbitraryZVertical,0.0385898489587017,0.103563490185627,0.4282964689609421,0.8968542849202273,0.1527069211006165,-0.1579307019710541,-0.9755708575248718,0,0,0,-1,-1,5803.677212000001,unknown,2,2022-06-30T10:06:11.074+02:00,2022-06-30T08:20:05.567+02:00,1540,1.509928,0,0,1217.191,0,0,2022-06-30T10:06:13.625+02:00
2022-06-30T10:06:13.692+02:00,5806.294946041667,0.19696044921875,-0.097412109375,-0.9532012939453125,5806.284994041667,0.876186532324745,0.1579283645463581,0.1564200858265698,-0.158537283539772,0.2249426245689392,-0.2656797468662262,0.03237587213516235,0.03491824865341187,0.01633089780807495,XArbitraryZVertical,0.03717082169611358,0.1042550024689687,0.4271800519401808,0.8973663554179463,0.1553525924682617,-0.1557829976081848,-0.9754984378814697,0,0,0,-1,-1,5803.677212000001,unknown,2,2022-06-30T10:06:11.074+02:00,2022-06-30T08:20:05.567+02:00,1540,1.509928,0,0,1217.191,0,0,2022-06-30T10:06:13.625+02:00
2022-06-30T10:06:13.702+02:00,5806.304897041667,0.1942138671875,-0.0926361083984375,-0.9529876708984375,5806.294946041667,0.873863642662972,0.160457629474072,0.1546026328388239,-0.1287730038166046,0.2196794152259827,-0.2506611049175262,0.03956867754459381,0.04555864632129669,0.01413756608963013,XArbitraryZVertical,0.03593232808956468,0.1049701148951844,0.4261483088465368,0.8978239557854036,0.1578643620014191,-0.1539874821901321,-0.9753803014755249,0,0,0,-1,-1,5803.677212000001,unknown,2,2022-06-30T10:06:11.074+02:00,2022-06-30T08:20:05.567+02:00,1540,1.509928,0,0,1217.191,0,0,2022-06-30T10:06:13.625+02:00
2022-06-30T10:06:13.712+02:00,5806.314849041667,0.1942291259765625,-0.10162353515625,-0.9490814208984375,5806.304897041667,0.871638638746892,0.1629214765022232,0.1531255635690318,-0.09198097139596939,0.2120501846075058,-0.2364568263292313,0.03665626049041748,0.05511586368083954,0.02201038599014282,XArbitraryZVertical,0.03485805360978832,0.1057309871379027,0.4251628525633132,0.8982441886928745,0.1603037863969803,-0.1525278687477112,-0.9752117395401001,0,0,0,-1,-1,5803.677212000001,unknown,2,2022-06-30T10:06:11.074+02:00,2022-06-30T08:20:05.567+02:00,1540,1.509928,0,0,1217.191,0,0,2022-06-30T10:06:13.625+02:00
2022-06-30T10:06:13.722+02:00,5806.324800041667,0.1954498291015625,-0.1188507080078125,-0.9506988525390625,5806.314849041667,0.8694900688687243,0.1652858581253571,0.151920852005759,-0.07723584771156311,0.201335221529007,-0.2237594127655029,0.03157423436641693,0.05870112776756287,0.0220227837562561,XArbitraryZVertical,0.03392563972371493,0.1065071783769955,0.4242129830272785,0.8986371858490062,0.1626392304897308,-0.151337131857872,-0.9750105142593384,0,0,0,-1,-1,5803.677212000001,unknown,2,2022-06-30T10:06:11.074+02:00,2022-06-30T08:20:05.567+02:00,1540,1.509928,0,0,1217.191,0,0,2022-06-30T10:06:13.625+02:00
2022-06-30T10:06:13.732+02:00,5806.334751041667,0.1998748779296875,-0.128265380859375,-0.95556640625,5806.324800041667,0.8674777519479644,0.1675633194805891,0.1508177269779465,-0.07949334383010864,0.2013961672782898,-0.2086888700723648,0.02934162318706512,0.04862320423126221,0.02572011947631836,XArbitraryZVertical,0.03305195735875536,0.1072695503173323,0.4233227809173357,0.8989987773609126,0.1648871004581451,-0.1502466201782227,-0.9748015999794006,0,0,0,-1,-1,5803.677212000001,unknown,2,2022-06-30T10:06:11.074+02:00,2022-06-30T08:20:05.567+02:00,1540,1.509928,0,0,1217.191,0,0,2022-06-30T10:06:13.625+02:00
2022-06-30T10:06:13.742+02:00,5806.344703041667,0.2023468017578125,-0.12359619140625,-0.9585723876953125,5806.334751041667,0.8656308743358896,0.1698343940423757,0.1496168745052779,-0.09921617805957794,0.2017620950937271,-0.1926252245903015,0.02831852436065674,0.03020869195461273,0.02390283346176147,XArbitraryZVertical,0.03212805620023089,0.1080134498761889,0.4225025280085711,0.8993290238823684,0.1671308875083923,-0.1490592956542969,-0.9746017456054688,0,0,0,-1,-1,5803.677212000001,unknown,2,2022-06-30T10:06:11.074+02:00,2022-06-30T08:20:05.567+02:00,1540,1.509928,0,0,1217.191,0,0,2022-06-30T10:06:13.625+02:00
2022-06-30T10:06:13.752+02:00,5806.354654041667,0.2015228271484375,-0.1067352294921875,-0.952880859375,5806.344703041667,0.8640334001207055,0.1720714784758027,0.1482377010662277,-0.1170386523008347,0.2017132192850113,-0.1699759364128113,0.03052869439125061,0.01943011581897736,0.0188605785369873,XArbitraryZVertical,0.03111848171895113,0.1087111495632299,0.4217876008622565,0.8996158888400502,0.1693457812070847,-0.147695392370224,-0.9744270443916321,0,0,0,-1,-1,5803.677212000001,unknown,2,2022-06-30T10:06:11.074+02:00,2022-06-30T08:20:05.567+02:00,1540,1.509928,0,0,1217.191,0,0,2022-06-30T10:06:13.625+02:00
2022-06-30T10:06:13.762+02:00,5806.364606041667,0.1929779052734375,-0.0917816162109375,-0.953857421875,5806.354654041667,0.8626564614232544,0.1742576382682745,0.1468097834625244,-0.1138106361031532,0.2006381005048752,-0.1512762904167175,0.0308343768119812,0.0226869136095047,0.01568877696990967,XArbitraryZVertical,0.03008666813974702,0.109380904359081,0.4211675983852984,0.8998603248552931,0.1715120077133179,-0.1462829858064651,-0.9742612242698669,0,0,0,-1,-1,5803.677212000001,unknown,2,2022-06-30T10:06:11.074+02:00,2022-06-30T08:20:05.567+02:00,1540,1.509928,0,0,1217.191,0,0,2022-06-30T10:06:13.625+02:00
2022-06-30T10:06:13.772+02:00,5806.374557041667,0.190460205078125,-0.08978271484375,-0.953125,5806.364606041667,0.8614515785533444,0.1764412040892288,0.1455306164851774,-0.0901549756526947,0.2018787860870361,-0.1307931840419769,0.02785074710845947,0.03828234970569611,0.02118688821792603,XArbitraryZVertical,0.02911422597964085,0.110083875308699,0.4206264574243653,0.9000595884961259,0.1736716628074646,-0.1450174599885941,-0.9740678071975708,0,0,0,-1,-1,5803.677212000001,unknown,2,2022-06-30T10:06:11.074+02:00,2022-06-30T08:20:05.567+02:00,1540,1.509928,0,0,1217.191,0,0,2022-06-30T10:06:13.625+02:00
2022-06-30T10:06:13.782+02:00,5806.384508041667,0.18658447265625,-0.1024627685546875,-0.947296142578125,5806.374557041667,0.8603859149456158,0.178531944273362,0.1445723324337128,-0.0611552819609642,0.1891363561153412,-0.1135851740837097,0.0172450989484787,0.05228772759437561,0.01998138427734375,XArbitraryZVertical,0.02829975000157312,0.1108137269313785,0.420152793154677,0.9002171952756887,0.1757324039936066,-0.1440692394971848,-0.9738388657569885,0,0,0,-1,-1,5803.677212000001,unknown,2,2022-06-30T10:06:11.074+02:00,2022-06-30T08:20:05.567+02:00,1540,1.509928,0,0,1217.191,0,0,2022-06-30T10:06:13.625+02:00
2022-06-30T10:06:13.792+02:00,5806.394460041667,0.182373046875,-0.117706298828125,-0.9439697265625,5806.384508041667,0.8594321196457271,0.1804772467789378,0.1439474003800247,-0.02932937443256378,0.1780168563127518,-0.09812448918819427,0.01281718909740448,0.05366818606853485,0.02045845985412598,XArbitraryZVertical,0.02766132986603122,0.1115484781901529,0.4197345943994327,0.9003414886275625,0.1776426136493683,-0.1434507966041565,-0.9735835790634155,0,0,0,-1,-1,5803.677212000001,unknown,2,2022-06-30T10:06:11.074+02:00,2022-06-30T08:20:05.567+02:00,1540,1.509928,0,0,1217.191,0,0,2022-06-30T10:06:13.625+02:00
2022-06-30T10:06:13.802+02:00,5806.404411041667,0.1829986572265625,-0.124542236328125,-0.9381256103515625,5806.394460041667,0.8585854469666601,0.1823320910683818,0.1435671406008047,-0.0184016264975071,0.1716207414865494,-0.07961898297071457,0.007126033306121826,0.04061178863048553,0.02600973844528198,XArbitraryZVertical,0.02714738955928975,0.1122943927717321,0.4193688806774054,0.9004348524447501,0.1794580221176147,-0.1430744528770447,-0.9733060002326965,0,0,0,-1,-1,5803.677212000001,unknown,2,2022-06-30T10:06:11.074+02:00,2022-06-30T08:20:05.567+02:00,1540,1.509928,0,0,1217.191,0,0,2022-06-30T10:06:13.625+02:00
2022-06-30T10:06:13.812+02:00,5806.414363041667,0.179656982421875,-0.1401214599609375,-0.9343719482421875,5806.404411041667,0.8579132381025114,0.1840539449069517,0.1432352652730678,-0.02191333658993244,0.1615774482488632,-0.0648537203669548,0.001230299472808838,0.02503979206085205,0.0290723443031311,XArbitraryZVertical,0.02667399984004214,0.1129929995242401,0.4190805668583798,0.9004957991223289,0.1811423301696777,-0.1427459865808487,-0.9730421304702759,0,0,0,-1,-1,5803.677212000001,unknown,2,2022-06-30T10:06:11.074+02:00,2022-06-30T08:20:05.567+02:00,1540,1.509928,0,0,1217.191,0,0,2022-06-30T10:06:13.625+02:00
2022-06-30T10:06:13.826+02:00,5806.424314041667,0.180633544921875,-0.149505615234375,-0.940216064453125,5806.414363041667,0.8573352702148574,0.1857252051833482,0.1428172148137551,-0.03594153746962547,0.1631681621074677,-0.06480551511049271,0.0002189576625823975,0.01779007911682129,0.03467094898223877,XArbitraryZVertical,0.02616727230315362,0.1136528144602557,0.4188311165855902,0.9005435770875088,0.1827792823314667,-0.1423322111368179,-0.972796618938446,0,0,0,-1,-1,5803.677212000001,unknown,2,2022-06-30T10:06:11.074+02:00,2022-06-30T08:20:05.567+02:00,1540,1.509928,0,0,1217.191,0,0,2022-06-30T10:06:13.625+02:00
2022-06-30T10:06:13.842+02:00,5806.434265041667,0.183502197265625,-0.165740966796875,-0.942718505859375,5806.424314041667,0.8567984374047999,0.1873802489506762,0.1422236019509399,-0.06125754490494728,0.1587259322404861,-0.06200426816940308,-0.00474819540977478,0.001623257994651794,0.03820359706878662,XArbitraryZVertical,0.02558243979431255,0.1142704073752133,0.4185944513938309,0.9005923100178305,0.1844047605991364,-0.1417446136474609,-0.9725756049156189,0,0,0,-1,-1,5803.677212000001,unknown,2,2022-06-30T10:06:11.074+02:00,2022-06-30T08:20:05.567+02:00,1540,1.509928,0,0,1217.191,0,0,2022-06-30T10:06:13.625+02:00
2022-06-30T10:06:13.844+02:00,5806.444217041667,0.1795654296875,-0.18170166015625,-0.945648193359375,5806.434265041667,0.8562831309754535,0.1889726043719322,0.1413329343635872,-0.09613563865423203,0.1513657569885254,-0.07399195432662964,-0.005343720316886902,-0.008642628788948059,0.03218823671340942,XArbitraryZVertical,0.02487523380060252,0.1147999840101544,0.4183575463503925,0.9006549308059341,0.1859768629074097,-0.1408628821372986,-0.9724043607711792,0,0,0,-1,-1,5803.677212000001,unknown,2,2022-06-30T10:06:11.074+02:00,2022-06-30T08:20:05.567+02:00,1540,1.509928,0,0,1217.191,0,0,2022-06-30T10:06:13.625+02:00
2022-06-30T10:06:13.851+02:00,5806.454168041667,0.17938232421875,-0.1825103759765625,-0.9457550048828125,5806.444217041667,0.8556940020817302,0.190493414637353,0.140028771475064,-0.1367636770009995,0.1429320871829987,-0.0867217630147934,-0.003988325595855713,-0.02616927027702332,0.02958136796951294,XArbitraryZVertical,0.02400015819765069,0.1152128791170106,0.4180736985535463,0.9007577203938741,0.1874901056289673,-0.1395716071128845,-0.9722999930381775,0,0,0,-1,-1,5803.677212000001,unknown,2,2022-06-30T10:06:11.074+02:00,2022-06-30T08:20:05.567+02:00,1540,1.509928,0,0,1217.191,0,0,2022-06-30T10:06:13.625+02:00
2022-06-30T10:06:13.861+02:00,5806.464120041667,0.1717376708984375,-0.1621551513671875,-0.9418792724609375,5806.454168041667,0.8551077877745745,0.1920963900977395,0.1376482101487703,-0.1626386940479279,0.1335979700088501,-0.08195018023252487,-0.009546324610710144,-0.0444875955581665,0.02667331695556641,XArbitraryZVertical,0.02262022233529571,0.1154449622584543,0.417759238705913,0.9009096211551311,0.1891113370656967,-0.1372139453887939,-0.9723215699195862,0,0,0,-1,-1,5803.677212000001,unknown,2,2022-06-30T10:06:11.074+02:00,2022-06-30T08:20:05.567+02:00,1540,1.509928,0,0,1217.191,0,0,2022-06-30T10:06:13.625+02:00
2022-06-30T10:06:13.872+02:00,5806.474071041667,0.16943359375,-0.1431427001953125,-0.9410858154296875,5806.464120041667,0.8546154855884035,0.1935939130322907,0.1351040315730719,-0.169575572013855,0.1345540285110474,-0.08425801247358322,-0.01125183701515198,-0.04781685769557953,0.02662163972854614,XArbitraryZVertical,0.02118290717735933,0.1155981420789249,0.417478456124028,0.9010549687927154,0.1906337440013885,-0.1346933990716934,-0.9723767042160034,0,0,0,-1,-1,5803.677212000001,unknown,2,2022-06-30T10:06:11.074+02:00,2022-06-30T08:20:05.567+02:00,1540,1.509928,0,0,1217.191,0,0,2022-06-30T10:06:13.625+02:00
2022-06-30T10:06:13.881+02:00,5806.484023041667,0.17572021484375,-0.1436309814453125,-0.9492950439453125,5806.474071041667,0.8540503118328111,0.1950217379823962,0.1328920347672695,-0.1509086787700653,0.1278444528579712,-0.09280169755220413,-0.02034194767475128,-0.02965380251407623,0.03051412105560303,XArbitraryZVertical,0.01991506655080289,0.1157871793661789,0.4171715964065006,0.9012016846940082,0.1920792013406754,-0.1325012296438217,-0.9723934531211853,0,0,0,-1,-1,5803.677212000001,unknown,2,2022-06-30T10:06:11.074+02:00,2022-06-30T08:20:05.567+02:00,1540,1.509928,0,0,1217.191,0,0,2022-06-30T10:06:13.625+02:00
2022-06-30T10:06:13.892+02:00,5806.493974041667,0.1861572265625,-0.1573638916015625,-0.956878662109375,5806.484023041667,0.8533486243929349,0.1962404071587184,0.1311800045020698,-0.1266816854476929,0.1109894216060638,-0.1058430224657059,-0.02387484908103943,-0.01233850419521332,0.03129380941390991,XArbitraryZVertical,0.01892556724260563,0.1159826184514917,0.4168145183298901,0.901363237056843,0.1933080404996872,-0.130804106593132,-0.9723796844482422,0,0,0,-1,-1,5803.677212000001,unknown,2,2022-06-30T10:06:11.074+02:00,2022-06-30T08:20:05.567+02:00,1540,1.509928,0,0,1217.191,0,0,2022-06-30T10:06:13.625+02:00
2022-06-30T10:06:13.901+02:00,5806.503925041667,0.1968231201171875,-0.1678314208984375,-0.9561920166015625,5806.493974041667,0.8524972940290833,0.1973626554200511,0.1298157971119562,-0.1074004098773003,0.1027224361896515,-0.1146426424384117,-0.01871417462825775,-0.01417936384677887,0.02304112911224365,XArbitraryZVertical,0.01812271323635859,0.1162043541785019,0.416398638438455,0.901543320519147,0.1944339722394943,-0.1294514983892441,-0.9723362326622009,0,0,0,-1,-1,5803.677212000001,unknown,2,2022-06-30T10:06:11.074+02:00,2022-06-30T08:20:05.567+02:00,1540,1.509928,0,0,1217.191,0,0,2022-06-30T10:06:13.625+02:00
2022-06-30T10:06:13.911+02:00,5806.513877041667,0.199066162109375,-0.169342041015625,-0.9615631103515625,5806.503925041667,0.8515604061301612,0.1983321967704937,0.1288566078194505,-0.09644769132137299,0.09377117455005646,-0.1201968938112259,-0.009244158864021301,-0.02886347472667694,0.01538980007171631,XArbitraryZVertical,0.01754050204559362,0.1164390689307253,0.415954624582888,0.901729480794399,0.1954009830951691,-0.1285003125667572,-0.9722685217857361,0,0,0,-1,-1,5803.677212000001,unknown,2,2022-06-30T10:06:11.074+02:00,2022-06-30T08:20:05.567+02:00,1540,1.509928,0,0,1217.191,0,0,2022-06-30T10:06:13.625+02:00
2022-06-30T10:06:13.921+02:00,5806.523828041667,0.1998138427734375,-0.1798095703125,-0.9639129638671875,5806.513877041667,0.8505523326362715,0.1992326515651218,0.1280585432229212,-0.09675155580043793,0.08975512534379959,-0.1289578974246979,0.0005261003971099854,-0.04012249410152435,0.01600033044815063,XArbitraryZVertical,0.01705012685582937,0.1166751229826445,0.4154823868927716,0.9019260690266868,0.1962966173887253,-0.1277088224887848,-0.9721924066543579,0,0,0,-1,-1,5803.677212000001,unknown,2,2022-06-30T10:06:11.074+02:00,2022-06-30T08:20:05.567+02:00,1540,1.509928,0,0,1217.191,0,0,2022-06-30T10:06:13.625+02:00
2022-06-30T10:06:13.931+02:00,5806.533780041667,0.19537353515625,-0.19036865234375,-0.9659423828125,5806.523828041667,0.8494247521383403,0.2001531679034563,0.1274912226656883,-0.1083323135972023,0.08545950055122375,-0.1437440365552902,0.001859933137893677,-0.04219581186771393,0.01051896810531616,XArbitraryZVertical,0.01666752429506673,0.1169662855719134,0.414963298781564,0.9021345138577601,0.1972058266401291,-0.1271461248397827,-0.9720821380615234,0,0,0,-1,-1,5803.677212000001,unknown,2,2022-06-30T10:06:11.074+02:00,2022-06-30T08:20:05.567+02:00,1540,1.509928,0,0,1217.191,0,0,2022-06-30T10:06:13.625+02:00
2022-06-30T10:06:13.941+02:00,5806.543731041667,0.19305419921875,-0.1897735595703125,-0.9716033935546875,5806.533780041667,0.8482532962279156,0.2009539063688013,0.1271077391443294,-0.1217261478304863,0.08982947468757629,-0.1457211673259735,0.001819580793380737,-0.05304372310638428,0.008058607578277588,XArbitraryZVertical,0.01639608269975071,0.117240539039504,0.4144289810404473,0.9023495136479185,0.1979938596487045,-0.1267657428979874,-0.9719716310501099,0,0,0,-1,-1,5803.677212000001,unknown,2,2022-06-30T10:06:11.074+02:00,2022-06-30T08:20:05.567+02:00,1540,1.509928,0,0,1217.191,0,0,2022-06-30T10:06:13.625+02:00
2022-06-30T10:06:13.951+02:00,5806.553682041667,0.1907196044921875,-0.1789398193359375,-0.9688720703125,5806.543731041667,0.8471561042585132,0.20170065952863,0.1266942240040335,-0.1454424113035202,0.08431439101696014,-0.1394807249307632,-0.003356993198394775,-0.06401300430297852,0.005932331085205078,XArbitraryZVertical,0.01611814308618428,0.1174853559152466,0.4139264635147807,0.9025531917561026,0.1987301111221313,-0.1263555586338043,-0.9718747735023499,0,0,0,-1,-1,5803.677212000001,unknown,2,2022-06-30T10:06:11.074+02:00,2022-06-30T08:20:05.567+02:00,1540,1.509928,0,0,1217.191,0,0,2022-06-30T10:06:13.625+02:00
2022-06-30T10:06:13.961+02:00,5806.563634041667,0.1958465576171875,-0.170318603515625,-0.9683380126953125,5806.553682041667,0.846130694551618,0.2022011552523734,0.1258314813241601,-0.1612149775028229,0.08539935946464539,-0.1468116044998169,-0.00618453323841095,-0.06427377462387085,0.000278174877166748,XArbitraryZVertical,0.01568323490996765,0.1175296338722217,0.4134391727417664,0.9027785078690513,0.1992383301258087,-0.1254996806383133,-0.971881628036499,0,0,0,-1,-1,5803.677212000001,unknown,2,2022-06-30T10:06:11.074+02:00,2022-06-30T08:20:05.567+02:00,1540,1.509928,0,0,1217.191,0,0,2022-06-30T10:06:13.625+02:00
2022-06-30T10:06:13.971+02:00,5806.573585041667,0.2046966552734375,-0.156768798828125,-0.962860107421875,5806.563634041667,0.845056173755948,0.2025789391429862,0.1245568714009278,-0.158722847700119,0.0861293226480484,-0.1502194851636887,-0.008918300271034241,-0.05470466613769531,0.003090023994445801,XArbitraryZVertical,0.01508956703846305,0.1174359579738847,0.4129146849044525,0.903040715503627,0.1996375024318695,-0.1242350488901138,-0.9719622135162354,0,0,0,-1,-1,5803.677212000001,unknown,2,2022-06-30T10:06:11.074+02:00,2022-06-30T08:20:05.567+02:00,1540,1.509928,0,0,1217.191,0,0,2022-06-30T10:06:13.625+02:00
2022-06-30T10:06:13.981+02:00,5806.583537041667,0.21087646484375,-0.139434814453125,-0.9613800048828125,5806.573585041667,0.8440007909937667,0.2029284052704096,0.1234423516303831,-0.153344064950943,0.07573367655277252,-0.1468548476696014,-0.004158765077590942,-0.04718941450119019,0.003689289093017578,XArbitraryZVertical,0.01457325404818031,0.117362353593839,0.412403400570261,0.9032924340452868,0.2000049352645874,-0.1231290847063065,-0.9720274209976196,0,0,0,-1,-1,5803.677212000001,unknown,2,2022-06-30T10:06:11.074+02:00,2022-06-30T08:20:05.567+02:00,1540,1.509928,0,0,1217.191,0,0,2022-06-30T10:06:13.625+02:00
2022-06-30T10:06:13.991+02:00,5806.593488041667,0.219512939453125,-0.1259613037109375,-0.9660491943359375,5806.583537041667,0.8428973003563538,0.2034131619226049,0.1230745005316074,-0.1324433088302612,0.0727517306804657,-0.1475043892860413,0.004210993647575378,-0.03400466591119766,0.009114444255828857,XArbitraryZVertical,0.01437104433993696,0.1174996360513923,0.4118961133574819,0.9035091650613676,0.2004852443933487,-0.122764028608799,-0.9719746112823486,0,0,0,-1,-1,5803.677212000001,unknown,2,2022-06-30T10:06:11.074+02:00,2022-06-30T08:20:05.567+02:00,1540,1.509928,0,0,1217.191,0,0,2022-06-30T10:06:13.625+02:00
2022-06-30T10:06:14.001+02:00,5806.603439041667,0.2230377197265625,-0.1199951171875,-0.9710845947265625,5806.593488041667,0.8417100787409904,0.2042265966633146,0.1235924526646548,-0.09646293520927429,0.06320909410715103,-0.1427687555551529,0.009613156318664551,-0.01615666598081589,0.01036876440048218,XArbitraryZVertical,0.01450885511469506,0.1179621989555821,0.4113830789708342,0.9036805363786555,0.201262891292572,-0.1232780441641808,-0.9717488288879395,0,0,0,-1,-1,5803.677212000001,unknown,2,2022-06-30T10:06:11.074+02:00,2022-06-30T08:20:05.567+02:00,1540,1.509928,0,0,1217.191,0,0,2022-06-30T10:06:13.625+02:00
2022-06-30T10:06:14.011+02:00,5806.613391041667,0.22308349609375,-0.130035400390625,-0.980499267578125,5806.603439041667,0.8404503804893049,0.2050217353951345,0.1245891410211064,-0.04651082307100296,0.06370232999324799,-0.1420170813798904,0.01750215888023376,-0.001694135367870331,0.00541841983795166,XArbitraryZVertical,0.01487283327915063,0.1185113818704149,0.4108535349902103,0.9038435613687902,0.2020103931427002,-0.1242670714855194,-0.9714676737785339,0,0,0,-1,-1,5803.677212000001,unknown,2,2022-06-30T10:06:11.074+02:00,2022-06-30T08:20:05.567+02:00,1540,1.509928,0,0,1217.191,0,0,2022-06-30T10:06:13.625+02:00
2022-06-30T10:06:14.021+02:00,5806.623342041667,0.218780517578125,-0.1445770263671875,-0.9777679443359375,5806.613391041667,0.8390810435139048,0.2057895766510178,0.1262007974454412,-0.01018504146486521,0.05749343708157539,-0.1504521071910858,0.02032223343849182,0.00587107241153717,3.033876419067383e-05,XArbitraryZVertical,0.01552919997526297,0.1191694032047552,0.4102952921420736,0.9039996097057581,0.2027150690555573,-0.1258660703897476,-0.9711149930953979,0,0,0,-1,-1,5803.677212000001,unknown,2,2022-06-30T10:06:11.074+02:00,2022-06-30T08:20:05.567+02:00,1540,1.509928,0,0,1217.191,0,0,2022-06-30T10:06:13.625+02:00
2022-06-30T10:06:14.031+02:00,5806.633294041667,0.203125,-0.1566619873046875,-0.973846435546875,5806.623342041667,0.837576893373315,0.2063233829256086,0.128149829438352,-0.00657685799524188,0.05619587376713753,-0.1628111004829407,0.01990029215812683,-0.002235949039459229,-0.009734690189361572,XArbitraryZVertical,0.01639586173341075,0.1197866114133303,0.4096859061794208,0.9041790774800912,0.2031827867031097,-0.1277993619441986,-0.970764696598053,0,0,0,-1,-1,5803.677212000001,unknown,2,2022-06-30T10:06:11.074+02:00,2022-06-30T08:20:05.567+02:00,1540,1.509928,0,0,1217.191,0,0,2022-06-30T10:06:13.625+02:00
2022-06-30T10:06:14.041+02:00,5806.643245041667,0.1878814697265625,-0.1768035888671875,-0.9745025634765625,5806.633294041667,0.8359769452454368,0.206794122234258,0.1297133763381796,-0.03919152915477753,0.06735718250274658,-0.1801621317863464,0.01518164575099945,-0.01522700488567352,-0.007295846939086914,XArbitraryZVertical,0.01710670801435547,0.1202965916669144,0.4090195935803421,0.9043997859317452,0.2035984694957733,-0.1293499320745468,-0.9704721570014954,0,0,0,-1,-1,5803.677212000001,unknown,2,2022-06-30T10:06:11.074+02:00,2022-06-30T08:20:05.567+02:00,1540,1.509928,0,0,1217.191,0,0,2022-06-30T10:06:13.625+02:00
2022-06-30T10:06:14.051+02:00,5806.653196041667,0.1680450439453125,-0.1845855712890625,-0.9664306640625,5806.643245041667,0.8342575333470482,0.2073095501798669,0.1304603618362414,-0.07963408529758453,0.08160573244094849,-0.2057701200246811,-0.0009541064500808716,-0.02657128870487213,-0.003574252128601074,XArbitraryZVertical,0.01744485246632259,0.1206628803324915,0.4082717950958184,0.9046824750226318,0.2040787041187286,-0.1300906091928482,-0.9702723026275635,0,0,0,-1,-1,5803.677212000001,unknown,2,2022-06-30T10:06:11.074+02:00,2022-06-30T08:20:05.567+02:00,1540,1.509928,0,0,1217.191,0,0,2022-06-30T10:06:13.625+02:00
2022-06-30T10:06:14.061+02:00,5806.663148041667,0.1469573974609375,-0.1846771240234375,-0.9722137451171875,5806.653196041667,0.8323646557304339,0.2082104962856082,0.1303279474479779,-0.1346062570810318,0.1012513414025307,-0.2299982309341431,-0.01707528531551361,-0.04684416949748993,-0.004397749900817871,XArbitraryZVertical,0.01731522699556071,0.1210278675971263,0.4074187291273621,0.9050206454867783,0.2049563378095627,-0.1299593150615692,-0.9701048731803894,0,0,0,-1,-1,5803.677212000001,unknown,2,2022-06-30T10:06:11.074+02:00,2022-06-30T08:20:05.567+02:00,1540,1.509928,0,0,1217.191,0,0,2022-06-30T10:06:13.625+02:00
2022-06-30T10:06:14.071+02:00,5806.673099041667,0.1212921142578125,-0.1905975341796875,-0.98272705078125,5806.663148041667,0.8303284931263692,0.209726526441714,0.1291866999079477,-0.1687619686126709,0.1351789981126785,-0.2516008019447327,-0.0384129136800766,-0.05575782060623169,0.003506720066070557,XArbitraryZVertical,0.01661054944090669,0.1214716058661411,0.4064705298251615,0.9054007085141415,0.2064575552940369,-0.1288276612758636,-0.9699375033378601,0,0,0,-1,-1,5803.677212000001,unknown,2,2022-06-30T10:06:11.074+02:00,2022-06-30T08:20:05.567+02:00,1540,1.509928,0,0,1217.191,0,0,2022-06-30T10:06:13.625+02:00
2022-06-30T10:06:14.080+02:00,5806.683051041667,0.0857696533203125,-0.2085418701171875,-0.9999847412109375,5806.673099041667,0.8280058245110862,0.2117352823219968,0.1272167746835119,-0.186590775847435,0.1695231199264526,-0.2956036627292633,-0.06150145828723907,-0.05780312418937683,-0.002446830272674561,XArbitraryZVertical,0.0154468671985629,0.1219749056497549,0.4053655335458149,0.9058490031249806,0.2084584385156631,-0.1268739104270935,-0.9697670340538025,0,0,0,-1,-1,5803.677212000001,unknown,2,2022-06-30T10:06:11.074+02:00,2022-06-30T08:20:05.567+02:00,1540,1.509928,0,0,1217.191,0,0,2022-06-30T10:06:13.625+02:00
2022-06-30T10:06:14.091+02:00,5806.693002041667,0.035247802734375,-0.2495269775390625,-1.019256591796875,5806.683051041667,0.8251708105403306,0.2142247189981024,0.1246557659217307,-0.1946776509284973,0.2111908346414566,-0.3601431548595428,-0.08964864909648895,-0.06626427173614502,-0.01316773891448975,XArbitraryZVertical,0.01394929836827972,0.1225794254408407,0.4040071774799072,0.9063983617381505,0.210940346121788,-0.1243331804871559,-0.9695594310760498,0,0,0,-1,-1,5803.677212000001,unknown,2,2022-06-30T10:06:11.074+02:00,2022-06-30T08:20:05.567+02:00,1540,1.509928,0,0,1217.191,0,0,2022-06-30T10:06:13.625+02:00
2022-06-30T10:06:14.101+02:00,5806.702953041667,-0.0177459716796875,-0.3158111572265625,-1.048980712890625,5806.693002041667,0.8216528595287587,0.2171613845952301,0.1217553117835755,-0.2182234525680542,0.272114098072052,-0.4507255256175995,-0.1280942559242249,-0.08708707243204117,-0.03070098161697388,XArbitraryZVertical,0.01225091671619906,0.1233207060022985,0.4023242318988417,0.9070706520689621,0.2138635069131851,-0.1214547082781792,-0.9692838191986084,0,0,0,-1,-1,5803.677212000001,unknown,2,2022-06-30T10:06:11.074+02:00,2022-06-30T08:20:05.567+02:00,1540,1.509928,0,0,1217.191,0,0,2022-06-30T10:06:13.625+02:00
2022-06-30T10:06:14.110+02:00,5806.712905041667,-0.07269287109375,-0.3833770751953125,-1.060287475585938,5806.702953041667,0.8172120989182105,0.2208313453947586,0.118262458469121,-0.2899574935436249,0.3537211716175079,-0.5682470798492432,-0.182263508439064,-0.1315398961305618,-0.05035620927810669,XArbitraryZVertical,0.01019551239236588,0.1242812335672153,0.4001965893969513,0.9079057971584089,0.2175108790397644,-0.1179869845509529,-0.9689004421234131,0,0,0,-1,-1,5803.677212000001,unknown,2,2022-06-30T10:06:11.074+02:00,2022-06-30T08:20:05.567+02:00,1540,1.509928,0,0,1217.191,0,0,2022-06-30T10:06:13.625+02:00
2022-06-30T10:06:14.120+02:00,5806.722856041667,-0.1268157958984375,-0.4304656982421875,-1.062759399414062,5806.712905041667,0.8118092997032863,0.2255151192078463,0.1133475398633414,-0.4449947476387024,0.4649656713008881,-0.7053314447402954,-0.2399199604988098,-0.2027060836553574,-0.08055621385574341,XArbitraryZVertical,0.007353717797717429,0.1254337748416995,0.3975682487862756,0.9089290041757141,0.2221735864877701,-0.113104984164238,-0.9684245586395264,0,0,0,-1,-1,5803.677212000001,unknown,2,2022-06-30T10:06:11.074+02:00,2022-06-30T08:20:05.567+02:00,1540,1.509928,0,0,1217.191,0,0,2022-06-30T10:06:13.625+02:00
2022-06-30T10:06:14.130+02:00,5806.732808041667,-0.1633453369140625,-0.46075439453125,-1.047348022460938,5806.722856041667,0.8054084607671491,0.2315143135639521,0.1062354238860282,-0.6608747839927673,0.6069009900093079,-0.8638448715209961,-0.3008514046669006,-0.2773412764072418,-0.09245479106903076,XArbitraryZVertical,0.003317639197690445,0.1267777599987137,0.3943774282507708,0.9101554065242726,0.2281581163406372,-0.1060357093811035,-0.9678328037261963,0,0,0,-1,-1,5803.677212000001,unknown,2,2022-06-30T10:06:11.074+02:00,2022-06-30T08:20:05.567+02:00,1540,1.509928,0,0,1217.191,0,0,2022-06-30T10:06:13.625+02:00
2022-06-30T10:06:14.140+02:00,5806.742759041667,-0.1898345947265625,-0.4838409423828125,-1.037765502929688,5806.732808041667,0.7980844289982484,0.2390483219470362,0.0962352021701981,-0.9572936296463013,0.7638291120529175,-1.030966997146606,-0.3624987602233887,-0.3343788981437683,-0.09569120407104492,XArbitraryZVertical,-0.002271449791699319,0.1282992255614415,0.3906021646791094,0.9115724254518758,0.2356825321912766,-0.09608672559261322,-0.9670683145523071,0,0,0,-1,-1,5803.677212000001,unknown,2,2022-06-30T10:06:11.074+02:00,2022-06-30T08:20:05.567+02:00,1540,1.509928,0,0,1217.191,0,0,2022-06-30T10:06:13.625+02:00
2022-06-30T10:06:14.150+02:00,5806.752710041667,-0.1959686279296875,-0.50311279296875,-1.039047241210938,5806.742759041667,0.7898748791411431,0.2483020969775773,0.08263857316761614,-1.298198103904724,0.9564266204833984,-1.227018713951111,-0.4082655310630798,-0.3782097697257996,-0.0813249945640564,XArbitraryZVertical,-0.009769644757659757,0.1299730244706648,0.3861846428604871,0.9131665249157186,0.2449198067188263,-0.08254455029964447,-0.9660231471061707,0,0,0,-1,-1,5803.677212000001,unknown,2,2022-06-30T10:06:11.074+02:00,2022-06-30T08:20:05.567+02:00,1540,1.509928,0,0,1217.191,0,0,2022-06-30T10:06:13.625+02:00
2022-06-30T10:06:14.161+02:00,5806.762662041667,-0.196563720703125,-0.4817962646484375,-1.036346435546875,5806.752710041667,0.7807423543078159,0.2594337315038658,0.06514802495905231,-1.642337679862976,1.146328568458557,-1.426707029342651,-0.4458240568637848,-0.4187389016151428,-0.07328057289123535,XArbitraryZVertical,-0.0193319063733603,0.1318475266331099,0.3810303624961313,0.914909025583156,0.2559890747070312,-0.06510195136070251,-0.9644849896430969,0,0,0,-1,-1,5803.677212000001,unknown,2,2022-06-30T10:06:11.074+02:00,2022-06-30T08:20:05.567+02:00,1540,1.509928,0,0,1217.191,0,0,2022-06-30T10:06:13.625+02:00
2022-06-30T10:06:14.170+02:00,5806.772613041667,-0.192413330078125,-0.4257354736328125,-0.989776611328125,5806.762662041667,0.7709306778017531,0.2722397631651838,0.04372179173478232,-1.997448205947876,1.324756383895874,-1.599219441413879,-0.4646014869213104,-0.459404855966568,-0.07679671049118042,XArbitraryZVertical,-0.03094181429854294,0.1338554963628623,0.3751720548166459,0.9167177359312806,0.2686324119567871,-0.04370786249637604,-0.9622506499290466,0,0,0,-1,-1,5803.677212000001,unknown,2,2022-06-30T10:06:11.074+02:00,2022-06-30T08:20:05.567+02:00,1540,1.509928,0,0,1217.191,0,0,2022-06-30T10:06:13.625+02:00
2022-06-30T10:06:14.180+02:00,5806.782565041667,-0.1503753662109375,-0.356689453125,-0.954437255859375,5806.772613041667,0.7608525306241587,0.2866084233999883,0.0182422024950895,-2.359429836273193,1.500502109527588,-1.760332942008972,-0.4792177379131317,-0.4635550081729889,-0.07729792594909668,XArbitraryZVertical,-0.04464496335466143,0.1359504615435818,0.3687042952503334,0.9184669592903989,0.2826535999774933,-0.01824119128286839,-0.9590485692024231,0,0,0,-1,-1,5803.677212000001,unknown,2,2022-06-30T10:06:11.074+02:00,2022-06-30T08:20:05.567+02:00,1540,1.509928,0,0,1217.191,0,0,2022-06-30T10:06:13.625+02:00
2022-06-30T10:06:14.190+02:00,5806.792516041667,-0.0834808349609375,-0.254180908203125,-0.9447021484375,5806.782565041667,0.750752104657667,0.3023640029364473,-0.01119070252259813,-2.70611572265625,1.660620808601379,-1.890945911407471,-0.4901728928089142,-0.4369258880615234,-0.0352013111114502,XArbitraryZVertical,-0.06036128459912012,0.1380898116989994,0.3616509361791658,0.9200523899151958,0.2977591454982758,0.01119046937674284,-0.9545754194259644,0,0,0,-1,-1,5803.677212000001,unknown,2,2022-06-30T10:06:11.074+02:00,2022-06-30T08:20:05.567+02:00,1540,1.509928,0,0,1217.191,0,0,2022-06-30T10:06:13.625+02:00
2022-06-30T10:06:14.200+02:00,5806.802467041667,-0.0003509521484375,-0.1497344970703125,-0.9184112548828125,5806.792516041667,0.7410587755952148,0.3194383909751756,-0.04418718120934669,-3.002216815948486,1.836660265922546,-1.994499206542969,-0.4641026556491852,-0.4008622169494629,-0.005952179431915283,XArbitraryZVertical,-0.07790655095528348,0.1403137912104264,0.3541376994436193,0.9213192471950173,0.3137268722057343,0.04417280480265617,-0.9484851956367493,0,0,0,-1,-1,5803.677212000001,unknown,2,2022-06-30T10:06:11.074+02:00,2022-06-30T08:20:05.567+02:00,1540,1.509928,0,0,1217.191,0,0,2022-06-30T10:06:13.625+02:00
2022-06-30T10:06:14.210+02:00,5806.812419041667,0.1012725830078125,-0.03863525390625,-0.8959808349609375,5806.802467041667,0.7317999379637393,0.3380172739339966,-0.080195427151468,-3.236974954605103,2.007660388946533,-2.096377849578857,-0.4140326678752899,-0.3342903256416321,-0.004320323467254639,XArbitraryZVertical,-0.09703369013228456,0.1428057637943539,0.3461120832594548,0.9221698934287526,0.330551415681839,0.08010949194431305,-0.9403819441795349,0,0,0,-1,-1,5803.677212000001,unknown,2,2022-06-30T10:06:11.074+02:00,2022-06-30T08:20:05.567+02:00,1540,1.509928,0,0,1217.191,0,0,2022-06-30T10:06:13.625+02:00
2022-06-30T10:06:14.220+02:00,5806.822370041667,0.181976318359375,0.0622406005859375,-0.885467529296875,5806.812419041667,0.7229976687293816,0.3575949638463741,-0.1185575307586866,-3.401128053665161,2.100289344787598,-2.181352615356445,-0.3479166626930237,-0.2680144309997559,0.01175433397293091,XArbitraryZVertical,-0.117321183259539,0.1454403532978926,0.3375717073590255,0.9225660621179329,0.3475652933120728,0.1182799860835075,-0.930165708065033,0,0,0,-1,-1,5803.677212000001,unknown,2,2022-06-30T10:06:11.074+02:00,2022-06-30T08:20:05.567+02:00,1540,1.509928,0,0,1217.191,0,0,2022-06-30T10:06:13.625+02:00
2022-06-30T10:06:14.230+02:00,5806.832322041667,0.2499237060546875,0.175537109375,-0.831878662109375,5806.822370041667,0.7146977526786386,0.3777791054507985,-0.1581860978408669,-3.417872190475464,2.183813810348511,-2.214856863021851,-0.2629795968532562,-0.1961624026298523,0.02190017700195312,XArbitraryZVertical,-0.1381772462911444,0.1482108988500947,0.3285976372500432,0.9224771841752141,0.3642517924308777,0.1575272083282471,-0.9178811311721802,0,0,0,-1,-1,5803.677212000001,unknown,2,2022-06-30T10:06:11.074+02:00,2022-06-30T08:20:05.567+02:00,1540,1.509928,0,0,1217.191,0,0,2022-06-30T10:06:13.625+02:00
2022-06-30T10:06:14.240+02:00,5806.842273041667,0.3072967529296875,0.2954254150390625,-0.7455902099609375,5806.832322041667,0.7070379292344131,0.398410258835217,-0.1978716212863917,-3.383770704269409,2.24207067489624,-2.200194120407104,-0.1984076201915741,-0.134342297911644,0.0182267427444458,XArbitraryZVertical,-0.1590085860834876,0.1512252846462568,0.3193576329440294,0.9218773484351228,0.3803835511207581,0.1965829282999039,-0.9036943912506104,0,0,0,-1,-1,5803.677212000001,unknown,2,2022-06-30T10:06:11.074+02:00,2022-06-30T08:20:05.567+02:00,1540,1.509928,0,0,1217.191,0,0,2022-06-30T10:06:13.625+02:00
2022-06-30T10:06:14.250+02:00,5806.852224041667,0.355438232421875,0.3818359375,-0.6722412109375,5806.842273041667,0.7004141194011343,0.4194511142308202,-0.2373654104918873,-3.392265319824219,2.278458595275879,-2.149416923522949,-0.1459167003631592,-0.05960556864738464,0.05582529306411743,XArbitraryZVertical,-0.179706793108616,0.1544455166811194,0.3100593920967655,0.920714481351842,0.3958400189876556,0.2351427227258682,-0.887704074382782,0,0,0,-1,-1,5803.677212000001,unknown,2,2022-06-30T10:06:11.074+02:00,2022-06-30T08:20:05.567+02:00,1540,1.509928,0,0,1217.191,0,0,2022-06-30T10:06:13.625+02:00
2022-06-30T10:06:14.260+02:00,5806.862176041667,0.4297027587890625,0.4657135009765625,-0.6139678955078125,5806.852224041667,0.695127079150745,0.4410937240972403,-0.2769691701584747,-3.409653425216675,2.35205078125,-2.096201419830322,-0.1033615469932556,0.02198389172554016,0.1242313385009766,XArbitraryZVertical,-0.2004436219865483,0.1578338080201611,0.3007830585865688,0.9189343507897985,0.4106579124927521,0.2734415829181671,-0.8698216676712036,0,0,0,-1,-1,5803.677212000001,unknown,2,2022-06-30T10:06:11.074+02:00,2022-06-30T08:20:05.567+02:00,1540,1.509928,0,0,1217.191,0,0,2022-06-30T10:06:13.625+02:00
2022-06-30T10:06:14.270+02:00,5806.872127125001,0.5098419189453125,0.546844482421875,-0.60614013671875,5806.862176041667,0.6917294909257665,0.4639895657335034,-0.3165161817014115,-3.456393003463745,2.454773902893066,-1.953781962394714,-0.06985127925872803,0.07057827711105347,0.1776102185249329,XArbitraryZVertical,-0.2212646486742745,0.161604903896451,0.2917159815207612,0.9164210446404103,0.425289124250412,0.3112576901912689,-0.8498516082763672,0,0,0,-1,-1,5803.677212000001,unknown,2,2022-06-30T10:06:11.074+02:00,2022-06-30T08:20:05.567+02:00,1540,1.509928,0,0,1217.191,0,0,2022-06-30T10:06:13.625+02:00
2022-06-30T10:06:14.280+02:00,5806.882079125,0.597076416015625,0.6238555908203125,-0.55841064453125,5806.872127125001,0.6909306375926331,0.4884732206671129,-0.3558000551798517,-3.486966371536255,2.510411739349365,-1.802802205085754,-0.01018404960632324,0.1173731088638306,0.2137751579284668,XArbitraryZVertical,-0.2421609591584555,0.1657903640555545,0.2831345278565846,0.913075289424476,0.4398864209651947,0.3483404219150543,-0.8277432322502136,0,0,0,-1,-1,5803.677212000001,unknown,2,2022-06-30T10:06:11.074+02:00,2022-06-30T08:20:05.567+02:00,1540,1.509928,0,0,1217.191,0,0,2022-06-30T10:06:13.625+02:00
2022-06-30T10:06:14.290+02:00,5806.892030125,0.624359130859375,0.69793701171875,-0.4566650390625,5806.882079125,0.692557477289418,0.5138971734527169,-0.3946525394670381,-3.499454498291016,2.484078884124756,-1.68546724319458,0.05605402588844299,0.1623570621013641,0.1977541446685791,XArbitraryZVertical,-0.2629350129294684,0.170052776462553,0.2750226817661751,0.9090158755027846,0.4537875354290009,0.3844874501228333,-0.8038944602012634,0,0,0,-1,-1,5803.677212000001,unknown,2,2022-06-30T10:06:11.074+02:00,2022-06-30T08:20:05.567+02:00,1540,1.509928,0,0,1217.191,0,0,2022-06-30T10:06:13.625+02:00
2022-06-30T10:06:14.299+02:00,5806.901982125,0.6360626220703125,0.7594146728515625,-0.44049072265625,5806.892030125,0.6960150031803909,0.5400280297518911,-0.4327039802292748,-3.427346467971802,2.496761798858643,-1.612958192825317,0.1303034424781799,0.2045285403728485,0.2202342748641968,XArbitraryZVertical,-0.283333911251814,0.1743540729561928,0.267177831284864,0.9043996618440565,0.4667726159095764,0.4193271100521088,-0.7786450982093811,0,0,0,-1,-1,5803.677212000001,unknown,2,2022-06-30T10:06:11.074+02:00,2022-06-30T08:20:05.567+02:00,1540,1.509928,0,0,1217.191,0,0,2022-06-30T10:06:13.625+02:00
2022-06-30T10:06:14.309+02:00,5806.911933125,0.674468994140625,0.8083038330078125,-0.4123992919921875,5806.901982125,0.7009692066433448,0.5671759945422696,-0.4696227119042057,-3.357118129730225,2.523346900939941,-1.514232993125916,0.1452698111534119,0.2453871667385101,0.2954467535018921,XArbitraryZVertical,-0.3032218254816994,0.1788869118708654,0.2594517620884832,0.8993002452651978,0.4790889620780945,0.4525498747825623,-0.7521119713783264,0,0,0,-1,-1,5803.677212000001,unknown,2,2022-06-30T10:06:11.074+02:00,2022-06-30T08:20:05.567+02:00,1540,1.509928,0,0,1217.191,0,0,2022-06-30T10:06:13.625+02:00
2022-06-30T10:06:14.319+02:00,5806.921884125,0.7071075439453125,0.8237762451171875,-0.37835693359375,5806.911933125,0.7080495265065667,0.5955148386441182,-0.5053061493892526,-3.337353944778442,2.500738620758057,-1.368516564369202,0.1452293395996094,0.2753393650054932,0.2839082479476929,XArbitraryZVertical,-0.3226318413804333,0.1836004239516839,0.2521106140589661,0.8936665714056434,0.4908329546451569,0.4840753376483917,-0.7243991494178772,0,0,0,-1,-1,5803.677212000001,unknown,2,2022-06-30T10:06:11.074+02:00,2022-06-30T08:20:05.567+02:00,1540,1.509928,0,0,1217.191,0,0,2022-06-30T10:06:13.625+02:00
2022-06-30T10:06:14.334+02:00,5806.931836125001,0.7451019287109375,0.8315277099609375,-0.29388427734375,5806.921884125,0.7177589819542123,0.62496796689259,-0.5399751375987929,-3.342871427536011,2.448215007781982,-1.241417169570923,0.1726404428482056,0.2941892743110657,0.2831970453262329,XArbitraryZVertical,-0.34169678093411,0.188268452736665,0.2453373462070624,0.8874728498710294,0.5018282532691956,0.5141146779060364,-0.6955965757369995,0,0,0,-1,-1,5803.677212000001,unknown,2,2022-06-30T10:06:11.074+02:00,2022-06-30T08:20:05.567+02:00,1540,1.509928,0,0,1217.191,0,0,2022-06-30T10:06:13.625+02:00
2022-06-30T10:06:14.339+02:00,5806.941787125001,0.773651123046875,0.847442626953125,-0.218780517578125,5806.931836125001,0.7298652750575191,0.6554908589278475,-0.5735887165982877,-3.296838045120239,2.399760007858276,-1.137077927589417,0.1951114535331726,0.2811264395713806,0.2875193953514099,XArbitraryZVertical,-0.3603774287230392,0.1928466782170313,0.239023827697309,0.8807985227430392,0.5119957327842712,0.5426499247550964,-0.6658765077590942,0,0,0,-1,-1,5803.677212000001,unknown,2,2022-06-30T10:06:11.074+02:00,2022-06-30T08:20:05.567+02:00,1540,1.509928,0,0,1217.191,0,0,2022-06-30T10:06:13.625+02:00
2022-06-30T10:06:14.353+02:00,5806.951739125,0.7950286865234375,0.85137939453125,-0.1529693603515625,5806.941787125001,0.743892051003279,0.6869080802612144,-0.6057209841226047,-3.220028400421143,2.35407280921936,-1.04188597202301,0.2237724661827087,0.2621728777885437,0.3417655229568481,XArbitraryZVertical,-0.3784418292320577,0.1973747289899596,0.2330629194965707,0.8737887165153588,0.5213291645050049,0.5693549513816833,-0.6356499791145325,0,0,0,-1,-1,5803.677212000001,unknown,2,2022-06-30T10:06:11.074+02:00,2022-06-30T08:20:05.567+02:00,1540,1.509928,0,0,1217.191,0,0,2022-06-30T10:06:13.625+02:00
2022-06-30T10:06:14.359+02:00,5806.961690125,0.81829833984375,0.835296630859375,-0.1068878173828125,5806.951739125,0.7600119703639989,0.7195178811857739,-0.6364815061638592,-3.209120035171509,2.309408187866211,-0.9408221840858459,0.2436704039573669,0.2530730962753296,0.3860710263252258,XArbitraryZVertical,-0.3959997707738868,0.2018868142920565,0.2274506746438727,0.8664249533695146,0.5299803614616394,0.5943695902824402,-0.6048517823219299,0,0,0,-1,-1,5803.677212000001,unknown,2,2022-06-30T10:06:11.074+02:00,2022-06-30T08:20:05.567+02:00,1540,1.509928,0,0,1217.191,0,0,2022-06-30T10:06:13.625+02:00
2022-06-30T10:06:14.369+02:00,5806.971641125,0.834320068359375,0.8015289306640625,-0.073028564453125,5806.961690125,0.7793773713390392,0.7537906836182888,-0.6664285298212704,-3.359784841537476,2.212994575500488,-0.8008462190628052,0.2570604681968689,0.2331968545913696,0.4201279878616333,XArbitraryZVertical,-0.4134501481729315,0.2061799907072768,0.2224536784075016,0.8585238566918558,0.5379679203033447,0.6181826591491699,-0.5730975866317749,0,0,0,-1,-1,5803.677212000001,unknown,2,2022-06-30T10:06:11.074+02:00,2022-06-30T08:20:05.567+02:00,1540,1.509928,0,0,1217.191,0,0,2022-06-30T10:06:13.625+02:00
2022-06-30T10:06:14.379+02:00,5806.981593125,0.827301025390625,0.7727813720703125,0.0102996826171875,5806.971641125,0.8040800320298249,0.790798302415069,-0.6962150444313407,-3.62508225440979,2.100480556488037,-0.6084480285644531,0.2728306651115417,0.193978488445282,0.4327196478843689,XArbitraryZVertical,-0.4313771699514157,0.2100235875425953,0.2185313986955361,0.8497339842253224,0.5454672574996948,0.6413182020187378,-0.5396076440811157,0,0,0,-1,-1,5803.677212000001,unknown,2,2022-06-30T10:06:11.074+02:00,2022-06-30T08:20:05.567+02:00,1540,1.509928,0,0,1217.191,0,0,2022-06-30T10:06:13.625+02:00
2022-06-30T10:06:14.389+02:00,5806.991544125,0.810577392578125,0.8038787841796875,0.07794189453125,5806.981593125,0.835003061930795,0.8316937593996848,-0.7257114399518212,-3.85322117805481,2.065361022949219,-0.4543625712394714,0.2814725637435913,0.1378612518310547,0.4308611750602722,XArbitraryZVertical,-0.4499386543295074,0.2135654998624904,0.2156997216910739,0.8398920804901566,0.5528472065925598,0.6636677980422974,-0.5038899779319763,0,0,0,-1,-1,5803.677212000001,unknown,2,2022-06-30T10:06:11.074+02:00,2022-06-30T08:20:05.567+02:00,1540,1.509928,0,0,1217.191,0,0,2022-06-30T10:06:13.625+02:00
2022-06-30T10:06:14.399+02:00,5807.001496125,0.816986083984375,0.8883514404296875,0.128265380859375,5806.991544125,0.8709033350270109,0.8762463900932388,-0.7544817535991952,-3.955843210220337,2.007939338684082,-0.4118164479732513,0.2674663662910461,0.08787035942077637,0.4766494631767273,XArbitraryZVertical,-0.4688067960234698,0.2168990206235533,0.2134312719923375,0.8292298947745342,0.559834361076355,0.6849111318588257,-0.4663500189781189,0,0,0,-1,-1,5803.677212000001,unknown,2,2022-06-30T10:06:11.074+02:00,2022-06-30T08:20:05.567+02:00,1540,1.509928,0,0,1217.191,0,0,2022-06-30T10:06:13.625+02:00
2022-06-30T10:06:14.409+02:00,5807.011447125,0.8280181884765625,0.9607086181640625,0.1576385498046875,5807.001496125,0.9101759175588137,0.922785131061995,-0.782102240437458,-3.918912887573242,1.85363781452179,-0.3956192135810852,0.2449557781219482,0.09910649061203003,0.5061571598052979,XArbitraryZVertical,-0.4874762418473921,0.2196797329976637,0.2114480559725033,0.8181671348540381,0.5656212568283081,0.7047723531723022,-0.4282154440879822,0,0,0,-1,-1,5803.677212000001,unknown,2,2022-06-30T10:06:11.074+02:00,2022-06-30T08:20:05.567+02:00,1540,1.509928,0,0,1217.191,0,0,2022-06-30T10:06:13.625+02:00
2022-06-30T10:06:14.419+02:00,5807.021398125,0.8310089111328125,1.01611328125,0.181976318359375,5807.011447125,0.9511362187468415,0.969723832243127,-0.8070260834180444,-3.658112525939941,1.717241048812866,-0.2696287930011749,0.2465620040893555,0.1661181449890137,0.5194118022918701,XArbitraryZVertical,-0.5051011890023418,0.2220347926500471,0.209838344872401,0.8071811235558006,0.5704237818717957,0.7222334742546082,-0.3911466896533966,0,0,0,-1,-1,5803.677212000001,unknown,2,2022-06-30T10:06:11.074+02:00,2022-06-30T08:20:05.567+02:00,1540,1.509928,0,0,1217.191,0,0,2022-06-30T10:06:13.625+02:00
2022-06-30T10:06:14.429+02:00,5807.031350125,0.7974395751953125,0.99755859375,0.1357269287109375,5807.021398125,0.9919968657758484,1.015980812818219,-0.8271381309253012,-3.244719266891479,1.588856816291809,-0.05372107028961182,0.2525822520256042,0.2247118353843689,0.5142648816108704,XArbitraryZVertical,-0.5207951895614702,0.2246310116157135,0.2088310985967725,0.7966825003815606,0.5754356384277344,0.7359969615936279,-0.356626570224762,0,0,0,-1,-1,5803.677212000001,unknown,2,2022-06-30T10:06:11.074+02:00,2022-06-30T08:20:05.567+02:00,1540,1.509928,0,0,1217.191,0,0,2022-06-30T10:06:13.625+02:00
2022-06-30T10:06:14.439+02:00,5807.041301125,0.7586517333984375,0.90130615234375,0.1417388916015625,5807.031350125,1.029886916828227,1.059111527542396,-0.8424363595729993,-2.709058046340942,1.428207039833069,-0.01481228694319725,0.2506173849105835,0.2698463797569275,0.5079079866409302,XArbitraryZVertical,-0.5341435478773238,0.2274306779022162,0.2081217309522309,0.7871794237892565,0.5803912878036499,0.7462670803070068,-0.3259319067001343,0,0,0,-1,-1,5803.677212000001,unknown,2,2022-06-30T10:06:11.074+02:00,2022-06-30T08:20:05.567+02:00,1540,1.509928,0,0,1217.191,0,0,2022-06-30T10:06:13.625+02:00
2022-06-30T10:06:14.449+02:00,5807.051253125001,0.708984375,0.790924072265625,0.174102783203125,5807.041301125,1.062454839647127,1.096678278742681,-0.8544434013952763,-2.284338235855103,1.211063742637634,-0.05617141351103783,0.2132308483123779,0.2433531880378723,0.4355176091194153,XArbitraryZVertical,-0.5452035969045476,0.2299077713656545,0.2072450175915927,0.779066787185657,0.5842084884643555,0.7542055249214172,-0.2997909188270569,0,0,0,-1,-1,5803.677212000001,unknown,2,2022-06-30T10:06:11.074+02:00,2022-06-30T08:20:05.567+02:00,1540,1.509928,0,0,1217.191,0,0,2022-06-30T10:06:13.625+02:00
2022-06-30T10:06:14.459+02:00,5807.061204125001,0.661041259765625,0.7646942138671875,0.318603515625,5807.051253125001,1.091972481244433,1.130100283274218,-0.8644358230959724,-2.093550682067871,1.018253564834595,-0.02270106971263885,0.1715973019599915,0.1405771374702454,0.4186116456985474,XArbitraryZVertical,-0.5548150707489895,0.2318269532426367,0.2065321250308269,0.7718685617000839,0.5870541334152222,0.760729193687439,-0.276872992515564,0,0,0,-1,-1,5803.677212000001,unknown,2,2022-06-30T10:06:11.074+02:00,2022-06-30T08:20:05.567+02:00,1540,1.509928,0,0,1217.191,0,0,2022-06-30T10:06:13.625+02:00
2022-06-30T10:06:14.469+02:00,5807.071155125001,0.642333984375,0.84649658203125,0.4828948974609375,5807.061204125001,1.121037169172385,1.161644004080313,-0.8726592383231514,-2.050100803375244,0.8626219034194946,0.07493717223405838,0.1192492842674255,0.02488327026367188,0.4298256039619446,XArbitraryZVertical,-0.5636262704670496,0.2333750451918883,0.20639518636146,0.7650246245194872,0.5897347927093506,0.7660409808158875,-0.2557230293750763,0,0,0,-1,-1,5803.677212000001,unknown,2,2022-06-30T10:06:11.074+02:00,2022-06-30T08:20:05.567+02:00,1540,1.509928,0,0,1217.191,0,0,2022-06-30T10:06:13.625+02:00
2022-06-30T10:06:14.479+02:00,5807.081107125,0.678314208984375,0.9168853759765625,0.6969146728515625,5807.071155125001,1.151915460006456,1.193055780764451,-0.8796351013972705,-2.153920888900757,0.6750869154930115,0.1510489881038666,0.06854724884033203,-0.005811929702758789,0.5537019371986389,XArbitraryZVertical,-0.5722575108886677,0.2344611233009991,0.2070923220745943,0.7580647806644506,0.5924937129020691,0.7705063223838806,-0.2350986450910568,0,0,0,-1,-1,5803.677212000001,unknown,2,2022-06-30T10:06:11.074+02:00,2022-06-30T08:20:05.567+02:00,1540,1.509928,0,0,1217.191,0,0,2022-06-30T10:06:13.625+02:00
2022-06-30T10:06:14.489+02:00,5807.091058125,0.7408447265625,0.9850616455078125,0.8988494873046875,5807.081107125,1.184339772384763,1.223455095897197,-0.8855089915046135,-2.119786977767944,0.3874207437038422,0.2184341251850128,0.0472339391708374,0.07225954532623291,0.6983317136764526,XArbitraryZVertical,-0.580652495854051,0.2347853406857672,0.2087360994597812,0.751097760296036,0.5950997471809387,0.7742372155189514,-0.215437039732933,0,0,0,-1,-1,5803.677212000001,unknown,2,2022-06-30T10:06:11.074+02:00,2022-06-30T08:20:05.567+02:00,1540,1.509928,0,0,1217.191,0,0,2022-06-30T10:06:13.625+02:00
2022-06-30T10:06:14.498+02:00,5807.101010125,0.8091278076171875,1.005386352539062,1.127166748046875,5807.091058125,1.216270124694339,1.249986056668683,-0.8899113989120037,-1.990288853645325,-0.06189367547631264,0.269979327917099,0.08094900846481323,0.1398695111274719,0.8954120874404907,XArbitraryZVertical,-0.5882100870458453,0.2340086352012319,0.211537227741346,0.7446481054091566,0.5973648428916931,0.7770159840583801,-0.1984976977109909,0,0,0,-1,-1,5803.677212000001,unknown,2,2022-06-30T10:06:11.074+02:00,2022-06-30T08:20:05.567+02:00,1540,1.509928,0,0,1217.191,0,0,2022-06-30T10:06:13.625+02:00
2022-06-30T10:06:14.508+02:00,5807.110961125,0.8038330078125,0.967132568359375,1.354080200195312,5807.101010125,1.246153151076194,1.2694241905574,-0.8931323502203865,-1.821224689483643,-0.7195203304290771,0.2613392770290375,0.1421271562576294,0.2060223817825317,1.084954738616943,XArbitraryZVertical,-0.5944865447709875,0.2313720160128154,0.2158528359635895,0.7392295842600658,0.5987172722816467,0.7790394425392151,-0.1861054748296738,0,0,0,-1,-1,5803.677212000001,unknown,2,2022-06-30T10:06:11.074+02:00,2022-06-30T08:20:05.567+02:00,1540,1.509928,0,0,1217.191,0,0,2022-06-30T10:06:13.625+02:00
2022-06-30T10:06:14.518+02:00,5807.120912125,0.714508056640625,0.8321075439453125,1.35821533203125,5807.110961125,1.275511325180205,1.281511092745935,-0.8962295343179834,-1.930505156517029,-1.458881974220276,0.2176610231399536,0.2105200886726379,0.2244089245796204,1.305332779884338,XArbitraryZVertical,-0.5998385642599389,0.226076488961938,0.222073051902644,0.7346881580608644,0.5986074209213257,0.7809776067733765,-0.1781662404537201,0,0,0,-1,-1,5803.677212000001,unknown,2,2022-06-30T10:06:11.074+02:00,2022-06-30T08:20:05.567+02:00,1540,1.509928,0,0,1217.191,0,0,2022-06-30T10:06:13.625+02:00
2022-06-30T10:06:14.529+02:00,5807.130864125001,0.6024322509765625,0.8304443359375,1.341262817382812,5807.120912125,1.307341040186649,1.287770934258989,-0.9002145316557955,-2.10885214805603,-2.290805101394653,0.1403265595436096,0.2071148753166199,0.1836724281311035,1.52762508392334,XArbitraryZVertical,-0.6049128587811757,0.2175037955836459,0.2305711589988783,0.7304857536553117,0.5967177748680115,0.783460259437561,-0.1735450625419617,0,0,0,-1,-1,5803.677212000001,unknown,2,2022-06-30T10:06:11.074+02:00,2022-06-30T08:20:05.567+02:00,1540,1.509928,0,0,1217.191,0,0,2022-06-30T10:06:13.625+02:00
2022-06-30T10:06:14.538+02:00,5807.140815125001,0.4791717529296875,1.10089111328125,1.220504760742188,5807.130864125001,1.342040519503987,1.287822197164221,-0.9050262422213549,-2.31589937210083,-3.185451984405518,0.1594557762145996,0.1214078068733215,0.04566633701324463,1.530675053596497,XArbitraryZVertical,-0.609565863866632,0.2054251885546389,0.2416542654841122,0.7265212528548051,0.5930998921394348,0.7864413857460022,-0.1724599003791809,0,0,0,-1,-1,5803.677212000001,unknown,2,2022-06-30T10:06:11.074+02:00,2022-06-30T08:20:05.567+02:00,1540,1.509928,0,0,1217.191,0,0,2022-06-30T10:06:13.625+02:00
2022-06-30T10:06:14.548+02:00,5807.150767125,0.3386077880859375,1.4173583984375,1.000045776367188,5807.140815125001,1.37863273053248,1.280060540917432,-0.9097500030257363,-2.235846042633057,-4.162970066070557,0.1950278878211975,0.01425397396087646,0.04109424352645874,1.517253875732422,XArbitraryZVertical,-0.6131490179241147,0.1898753966381151,0.2557770407515455,0.7228926318502027,0.5881779193878174,0.7893502712249756,-0.1759912371635437,0,0,0,-1,-1,5803.677212000001,unknown,2,2022-06-30T10:06:11.074+02:00,2022-06-30T08:20:05.567+02:00,1540,1.509928,0,0,1217.191,0,0,2022-06-30T10:06:13.625+02:00
2022-06-30T10:06:14.558+02:00,5807.160718125,0.2722015380859375,1.535888671875,0.9149322509765625,5807.150767125,1.410256415234753,1.258711610320332,-0.9139400132120948,-1.653947830200195,-5.155486583709717,0.1524109244346619,-0.1019628047943115,0.3089755773544312,1.407994508743286,XArbitraryZVertical,-0.6139936067256968,0.1710755635312684,0.2724093308449694,0.7207900226218604,0.5811343193054199,0.7919157743453979,-0.1874900013208389,0,0,0,-1,-1,5803.677212000001,unknown,2,2022-06-30T10:06:11.074+02:00,2022-06-30T08:20:05.567+02:00,1540,1.509928,0,0,1217.191,0,0,2022-06-30T10:06:13.625+02:00
2022-06-30T10:06:14.568+02:00,5807.170669125,0.304443359375,1.514129638671875,0.9336395263671875,5807.160718125,1.429044421822128,1.218032063200941,-0.9160826114788454,-0.6363347172737122,-5.989572048187256,0.215346023440361,-0.2328274250030518,0.6241362690925598,1.210427522659302,XArbitraryZVertical,-0.6101865865169551,0.1499379390775296,0.2909606096668114,0.7214796066890873,0.5714348554611206,0.7932223081588745,-0.2103818953037262,0,0,0,-1,-1,5803.677212000001,unknown,2,2022-06-30T10:06:11.074+02:00,2022-06-30T08:20:05.567+02:00,1540,1.509928,0,0,1217.191,0,0,2022-06-30T10:06:13.625+02:00
2022-06-30T10:06:14.578+02:00,5807.180621125,0.3726806640625,1.35760498046875,0.883697509765625,5807.170669125,1.434523181519226,1.159348725139458,-0.9138447766872886,0.09730540215969086,-6.664978504180908,0.4524405896663666,-0.2875369191169739,0.7440313100814819,1.159175753593445,XArbitraryZVertical,-0.6012831703088379,0.1278152655620937,0.3114093895929358,0.7246696769348145,0.5597381591796875,0.7918576002120972,-0.2442436069250107,0,0,0,-1,-1,5803.677212000001,unknown,2,2022-06-30T10:06:11.074+02:00,2022-06-30T08:20:05.567+02:00,1540,1.509928,0,0,1217.191,0,0,2022-06-30T10:06:13.625+02:00
2022-06-30T10:06:14.588+02:00,5807.190572125,0.407989501953125,1.125320434570312,0.881866455078125,5807.180621125,1.435375258708245,1.090412235579776,-0.908241575209039,0.2179622501134872,-7.347447395324707,0.5868746042251587,-0.2410678863525391,0.7257065773010254,1.217904686927795,XArbitraryZVertical,-0.5890379702583394,0.1044109411898927,0.3339318169217371,0.7284382398382077,0.5455108880996704,0.7884232997894287,-0.2842652499675751,0,0,0,-1,-1,5803.677212000001,unknown,2,2022-06-30T10:06:11.074+02:00,2022-06-30T08:20:05.567+02:00,1540,1.509928,0,0,1217.191,0,0,2022-06-30T10:06:13.625+02:00
2022-06-30T10:06:14.598+02:00,5807.200524125,0.293121337890625,1.058181762695312,0.9436187744140625,5807.190572125,1.4364906190785,1.014895745917033,-0.9018289588308394,0.2891804873943329,-8.009048461914062,0.6514541506767273,-0.154113233089447,0.5731426477432251,1.210969686508179,XArbitraryZVertical,-0.57460593094062,0.07868862487144207,0.3581989868726559,0.7316621914460804,0.5267934799194336,0.7844625115394592,-0.3272722363471985,0,0,0,-1,-1,5803.677212000001,unknown,2,2022-06-30T10:06:11.074+02:00,2022-06-30T08:20:05.567+02:00,1540,1.509928,0,0,1217.191,0,0,2022-06-30T10:06:13.625+02:00
2022-06-30T10:06:14.608+02:00,5807.210475125,-0.046234130859375,0.995697021484375,0.8880767822265625,5807.200524125,1.443094799726505,0.9373382948779467,-0.8956980705170994,-0.2840215265750885,-8.565364837646484,0.8368055820465088,-0.09573084115982056,0.3446751236915588,1.251810789108276,XArbitraryZVertical,-0.5589976650854466,0.05049209434584365,0.3843499757640488,0.7329715926725318,0.5037200450897217,0.7806455492973328,-0.369944304227829,0,0,0,-1,-1,5803.677212000001,unknown,2,2022-06-30T10:06:11.074+02:00,2022-06-30T08:20:05.567+02:00,1540,1.509928,0,0,1217.191,0,0,2022-06-30T10:06:13.625+02:00
2022-06-30T10:06:14.618+02:00,5807.220426125,-0.54547119140625,0.9870758056640625,0.716827392578125,5807.210475125,1.461596651486265,0.8651211873809527,-0.8934503985129771,-1.341740727424622,-8.821508407592773,0.9421783685684204,-0.1839273571968079,0.2789431810379028,1.350081324577332,XArbitraryZVertical,-0.544407646909451,0.01972368735948255,0.4116662195773652,0.7305903912856415,0.4770483374595642,0.7792388200759888,-0.4064625799655914,0,0,0,-1,-1,5803.677212000001,unknown,2,2022-06-30T10:06:11.074+02:00,2022-06-30T08:20:05.567+02:00,1540,1.509928,0,0,1217.191,0,0,2022-06-30T10:06:13.625+02:00
2022-06-30T10:06:14.628+02:00,5807.230378125,-1.618453979492188,-0.968353271484375,3.313339233398438,5807.220426125,1.491545621792687,0.8001152842027122,-0.9001075398804792,-2.343014717102051,-8.986318588256836,0.523034930229187,-0.4921397268772125,0.212303638458252,1.321046590805054,XArbitraryZVertical,-0.5322702675078723,-0.01426311505356771,0.4382761091977551,0.7241540950873145,0.4459052979946136,0.7833937406539917,-0.4329698383808136,0,0,0,-1,-1,5803.677212000001,unknown,2,2022-06-30T10:06:11.074+02:00,2022-06-30T08:20:05.567+02:00,1540,1.509928,0,0,1217.191,0,0,2022-06-30T10:06:13.625+02:00
2022-06-30T10:06:14.638+02:00,5807.240329125,-5.9818115234375,1.611862182617188,-16.71263122558594,5807.230378125,1.511330672442471,0.7604639979613463,-0.916902931455111,-2.734323978424072,5.641271591186523,0.04474927484989166,-0.9647340774536133,0.1933544874191284,1.157537221908569,XArbitraryZVertical,-0.5273305258294002,-0.03959392332128518,0.4514944655307653,0.7186846097712141,0.4192625284194946,0.7937215566635132,-0.4407096803188324,0,0,0,-1,-1,5803.677212000001,unknown,2,2022-06-30T10:06:11.074+02:00,2022-06-30T08:20:05.567+02:00,1540,1.509928,0,0,1217.191,0,0,2022-06-30T10:06:13.625+02:00
2022-06-30T10:06:14.648+02:00,5807.250281125001,-4.096038818359375,1.275054931640625,-9.777572631835938,5807.240329125,1.589040439936469,0.8620456714609948,-0.9494259760691947,-6.237890720367432,7.115170955657959,-1.157548666000366,-2.060408353805542,-1.781434535980225,3.692252397537231,XArbitraryZVertical,-0.5561029321144907,-0.03595801522041862,0.4427862219828182,0.7024221580644885,0.4419540166854858,0.8130814433097839,-0.3789131045341492,0,0,0,-1,-1,5803.677212000001,unknown,2,2022-06-30T10:06:11.074+02:00,2022-06-30T08:20:05.567+02:00,1540,1.509928,0,0,1217.191,0,0,2022-06-30T10:06:13.625+02:00
2022-06-30T10:06:14.658+02:00,5807.260232125001,-3.057907104492188,2.099441528320312,-3.969467163085938,5807.250281125001,1.647010148144941,0.9321347824555534,-0.9794130240215932,-3.842435598373413,0.6135823130607605,0.4282990396022797,-6.429433345794678,0.7816921472549438,-16.38028717041016,XArbitraryZVertical,-0.5764808455678959,-0.038704492186803,0.4346196699700341,0.6908527902262008,0.447621613740921,0.8301702737808228,-0.3323436081409454,0,0,0,-1,-1,5803.677212000001,unknown,2,2022-06-30T10:06:11.074+02:00,2022-06-30T08:20:05.567+02:00,1540,1.509928,0,0,1217.191,0,0,2022-06-30T10:06:13.625+02:00
2022-06-30T10:06:14.668+02:00,5807.270184125,0.1975555419921875,1.989791870117188,0.9641571044921875,5807.260232125001,1.693082276964202,0.9928677066642961,-0.9965275474843017,-2.735704183578491,3.719542741775513,0.2427171766757965,-4.55103874206543,0.435465395450592,-9.480815887451172,XArbitraryZVertical,-0.5917885707192251,-0.03752523342758389,0.4276888124366915,0.6822466132296945,0.4549997746944427,0.8395897150039673,-0.2967562973499298,0,0,0,-1,-1,5803.677212000001,unknown,2,2022-06-30T10:06:11.074+02:00,2022-06-30T08:20:05.567+02:00,1540,1.509928,0,0,1217.191,0,0,2022-06-30T10:06:13.625+02:00
2022-06-30T10:06:14.678+02:00,5807.280135125,1.248672485351562,1.128097534179688,1.074508666992188,5807.270184125,1.737962605826905,1.070319012107674,-0.9933842942886443,-0.5628602504730225,4.250493049621582,2.563107490539551,-3.536817312240601,1.261563539505005,-3.707540512084961,XArbitraryZVertical,-0.6070266411376971,-0.02356661877033412,0.420631576639258,0.6738191801432113,0.4789098799228668,0.8378781080245972,-0.261926531791687,0,0,0,-1,-1,5803.677212000001,unknown,2,2022-06-30T10:06:11.074+02:00,2022-06-30T08:20:05.567+02:00,1540,1.509928,0,0,1217.191,0,0,2022-06-30T10:06:13.625+02:00
2022-06-30T10:06:14.688+02:00,5807.290086125,1.96771240234375,-0.10809326171875,-0.0348358154296875,5807.280135125,1.748995097050264,1.113295802961285,-0.9728502355993934,1.143985629081726,2.432596683502197,1.130915760993958,-0.3074973225593567,1.163298606872559,1.212814450263977,XArbitraryZVertical,-0.6129004108487991,-0.004942181337407832,0.4174280944009929,0.6708819019810848,0.5050524473190308,0.8264936208724976,-0.2486573159694672,0,0,0,-1,-1,5803.677212000001,unknown,2,2022-06-30T10:06:11.074+02:00,2022-06-30T08:20:05.567+02:00,1540,1.509928,0,0,1217.191,0,0,2022-06-30T10:06:13.625+02:00
2022-06-30T10:06:14.697+02:00,5807.300038125,1.262130737304688,-0.31414794921875,-0.6858978271484375,5807.290086125,1.722400133835231,1.103376537584744,-0.9648104950151204,2.39176869392395,0.05744035542011261,-0.8209241032600403,0.7401952743530273,0.3061567544937134,1.331149220466614,XArbitraryZVertical,-0.6096490310499664,0.002791026878557931,0.4139294126296214,0.6760049869401902,0.5084768533706665,0.8219410181045532,-0.2566405236721039,0,0,0,-1,-1,5803.677212000001,unknown,2,2022-06-30T10:06:11.074+02:00,2022-06-30T08:20:05.567+02:00,1540,1.509928,0,0,1217.191,0,0,2022-06-30T10:06:13.625+02:00
2022-06-30T10:06:14.707+02:00,5807.309989125,-0.1034393310546875,0.612945556640625,-0.689727783203125,5807.300038125,1.668912976707241,1.053890884426776,-0.959252770525149,3.569286108016968,-0.8616219758987427,-0.9779849052429199,1.468588829040527,-0.9268558025360107,0.2488958835601807,XArbitraryZVertical,-0.5984290373403605,0.004106009194151875,0.4123147867576046,0.686922486974275,0.4991233050823212,0.8187627792358398,-0.2837316691875458,0,0,0,-1,-1,5803.677212000001,unknown,2,2022-06-30T10:06:11.074+02:00,2022-06-30T08:20:05.567+02:00,1540,1.509928,0,0,1217.191,0,0,2022-06-30T10:06:13.625+02:00
2022-06-30T10:06:14.717+02:00,5807.319941125001,-0.701446533203125,1.357040405273438,-0.7630157470703125,5807.309989125,1.603578950781851,0.9946665270013274,-0.9456468307088157,4.179984569549561,-0.2616605162620544,-0.6649718880653381,0.7713793516159058,-1.125023365020752,-0.3670809864997864,XArbitraryZVertical,-0.5835505718747062,0.007765667184513022,0.411168471123066,0.7002491944036773,0.4907509982585907,0.8108756542205811,-0.3188168406486511,0,0,0,-1,-1,5803.677212000001,unknown,2,2022-06-30T10:06:11.074+02:00,2022-06-30T08:20:05.567+02:00,1540,1.509928,0,0,1217.191,0,0,2022-06-30T10:06:13.625+02:00
2022-06-30T10:06:14.728+02:00,5807.329892125001,-0.696044921875,1.240097045898438,-0.7634429931640625,5807.319941125001,1.538937519640833,0.943391541826586,-0.92792713693853,4.200142860412598,0.395669013261795,-0.8426556587219238,-0.588762640953064,-0.1874331831932068,-0.3377971351146698,XArbitraryZVertical,-0.5690548718139736,0.0145336280189184,0.4082016407510646,0.7136783581396059,0.4853229224681854,0.8003789782524109,-0.3519306480884552,0,0,0,-1,-1,5803.677212000001,unknown,2,2022-06-30T10:06:11.074+02:00,2022-06-30T08:20:05.567+02:00,1540,1.509928,0,0,1217.191,0,0,2022-06-30T10:06:13.625+02:00
2022-06-30T10:06:14.737+02:00,5807.339843125001,-0.2548065185546875,0.9669036865234375,-0.57470703125,5807.329892125001,1.475766675378052,0.8994137143624874,-0.9105558858802306,3.968464374542236,0.8193166851997375,-0.9455034732818604,-1.181643128395081,0.5671958327293396,-0.3814964890480042,XArbitraryZVertical,-0.5556393870155546,0.02247727073640068,0.4027003079920229,0.7270434897740338,0.4801962077617645,0.789844810962677,-0.3815192878246307,0,0,0,-1,-1,5803.677212000001,unknown,2,2022-06-30T10:06:11.074+02:00,2022-06-30T08:20:05.567+02:00,1540,1.509928,0,0,1217.191,0,0,2022-06-30T10:06:13.625+02:00
2022-06-30T10:06:14.747+02:00,5807.349795125,0.0967559814453125,0.6750946044921875,-0.3932647705078125,5807.339843125001,1.42303632512715,0.8681685107334758,-0.8938691589065587,3.175275564193726,1.22145402431488,-0.6353694796562195,-1.174080967903137,0.4605960249900818,-0.358646959066391,XArbitraryZVertical,-0.5446361430958246,0.03119997838741646,0.3965617123259559,0.738333898672935,0.4780356884002686,0.77950119972229,-0.4047960638999939,0,0,0,-1,-1,5803.677212000001,unknown,2,2022-06-30T10:06:11.074+02:00,2022-06-30T08:20:05.567+02:00,1540,1.509928,0,0,1217.191,0,0,2022-06-30T10:06:13.625+02:00
2022-06-30T10:06:14.757+02:00,5807.359746125,0.406494140625,0.6354217529296875,-0.2307586669921875,5807.349795125,1.385086243027832,0.8532245622064704,-0.8810398691720832,2.165560722351074,1.645419120788574,-0.557839572429657,-0.734235405921936,0.1955028772354126,-0.1562710404396057,XArbitraryZVertical,-0.5377415390980348,0.04019958629483866,0.3899805770671333,0.7464135400162744,0.4794285297393799,0.7714009881019592,-0.4184360504150391,0,0,0,-1,-1,5803.677212000001,unknown,2,2022-06-30T10:06:11.074+02:00,2022-06-30T08:20:05.567+02:00,1540,1.509928,0,0,1217.191,0,0,2022-06-30T10:06:13.625+02:00
2022-06-30T10:06:14.767+02:00,5807.369698125,0.507049560546875,0.737548828125,-0.20849609375,5807.359746125,1.359863410607188,0.8511031711634349,-0.8743333033394185,1.158504724502563,1.796657800674438,-0.5752404928207397,-0.3856638967990875,-0.09202110767364502,0.02958804368972778,XArbitraryZVertical,-0.5350077206498174,0.04837674411878955,0.3828964664986426,0.7515429394301039,0.4824195206165314,0.7671160101890564,-0.4228528738021851,0,0,0,-1,-1,5803.677212000001,unknown,2,2022-06-30T10:06:11.074+02:00,2022-06-30T08:20:05.567+02:00,1540,1.509928,0,0,1217.191,0,0,2022-06-30T10:06:13.625+02:00
2022-06-30T10:06:14.777+02:00,5807.379649125,0.4577484130859375,0.8439483642578125,-0.362457275390625,5807.369698125,1.344992629029519,0.8583233696167482,-0.8750812689038258,0.2000759840011597,1.943678140640259,-0.8146088719367981,-0.07853192090988159,-0.1321735382080078,0.1882248520851135,XArbitraryZVertical,-0.5361917104902374,0.05483295617450209,0.3751654219539499,0.7541504608065179,0.4850257635116577,0.7675955891609192,-0.4189835786819458,0,0,0,-1,-1,5803.677212000001,unknown,2,2022-06-30T10:06:11.074+02:00,2022-06-30T08:20:05.567+02:00,1540,1.509928,0,0,1217.191,0,0,2022-06-30T10:06:13.625+02:00
2022-06-30T10:06:14.787+02:00,5807.389600125,0.3708343505859375,0.9383697509765625,-0.557342529296875,5807.379649125,1.336720510049522,0.872236730136361,-0.8832230049357382,-0.3746153116226196,2.107949495315552,-1.089861750602722,0.02104315161705017,-0.03523939847946167,0.1996658444404602,XArbitraryZVertical,-0.5407026976581825,0.05966229348997792,0.3661110909802344,0.7550123864374585,0.4860060513019562,0.772788405418396,-0.408161997795105,0,0,0,-1,-1,5803.677212000001,unknown,2,2022-06-30T10:06:11.074+02:00,2022-06-30T08:20:05.567+02:00,1540,1.509928,0,0,1217.191,0,0,2022-06-30T10:06:13.625+02:00
2022-06-30T10:06:14.797+02:00,5807.399552125,0.234100341796875,1.013076782226562,-0.6578216552734375,5807.389600125,1.330437910159009,0.8886163310633761,-0.894287954643149,-0.3660066425800323,2.144565582275391,-1.087899327278137,-0.02821090817451477,0.06418514251708984,0.03227412700653076,XArbitraryZVertical,-0.5463908702115206,0.06396305645509191,0.3562839871371156,0.7552665648493472,0.4859589636325836,0.7797634601593018,-0.3947314918041229,0,0,0,-1,-1,5803.677212000001,unknown,2,2022-06-30T10:06:11.074+02:00,2022-06-30T08:20:05.567+02:00,1540,1.509928,0,0,1217.191,0,0,2022-06-30T10:06:13.625+02:00
2022-06-30T10:06:14.807+02:00,5807.409503125,0.1158599853515625,1.065597534179688,-0.5823211669921875,5807.399552125,1.322643459325366,0.9039460059919968,-0.9033211030276005,0.01573843508958817,2.1572585105896,-0.9310818910598755,-0.1155639886856079,0.1529829502105713,-0.174479216337204,XArbitraryZVertical,-0.55119145882429,0.06896569007318046,0.3466552475728744,0.7558187269026964,0.4863979518413544,0.7853870391845703,-0.3828634321689606,0,0,0,-1,-1,5803.677212000001,unknown,2,2022-06-30T10:06:11.074+02:00,2022-06-30T08:20:05.567+02:00,1540,1.509928,0,0,1217.191,0,0,2022-06-30T10:06:13.625+02:00
2022-06-30T10:06:14.817+02:00,5807.419455125,0.0486602783203125,1.142364501953125,-0.4256439208984375,5807.409503125,1.31140737351726,0.916671487056861,-0.9087975893226076,0.3927957117557526,2.162653207778931,-0.7847845554351807,-0.2537099421024323,0.2243118286132812,-0.2838014960289001,XArbitraryZVertical,-0.554389460934858,0.07511461265425698,0.3373733645212114,0.7570927958053014,0.4878099262714386,0.7887651920318604,-0.3740202486515045,0,0,0,-1,-1,5803.677212000001,unknown,2,2022-06-30T10:06:11.074+02:00,2022-06-30T08:20:05.567+02:00,1540,1.509928,0,0,1217.191,0,0,2022-06-30T10:06:13.625+02:00
2022-06-30T10:06:14.834+02:00,5807.429406125,0.04022216796875,1.281967163085938,-0.3378143310546875,5807.419455125,1.295797337098638,0.9256926678342504,-0.9110712164444917,0.9079833626747131,2.133013963699341,-0.765470027923584,-0.3738701641559601,0.2754369378089905,-0.2137961685657501,XArbitraryZVertical,-0.5558697479438097,0.08213581001651526,0.3283193800926432,0.7592554736992219,0.4897297620773315,0.7901607155799866,-0.3685250580310822,0,0,0,-1,-1,5803.677212000001,unknown,2,2022-06-30T10:06:11.074+02:00,2022-06-30T08:20:05.567+02:00,1540,1.509928,0,0,1217.191,0,0,2022-06-30T10:06:13.625+02:00
2022-06-30T10:06:14.837+02:00,5807.439357125,0.05780029296875,1.38671875,-0.269500732421875,5807.429406125,1.271818949645407,0.9274771903223927,-0.9100416911570726,1.584784269332886,2.026352167129517,-0.8282529711723328,-0.4423773288726807,0.3528352975845337,-0.05750569701194763,XArbitraryZVertical,-0.5548571245249498,0.0898020878839452,0.3189845486269791,0.7630976032236307,0.4910372197628021,0.7895293235778809,-0.368138313293457,0,0,0,-1,-1,5803.677212000001,unknown,2,2022-06-30T10:06:11.074+02:00,2022-06-30T08:20:05.567+02:00,1540,1.509928,0,0,1217.191,0,0,2022-06-30T10:06:13.625+02:00
2022-06-30T10:06:14.847+02:00,5807.449309125001,0.05218505859375,1.328414916992188,-0.2175140380859375,5807.439357125,1.238747232017193,0.9209890659142217,-0.9053164311364092,2.226536273956299,1.921921968460083,-0.8721626996994019,-0.4513815343379974,0.49534672498703,0.03575506806373596,XArbitraryZVertical,-0.5510180594656674,0.09795072171489404,0.3094233909501626,0.7687924605113874,0.4916033148765564,0.786620557308197,-0.373569518327713,0,0,0,-1,-1,5803.677212000001,unknown,2,2022-06-30T10:06:11.074+02:00,2022-06-30T08:20:05.567+02:00,1540,1.509928,0,0,1217.191,0,0,2022-06-30T10:06:13.625+02:00
2022-06-30T10:06:14.857+02:00,5807.459260125001,0.046112060546875,1.222946166992188,-0.2187042236328125,5807.449309125001,1.200529964247451,0.9098287831014212,-0.8982775022442404,2.32978343963623,1.863536953926086,-0.8946544528007507,-0.4339625835418701,0.6044639348983765,0.1129214763641357,XArbitraryZVertical,-0.5454254648082811,0.1063010446671091,0.2996631703825669,0.7755083847563449,0.4917625486850739,0.7822550535202026,-0.3824222981929779,0,0,0,-1,-1,5803.677212000001,unknown,2,2022-06-30T10:06:11.074+02:00,2022-06-30T08:20:05.567+02:00,1540,1.509928,0,0,1217.191,0,0,2022-06-30T10:06:13.625+02:00
2022-06-30T10:06:14.867+02:00,5807.469212125,0.01348876953125,1.283111572265625,-0.2831573486328125,5807.459260125001,1.164981827909648,0.9003701135658482,-0.8916281315854232,1.962567567825317,1.806766867637634,-0.7921518087387085,-0.440003514289856,0.5503197312355042,0.1727655529975891,XArbitraryZVertical,-0.540182785783951,0.1142919794933285,0.2902012726933613,0.7816158352112246,0.4921883046627045,0.7780954837799072,-0.3902797996997833,0,0,0,-1,-1,5803.677212000001,unknown,2,2022-06-30T10:06:11.074+02:00,2022-06-30T08:20:05.567+02:00,1540,1.509928,0,0,1217.191,0,0,2022-06-30T10:06:13.625+02:00
2022-06-30T10:06:14.877+02:00,5807.479163125,-0.0394287109375,1.393539428710938,-0.332550048828125,5807.469212125,1.136463908169566,0.895780377565248,-0.8864991626910088,1.531116008758545,1.727905035018921,-0.6594973802566528,-0.4473891854286194,0.4480828046798706,0.1763189136981964,XArbitraryZVertical,-0.5363546432624522,0.1217047206224502,0.2816421461321618,0.7862501882859337,0.4935008585453033,0.7748635411262512,-0.3950233161449432,0,0,0,-1,-1,5803.677212000001,unknown,2,2022-06-30T10:06:11.074+02:00,2022-06-30T08:20:05.567+02:00,1540,1.509928,0,0,1217.191,0,0,2022-06-30T10:06:13.625+02:00
2022-06-30T10:06:14.887+02:00,5807.489114125,-0.06646728515625,1.404296875,-0.369842529296875,5807.479163125,1.112463933164884,0.8942374116449358,-0.8823983039470503,1.410860061645508,1.705162167549133,-0.6113085150718689,-0.4818759560585022,0.5108470320701599,0.1146130561828613,XArbitraryZVertical,-0.5334266300635896,0.1287273880155814,0.2736979086337612,0.7899207962437308,0.4953643977642059,0.7722647190093994,-0.3977705836296082,0,0,0,-1,-1,5803.677212000001,unknown,2,2022-06-30T10:06:11.074+02:00,2022-06-30T08:20:05.567+02:00,1540,1.509928,0,0,1217.191,0,0,2022-06-30T10:06:13.625+02:00
2022-06-30T10:06:14.899+02:00,5807.499066125,-0.0365142822265625,1.318939208984375,-0.3226470947265625,5807.489114125,1.087839434002455,0.892415057915333,-0.8776939483830646,1.668157815933228,1.756908416748047,-0.6219062805175781,-0.5368908047676086,0.6242719888687134,0.06839779019355774,XArbitraryZVertical,-0.5301416865136278,0.1359257190248249,0.2656897093624837,0.7936516580395676,0.49746173620224,0.7692674994468689,-0.4009479880332947,0,0,0,-1,-1,5803.677212000001,unknown,2,2022-06-30T10:06:11.074+02:00,2022-06-30T08:20:05.567+02:00,1540,1.509928,0,0,1217.191,0,0,2022-06-30T10:06:13.625+02:00
2022-06-30T10:06:14.911+02:00,5807.509017125,-0.003173828125,1.292633056640625,-0.2342376708984375,5807.499066125,1.060034244835628,0.8887722449343319,-0.8709399560717258,1.982754468917847,1.788703203201294,-0.5545517802238464,-0.5664876103401184,0.6393623352050781,0.03618079423904419,XArbitraryZVertical,-0.5256635132010322,0.1437571247504106,0.2573796423115636,0.797977224539421,0.5000199675559998,0.7649347186088562,-0.4060235321521759,0,0,0,-1,-1,5803.677212000001,unknown,2,2022-06-30T10:06:11.074+02:00,2022-06-30T08:20:05.567+02:00,1540,1.509928,0,0,1217.191,0,0,2022-06-30T10:06:13.625+02:00
2022-06-30T10:06:14.917+02:00,5807.518969125001,0.0016632080078125,1.327743530273438,-0.228729248046875,5807.509017125,1.029861533880839,0.8834352188320256,-0.8615843515467821,2.228153228759766,1.75850510597229,-0.4782077074050903,-0.5398699641227722,0.5600641369819641,0.09056180715560913,XArbitraryZVertical,-0.5198512714934392,0.1521514958957854,0.2491619551473411,0.8028219567609781,0.5033554434776306,0.75887531042099,-0.4132091701030731,0,0,0,-1,-1,5803.677212000001,unknown,2,2022-06-30T10:06:11.074+02:00,2022-06-30T08:20:05.567+02:00,1540,1.509928,0,0,1217.191,0,0,2022-06-30T10:06:13.625+02:00
2022-06-30T10:06:14.926+02:00,5807.528920125001,0.0069580078125,1.32537841796875,-0.2924652099609375,5807.518969125001,0.9980364575592393,0.8767882802403465,-0.8504420132285176,2.419657230377197,1.748718976974487,-0.465647280216217,-0.510240375995636,0.5410611033439636,0.1876902282238007,XArbitraryZVertical,-0.5130162499866393,0.1607802336572639,0.2409652430093817,0.8080221135209228,0.5070661306381226,0.7515720725059509,-0.4219280779361725,0,0,0,-1,-1,5803.677212000001,unknown,2,2022-06-30T10:06:11.074+02:00,2022-06-30T08:20:05.567+02:00,1540,1.509928,0,0,1217.191,0,0,2022-06-30T10:06:13.625+02:00
2022-06-30T10:06:14.936+02:00,5807.538871125001,-0.018035888671875,1.249267578125,-0.391998291015625,5807.528920125001,0.965807887579447,0.8703440615825488,-0.8382365324550054,2.422435283660889,1.803770184516907,-0.4047274589538574,-0.5096495151519775,0.5842787623405457,0.2023385167121887,XArbitraryZVertical,-0.5056405266825172,0.1696870173002268,0.2326884633682752,0.8132589190510243,0.5113123655319214,0.7434648871421814,-0.431067943572998,0,0,0,-1,-1,5803.677212000001,unknown,2,2022-06-30T10:06:11.074+02:00,2022-06-30T08:20:05.567+02:00,1540,1.509928,0,0,1217.191,0,0,2022-06-30T10:06:13.625+02:00
2022-06-30T10:06:14.946+02:00,5807.548823125,-0.04998779296875,1.211517333984375,-0.4127655029296875,5807.538871125001,0.9355938347436871,0.8663742281300977,-0.8261055727043553,2.244340896606445,1.899286508560181,-0.3739702701568604,-0.5094740986824036,0.5900809764862061,0.1464375555515289,XArbitraryZVertical,-0.4985505795076271,0.1788738226681867,0.2244564553460977,0.8179674531958965,0.5164317488670349,0.7352975010871887,-0.4389029443264008,0,0,0,-1,-1,5803.677212000001,unknown,2,2022-06-30T10:06:11.074+02:00,2022-06-30T08:20:05.567+02:00,1540,1.509928,0,0,1217.191,0,0,2022-06-30T10:06:13.625+02:00
2022-06-30T10:06:14.956+02:00,5807.558774125,-0.0966033935546875,1.26580810546875,-0.41583251953125,5807.548823125,0.9089169738260297,0.8662187570151408,-0.8151026264077628,1.963555455207825,1.989782094955444,-0.2857615649700165,-0.5405323505401611,0.5214717388153076,0.05219835042953491,XArbitraryZVertical,-0.4923938401697176,0.1882813935582905,0.216341736832149,0.8217631541539976,0.5224961042404175,0.7277959585189819,-0.4441968500614166,0,0,0,-1,-1,5803.677212000001,unknown,2,2022-06-30T10:06:11.074+02:00,2022-06-30T08:20:05.567+02:00,1540,1.509928,0,0,1217.191,0,0,2022-06-30T10:06:13.625+02:00
2022-06-30T10:06:14.966+02:00,5807.568726125,-0.1687774658203125,1.239959716796875,-0.4067840576171875,5807.558774125,0.8868001072796935,0.8706553455008974,-0.8054015552321696,1.629727005958557,2.143889427185059,-0.2183995991945267,-0.5798245072364807,0.4904084801673889,0.03363695740699768,XArbitraryZVertical,-0.4874348543770817,0.1980048558582214,0.2085949817257929,0.82443278181718,0.5298362970352173,0.7211089134216309,-0.4464026689529419,0,0,0,-1,-1,5803.677212000001,unknown,2,2022-06-30T10:06:11.074+02:00,2022-06-30T08:20:05.567+02:00,1540,1.509928,0,0,1217.191,0,0,2022-06-30T10:06:13.625+02:00
2022-06-30T10:06:14.976+02:00,5807.578677125,-0.1667327880859375,1.222900390625,-0.38641357421875,5807.568726125,0.8675331333021445,0.8789316851194112,-0.7970936489841082,1.57867693901062,2.288586854934692,-0.2202366441488266,-0.6347113251686096,0.5504799485206604,0.02997633814811707,XArbitraryZVertical,-0.4834796240311738,0.2081896253709104,0.2007252930174048,0.8262044532933204,0.5381075739860535,0.7153282165527344,-0.4458090662956238,0,0,0,-1,-1,5803.677212000001,unknown,2,2022-06-30T10:06:11.074+02:00,2022-06-30T08:20:05.567+02:00,1540,1.509928,0,0,1217.191,0,0,2022-06-30T10:06:13.625+02:00
2022-06-30T10:06:14.986+02:00,5807.588628125,-0.1635894775390625,1.273193359375,-0.4428558349609375,5807.578677125,0.8469084185251295,0.8871367533685476,-0.7880479558409959,1.842021584510803,2.311802387237549,-0.2251750081777573,-0.7155194282531738,0.5309818387031555,0.03866368532180786,XArbitraryZVertical,-0.4789635612012803,0.2187919583404659,0.1924989078186581,0.828050892652244,0.5467416644096375,0.708977997303009,-0.4454479813575745,0,0,0,-1,-1,5803.677212000001,unknown,2,2022-06-30T10:06:11.074+02:00,2022-06-30T08:20:05.567+02:00,1540,1.509928,0,0,1217.191,0,0,2022-06-30T10:06:13.625+02:00
2022-06-30T10:06:14.996+02:00,5807.598580125,-0.1225128173828125,1.427017211914062,-0.420562744140625,5807.588628125,0.8215564459679204,0.8922058128040824,-0.7766749322838837,2.437187671661377,2.289819240570068,-0.2566176354885101,-0.7219669818878174,0.5219887495040894,0.0612894594669342,XArbitraryZVertical,-0.4726370953010826,0.2297009683702698,0.1836404500403173,0.8307393625786567,0.5552338361740112,0.7009117007255554,-0.4477032721042633,0,0,0,-1,-1,5803.677212000001,unknown,2,2022-06-30T10:06:11.074+02:00,2022-06-30T08:20:05.567+02:00,1540,1.509928,0,0,1217.191,0,0,2022-06-30T10:06:13.625+02:00
2022-06-30T10:06:15.006+02:00,5807.608531125,-0.1248016357421875,1.435440063476562,-0.4307708740234375,5807.598580125,0.7901243326364266,0.8927717040054558,-0.7617252315569064,2.935229778289795,2.238231420516968,-0.2526313066482544,-0.7271752953529358,0.5830225348472595,0.0110553503036499,XArbitraryZVertical,-0.4637146130577159,0.2408589385082378,0.1741640684852708,0.8346392939913387,0.5635855197906494,0.69017094373703,-0.4539114534854889,0,0,0,-1,-1,5803.677212000001,unknown,2,2022-06-30T10:06:11.074+02:00,2022-06-30T08:20:05.567+02:00,1540,1.509928,0,0,1217.191,0,0,2022-06-30T10:06:13.625+02:00
2022-06-30T10:06:15.016+02:00,5807.618483125,-0.128631591796875,1.28472900390625,-0.5409393310546875,5807.608531125,0.7549634819549749,0.8911779508706271,-0.7449214385193956,3.196177005767822,2.291308403015137,-0.3571361601352692,-0.6943152546882629,0.7491032481193542,0.04147052764892578,XArbitraryZVertical,-0.453218823479244,0.2521427095581791,0.1639886597653583,0.8391213133544272,0.5718021392822266,0.6779140830039978,-0.4620335102081299,0,0,0,-1,-1,5803.677212000001,unknown,2,2022-06-30T10:06:11.074+02:00,2022-06-30T08:20:05.567+02:00,1540,1.509928,0,0,1217.191,0,0,2022-06-30T10:06:13.625+02:00
2022-06-30T10:06:15.026+02:00,5807.628434125,-0.174102783203125,1.233657836914062,-0.65985107421875,5807.618483125,0.7172273610527423,0.8889588406145275,-0.7276339897585196,3.335525274276733,2.365696907043457,-0.4761987924575806,-0.7045907378196716,0.7703354358673096,0.03984630107879639,XArbitraryZVertical,-0.4418680252102223,0.2635221195753063,0.1528579957110619,0.8437673279314181,0.5797888040542603,0.6651046872138977,-0.4706174731254578,0,0,0,-1,-1,5803.677212000001,unknown,2,2022-06-30T10:06:11.074+02:00,2022-06-30T08:20:05.567+02:00,1540,1.509928,0,0,1217.191,0,0,2022-06-30T10:06:13.625+02:00
2022-06-30T10:06:15.036+02:00,5807.638385125,-0.204376220703125,1.336807250976562,-0.5905914306640625,5807.628434125,0.6779685469896883,0.8870498910173917,-0.7105681095352749,3.432341814041138,2.452597141265869,-0.5988395214080811,-0.7162356376647949,0.6324646472930908,-0.06211507320404053,XArbitraryZVertical,-0.4301046683129088,0.2749503043493947,0.1408179121470639,0.848282299387447,0.5876038074493408,0.6522644758224487,-0.4788246154785156,0,0,0,-1,-1,5803.677212000001,unknown,2,2022-06-30T10:06:11.074+02:00,2022-06-30T08:20:05.567+02:00,1540,1.509928,0,0,1217.191,0,0,2022-06-30T10:06:13.625+02:00
2022-06-30T10:06:15.046+02:00,5807.648337125001,-0.217010498046875,1.421096801757812,-0.567901611328125,5807.638385125,0.6376954851573441,0.8857277139651704,-0.6939092670185814,3.509564638137817,2.511421680450439,-0.7011327147483826,-0.769405722618103,0.5941105484962463,-0.1734420359134674,XArbitraryZVertical,-0.4180738359851991,0.286373187296362,0.1279837269295628,0.8525402351314327,0.5953026413917542,0.6395472884178162,-0.4864093363285065,0,0,0,-1,-1,5803.677212000001,unknown,2,2022-06-30T10:06:11.074+02:00,2022-06-30T08:20:05.567+02:00,1540,1.509928,0,0,1217.191,0,0,2022-06-30T10:06:13.625+02:00
2022-06-30T10:06:15.056+02:00,5807.658288125001,-0.2201080322265625,1.5157470703125,-0.579315185546875,5807.648337125001,0.5943527117378856,0.8833247933584197,-0.6759444301806856,4.033249378204346,2.516071081161499,-0.7802581787109375,-0.8072918653488159,0.7111729383468628,-0.09554147720336914,XArbitraryZVertical,-0.404702106077041,0.2978104488873714,0.114230528093947,0.8570161118725567,0.6029154062271118,0.6256343722343445,-0.4950502812862396,0,0,0,-1,-1,5803.677212000001,unknown,2,2022-06-30T10:06:11.074+02:00,2022-06-30T08:20:05.567+02:00,1540,1.509928,0,0,1217.191,0,0,2022-06-30T10:06:13.625+02:00
2022-06-30T10:06:15.066+02:00,5807.668240125,-0.2149810791015625,1.5294189453125,-0.53692626953125,5807.658288125001,0.54462326274168,0.8775853122215156,-0.6546644827866577,4.76665210723877,2.504723310470581,-0.927698016166687,-0.8271788954734802,0.812203586101532,-0.06100547313690186,XArbitraryZVertical,-0.3885331959044977,0.3091823998826151,0.09898837868752346,0.8623510987557362,0.6101680994033813,0.6088931560516357,-0.5068963766098022,0,0,0,-1,-1,5803.677212000001,unknown,2,2022-06-30T10:06:11.074+02:00,2022-06-30T08:20:05.567+02:00,1540,1.509928,0,0,1217.191,0,0,2022-06-30T10:06:13.625+02:00
2022-06-30T10:06:15.076+02:00,5807.678191125,-0.223388671875,1.506851196289062,-0.45428466796875,5807.668240125,0.4878893487193414,0.8684104352471821,-0.6295931751097886,5.437048435211182,2.485589265823364,-1.071213841438293,-0.8370609879493713,0.9269310832023621,-0.05714207887649536,XArbitraryZVertical,-0.3691920295236237,0.3203287852217963,0.08195296725531137,0.8685449862166307,0.616952657699585,0.5888159871101379,-0.5221734046936035,0,0,0,-1,-1,5803.677212000001,unknown,2,2022-06-30T10:06:11.074+02:00,2022-06-30T08:20:05.567+02:00,1540,1.509928,0,0,1217.191,0,0,2022-06-30T10:06:13.625+02:00
2022-06-30T10:06:15.086+02:00,5807.688143125,-0.252410888671875,1.414764404296875,-0.4365386962890625,5807.678191125,0.426220693988858,0.8575942689069337,-0.602007365434945,5.828526496887207,2.512182235717773,-1.312624454498291,-0.8383000493049622,0.9631208181381226,0.002313792705535889,XArbitraryZVertical,-0.3475213750271138,0.3310720383024162,0.06322415452737418,0.8749988172981146,0.6233187913894653,0.5662980675697327,-0.5392404198646545,0,0,0,-1,-1,5803.677212000001,unknown,2,2022-06-30T10:06:11.074+02:00,2022-06-30T08:20:05.567+02:00,1540,1.509928,0,0,1217.191,0,0,2022-06-30T10:06:13.625+02:00
2022-06-30T10:06:15.096+02:00,5807.698094125,-0.2408905029296875,1.407241821289062,-0.638092041015625,5807.688143125,0.3598156398937706,0.8461804197383704,-0.5735287373861103,6.31406307220459,2.608946561813354,-1.690460205078125,-0.8523359894752502,0.9642515778541565,0.1025016903877258,XArbitraryZVertical,-0.3242157264554416,0.3413075635229021,0.04223972102628463,0.8812542948713536,0.6289470791816711,0.5425995588302612,-0.5567865967750549,0,0,0,-1,-1,5803.677212000001,unknown,2,2022-06-30T10:06:11.074+02:00,2022-06-30T08:20:05.567+02:00,1540,1.509928,0,0,1217.191,0,0,2022-06-30T10:06:13.625+02:00
2022-06-30T10:06:15.105+02:00,5807.708045125,-0.332611083984375,1.547653198242188,-0.7491455078125,5807.698094125,0.288840071606676,0.8351122631470368,-0.5429757831651555,6.772459506988525,2.709139108657837,-1.719527244567871,-0.8871551156044006,0.8980782032012939,0.1380352377891541,XArbitraryZVertical,-0.2987985448760704,0.3513293425970155,0.01911874056560451,0.8870860061587925,0.6347439885139465,0.5166860818862915,-0.5745742321014404,0,0,0,-1,-1,5803.677212000001,unknown,2,2022-06-30T10:06:11.074+02:00,2022-06-30T08:20:05.567+02:00,1540,1.509928,0,0,1217.191,0,0,2022-06-30T10:06:13.625+02:00
2022-06-30T10:06:15.115+02:00,5807.717997125001,-0.444366455078125,1.521774291992188,-0.79296875,5807.708045125,0.2171512038467913,0.8265265197638931,-0.5103227676424721,6.863041877746582,2.874994516372681,-1.947315454483032,-0.8827505707740784,0.9187828302383423,-0.04697155952453613,XArbitraryZVertical,-0.2719013592233659,0.3612606419162036,-0.004740782678271944,0.8919293381516429,0.6418598890304565,0.4884589016437531,-0.5911207795143127,0,0,0,-1,-1,5803.677212000001,unknown,2,2022-06-30T10:06:11.074+02:00,2022-06-30T08:20:05.567+02:00,1540,1.509928,0,0,1217.191,0,0,2022-06-30T10:06:13.625+02:00
2022-06-30T10:06:15.125+02:00,5807.727948125001,-0.445709228515625,1.609466552734375,-0.7820892333984375,5807.717997125001,0.1432127508074226,0.8216618224502938,-0.4788921574742907,6.962091445922852,3.168711185455322,-2.228868961334229,-0.9825128316879272,1.086856842041016,-0.144749641418457,XArbitraryZVertical,-0.2446306074035655,0.3714266570486249,-0.03075346677314735,0.8951270072223769,0.6499015688896179,0.4607962369918823,-0.6043962240219116,0,0,0,-1,-1,5803.677212000001,unknown,2,2022-06-30T10:06:11.074+02:00,2022-06-30T08:20:05.567+02:00,1540,1.509928,0,0,1217.191,0,0,2022-06-30T10:06:13.625+02:00
2022-06-30T10:06:15.135+02:00,5807.737900125,-0.4808197021484375,1.749984741210938,-0.75885009765625,5807.727948125001,0.06967554938027015,0.8214625862945173,-0.4485832020588411,6.85186767578125,3.42367148399353,-2.330153942108154,-1.104073047637939,1.088084697723389,-0.1792093515396118,XArbitraryZVertical,-0.2173523551843858,0.3819398987480801,-0.0576183006023535,0.8964151555980981,0.6597064733505249,0.4336893558502197,-0.6137597560882568,0,0,0,-1,-1,5803.677212000001,unknown,2,2022-06-30T10:06:11.074+02:00,2022-06-30T08:20:05.567+02:00,1540,1.509928,0,0,1217.191,0,0,2022-06-30T10:06:13.625+02:00
2022-06-30T10:06:15.146+02:00,5807.747851125,-0.5098724365234375,2.01324462890625,-0.76422119140625,5807.737900125,-0.001978308664350623,0.8264254984789818,-0.4206614655473476,6.538856506347656,3.631901025772095,-2.423252582550049,-1.117100834846497,1.201102018356323,-0.1636462211608887,XArbitraryZVertical,-0.1908226484910794,0.3928931880190112,-0.08472361224780986,0.8955689567138987,0.671391487121582,0.4083643555641174,-0.6184433102607727,0,0,0,-1,-1,5803.677212000001,unknown,2,2022-06-30T10:06:11.074+02:00,2022-06-30T08:20:05.567+02:00,1540,1.509928,0,0,1217.191,0,0,2022-06-30T10:06:13.625+02:00
2022-06-30T10:06:15.155+02:00,5807.757802125,-0.561737060546875,2.248825073242188,-0.8040618896484375,5807.747851125,-0.07257587574366332,0.8356629208095557,-0.3954211059054532,6.567842483520508,3.873342990875244,-2.627547264099121,-1.165324211120605,1.364787697792053,-0.1399181485176086,XArbitraryZVertical,-0.1649737032221546,0.4041256748839672,-0.1121656300290904,0.8926841258950832,0.6845043897628784,0.3851968348026276,-0.6189322471618652,0,0,0,-1,-1,5803.677212000001,unknown,2,2022-06-30T10:06:11.074+02:00,2022-06-30T08:20:05.567+02:00,1540,1.509928,0,0,1217.191,0,0,2022-06-30T10:06:13.625+02:00
2022-06-30T10:06:15.165+02:00,5807.767754125,-0.56689453125,2.260406494140625,-0.7066650390625,5807.757802125,-0.1464973146241591,0.8478370832947504,-0.3712114584859677,6.989656448364258,4.141722679138184,-2.934568643569946,-1.208650350570679,1.650499701499939,-0.1476778388023376,XArbitraryZVertical,-0.1381701606462136,0.4154963190605015,-0.1412646413188539,0.8878717520984367,0.6987777948379517,0.3627446293830872,-0.6165436506271362,0,0,0,-1,-1,5803.677212000001,unknown,2,2022-06-30T10:06:11.074+02:00,2022-06-30T08:20:05.567+02:00,1540,1.509928,0,0,1217.191,0,0,2022-06-30T10:06:13.625+02:00
2022-06-30T10:06:15.175+02:00,5807.777705125,-0.54351806640625,2.147796630859375,-0.5189056396484375,5807.767754125,-0.225791372294288,0.8622705107808891,-0.3468743686463577,7.432856559753418,4.346409797668457,-3.145505428314209,-1.27583384513855,1.908864736557007,-0.1921036839485168,XArbitraryZVertical,-0.1094065683511749,0.4266743028886592,-0.1724694970880685,0.8810412504359747,0.71409672498703,0.3399600088596344,-0.6119585037231445,0,0,0,-1,-1,5803.677212000001,unknown,2,2022-06-30T10:06:11.074+02:00,2022-06-30T08:20:05.567+02:00,1540,1.509928,0,0,1217.191,0,0,2022-06-30T10:06:13.625+02:00
2022-06-30T10:06:15.185+02:00,5807.787657125001,-0.5211181640625,2.141281127929688,-0.36602783203125,5807.777705125,-0.3085081175640502,0.8791644177014917,-0.322762244059163,7.660782814025879,4.517950057983398,-3.265310287475586,-1.297329664230347,1.94321882724762,-0.101804256439209,XArbitraryZVertical,-0.07914401850475883,0.4373850443379808,-0.2047974748280346,0.8720600400297724,0.7304350733757019,0.3171873688697815,-0.6048610806465149,0,0,0,-1,-1,5803.677212000001,unknown,2,2022-06-30T10:06:11.074+02:00,2022-06-30T08:20:05.567+02:00,1540,1.509928,0,0,1217.191,0,0,2022-06-30T10:06:13.625+02:00
2022-06-30T10:06:15.195+02:00,5807.797608125001,-0.482635498046875,2.190338134765625,-0.3416900634765625,5807.787657125001,-0.39281716071714,0.8991438570842677,-0.3001114147543887,7.684462547302246,4.68292236328125,-3.368335962295532,-1.291324377059937,1.852169632911682,0.0755608081817627,XArbitraryZVertical,-0.04819543225088554,0.4477095982092948,-0.2374996653229128,0.8607131429200976,0.7478062510490417,0.2956266403198242,-0.5944666266441345,0,0,0,-1,-1,5803.677212000001,unknown,2,2022-06-30T10:06:11.074+02:00,2022-06-30T08:20:05.567+02:00,1540,1.509928,0,0,1217.191,0,0,2022-06-30T10:06:13.625+02:00
2022-06-30T10:06:15.205+02:00,5807.807559125,-0.4649658203125,2.236083984375,-0.2990875244140625,5807.797608125001,-0.4774671190171498,0.9219483518116682,-0.2804393857731008,7.587006092071533,4.764843940734863,-3.508643627166748,-1.286771535873413,1.864502906799316,0.2146344780921936,XArbitraryZVertical,-0.01746687036646286,0.4575627317286008,-0.2701157992186358,0.8469762869035324,0.7656534314155579,0.2767778933048248,-0.5806624889373779,0,0,0,-1,-1,5803.677212000001,unknown,2,2022-06-30T10:06:11.074+02:00,2022-06-30T08:20:05.567+02:00,1540,1.509928,0,0,1217.191,0,0,2022-06-30T10:06:13.625+02:00
2022-06-30T10:06:15.215+02:00,5807.817511125,-0.498504638671875,2.2808837890625,-0.116241455078125,5807.807559125,-0.5613291847486989,0.9468486776589656,-0.2648240023374044,7.312945365905762,4.780548095703125,-3.623666286468506,-1.265921115875244,1.928598403930664,0.2221857309341431,XArbitraryZVertical,0.01227985302823047,0.4668096064819648,-0.3022101548686852,0.8310277338651324,0.7832856774330139,0.2617394030094147,-0.5638759732246399,0,0,0,-1,-1,5803.677212000001,unknown,2,2022-06-30T10:06:11.074+02:00,2022-06-30T08:20:05.567+02:00,1540,1.509928,0,0,1217.191,0,0,2022-06-30T10:06:13.625+02:00
2022-06-30T10:06:15.225+02:00,5807.827462125,-0.4716033935546875,2.357696533203125,0.13262939453125,5807.817511125,-0.6433112360830826,0.9734945526167166,-0.2542387705792461,6.942802906036377,4.805198192596436,-3.764772176742554,-1.265242695808411,1.984574794769287,0.2452470660209656,XArbitraryZVertical,0.04037491579090323,0.475607526974279,-0.3334257601841366,0.8130156970516328,0.8002768158912659,0.2515087127685547,-0.5443347096443176,0,0,0,-1,-1,5803.677212000001,unknown,2,2022-06-30T10:06:11.074+02:00,2022-06-30T08:20:05.567+02:00,1540,1.509928,0,0,1217.191,0,0,2022-06-30T10:06:13.625+02:00
2022-06-30T10:06:15.235+02:00,5807.837414125001,-0.3781280517578125,2.48602294921875,0.4146575927734375,5807.827462125,-0.7232494642940202,1.001113235935448,-0.2481457123949923,6.753681182861328,4.722758769989014,-3.772834300994873,-1.314783573150635,2.035276412963867,0.406602680683136,XArbitraryZVertical,0.06693570553377513,0.4838362289150027,-0.3635536430395098,0.7932534199099166,0.8162789344787598,0.2456068992614746,-0.5228442549705505,0,0,0,-1,-1,5803.677212000001,unknown,2,2022-06-30T10:06:11.074+02:00,2022-06-30T08:20:05.567+02:00,1540,1.509928,0,0,1217.191,0,0,2022-06-30T10:06:13.625+02:00
2022-06-30T10:06:15.245+02:00,5807.847365125001,-0.25628662109375,2.57000732421875,0.6730804443359375,5807.837414125001,-0.8025420407297333,1.027485348995124,-0.2443009258417853,6.790387630462646,4.448352336883545,-3.741172790527344,-1.302187442779541,2.115818023681641,0.6342517137527466,XArbitraryZVertical,0.09283232457654711,0.4904803487528535,-0.3927573919977426,0.7723683437743815,0.8305841684341431,0.2418780624866486,-0.5016223788261414,0,0,0,-1,-1,5803.677212000001,unknown,2,2022-06-30T10:06:11.074+02:00,2022-06-30T08:20:05.567+02:00,1540,1.509928,0,0,1217.191,0,0,2022-06-30T10:06:13.625+02:00
2022-06-30T10:06:15.255+02:00,5807.857316125001,-0.0979766845703125,2.489059448242188,0.8913421630859375,5807.847365125001,-0.8823669796232704,1.050529984188848,-0.2421007493887106,6.84738826751709,4.043665885925293,-3.784193515777588,-1.220510005950928,2.246279954910278,0.8972712755203247,XArbitraryZVertical,0.1180817449855941,0.4947219599947247,-0.4214953481016045,0.7507653762640056,0.8423820734024048,0.239742636680603,-0.4826137721538544,0,0,0,-1,-1,5803.677212000001,unknown,2,2022-06-30T10:06:11.074+02:00,2022-06-30T08:20:05.567+02:00,1540,1.509928,0,0,1217.191,0,0,2022-06-30T10:06:13.625+02:00
2022-06-30T10:06:15.265+02:00,5807.867268125,0.0934600830078125,2.366790771484375,1.102554321289062,5807.857316125001,-0.9624371141930906,1.069245109896735,-0.2419877814424972,6.748948574066162,3.581191301345825,-3.830776929855347,-1.107576370239258,2.330374002456665,1.139858245849609,XArbitraryZVertical,0.1420485820054521,0.4964204596880873,-0.4498748254479172,0.728698482015198,0.8512898087501526,0.2396329641342163,-0.4667778611183167,0,0,0,-1,-1,5803.677212000001,unknown,2,2022-06-30T10:06:11.074+02:00,2022-06-30T08:20:05.567+02:00,1540,1.509928,0,0,1217.191,0,0,2022-06-30T10:06:13.625+02:00
2022-06-30T10:06:15.275+02:00,5807.877219541667,0.2307891845703125,2.4080810546875,1.27716064453125,5807.867268541667,-1.040479346536215,1.083544778696472,-0.243622853202552,6.488678932189941,3.057399749755859,-3.655144453048706,-0.9555065631866455,2.247838973999023,1.345715522766113,XArbitraryZVertical,0.164090848715225,0.4958704486975964,-0.4771151848852482,0.7067870321301544,0.8575300574302673,0.2412200719118118,-0.4543733894824982,0,0,0,-1,-1,5803.677212000001,unknown,2,2022-06-30T10:06:11.074+02:00,2022-06-30T08:20:05.567+02:00,1540,1.509928,0,0,1217.191,0,0,2022-06-30T10:06:13.625+02:00
2022-06-30T10:06:15.285+02:00,5807.887171541667,0.3197021484375,2.467330932617188,1.526626586914062,5807.877219541667,-1.115203397759914,1.093116279545376,-0.2457150083034996,6.199191093444824,2.515088319778442,-3.513787269592285,-0.7679294347763062,2.12354040145874,1.548466205596924,XArbitraryZVertical,0.1841170470905555,0.493097357434806,-0.5027041069193056,0.685743711423905,0.8613896369934082,0.243249922990799,-0.4459118247032166,0,0,0,-1,-1,5803.677212000001,unknown,2,2022-06-30T10:06:11.074+02:00,2022-06-30T08:20:05.567+02:00,1540,1.509928,0,0,1217.191,0,0,2022-06-30T10:06:13.625+02:00
2022-06-30T10:06:15.295+02:00,5807.897122541667,0.4587554931640625,2.3922119140625,1.758285522460938,5807.887171541667,-1.187066555019011,1.097731931642085,-0.2489758824949868,5.949669361114502,1.955455183982849,-3.477683067321777,-0.631938636302948,2.161669015884399,1.718728184700012,XArbitraryZVertical,0.2017249344149736,0.4883884911162396,-0.5271510557940082,0.6655039168123168,0.86272794008255,0.2464115470647812,-0.441567450761795,0,0,0,-1,-1,5803.677212000001,unknown,2,2022-06-30T10:06:11.074+02:00,2022-06-30T08:20:05.567+02:00,1540,1.509928,0,0,1217.191,0,0,2022-06-30T10:06:13.625+02:00
2022-06-30T10:06:15.305+02:00,5807.907073541667,0.5880584716796875,2.176971435546875,1.79449462890625,5807.897122541667,-1.255739876460433,1.097235971771217,-0.252938093646483,5.549976825714111,1.38294780254364,-3.317537784576416,-0.5419309139251709,2.21708083152771,1.968173265457153,XArbitraryZVertical,0.2168028268979521,0.4818954653643406,-0.5504464348964304,0.6463606657479039,0.8616332411766052,0.2502496540546417,-0.4415465891361237,0,0,0,-1,-1,5803.677212000001,unknown,2,2022-06-30T10:06:11.074+02:00,2022-06-30T08:20:05.567+02:00,1540,1.509928,0,0,1217.191,0,0,2022-06-30T10:06:13.625+02:00
2022-06-30T10:06:15.315+02:00,5807.917025541667,0.712921142578125,1.923736572265625,1.756988525390625,5807.907073541667,-1.318710504387134,1.092664090623838,-0.2575377629597592,4.879273891448975,0.910062849521637,-3.125000238418579,-0.3998187780380249,2.137511253356934,2.203232526779175,XArbitraryZVertical,0.2289270358880521,0.4744670332570777,-0.5718332022480084,0.6288722322647784,0.8585744500160217,0.2547003030776978,-0.4449468851089478,0,0,0,-1,-1,5803.677212000001,unknown,2,2022-06-30T10:06:11.074+02:00,2022-06-30T08:20:05.567+02:00,1540,1.509928,0,0,1217.191,0,0,2022-06-30T10:06:13.625+02:00
2022-06-30T10:06:15.324+02:00,5807.926976541667,0.8386993408203125,1.742767333984375,1.662384033203125,5807.917025541667,-1.374273497501573,1.085365598372572,-0.2634393725559782,4.131522178649902,0.5058106780052185,-2.934386730194092,-0.2659011483192444,1.916568279266357,2.244986772537231,XArbitraryZVertical,0.2378046773856435,0.4671219272511097,-0.5909204904523021,0.6132365434113151,0.8539597988128662,0.2604027986526489,-0.4504920840263367,0,0,0,-1,-1,5803.677212000001,unknown,2,2022-06-30T10:06:11.074+02:00,2022-06-30T08:20:05.567+02:00,1540,1.509928,0,0,1217.191,0,0,2022-06-30T10:06:13.625+02:00
2022-06-30T10:06:15.334+02:00,5807.936928541667,0.930694580078125,1.595794677734375,1.548263549804688,5807.926976541667,-1.422546919978812,1.075822530549043,-0.2707299998701652,3.442142486572266,0.1523820608854294,-2.780022621154785,-0.1350073218345642,1.656301259994507,2.214695453643799,XArbitraryZVertical,0.2436041858438647,0.4602212153351845,-0.60785981573614,0.5994663989583783,0.8479287028312683,0.2674349248409271,-0.4577068686485291,0,0,0,-1,-1,5803.677212000001,unknown,2,2022-06-30T10:06:11.074+02:00,2022-06-30T08:20:05.567+02:00,1540,1.509928,0,0,1217.191,0,0,2022-06-30T10:06:13.625+02:00
2022-06-30T10:06:15.344+02:00,5807.946879541667,1.025985717773438,1.3643798828125,1.436996459960938,5807.936928541667,-1.464182193971073,1.064537022579165,-0.2796920581584985,2.747427225112915,-0.1303771436214447,-2.675416469573975,-0.00187981128692627,1.466707229614258,2.128450155258179,XArbitraryZVertical,0.2465745444740023,0.4540573226881104,-0.622946556498439,0.5873420664258296,0.8405794501304626,0.2760596871376038,-0.4660658836364746,0,0,0,-1,-1,5803.677212000001,unknown,2,2022-06-30T10:06:11.074+02:00,2022-06-30T08:20:05.567+02:00,1540,1.509928,0,0,1217.191,0,0,2022-06-30T10:06:13.625+02:00
2022-06-30T10:06:15.354+02:00,5807.956831541667,1.139297485351562,1.11151123046875,1.300628662109375,5807.946879541667,-1.499263492667363,1.052301236986145,-0.2905479937048617,2.072824954986572,-0.3297429978847504,-2.550307750701904,0.09853297472000122,1.309316992759705,2.023066520690918,XArbitraryZVertical,0.2469577566725874,0.449010621799251,-0.6362183106105749,0.5767388491416439,0.8321618437767029,0.2864772975444794,-0.4748026430606842,0,0,0,-1,-1,5803.677212000001,unknown,2,2022-06-30T10:06:11.074+02:00,2022-06-30T08:20:05.567+02:00,1540,1.509928,0,0,1217.191,0,0,2022-06-30T10:06:13.625+02:00
2022-06-30T10:06:15.364+02:00,5807.966782541667,1.2791748046875,0.924163818359375,1.140335083007812,5807.956831541667,-1.527921481970375,1.040131165053719,-0.3032910618924429,1.401779294013977,-0.4125882089138031,-2.444655418395996,0.2028795480728149,1.065716862678528,1.920004487037659,XArbitraryZVertical,0.2451674073902339,0.4454088369552368,-0.6476420418600919,0.567506725547872,0.8231064677238464,0.2986626625061035,-0.4830078184604645,0,0,0,-1,-1,5803.677212000001,unknown,2,2022-06-30T10:06:11.074+02:00,2022-06-30T08:20:05.567+02:00,1540,1.509928,0,0,1217.191,0,0,2022-06-30T10:06:13.625+02:00
2022-06-30T10:06:15.374+02:00,5807.976733541667,1.42889404296875,0.8647613525390625,1.017730712890625,5807.966782541667,-1.550462760283672,1.029085171351085,-0.3181821278991526,0.7785788178443909,-0.4270939230918884,-2.341299057006836,0.3254778981208801,0.7986704111099243,1.790351390838623,XArbitraryZVertical,0.2415854775968533,0.44359346433534,-0.657252351373114,0.5593573844945673,0.8138198256492615,0.312840461730957,-0.4897225797176361,0,0,0,-1,-1,5803.677212000001,unknown,2,2022-06-30T10:06:11.074+02:00,2022-06-30T08:20:05.567+02:00,1540,1.509928,0,0,1217.191,0,0,2022-06-30T10:06:13.625+02:00
