loggingTime(txt),accelerometerTimestamp_sinceReboot(s),accelerometerAccelerationX(G),accelerometerAccelerationY(G),accelerometerAccelerationZ(G),motionTimestamp_sinceReboot(s),motionYaw(rad),motionRoll(rad),motionPitch(rad),motionRotationRateX(rad/s),motionRotationRateY(rad/s),motionRotationRateZ(rad/s),motionUserAccelerationX(G),motionUserAccelerationY(G),motionUserAccelerationZ(G),motionAttitudeReferenceFrame(txt),motionQuaternionX(R),motionQuaternionY(R),motionQuaternionZ(R),motionQuaternionW(R),motionGravityX(G),motionGravityY(G),motionGravityZ(G),motionMagneticFieldX(µT),motionMagneticFieldY(µT),motionMagneticFieldZ(µT),motionHeading(°),motionMagneticFieldCalibrationAccuracy(Z),activityTimestamp_sinceReboot(s),activity(txt),activityActivityConfidence(Z),activityActivityStartDate(txt),pedometerStartDate(txt),pedometerNumberofSteps(N),pedometerAverageActivePace(s/m),pedometerCurrentPace(s/m),pedometerCurrentCadence(steps/s),pedometerDistance(m),pedometerFloorAscended(N),pedometerFloorDescended(N),pedometerEndDate(txt)
2022-06-30T10:08:34.890+02:00,5888.91689225,-0.0457916259765625,-0.30474853515625,-0.952117919921875,5888.90694125,2.328619935795896,-0.06311972019962378,0.330446057923107,-0.03157015889883041,0.005715861916542053,-0.06148112565279007,-0.07218597829341888,0.04750314354896545,-0.01321566104888916,XArbitraryZVertical,0.09358612696487949,0.1386888904046359,0.9035039433367488,0.3945727292427606,-0.05966516211628914,-0.3244649767875671,-0.9440140724182129,0,0,0,-1,-1,5885.254239875,unknown,2,2022-06-30T10:08:31.213+02:00,2022-06-30T08:20:05.567+02:00,1582,1.513208,0,0,1248.267,0,0,2022-06-30T10:08:33.761+02:00
2022-06-30T10:08:34.890+02:00,5888.926844250001,-0.061737060546875,-0.355133056640625,-0.9462738037109375,5888.91689225,2.327828514670133,-0.0632872618801265,0.3307624739141455,0.04710015282034874,0.02856897935271263,-0.1263525187969208,0.0574212521314621,0.007015645503997803,-0.0493847131729126,XArbitraryZVertical,0.09377764417642701,0.1387623188833817,0.9033140659508888,0.3949361196242256,-0.05981682613492012,-0.3247642815113068,-0.943901538848877,0,0,0,-1,-1,5885.254239875,unknown,2,2022-06-30T10:08:31.213+02:00,2022-06-30T08:20:05.567+02:00,1582,1.513208,0,0,1248.267,0,0,2022-06-30T10:08:33.761+02:00
2022-06-30T10:08:34.896+02:00,5888.936795250001,-0.0568695068359375,-0.37945556640625,-0.93927001953125,5888.926844250001,2.326351086362425,-0.06195730744203173,0.3316923612426839,0.06881090253591537,0.02826867066323757,-0.1189510077238083,0.01275113970041275,0.02089548110961914,-0.008439600467681885,XArbitraryZVertical,0.09345914185476629,0.1393777838046358,0.9030083571377654,0.395493690431213,-0.05854270234704018,-0.3256435990333557,-0.9436784386634827,0,0,0,-1,-1,5885.254239875,unknown,2,2022-06-30T10:08:31.213+02:00,2022-06-30T08:20:05.567+02:00,1582,1.513208,0,0,1248.267,0,0,2022-06-30T10:08:33.761+02:00
2022-06-30T10:08:34.907+02:00,5888.946746000001,-0.0538787841796875,-0.3646392822265625,-0.932647705078125,5888.936795250001,2.325262459080407,-0.06113287630199403,0.332234367468716,0.01378840208053589,0.04808605462312698,-0.08792411535978317,-0.003983110189437866,-0.02897664904594421,-0.002723872661590576,XArbitraryZVertical,0.09326762360991335,0.1397358779759611,0.9027870619949812,0.395917338043129,-0.05775389447808266,-0.3261560201644897,-0.9435500502586365,0,0,0,-1,-1,5885.254239875,unknown,2,2022-06-30T10:08:31.213+02:00,2022-06-30T08:20:05.567+02:00,1582,1.513208,0,0,1248.267,0,0,2022-06-30T10:08:33.761+02:00
2022-06-30T10:08:34.916+02:00,5888.956698,-0.032470703125,-0.3521270751953125,-0.9463958740234375,5888.946746000001,2.32424877341957,-0.05994291143208089,0.332214674854544,-0.04603112488985062,0.08197843283414841,-0.09685136377811432,-0.0002380087971687317,-0.05331778526306152,0.004354357719421387,XArbitraryZVertical,0.09279758463810697,0.1399154545018401,0.9026433173477407,0.3962921474663255,-0.05663144588470459,-0.3261373937129974,-0.9436245560646057,0,0,0,-1,-1,5885.254239875,unknown,2,2022-06-30T10:08:31.213+02:00,2022-06-30T08:20:05.567+02:00,1582,1.513208,0,0,1248.267,0,0,2022-06-30T10:08:33.761+02:00
2022-06-30T10:08:34.926+02:00,5888.966649,-0.029693603515625,-0.3378753662109375,-0.952056884765625,5888.956698,2.323071701139257,-0.05859444119046357,0.3318796392029826,-0.05661772191524506,0.0794827863574028,-0.1092379912734032,0.001486610621213913,-0.03881821036338806,0.01116126775741577,XArbitraryZVertical,0.09220648414176966,0.1399765193780769,0.9024996253650343,0.3967354426275636,-0.05536534264683723,-0.3258206844329834,-0.9438090920448303,0,0,0,-1,-1,5885.254239875,unknown,2,2022-06-30T10:08:31.213+02:00,2022-06-30T08:20:05.567+02:00,1582,1.513208,0,0,1248.267,0,0,2022-06-30T10:08:33.761+02:00
2022-06-30T10:08:34.936+02:00,5888.976601,-0.0239105224609375,-0.3282928466796875,-0.968353271484375,5888.966649,2.321909801912391,-0.05747223170006551,0.3313943426592211,-0.06403981894254684,0.08209639042615891,-0.1055603623390198,0.02184457704424858,-0.02676481008529663,-0.002367615699768066,XArbitraryZVertical,0.09168724069508488,0.1399259375049481,0.9023601044930686,0.3971907783186692,-0.0543152317404747,-0.3253618180751801,-0.944028377532959,0,0,0,-1,-1,5885.254239875,unknown,2,2022-06-30T10:08:31.213+02:00,2022-06-30T08:20:05.567+02:00,1582,1.513208,0,0,1248.267,0,0,2022-06-30T10:08:33.761+02:00
2022-06-30T10:08:34.946+02:00,5888.986552,-0.0167236328125,-0.3180999755859375,-0.9722900390625,5888.976601,2.320824470046432,-0.0564131493395308,0.3308573965131368,-0.06670351326465607,0.07980474084615707,-0.09855012595653534,0.02363169193267822,-0.01302093267440796,-0.007797360420227051,XArbitraryZVertical,0.09118096549318404,0.1398435105453616,0.9022364413813485,0.3976170881378377,-0.05332523956894875,-0.3248540461063385,-0.9442596435546875,0,0,0,-1,-1,5885.254239875,unknown,2,2022-06-30T10:08:31.213+02:00,2022-06-30T08:20:05.567+02:00,1582,1.513208,0,0,1248.267,0,0,2022-06-30T10:08:33.761+02:00
2022-06-30T10:08:34.956+02:00,5888.996504000001,-0.0179443359375,-0.3083038330078125,-0.974273681640625,5888.986552,2.319945122518732,-0.05565683274526906,0.3299276715805738,-0.07962017506361008,0.08796109259128571,-0.08331175148487091,0.02871737629175186,-0.00431784987449646,-0.02375257015228271,XArbitraryZVertical,0.09072021266634712,0.139532837907633,0.9021711376208108,0.3979796864250433,-0.05262784659862518,-0.323974609375,-0.9446008801460266,0,0,0,-1,-1,5885.254239875,unknown,2,2022-06-30T10:08:31.213+02:00,2022-06-30T08:20:05.567+02:00,1582,1.513208,0,0,1248.267,0,0,2022-06-30T10:08:33.761+02:00
2022-06-30T10:08:34.966+02:00,5889.006455000001,-0.0142059326171875,-0.29815673828125,-0.9698333740234375,5888.996504000001,2.318969147373705,-0.05401595455160731,0.3290060669700342,-0.077712282538414,0.09582141041755676,-0.06646832078695297,0.03437031805515289,0.005002975463867188,-0.02730649709701538,XArbitraryZVertical,0.08986844127935456,0.1393980681958172,0.9021251475339667,0.3983242563340713,-0.05109389871358871,-0.3231025636196136,-0.9449836611747742,0,0,0,-1,-1,5885.254239875,unknown,2,2022-06-30T10:08:31.213+02:00,2022-06-30T08:20:05.567+02:00,1582,1.513208,0,0,1248.267,0,0,2022-06-30T10:08:33.761+02:00
2022-06-30T10:08:34.976+02:00,5889.016406000001,-0.0160980224609375,-0.2987060546875,-0.9638671875,5889.006455000001,2.318276634506661,-0.05276449712011848,0.3281143505801961,-0.05852827057242393,0.09693293273448944,-0.05530325323343277,0.03198214620351791,0.01395511627197266,-0.02893960475921631,XArbitraryZVertical,0.08917811140123139,0.1392126182748489,0.902114692020079,0.3985678297216431,-0.04992642626166344,-0.3222585618495941,-0.9453341960906982,0,0,0,-1,-1,5885.254239875,unknown,2,2022-06-30T10:08:31.213+02:00,2022-06-30T08:20:05.567+02:00,1582,1.513208,0,0,1248.267,0,0,2022-06-30T10:08:33.761+02:00
2022-06-30T10:08:34.986+02:00,5889.026358,-0.01580810546875,-0.307708740234375,-0.951019287109375,5889.016406000001,2.317772547119359,-0.05175427776057882,0.3279992502264955,-0.03419097512960434,0.09591454267501831,-0.04651802033185959,0.03476744890213013,0.02399325370788574,-0.02441227436065674,XArbitraryZVertical,0.08873506797242575,0.1393394419941486,0.902068363073493,0.3987272675601369,-0.04897332563996315,-0.3221495747566223,-0.9454212188720703,0,0,0,-1,-1,5885.254239875,unknown,2,2022-06-30T10:08:31.213+02:00,2022-06-30T08:20:05.567+02:00,1582,1.513208,0,0,1248.267,0,0,2022-06-30T10:08:33.761+02:00
2022-06-30T10:08:34.996+02:00,5889.036309,-0.0168609619140625,-0.3154296875,-0.9387054443359375,5889.026358,2.317357786129964,-0.05075115707854642,0.3284709912683061,-0.004761381074786186,0.09277785569429398,-0.03682241588830948,0.03191924840211868,0.02389046549797058,-0.01854932308197021,XArbitraryZVertical,0.08840383266052648,0.1397346541810038,0.9019923563479965,0.3988343099574026,-0.04801721498370171,-0.3225961327552795,-0.9453179836273193,0,0,0,-1,-1,5885.254239875,unknown,2,2022-06-30T10:08:31.213+02:00,2022-06-30T08:20:05.567+02:00,1582,1.513208,0,0,1248.267,0,0,2022-06-30T10:08:33.761+02:00
2022-06-30T10:08:35.006+02:00,5889.046261,-0.0242919921875,-0.3262176513671875,-0.9248199462890625,5889.036309,2.317035327409928,-0.04985741509696212,0.3290780339714469,0.01660862192511559,0.08364906907081604,-0.03225429728627205,0.03135450929403305,0.01546233892440796,-0.005854666233062744,XArbitraryZVertical,0.08814211565410927,0.1401734303636642,0.9019189759910665,0.3989041891213754,-0.04716255515813828,-0.3231706619262695,-0.9451647400856018,0,0,0,-1,-1,5885.254239875,unknown,2,2022-06-30T10:08:31.213+02:00,2022-06-30T08:20:05.567+02:00,1582,1.513208,0,0,1248.267,0,0,2022-06-30T10:08:33.761+02:00
2022-06-30T10:08:35.016+02:00,5889.056212,-0.0288543701171875,-0.3365631103515625,-0.915496826171875,5889.046261,2.316623106469811,-0.04872814347963356,0.3296487443580423,0.02329502068459988,0.08074504137039185,-0.032119270414114,0.02922528237104416,0.008281409740447998,0.006327450275421143,XArbitraryZVertical,0.08777355255533199,0.1406388307873599,0.9018408247860082,0.3989984759254625,-0.04608618840575218,-0.323710709810257,-0.945033073425293,0,0,0,-1,-1,5885.254239875,unknown,2,2022-06-30T10:08:31.213+02:00,2022-06-30T08:20:05.567+02:00,1582,1.513208,0,0,1248.267,0,0,2022-06-30T10:08:33.761+02:00
2022-06-30T10:08:35.026+02:00,5889.066164000001,-0.0324859619140625,-0.3465576171875,-0.9138031005859375,5889.056212,2.316249871542187,-0.04758800270844257,0.3300396802544189,0.01825418882071972,0.07774952054023743,-0.02660892531275749,0.02071072161197662,-0.002136677503585815,0.02013838291168213,XArbitraryZVertical,0.08736231962804999,0.1410268835817184,0.9017849672122917,0.3990777743993347,-0.04500266164541245,-0.3240805566310883,-0.944958508014679,0,0,0,-1,-1,5885.254239875,unknown,2,2022-06-30T10:08:31.213+02:00,2022-06-30T08:20:05.567+02:00,1582,1.513208,0,0,1248.267,0,0,2022-06-30T10:08:33.761+02:00
2022-06-30T10:08:35.036+02:00,5889.076115000001,-0.03387451171875,-0.3501129150390625,-0.9192657470703125,5889.066164000001,2.315825324430781,-0.04620950952473293,0.330070447936117,0.001764162443578243,0.07114402949810028,-0.02478213049471378,0.01484522596001625,-0.01245301961898804,0.02951276302337646,XArbitraryZVertical,0.08677677595959568,0.1412973837745629,0.901757897194425,0.3991713808905792,-0.04369954392313957,-0.324109673500061,-0.945009708404541,0,0,0,-1,-1,5885.254239875,unknown,2,2022-06-30T10:08:31.213+02:00,2022-06-30T08:20:05.567+02:00,1582,1.513208,0,0,1248.267,0,0,2022-06-30T10:08:33.761+02:00
2022-06-30T10:08:35.046+02:00,5889.086066000001,-0.036285400390625,-0.3428802490234375,-0.92303466796875,5889.076115000001,2.31533448450738,-0.04478632657183448,0.3297010121918175,-0.01151595637202263,0.06405042856931686,-0.0277776550501585,0.009874027222394943,-0.02279704809188843,0.03138726949691772,XArbitraryZVertical,0.08609730010837557,0.1413931624047236,0.9017507911283762,0.399300364732026,-0.04235993325710297,-0.3237601518630981,-0.9451904296875,0,0,0,-1,-1,5885.254239875,unknown,2,2022-06-30T10:08:31.213+02:00,2022-06-30T08:20:05.567+02:00,1582,1.513208,0,0,1248.267,0,0,2022-06-30T10:08:33.761+02:00
2022-06-30T10:08:35.056+02:00,5889.096018,-0.0438690185546875,-0.3224945068359375,-0.924407958984375,5889.086066000001,2.314829388778667,-0.04350250890445986,0.3290031961717542,-0.0189693458378315,0.04964524880051613,-0.02453312464058399,0.007281802594661713,-0.02701267600059509,0.02620363235473633,XArbitraryZVertical,0.08541712098953927,0.1413122133215204,0.9017604315184828,0.3994534305068037,-0.04115626215934753,-0.3230998516082764,-0.9454695582389832,0,0,0,-1,-1,5885.254239875,unknown,2,2022-06-30T10:08:31.213+02:00,2022-06-30T08:20:05.567+02:00,1582,1.513208,0,0,1248.267,0,0,2022-06-30T10:08:33.761+02:00
2022-06-30T10:08:35.066+02:00,5889.105969,-0.049285888671875,-0.3062896728515625,-0.9286346435546875,5889.096018,2.314336802250875,-0.04225617091456959,0.3280733250955184,-0.01560710370540619,0.03695368766784668,-0.02258768677711487,0.003705188632011414,-0.0206601619720459,0.02278506755828857,XArbitraryZVertical,0.08470717299779434,0.1411196575350841,0.9017886086728956,0.3996090909356522,-0.03999052941799164,-0.3222196996212006,-0.9458198547363281,0,0,0,-1,-1,5885.254239875,unknown,2,2022-06-30T10:08:31.213+02:00,2022-06-30T08:20:05.567+02:00,1582,1.513208,0,0,1248.267,0,0,2022-06-30T10:08:33.761+02:00
2022-06-30T10:08:35.076+02:00,5889.115921000001,-0.05096435546875,-0.3005218505859375,-0.9357452392578125,5889.105969,2.313805757250698,-0.04104855562254668,0.3271997976236856,0.001513692550361156,0.03653104603290558,-0.03150228783488274,-0.005009107291698456,-0.001101464033126831,0.02174025774002075,XArbitraryZVertical,0.08402825088766028,0.1409435495021376,0.901802180786085,0.3997837041691233,-0.03885985165834427,-0.3213926553726196,-0.9461483359336853,0,0,0,-1,-1,5885.254239875,unknown,2,2022-06-30T10:08:31.213+02:00,2022-06-30T08:20:05.567+02:00,1582,1.513208,0,0,1248.267,0,0,2022-06-30T10:08:33.761+02:00
2022-06-30T10:08:35.086+02:00,5889.125872000001,-0.050537109375,-0.3092803955078125,-0.940093994140625,5889.115921000001,2.313256441670857,-0.03988829294674959,0.3269022195378989,0.01680316776037216,0.03646846115589142,-0.03435106948018074,-0.01151998341083527,0.01482155919075012,0.01765352487564087,XArbitraryZVertical,0.08348522282840663,0.1410179312071539,0.9017643739093513,0.39995673272904,-0.03776585683226585,-0.3211108446121216,-0.9462883472442627,0,0,0,-1,-1,5885.254239875,unknown,2,2022-06-30T10:08:31.213+02:00,2022-06-30T08:20:05.567+02:00,1582,1.513208,0,0,1248.267,0,0,2022-06-30T10:08:33.761+02:00
2022-06-30T10:08:35.096+02:00,5889.135824,-0.046630859375,-0.3151092529296875,-0.9445343017578125,5889.125872000001,2.312717369086041,-0.03881769571052784,0.3270855324532278,0.03138144314289093,0.03302388265728951,-0.03313420340418816,-0.01421383768320084,0.02076297998428345,0.01052397489547729,XArbitraryZVertical,0.08307670539007971,0.141292511368912,0.9016867521786831,0.4001198331215478,-0.03675045818090439,-0.3212844431400299,-0.9462693929672241,0,0,0,-1,-1,5885.254239875,unknown,2,2022-06-30T10:08:31.213+02:00,2022-06-30T08:20:05.567+02:00,1582,1.513208,0,0,1248.267,0,0,2022-06-30T10:08:33.761+02:00
2022-06-30T10:08:35.105+02:00,5889.145775,-0.0458831787109375,-0.316558837890625,-0.9384918212890625,5889.135824,2.312281612105312,-0.03799122893511456,0.3277195872942784,0.02417386323213577,0.0406051017343998,-0.02880816347897053,-0.01457641273736954,0.01260483264923096,0.006001532077789307,XArbitraryZVertical,0.08286000431643147,0.1417264401304622,0.9015841602294747,0.4002425190515808,-0.03596064075827599,-0.32188481092453,-0.9460956454277039,0,0,0,-1,-1,5885.254239875,unknown,2,2022-06-30T10:08:31.213+02:00,2022-06-30T08:20:05.567+02:00,1582,1.513208,0,0,1248.267,0,0,2022-06-30T10:08:33.761+02:00
2022-06-30T10:08:35.115+02:00,5889.155726,-0.0418243408203125,-0.3208770751953125,-0.9282684326171875,5889.145775,2.311918848534818,-0.03729429550397939,0.3286428690136066,0.01246953755617142,0.04250945150852203,-0.02848099544644356,-0.01134064048528671,0.00764995813369751,0.001288652420043945,XArbitraryZVertical,0.08275379877843056,0.1422682421721749,0.9014679219980641,0.4003339707769767,-0.03529017046093941,-0.322758823633194,-0.9458231329917908,0,0,0,-1,-1,5885.254239875,unknown,2,2022-06-30T10:08:31.213+02:00,2022-06-30T08:20:05.567+02:00,1582,1.513208,0,0,1248.267,0,0,2022-06-30T10:08:33.761+02:00
2022-06-30T10:08:35.125+02:00,5889.165678,-0.042938232421875,-0.31854248046875,-0.920379638671875,5889.155726,2.311587304189445,-0.03670673273364433,0.3297201872019809,0.004815079737454653,0.04225112497806549,-0.02951030619442463,-0.01116147264838219,0.007219880819320679,0.007003724575042725,XArbitraryZVertical,0.082725292834558,0.1428590165035129,0.9013411348219256,0.4004149310204204,-0.03472165390849113,-0.3237783014774323,-0.9454956650733948,0,0,0,-1,-1,5885.254239875,unknown,2,2022-06-30T10:08:31.213+02:00,2022-06-30T08:20:05.567+02:00,1582,1.513208,0,0,1248.267,0,0,2022-06-30T10:08:33.761+02:00
2022-06-30T10:08:35.137+02:00,5889.175629,-0.043731689453125,-0.3183746337890625,-0.9184417724609375,5889.165678,2.311292367402574,-0.0361976554331591,0.3306544862638768,0.004380984697490931,0.04186743870377541,-0.02910830266773701,-0.007594935595989227,0.003785461187362671,0.01694190502166748,XArbitraryZVertical,0.08270149515432274,0.1433709185108941,0.9012294880010178,0.4004881143686851,-0.03422935307025909,-0.3246621191501617,-0.9452104568481445,0,0,0,-1,-1,5885.254239875,unknown,2,2022-06-30T10:08:31.213+02:00,2022-06-30T08:20:05.567+02:00,1582,1.513208,0,0,1248.267,0,0,2022-06-30T10:08:33.761+02:00
2022-06-30T10:08:35.155+02:00,5889.185581000001,-0.0439453125,-0.3180999755859375,-0.9245147705078125,5889.175629,2.311001671272186,-0.03576273008014604,0.3312186735529356,0.002869374584406614,0.03843862190842628,-0.029965840280056,-0.009126476943492889,0.00665360689163208,0.0246623158454895,XArbitraryZVertical,0.08263784087699284,0.1437008962469832,0.9011447215929507,0.4005737279672642,-0.03381169959902763,-0.325195699930191,-0.9450420737266541,0,0,0,-1,-1,5885.254239875,unknown,2,2022-06-30T10:08:31.213+02:00,2022-06-30T08:20:05.567+02:00,1582,1.513208,0,0,1248.267,0,0,2022-06-30T10:08:33.761+02:00
2022-06-30T10:08:35.157+02:00,5889.195532000001,-0.048858642578125,-0.3134307861328125,-0.9177093505859375,5889.185581000001,2.310754466307499,-0.03551857398395637,0.3312931456467548,-0.006789044942706823,0.02946878969669342,-0.02846837788820267,-0.01015154272317886,0.006891876459121704,0.0265842080116272,XArbitraryZVertical,0.08256031744400938,0.1437732342891762,0.9010994127861954,0.4006656933929686,-0.03358010202646255,-0.3252661228179932,-0.9450260996818542,0,0,0,-1,-1,5885.254239875,unknown,2,2022-06-30T10:08:31.213+02:00,2022-06-30T08:20:05.567+02:00,1582,1.513208,0,0,1248.267,0,0,2022-06-30T10:08:33.761+02:00
2022-06-30T10:08:35.165+02:00,5889.205483000001,-0.046966552734375,-0.3117828369140625,-0.9210357666015625,5889.195532000001,2.310513741014478,-0.03539815748894942,0.330958029841136,-0.02400451712310314,0.02866877615451813,-0.0344461090862751,-0.01047509163618088,0.00684964656829834,0.02062410116195679,XArbitraryZVertical,0.08245711308756758,0.1436360496787935,0.9010825933263377,0.4007739635264305,-0.03347016125917435,-0.3249492049217224,-0.9451389908790588,0,0,0,-1,-1,5885.254239875,unknown,2,2022-06-30T10:08:31.213+02:00,2022-06-30T08:20:05.567+02:00,1582,1.513208,0,0,1248.267,0,0,2022-06-30T10:08:33.761+02:00
2022-06-30T10:08:35.175+02:00,5889.215435,-0.037384033203125,-0.30780029296875,-0.921539306640625,5889.205483000001,2.310252479271496,-0.03530210157866068,0.3304151631300709,-0.02776203863322735,0.02072208374738693,-0.02983907237648964,-0.01547298580408096,0.01100537180900574,0.02760887145996094,XArbitraryZVertical,0.08232522886119308,0.1433993132936518,0.9010769778821336,0.4008985068433203,-0.03338559716939926,-0.3244357705116272,-0.9453184008598328,0,0,0,-1,-1,5885.254239875,unknown,2,2022-06-30T10:08:31.213+02:00,2022-06-30T08:20:05.567+02:00,1582,1.513208,0,0,1248.267,0,0,2022-06-30T10:08:33.761+02:00
2022-06-30T10:08:35.185+02:00,5889.225386,-0.0355224609375,-0.30462646484375,-0.92547607421875,5889.215435,2.310073868984939,-0.0353179397923734,0.3300081749475625,-0.02066790871322155,0.01495873741805553,-0.02115077711641788,-0.01356127113103867,0.0122683048248291,0.0244138240814209,XArbitraryZVertical,0.08226465096184611,0.1432049635316927,0.901072498245917,0.4009902975200962,-0.03340522572398186,-0.3240507543087006,-0.9454497098922729,0,0,0,-1,-1,5885.254239875,unknown,2,2022-06-30T10:08:31.213+02:00,2022-06-30T08:20:05.567+02:00,1582,1.513208,0,0,1248.267,0,0,2022-06-30T10:08:33.761+02:00
2022-06-30T10:08:35.195+02:00,5889.235338,-0.0291748046875,-0.31085205078125,-0.93194580078125,5889.225386,2.309925583417071,-0.03531500487678619,0.3297109706716445,-0.01508931908756495,0.009587492793798447,-0.02056331746280193,-0.003978125751018524,0.01596969366073608,0.02400660514831543,XArbitraryZVertical,0.0822151352259443,0.143065210514591,0.9010662322665461,0.4010643556429243,-0.033405851572752,-0.3237695693969727,-0.94554603099823,0,0,0,-1,-1,5885.254239875,unknown,2,2022-06-30T10:08:31.213+02:00,2022-06-30T08:20:05.567+02:00,1582,1.513208,0,0,1248.267,0,0,2022-06-30T10:08:33.761+02:00
2022-06-30T10:08:35.205+02:00,5889.245289,-0.0312347412109375,-0.32196044921875,-0.9296722412109375,5889.235338,2.309768501204508,-0.0353668966562132,0.3295466022562233,-0.0078987842425704,0.000385472783818841,-0.02147864550352097,-0.002065606415271759,0.0189879834651947,0.02012127637863159,XArbitraryZVertical,0.08221721966775329,0.1429740896889515,0.9010455415125956,0.4011430316742728,-0.03345679864287376,-0.3236140608787537,-0.9455974698066711,0,0,0,-1,-1,5885.254239875,unknown,2,2022-06-30T10:08:31.213+02:00,2022-06-30T08:20:05.567+02:00,1582,1.513208,0,0,1248.267,0,0,2022-06-30T10:08:33.761+02:00
2022-06-30T10:08:35.215+02:00,5889.255241000001,-0.0332794189453125,-0.3257904052734375,-0.927581787109375,5889.245289,2.309568305017576,-0.03546542642807463,0.3295621937143666,-0.001804806292057037,-0.005602717865258455,-0.02545840851962566,0.00437503308057785,0.01277714967727661,0.01364320516586304,XArbitraryZVertical,0.08227900524258003,0.1429531324156803,0.9010001130175732,0.4012398846346476,-0.03354978933930397,-0.3236288130283356,-0.9455891251564026,0,0,0,-1,-1,5885.254239875,unknown,2,2022-06-30T10:08:31.213+02:00,2022-06-30T08:20:05.567+02:00,1582,1.513208,0,0,1248.267,0,0,2022-06-30T10:08:33.761+02:00
2022-06-30T10:08:35.225+02:00,5889.265192000001,-0.040130615234375,-0.324310302734375,-0.9246978759765625,5889.255241000001,2.309298121011275,-0.03562372705870503,0.3295632280058186,-0.01082839444279671,-0.01511845923960209,-0.03107794560492039,0.00246477872133255,0.001669734716415405,0.01591110229492188,XArbitraryZVertical,0.08236983102563573,0.1429107145376557,0.9009393028824954,0.4013728862553286,-0.03369946405291557,-0.3236297965049744,-0.9455834627151489,0,0,0,-1,-1,5885.254239875,unknown,2,2022-06-30T10:08:31.213+02:00,2022-06-30T08:20:05.567+02:00,1582,1.513208,0,0,1248.267,0,0,2022-06-30T10:08:33.761+02:00
2022-06-30T10:08:35.235+02:00,5889.275143000001,-0.03863525390625,-0.319671630859375,-0.9236907958984375,5889.265192000001,2.308992606511467,-0.03581914549611198,0.3294926031217501,-0.01691951043903828,-0.01692857220768929,-0.03632373735308647,0.0006057024002075195,-0.002227038145065308,0.01801776885986328,XArbitraryZVertical,0.08246569669131844,0.1428269901280346,0.90087551045309,0.4015263021587944,-0.03388506546616554,-0.3235629796981812,-0.9455997347831726,0,0,0,-1,-1,5885.254239875,unknown,2,2022-06-30T10:08:31.213+02:00,2022-06-30T08:20:05.567+02:00,1582,1.513208,0,0,1248.267,0,0,2022-06-30T10:08:33.761+02:00
2022-06-30T10:08:35.245+02:00,5889.285095,-0.035430908203125,-0.3252410888671875,-0.929595947265625,5889.275143000001,2.308622035657141,-0.03601174154109894,0.3293048186733064,-0.02830292657017708,-0.01652244105935097,-0.04595772176980972,-0.006061196327209473,-0.0009246468544006348,0.02095586061477661,XArbitraryZVertical,0.08254169356480694,0.1426882228245277,0.9008079000954977,0.4017116657605782,-0.03406937047839165,-0.3233852684497833,-0.9456538558006287,0,0,0,-1,-1,5885.254239875,unknown,2,2022-06-30T10:08:31.213+02:00,2022-06-30T08:20:05.567+02:00,1582,1.513208,0,0,1248.267,0,0,2022-06-30T10:08:33.761+02:00
2022-06-30T10:08:35.255+02:00,5889.295046,-0.036407470703125,-0.3274078369140625,-0.9261932373046875,5889.285095,2.308187968254703,-0.03627085222115464,0.3289661224871268,-0.04256315529346466,-0.02321025729179382,-0.0486576035618782,-0.004316821694374084,0.00339353084564209,0.0220634937286377,XArbitraryZVertical,0.08262220446412082,0.1424653081996221,0.9007365309074822,0.401934013650967,-0.03431836888194084,-0.323064774274826,-0.9457544088363647,0,0,0,-1,-1,5885.254239875,unknown,2,2022-06-30T10:08:31.213+02:00,2022-06-30T08:20:05.567+02:00,1582,1.513208,0,0,1248.267,0,0,2022-06-30T10:08:33.761+02:00
2022-06-30T10:08:35.265+02:00,5889.304998000001,-0.0461883544921875,-0.335418701171875,-0.9241790771484375,5889.295046,2.307663692252427,-0.03650519562006408,0.3284264254428264,-0.06079408898949623,-0.02219425886869431,-0.06061173230409622,-0.0008844844996929169,-0.00268670916557312,0.01632440090179443,XArbitraryZVertical,0.08265801775692468,0.1421528271894322,0.9006637863683309,0.4022002602143911,-0.03454635664820671,-0.322553962469101,-0.945920467376709,0,0,0,-1,-1,5885.254239875,unknown,2,2022-06-30T10:08:31.213+02:00,2022-06-30T08:20:05.567+02:00,1582,1.513208,0,0,1248.267,0,0,2022-06-30T10:08:33.761+02:00
2022-06-30T10:08:35.275+02:00,5889.314949000001,-0.0567474365234375,-0.337432861328125,-0.9249420166015625,5889.304998000001,2.30693305432017,-0.03652288623068548,0.3276853759009151,-0.07772700488567352,-0.01993098482489586,-0.07300608605146408,-0.001835614442825317,-0.005555003881454468,0.01996505260467529,XArbitraryZVertical,0.08257077908893826,0.1417844792136048,0.9005741057650722,0.4025489979070245,-0.0345718115568161,-0.3218524158000946,-0.9461584687232971,0,0,0,-1,-1,5885.254239875,unknown,2,2022-06-30T10:08:31.213+02:00,2022-06-30T08:20:05.567+02:00,1582,1.513208,0,0,1248.267,0,0,2022-06-30T10:08:33.761+02:00
2022-06-30T10:08:35.285+02:00,5889.324901,-0.0671234130859375,-0.33148193359375,-0.92010498046875,5889.314949000001,2.306112119549408,-0.0363863695294163,0.3267742034437719,-0.08634871989488602,-0.005293185822665691,-0.07692252844572067,-0.01173500716686249,-0.01442867517471313,0.02227663993835449,XArbitraryZVertical,0.08238640967772166,0.1413667734735686,0.900485494624045,0.4029314421383622,-0.03445329889655113,-0.3209896087646484,-0.9464558362960815,0,0,0,-1,-1,5885.254239875,unknown,2,2022-06-30T10:08:31.213+02:00,2022-06-30T08:20:05.567+02:00,1582,1.513208,0,0,1248.267,0,0,2022-06-30T10:08:33.761+02:00
2022-06-30T10:08:35.295+02:00,5889.334852,-0.0705108642578125,-0.3320159912109375,-0.92156982421875,5889.324901,2.305151454063885,-0.03599113938534381,0.3258605063547689,-0.09173502773046494,0.01195955835282803,-0.09494956582784653,-0.0226576179265976,-0.01730835437774658,0.02181994915008545,XArbitraryZVertical,0.08209456277373173,0.1409944824010094,0.9003792359727423,0.4033587371091964,-0.03408976644277573,-0.3201241195201874,-0.9467620849609375,0,0,0,-1,-1,5885.254239875,unknown,2,2022-06-30T10:08:31.213+02:00,2022-06-30T08:20:05.567+02:00,1582,1.513208,0,0,1248.267,0,0,2022-06-30T10:08:33.761+02:00
2022-06-30T10:08:35.304+02:00,5889.344803,-0.070648193359375,-0.3342437744140625,-0.92291259765625,5889.334852,2.303989351483998,-0.03542727657054027,0.3250553084325027,-0.09819106757640839,0.02324550226330757,-0.120077021420002,-0.03355833142995834,-0.01212033629417419,0.02693331241607666,XArbitraryZVertical,0.08176221464355879,0.1406972376527577,0.9002303523139731,0.4038622919477077,-0.03356503695249557,-0.3193612098693848,-0.947038471698761,0,0,0,-1,-1,5885.254239875,unknown,2,2022-06-30T10:08:31.213+02:00,2022-06-30T08:20:05.567+02:00,1582,1.513208,0,0,1248.267,0,0,2022-06-30T10:08:33.761+02:00
2022-06-30T10:08:35.315+02:00,5889.354755,-0.0776214599609375,-0.3345489501953125,-0.923126220703125,5889.344803,2.302559321211024,-0.03473331972071619,0.3242141721601494,-0.1161418333649635,0.02580281533300877,-0.1483603268861771,-0.03759367763996124,-0.01345160603523254,0.02575969696044922,XArbitraryZVertical,0.08138257766213415,0.1403996251276137,0.9000346676859636,0.4044780776244532,-0.03291714191436768,-0.3185639977455139,-0.9473296403884888,0,0,0,-1,-1,5885.254239875,unknown,2,2022-06-30T10:08:31.213+02:00,2022-06-30T08:20:05.567+02:00,1582,1.513208,0,0,1248.267,0,0,2022-06-30T10:08:33.761+02:00
2022-06-30T10:08:35.324+02:00,5889.364706,-0.0801544189453125,-0.341400146484375,-0.93145751953125,5889.354755,2.300811148825729,-0.03394666385380768,0.3231308800340962,-0.1516076773405075,0.04728600382804871,-0.1802239865064621,-0.03846453130245209,-0.0167064368724823,0.02478682994842529,XArbitraryZVertical,0.08093460852404218,0.1399992759597934,0.8997961128936093,0.4052367015058169,-0.03218360245227814,-0.3175369501113892,-0.9476996064186096,0,0,0,-1,-1,5885.254239875,unknown,2,2022-06-30T10:08:31.213+02:00,2022-06-30T08:20:05.567+02:00,1582,1.513208,0,0,1248.267,0,0,2022-06-30T10:08:33.761+02:00
2022-06-30T10:08:35.334+02:00,5889.374658000001,-0.079071044921875,-0.36639404296875,-0.9471435546875,5889.364706,2.298696045607212,-0.0327700760885685,0.321632193216594,-0.1920822709798813,0.07678002864122391,-0.2202766537666321,-0.04653731733560562,-0.0184330940246582,0.02508503198623657,XArbitraryZVertical,0.08025278317968922,0.1394769098268511,0.8995292904719798,0.4061438275222953,-0.0310840867459774,-0.3161154687404633,-0.9482113718986511,0,0,0,-1,-1,5885.254239875,unknown,2,2022-06-30T10:08:31.213+02:00,2022-06-30T08:20:05.567+02:00,1582,1.513208,0,0,1248.267,0,0,2022-06-30T10:08:33.761+02:00
2022-06-30T10:08:35.344+02:00,5889.384609000001,-0.0904083251953125,-0.3863372802734375,-0.9537353515625,5889.374658000001,2.296099683668255,-0.031102304979165,0.3198305247015335,-0.2370910197496414,0.1108482480049133,-0.268365889787674,-0.05063405632972717,-0.02699404954910278,0.01737195253372192,XArbitraryZVertical,0.07932133560037999,0.1389003882044275,0.8992049303216523,0.4072413548044663,-0.02952030673623085,-0.3144056797027588,-0.9488295912742615,0,0,0,-1,-1,5885.254239875,unknown,2,2022-06-30T10:08:31.213+02:00,2022-06-30T08:20:05.567+02:00,1582,1.513208,0,0,1248.267,0,0,2022-06-30T10:08:33.761+02:00
2022-06-30T10:08:35.354+02:00,5889.394561,-0.1124267578125,-0.40081787109375,-0.960968017578125,5889.384609000001,2.292919141303841,-0.02892264305416448,0.3176557684722618,-0.2986803650856018,0.1579549461603165,-0.331724226474762,-0.0515991747379303,-0.05405318737030029,0.00242924690246582,XArbitraryZVertical,0.07812310411998719,0.1382400744054051,0.8988059211769526,0.4085761606789854,-0.02747181989252567,-0.3123404681682587,-0.9495729207992554,0,0,0,-1,-1,5885.254239875,unknown,2,2022-06-30T10:08:31.213+02:00,2022-06-30T08:20:05.567+02:00,1582,1.513208,0,0,1248.267,0,0,2022-06-30T10:08:33.761+02:00
2022-06-30T10:08:35.364+02:00,5889.404512,-0.22027587890625,-0.4213104248046875,-0.9681243896484375,5889.394561,2.289148456173574,-0.02639175973255367,0.3152064220955918,-0.3819512724876404,0.2208955585956573,-0.4061518609523773,-0.06531968712806702,-0.07632416486740112,-0.003334164619445801,XArbitraryZVertical,0.07674948637989214,0.1375094745706034,0.8983147380945655,0.4101601046951242,-0.02508858777582645,-0.3100127279758453,-0.9504013061523438,0,0,0,-1,-1,5885.254239875,unknown,2,2022-06-30T10:08:31.213+02:00,2022-06-30T08:20:05.567+02:00,1582,1.513208,0,0,1248.267,0,0,2022-06-30T10:08:33.761+02:00
2022-06-30T10:08:35.374+02:00,5889.414463,-0.2976531982421875,-0.63421630859375,-0.9624786376953125,5889.404512,2.283489615785998,-0.02284525123433546,0.3117149578529133,-0.534811794757843,0.2961985766887665,-0.8196806311607361,-0.09068427979946136,-0.09412607550621033,-0.009407520294189453,XArbitraryZVertical,0.07483279302275218,0.1364541436456761,0.8975419607367332,0.4125514844855745,-0.02174242399632931,-0.3066914081573486,-0.9515606164932251,0,0,0,-1,-1,5885.254239875,unknown,2,2022-06-30T10:08:31.213+02:00,2022-06-30T08:20:05.567+02:00,1582,1.513208,0,0,1248.267,0,0,2022-06-30T10:08:33.761+02:00
2022-06-30T10:08:35.384+02:00,5889.424415,-0.08087158203125,-0.7491302490234375,-0.9849395751953125,5889.414463,2.272872547328726,-0.01615323355602967,0.30516267659844,-0.8239703774452209,0.4061136245727539,-1.024230599403381,-0.2048695981502533,-0.120861679315567,-0.01445084810256958,XArbitraryZVertical,0.07120127441078114,0.1345122618533654,0.8960546097915483,0.4170408162626824,-0.01540625374764204,-0.3004483282566071,-0.9536736607551575,0,0,0,-1,-1,5885.254239875,unknown,2,2022-06-30T10:08:31.213+02:00,2022-06-30T08:20:05.567+02:00,1582,1.513208,0,0,1248.267,0,0,2022-06-30T10:08:33.761+02:00
2022-06-30T10:08:35.394+02:00,5889.434366,-0.3812103271484375,-0.5629119873046875,-0.9139862060546875,5889.424415,2.263770003736487,-0.009144013129175153,0.295943279233181,-1.089288949966431,0.5084759593009949,-0.798728346824646,-0.2889067828655243,-0.3425736725330353,-0.005991280078887939,XArbitraryZVertical,0.06674470803970491,0.1315348027394178,0.8950269914918801,0.420916177026301,-0.008746378123760223,-0.2916422486305237,-0.9564874768257141,0,0,0,-1,-1,5885.254239875,unknown,2,2022-06-30T10:08:31.213+02:00,2022-06-30T08:20:05.567+02:00,1582,1.513208,0,0,1248.267,0,0,2022-06-30T10:08:33.761+02:00
2022-06-30T10:08:35.404+02:00,5889.444318000001,-0.3131866455078125,-0.590789794921875,-0.96502685546875,5889.434366,2.252851367822651,0.0003238080445915396,0.2831076504647381,-1.46401572227478,0.7566908597946167,-1.318946003913879,-0.08118246495723724,-0.4697889089584351,-0.02474772930145264,XArbitraryZVertical,0.06050480057987017,0.1274488172267128,0.8938605943091418,0.4255693942649551,0.0003109178796876222,-0.279340922832489,-0.9601919651031494,0,0,0,-1,-1,5885.254239875,unknown,2,2022-06-30T10:08:31.213+02:00,2022-06-30T08:20:05.567+02:00,1582,1.513208,0,0,1248.267,0,0,2022-06-30T10:08:33.761+02:00
2022-06-30T10:08:35.414+02:00,5889.454269000001,-0.3211822509765625,-0.6136016845703125,-0.9554290771484375,5889.444318000001,2.238155250891279,0.01210162506064958,0.2676899583162264,-1.597071409225464,0.8076039552688599,-1.493429064750671,-0.3928806185722351,-0.2984071969985962,0.05032753944396973,XArbitraryZVertical,0.05285447399697717,0.122676268536175,0.8919875960412021,0.43187409568538,0.01167033426463604,-0.2645043730735779,-0.9643138647079468,0,0,0,-1,-1,5885.254239875,unknown,2,2022-06-30T10:08:31.213+02:00,2022-06-30T08:20:05.567+02:00,1582,1.513208,0,0,1248.267,0,0,2022-06-30T10:08:33.761+02:00
2022-06-30T10:08:35.424+02:00,5889.464221,-0.370361328125,-0.63232421875,-0.9683380126953125,5889.454269000001,2.222462297649728,0.02471655487460396,0.2507771039764118,-1.759112477302551,0.9426445960998535,-1.652973175048828,-0.3371275961399078,-0.3426325619220734,0.003397047519683838,XArbitraryZVertical,0.04447847760313478,0.1175145596971448,0.8898267781156844,0.4386573934271865,0.02394098043441772,-0.2481568306684494,-0.9684239625930786,0,0,0,-1,-1,5885.254239875,unknown,2,2022-06-30T10:08:31.213+02:00,2022-06-30T08:20:05.567+02:00,1582,1.513208,0,0,1248.267,0,0,2022-06-30T10:08:33.761+02:00
2022-06-30T10:08:35.434+02:00,5889.474172,-0.366302490234375,-0.70562744140625,-0.99871826171875,5889.464221,2.204591422632661,0.03925395992619287,0.2313148114399435,-2.05065131187439,1.12449061870575,-1.962871313095093,-0.3593809008598328,-0.3843437433242798,0.01718682050704956,XArbitraryZVertical,0.03470460580112114,0.1117479150787055,0.8871373462264539,0.4464251279003402,0.03819864988327026,-0.2292575091123581,-0.9726160168647766,0,0,0,-1,-1,5885.254239875,unknown,2,2022-06-30T10:08:31.213+02:00,2022-06-30T08:20:05.567+02:00,1582,1.513208,0,0,1248.267,0,0,2022-06-30T10:08:33.761+02:00
2022-06-30T10:08:35.444+02:00,5889.484123,-0.3914642333984375,-0.7359466552734375,-1.00286865234375,5889.474172,2.184272134580497,0.05577521598759171,0.2083190941923864,-2.374703407287598,1.310064196586609,-2.232784748077393,-0.4249023795127869,-0.4255081713199615,0.008520424365997314,XArbitraryZVertical,0.02325352318058165,0.1050238609420979,0.8837942926481507,0.4553428383813462,0.05454106256365776,-0.206815630197525,-0.9768584966659546,0,0,0,-1,-1,5885.254239875,unknown,2,2022-06-30T10:08:31.213+02:00,2022-06-30T08:20:05.567+02:00,1582,1.513208,0,0,1248.267,0,0,2022-06-30T10:08:33.761+02:00
2022-06-30T10:08:35.454+02:00,5889.494075000001,-0.4162445068359375,-0.689910888671875,-0.982666015625,5889.484123,2.162227802691243,0.07412033140471459,0.1813968529338575,-2.753082990646362,1.527026414871216,-2.453238487243652,-0.4391399621963501,-0.5252233147621155,-0.01782625913619995,XArbitraryZVertical,0.0100088394315448,0.09723064290317118,0.87983001102102,0.4651292538013774,0.07283747941255569,-0.1804036796092987,-0.9808920621871948,0,0,0,-1,-1,5885.254239875,unknown,2,2022-06-30T10:08:31.213+02:00,2022-06-30T08:20:05.567+02:00,1582,1.513208,0,0,1248.267,0,0,2022-06-30T10:08:33.761+02:00
2022-06-30T10:08:35.464+02:00,5889.504026000001,-0.4136810302734375,-0.59661865234375,-0.9904632568359375,5889.494075000001,2.139171550064815,0.09432336805218992,0.1497443704391213,-3.210951805114746,1.775072455406189,-2.63178014755249,-0.4845938086509705,-0.5867608785629272,-0.01845484972000122,XArbitraryZVertical,-0.005328113791150903,0.0881174822104812,0.8752665820333198,0.4755159766532196,0.09312958270311356,-0.149185374379158,-0.9844138622283936,0,0,0,-1,-1,5885.254239875,unknown,2,2022-06-30T10:08:31.213+02:00,2022-06-30T08:20:05.567+02:00,1582,1.513208,0,0,1248.267,0,0,2022-06-30T10:08:33.761+02:00
2022-06-30T10:08:35.474+02:00,5889.513978,-0.3783111572265625,-0.4752197265625,-1.020675659179688,5889.504026000001,2.115799577392099,0.1164186185889482,0.1126319147068585,-3.717471599578857,2.057902812957764,-2.780958414077759,-0.5316643714904785,-0.5775165557861328,0.004271566867828369,XArbitraryZVertical,-0.02303729348058195,0.07746270765033315,0.8700789383241275,0.4862423532841832,0.115419827401638,-0.1123939231038094,-0.9869376420974731,0,0,0,-1,-1,5885.254239875,unknown,2,2022-06-30T10:08:31.213+02:00,2022-06-30T08:20:05.567+02:00,1582,1.513208,0,0,1248.267,0,0,2022-06-30T10:08:33.761+02:00
2022-06-30T10:08:35.484+02:00,5889.523929,-0.29693603515625,-0.3389129638671875,-1.083206176757812,5889.513978,2.092705785392241,0.1406752108163295,0.06976080729721991,-4.23291015625,2.398695945739746,-2.902634859085083,-0.5535517334938049,-0.5269139409065247,-0.002749979496002197,XArbitraryZVertical,-0.04337823583090323,0.06528161168058223,0.8641644648842716,0.4970679282405617,0.1398706436157227,-0.06970424205064774,-0.9877132773399353,0,0,0,-1,-1,5885.254239875,unknown,2,2022-06-30T10:08:31.213+02:00,2022-06-30T08:20:05.567+02:00,1582,1.513208,0,0,1248.267,0,0,2022-06-30T10:08:33.761+02:00
2022-06-30T10:08:35.494+02:00,5889.53388,-0.2229461669921875,-0.1893463134765625,-1.116287231445312,5889.523929,2.070539663883998,0.1672006296771475,0.02123519172095931,-4.711069583892822,2.730220079421997,-2.985801219940186,-0.5446963310241699,-0.4539856910705566,-0.03484350442886353,XArbitraryZVertical,-0.06640943261425671,0.0517077258465949,0.8574007015899613,0.5077206834042165,0.1663851588964462,-0.02123359590768814,-0.9858322143554688,0,0,0,-1,-1,5885.254239875,unknown,2,2022-06-30T10:08:31.213+02:00,2022-06-30T08:20:05.567+02:00,1582,1.513208,0,0,1248.267,0,0,2022-06-30T10:08:33.761+02:00
2022-06-30T10:08:35.503+02:00,5889.543832,-0.1697998046875,-0.0243377685546875,-1.083938598632812,5889.53388,2.049853739789847,0.1958291746126967,-0.03219183752808195,-5.083260059356689,3.043388843536377,-3.042192220687866,-0.4914152026176453,-0.3710988163948059,-0.1028276681900024,XArbitraryZVertical,-0.0918567788091957,0.03705539983914972,0.8496554704187421,0.5179526501438562,0.1944791078567505,0.03218627721071243,-0.9803784489631653,0,0,0,-1,-1,5885.254239875,unknown,2,2022-06-30T10:08:31.213+02:00,2022-06-30T08:20:05.567+02:00,1582,1.513208,0,0,1248.267,0,0,2022-06-30T10:08:33.761+02:00
2022-06-30T10:08:35.513+02:00,5889.553783,-0.1229705810546875,0.1386871337890625,-1.011489868164062,5889.543832,2.030906314272301,0.2264376308635436,-0.08910959088607512,-5.272053718566895,3.341547012329102,-3.062897205352783,-0.4465629756450653,-0.2783375680446625,-0.1456812024116516,XArbitraryZVertical,-0.1192362897968896,0.02190211110385896,0.8407884175549467,0.5276153391812587,0.2236167639493942,0.08899170905351639,-0.9706060290336609,0,0,0,-1,-1,5885.254239875,unknown,2,2022-06-30T10:08:31.213+02:00,2022-06-30T08:20:05.567+02:00,1582,1.513208,0,0,1248.267,0,0,2022-06-30T10:08:33.761+02:00
2022-06-30T10:08:35.523+02:00,5889.563735000001,-0.06488037109375,0.31817626953125,-0.9459228515625,5889.553783,2.014036151203075,0.25930979413647,-0.1471791211347435,-5.228818893432617,3.670173168182373,-2.992087841033936,-0.4234412014484406,-0.1709856688976288,-0.1278212070465088,XArbitraryZVertical,-0.1479470093466425,0.007281234247816573,0.830799385571193,0.5364989422566762,0.2536413073539734,0.1466483324766159,-0.9561173319816589,0,0,0,-1,-1,5885.254239875,unknown,2,2022-06-30T10:08:31.213+02:00,2022-06-30T08:20:05.567+02:00,1582,1.513208,0,0,1248.267,0,0,2022-06-30T10:08:33.761+02:00
2022-06-30T10:08:35.533+02:00,5889.573686000001,0.0311126708984375,0.4736328125,-0.8899383544921875,5889.563735000001,1.99993953648686,0.2950997329058223,-0.2044726772430201,-5.069959163665771,4.007683753967285,-2.827502012252808,-0.4077473282814026,-0.06436328589916229,-0.07464796304702759,XArbitraryZVertical,-0.1776063132040067,-0.005922789388673207,0.8198585177720651,0.5442913270982205,0.2847766578197479,0.2030508518218994,-0.9368418455123901,0,0,0,-1,-1,5885.254239875,unknown,2,2022-06-30T10:08:31.213+02:00,2022-06-30T08:20:05.567+02:00,1582,1.513208,0,0,1248.267,0,0,2022-06-30T10:08:33.761+02:00
2022-06-30T10:08:35.543+02:00,5889.583638,0.1298980712890625,0.5826568603515625,-0.814788818359375,5889.573686000001,1.989113869575973,0.3336254119408048,-0.2598563654516196,-4.847210884094238,4.223180770874023,-2.626677751541138,-0.3813569247722626,0.06123495101928711,-0.03278332948684692,XArbitraryZVertical,-0.207669654382458,-0.01742427374075006,0.808186905216293,0.550820973802402,0.3164764940738678,0.2569417357444763,-0.9131394028663635,0,0,0,-1,-1,5885.254239875,unknown,2,2022-06-30T10:08:31.213+02:00,2022-06-30T08:20:05.567+02:00,1582,1.513208,0,0,1248.267,0,0,2022-06-30T10:08:33.761+02:00
2022-06-30T10:08:35.553+02:00,5889.593589,0.216705322265625,0.658111572265625,-0.80029296875,5889.583638,1.981194807499112,0.3741419236083117,-0.3125229177373738,-4.554067611694336,4.368732929229736,-2.47385573387146,-0.3166581988334656,0.1661728918552399,-0.004204809665679932,XArbitraryZVertical,-0.2374757444219478,-0.02717658061429332,0.7958829368797605,0.5562706400600388,0.3477707207202911,0.3074603080749512,-0.885733425617218,0,0,0,-1,-1,5885.254239875,unknown,2,2022-06-30T10:08:31.213+02:00,2022-06-30T08:20:05.567+02:00,1582,1.513208,0,0,1248.267,0,0,2022-06-30T10:08:33.761+02:00
2022-06-30T10:08:35.563+02:00,5889.60354,0.3275909423828125,0.699981689453125,-0.712921142578125,5889.593589,1.975800798848704,0.4163045281341374,-0.3622298753080473,-4.283577442169189,4.46210241317749,-2.304329395294189,-0.2482445538043976,0.2282969951629639,0.04045224189758301,XArbitraryZVertical,-0.266715644244845,-0.03524639455351399,0.7830005954778165,0.5608302316667213,0.3781425356864929,0.3543602824211121,-0.8552409410476685,0,0,0,-1,-1,5885.254239875,unknown,2,2022-06-30T10:08:31.213+02:00,2022-06-30T08:20:05.567+02:00,1582,1.513208,0,0,1248.267,0,0,2022-06-30T10:08:33.761+02:00
2022-06-30T10:08:35.573+02:00,5889.613492,0.4007720947265625,0.717437744140625,-0.63818359375,5889.60354,1.973686762363693,0.4600822548644503,-0.4093089575339552,-4.133662700653076,4.489931106567383,-2.060454130172729,-0.1906386613845825,0.2601365447044373,0.02170866727828979,XArbitraryZVertical,-0.2953565930601341,-0.04199667948529455,0.769811881046464,0.5642609401502305,0.407343864440918,0.3979754745960236,-0.8220015168190002,0,0,0,-1,-1,5885.254239875,unknown,2,2022-06-30T10:08:31.213+02:00,2022-06-30T08:20:05.567+02:00,1582,1.513208,0,0,1248.267,0,0,2022-06-30T10:08:33.761+02:00
2022-06-30T10:08:35.583+02:00,5889.623443,0.4671783447265625,0.737030029296875,-0.5794830322265625,5889.613492,1.975737396734278,0.5056627398127314,-0.4543785253992168,-4.067131519317627,4.500510692596436,-1.812630295753479,-0.107647716999054,0.2610780894756317,0.07316476106643677,XArbitraryZVertical,-0.3235155237456145,-0.04790457929033152,0.7565269251110893,0.5663125067077222,0.4352384805679321,0.4389039874076843,-0.7860857248306274,0,0,0,-1,-1,5885.254239875,unknown,2,2022-06-30T10:08:31.213+02:00,2022-06-30T08:20:05.567+02:00,1582,1.513208,0,0,1248.267,0,0,2022-06-30T10:08:33.761+02:00
2022-06-30T10:08:35.593+02:00,5889.633395000001,0.5433807373046875,0.772735595703125,-0.522613525390625,5889.623443,1.982309288626924,0.553484138096078,-0.497664727049765,-4.041669368743896,4.499330043792725,-1.565748810768127,-0.0611204206943512,0.2400632798671722,0.1093249320983887,XArbitraryZVertical,-0.3513109499339265,-0.05316438199377962,0.7431816724960515,0.5669525100140288,0.4618923664093018,0.4773748517036438,-0.7475083470344543,0,0,0,-1,-1,5885.254239875,unknown,2,2022-06-30T10:08:31.213+02:00,2022-06-30T08:20:05.567+02:00,1582,1.513208,0,0,1248.267,0,0,2022-06-30T10:08:33.761+02:00
2022-06-30T10:08:35.603+02:00,5889.643346000001,0.5909881591796875,0.79931640625,-0.437713623046875,5889.633395000001,1.993771385022537,0.6035861378918567,-0.5389938211031389,-4.005380630493164,4.413416385650635,-1.299906969070435,-0.01994946599006653,0.2237576842308044,0.1270989179611206,XArbitraryZVertical,-0.3786192975049668,-0.05793563189815544,0.7299229941711175,0.5661301816702672,0.4871276319026947,0.5132727026939392,-0.7065817713737488,0,0,0,-1,-1,5885.254239875,unknown,2,2022-06-30T10:08:31.213+02:00,2022-06-30T08:20:05.567+02:00,1582,1.513208,0,0,1248.267,0,0,2022-06-30T10:08:33.761+02:00
2022-06-30T10:08:35.613+02:00,5889.653298,0.6077117919921875,0.8004608154296875,-0.3717041015625,5889.643346000001,2.010065541044428,0.6554026099678009,-0.5779529588067274,-3.946619272232056,4.262946128845215,-1.073686361312866,0.03289186954498291,0.2264254093170166,0.1414244771003723,XArbitraryZVertical,-0.4050802427725818,-0.06237884342298821,0.7169468627302849,0.5639202259788603,0.5104886293411255,0.5463105440139771,-0.6640377640724182,0,0,0,-1,-1,5885.254239875,unknown,2,2022-06-30T10:08:31.213+02:00,2022-06-30T08:20:05.567+02:00,1582,1.513208,0,0,1248.267,0,0,2022-06-30T10:08:33.761+02:00
2022-06-30T10:08:35.623+02:00,5889.663249,0.6100311279296875,0.82281494140625,-0.2607574462890625,5889.653298,2.030158416860979,0.7082016766021862,-0.6139853643580238,-3.777400016784668,4.075960636138916,-0.8877524137496948,0.05932164192199707,0.223187267780304,0.1830971837043762,XArbitraryZVertical,-0.4303293850026806,-0.06641778922746382,0.7042835784839608,0.5607048905625268,0.5316662788391113,0.5761294960975647,-0.6208105683326721,0,0,0,-1,-1,5885.254239875,unknown,2,2022-06-30T10:08:31.213+02:00,2022-06-30T08:20:05.567+02:00,1582,1.513208,0,0,1248.267,0,0,2022-06-30T10:08:33.761+02:00
2022-06-30T10:08:35.638+02:00,5889.6732,0.6017303466796875,0.8594207763671875,-0.2061614990234375,5889.663249,2.053032726536784,0.7615368926133234,-0.6458771068681541,-3.454821586608887,3.937918424606323,-0.6354265213012695,0.05666911602020264,0.1985620260238647,0.2062837481498718,XArbitraryZVertical,-0.4540557773857741,-0.06956667815216087,0.692103284539745,0.5567646920890913,0.5510424375534058,0.6018990874290466,-0.5779876708984375,0,0,0,-1,-1,5885.254239875,unknown,2,2022-06-30T10:08:31.213+02:00,2022-06-30T08:20:05.567+02:00,1582,1.513208,0,0,1248.267,0,0,2022-06-30T10:08:33.761+02:00
2022-06-30T10:08:35.649+02:00,5889.683152000001,0.6009368896484375,0.863525390625,-0.182861328125,5889.6732,2.078117237293892,0.8155449514720341,-0.67275515138881,-3.200444936752319,3.836272716522217,-0.40123450756073,0.04057878255844116,0.1996721029281616,0.2753555178642273,XArbitraryZVertical,-0.4762881627426345,-0.07136681232384148,0.6805425256891173,0.5521939389604273,0.5694520473480225,0.623143196105957,-0.5361127257347107,0,0,0,-1,-1,5885.254239875,unknown,2,2022-06-30T10:08:31.213+02:00,2022-06-30T08:20:05.567+02:00,1582,1.513208,0,0,1248.267,0,0,2022-06-30T10:08:33.761+02:00
2022-06-30T10:08:35.653+02:00,5889.693103000001,0.6404266357421875,0.849761962890625,-0.21392822265625,5889.683152000001,2.10464197132726,0.8698961490839447,-0.696105436454739,-2.99140191078186,3.712300777435303,-0.3628528416156769,0.01527726650238037,0.2181869745254517,0.2887042462825775,XArbitraryZVertical,-0.4973223848465427,-0.07237190400314387,0.6692543127265566,0.5472945532770488,0.5864527821540833,0.6412340998649597,-0.4948655068874359,0,0,0,-1,-1,5885.254239875,unknown,2,2022-06-30T10:08:31.213+02:00,2022-06-30T08:20:05.567+02:00,1582,1.513208,0,0,1248.267,0,0,2022-06-30T10:08:33.761+02:00
2022-06-30T10:08:35.663+02:00,5889.703055,0.6836700439453125,0.8377227783203125,-0.22589111328125,5889.693103000001,2.13063734837872,0.9227269473623633,-0.716474853155763,-2.654575824737549,3.513852596282959,-0.3405906856060028,-0.0002904534339904785,0.2067953944206238,0.2723655104637146,XArbitraryZVertical,-0.5168010785400745,-0.07282394691806029,0.6581462007890505,0.5426389090553583,0.6012271046638489,0.6567303538322449,-0.4552266299724579,0,0,0,-1,-1,5885.254239875,unknown,2,2022-06-30T10:08:31.213+02:00,2022-06-30T08:20:05.567+02:00,1582,1.513208,0,0,1248.267,0,0,2022-06-30T10:08:33.761+02:00
2022-06-30T10:08:35.673+02:00,5889.713006,0.6741180419921875,0.8509674072265625,-0.175140380859375,5889.703055,2.154931714636987,0.9728181819532619,-0.7330469105437006,-2.258567810058594,3.321846008300781,-0.2049123644828796,0.02624011039733887,0.180625319480896,0.2044389247894287,XArbitraryZVertical,-0.5343965611442099,-0.07236600938967404,0.6475591729669373,0.5383777808422301,0.6141862869262695,0.6691370010375977,-0.418366938829422,0,0,0,-1,-1,5885.254239875,unknown,2,2022-06-30T10:08:31.213+02:00,2022-06-30T08:20:05.567+02:00,1582,1.513208,0,0,1248.267,0,0,2022-06-30T10:08:33.761+02:00
2022-06-30T10:08:35.683+02:00,5889.722958,0.615264892578125,0.8949432373046875,-0.075286865234375,5889.713006,2.177420855159161,1.019991570330071,-0.7450922481348997,-1.847360372543335,3.122879505157471,-0.02134918235242367,0.05735200643539429,0.1596835255622864,0.1588016152381897,XArbitraryZVertical,-0.5501463792833052,-0.07065884779466176,0.6378534998565172,0.5343120062895764,0.6263178586959839,0.6780396103858948,-0.3846925795078278,0,0,0,-1,-1,5885.254239875,unknown,2,2022-06-30T10:08:31.213+02:00,2022-06-30T08:20:05.567+02:00,1582,1.513208,0,0,1248.267,0,0,2022-06-30T10:08:33.761+02:00
2022-06-30T10:08:35.693+02:00,5889.732909,0.5929412841796875,0.9437255859375,0.1062164306640625,5889.722958,2.196319309777366,1.06288642619998,-0.7528916979819246,-1.353138208389282,2.904865264892578,0.07262767851352692,0.03652018308639526,0.1672159433364868,0.1797580420970917,XArbitraryZVertical,-0.5638954335694378,-0.06762266721568536,0.6290100674421486,0.5308440340411459,0.6375976204872131,0.6837517023086548,-0.3548982441425323,0,0,0,-1,-1,5885.254239875,unknown,2,2022-06-30T10:08:31.213+02:00,2022-06-30T08:20:05.567+02:00,1582,1.513208,0,0,1248.267,0,0,2022-06-30T10:08:33.761+02:00
2022-06-30T10:08:35.702+02:00,5889.74286,0.6150665283203125,0.9141082763671875,0.3021240234375,5889.732909,2.211241640066856,1.100768742159675,-0.7574330877250558,-1.024966239929199,2.659160614013672,0.1510748267173767,-0.03254163265228271,0.2078849673271179,0.2537992894649506,XArbitraryZVertical,-0.5756779770703102,-0.0636544013636712,0.6210364954919151,0.5280688149995277,0.6478062868118286,0.6870585680007935,-0.3290859758853912,0,0,0,-1,-1,5885.254239875,unknown,2,2022-06-30T10:08:31.213+02:00,2022-06-30T08:20:05.567+02:00,1582,1.513208,0,0,1248.267,0,0,2022-06-30T10:08:33.761+02:00
2022-06-30T10:08:35.713+02:00,5889.752812000001,0.6810302734375,0.8406982421875,0.482177734375,5889.74286,2.223695062660489,1.134780271711044,-0.7597804802438476,-0.840599000453949,2.465249061584473,0.2176799029111862,-0.06421744823455811,0.2549636363983154,0.4124016761779785,XArbitraryZVertical,-0.5860015925578862,-0.05924188538395021,0.6138517582437414,0.5256221565799184,0.6571584939956665,0.6887623071670532,-0.3061850666999817,0,0,0,-1,-1,5885.254239875,unknown,2,2022-06-30T10:08:31.213+02:00,2022-06-30T08:20:05.567+02:00,1582,1.513208,0,0,1248.267,0,0,2022-06-30T10:08:33.761+02:00
2022-06-30T10:08:35.722+02:00,5889.762763000001,0.7605743408203125,0.7624359130859375,0.5995635986328125,5889.752812000001,2.235515287672184,1.166678613214426,-0.7610202961424481,-0.8580400347709656,2.306087255477905,0.2589386701583862,-0.05073738098144531,0.224448025226593,0.5868588089942932,XArbitraryZVertical,-0.5955024881742487,-0.05485875180195239,0.6072175352773607,0.5231197635948566,0.6658037304878235,0.6896606087684631,-0.2847346067428589,0,0,0,-1,-1,5885.254239875,unknown,2,2022-06-30T10:08:31.213+02:00,2022-06-30T08:20:05.567+02:00,1582,1.513208,0,0,1248.267,0,0,2022-06-30T10:08:33.761+02:00
2022-06-30T10:08:35.732+02:00,5889.772715,0.816925048828125,0.6912384033203125,0.6480712890625,5889.762763000001,2.24877578735383,1.197797434348429,-0.7621054293453579,-1.029560804367065,2.094276666641235,0.2698955535888672,0.00738680362701416,0.1502524614334106,0.7457859516143799,XArbitraryZVertical,-0.604632055043556,-0.05114682256893322,0.6010663390251898,0.5201185878414807,0.6736431121826172,0.6904460191726685,-0.2636081576347351,0,0,0,-1,-1,5885.254239875,unknown,2,2022-06-30T10:08:31.213+02:00,2022-06-30T08:20:05.567+02:00,1582,1.513208,0,0,1248.267,0,0,2022-06-30T10:08:33.761+02:00
2022-06-30T10:08:35.742+02:00,5889.782666,0.816680908203125,0.6634368896484375,0.64324951171875,5889.772715,2.265034451979988,1.228296746016061,-0.7639073023624938,-1.316517233848572,1.766007900238037,0.2169122099876404,0.08037859201431274,0.07068789005279541,0.8420886993408203,XArbitraryZVertical,-0.6134708989381288,-0.04889809371991589,0.595538090564,0.5163300971947588,0.6801954507827759,0.691748321056366,-0.2425248622894287,0,0,0,-1,-1,5885.254239875,unknown,2,2022-06-30T10:08:31.213+02:00,2022-06-30T08:20:05.567+02:00,1582,1.513208,0,0,1248.267,0,0,2022-06-30T10:08:33.761+02:00
2022-06-30T10:08:35.752+02:00,5889.792618,0.7587432861328125,0.7090301513671875,0.6378326416015625,5889.782666,2.284882125940214,1.257746538746456,-0.7667052964222356,-1.588222026824951,1.395300507545471,0.1925166994333267,0.1317270398139954,-0.002527415752410889,0.8698655366897583,XArbitraryZVertical,-0.6218893637542753,-0.04854470084795982,0.5908408187785723,0.5116680050007362,0.6851977109909058,0.693766176700592,-0.221794068813324,0,0,0,-1,-1,5885.254239875,unknown,2,2022-06-30T10:08:31.213+02:00,2022-06-30T08:20:05.567+02:00,1582,1.513208,0,0,1248.267,0,0,2022-06-30T10:08:33.761+02:00
2022-06-30T10:08:35.762+02:00,5889.802569,0.6993408203125,0.7629852294921875,0.66162109375,5889.792618,2.308256935555222,1.286365138322775,-0.7697861214094198,-1.809107542037964,1.105111360549927,0.2173970192670822,0.1274716258049011,-0.03254443407058716,0.8447455167770386,XArbitraryZVertical,-0.6299010667429246,-0.04976683757286211,0.587060539387106,0.5060710464126682,0.689208984375,0.6959816813468933,-0.2014958113431931,0,0,0,-1,-1,5885.254239875,unknown,2,2022-06-30T10:08:31.213+02:00,2022-06-30T08:20:05.567+02:00,1582,1.513208,0,0,1248.267,0,0,2022-06-30T10:08:33.761+02:00
2022-06-30T10:08:35.772+02:00,5889.81252,0.690765380859375,0.8143768310546875,0.7639923095703125,5889.802569,2.333530035991142,1.31387952037545,-0.7723820816281985,-1.81549060344696,0.8927919864654541,0.259145051240921,0.06600141525268555,0.01118701696395874,0.8198318481445312,XArbitraryZVertical,-0.6374260656453599,-0.05185058616407331,0.5840520805576159,0.4998826786942434,0.6927416324615479,0.6978433728218079,-0.1819990575313568,0,0,0,-1,-1,5885.254239875,unknown,2,2022-06-30T10:08:31.213+02:00,2022-06-30T08:20:05.567+02:00,1582,1.513208,0,0,1248.267,0,0,2022-06-30T10:08:33.761+02:00
2022-06-30T10:08:35.782+02:00,5889.822472000001,0.7245025634765625,0.8308258056640625,0.9638214111328125,5889.81252,2.357877846670542,1.338586723742201,-0.7738384227690023,-1.639872431755066,0.6512206196784973,0.3091072738170624,0.003303825855255127,0.06409984827041626,0.8262167572975159,XArbitraryZVertical,-0.6440332262949737,-0.05406892898946995,0.5818244978629791,0.4937388844181108,0.6960367560386658,0.6988857388496399,-0.1645955145359039,0,0,0,-1,-1,5885.254239875,unknown,2,2022-06-30T10:08:31.213+02:00,2022-06-30T08:20:05.567+02:00,1582,1.513208,0,0,1248.267,0,0,2022-06-30T10:08:33.761+02:00
2022-06-30T10:08:35.792+02:00,5889.832423000001,0.7678985595703125,0.7792510986328125,1.109359741210938,5889.822472000001,2.379474096826274,1.358470581278856,-0.774040070893481,-1.386453866958618,0.2912534773349762,0.3348090648651123,-0.008268773555755615,0.1153472065925598,0.9146867990493774,XArbitraryZVertical,-0.6492219116775588,-0.05624743146898351,0.5806469242776062,0.4880535853496258,0.6990339159965515,0.6990299820899963,-0.150694265961647,0,0,0,-1,-1,5885.254239875,unknown,2,2022-06-30T10:08:31.213+02:00,2022-06-30T08:20:05.567+02:00,1582,1.513208,0,0,1248.267,0,0,2022-06-30T10:08:33.761+02:00
2022-06-30T10:08:35.802+02:00,5889.842375,0.770263671875,0.7151336669921875,1.282241821289062,5889.832423000001,2.396865298696727,1.371064581076773,-0.7733356963118749,-1.022563219070435,-0.2223951816558838,0.3122398257255554,0.02314364910125732,0.1323000192642212,1.105798244476318,XArbitraryZVertical,-0.6523648026903509,-0.05858228232401919,0.5809432293763271,0.4832113336775823,0.7013585567474365,0.6985260844230652,-0.1419765651226044,0,0,0,-1,-1,5885.254239875,unknown,2,2022-06-30T10:08:31.213+02:00,2022-06-30T08:20:05.567+02:00,1582,1.513208,0,0,1248.267,0,0,2022-06-30T10:08:33.761+02:00
2022-06-30T10:08:35.812+02:00,5889.852326,0.7404022216796875,0.656890869140625,1.472259521484375,5889.842375,2.410028734004106,1.374912785305043,-0.7724559701423556,-0.84671950340271,-0.8568341732025146,0.2305226027965546,0.06539595127105713,0.08135509490966797,1.248756051063538,XArbitraryZVertical,-0.6530733918282828,-0.06162044929035644,0.5830676941424036,0.479301810354498,0.702502429485321,0.6978963017463684,-0.1393961310386658,0,0,0,-1,-1,5885.254239875,unknown,2,2022-06-30T10:08:31.213+02:00,2022-06-30T08:20:05.567+02:00,1582,1.513208,0,0,1248.267,0,0,2022-06-30T10:08:33.761+02:00
2022-06-30T10:08:35.822+02:00,5889.862277,0.6956329345703125,0.6515350341796875,1.62548828125,5889.852326,2.422249222673238,1.37124975294801,-0.7723369062700458,-0.896855354309082,-1.59549343585968,0.1557860523462296,0.0681949257850647,0.01732301712036133,1.424226999282837,XArbitraryZVertical,-0.6516086174146182,-0.06643596306305548,0.5872083862801957,0.4755826582989257,0.7020685076713562,0.6978110074996948,-0.1419849395751953,0,0,0,-1,-1,5885.254239875,unknown,2,2022-06-30T10:08:31.213+02:00,2022-06-30T08:20:05.567+02:00,1582,1.513208,0,0,1248.267,0,0,2022-06-30T10:08:33.761+02:00
2022-06-30T10:08:35.832+02:00,5889.872229000001,0.6338958740234375,0.7320556640625,1.717788696289062,5889.862277,2.43703900547426,1.361714383574715,-0.7729372970588445,-1.246055126190186,-2.401317596435547,0.1632259786128998,0.04012912511825562,-0.04134970903396606,1.620845675468445,XArbitraryZVertical,-0.6482835338934063,-0.07372584965293119,0.5936639103069432,0.471016280028532,0.7002729177474976,0.6982409358024597,-0.1485859155654907,0,0,0,-1,-1,5885.254239875,unknown,2,2022-06-30T10:08:31.213+02:00,2022-06-30T08:20:05.567+02:00,1582,1.513208,0,0,1248.267,0,0,2022-06-30T10:08:33.761+02:00
2022-06-30T10:08:35.842+02:00,5889.882180000001,0.5785675048828125,0.9039459228515625,1.7586669921875,5889.872229000001,2.457468996702877,1.347797358581109,-0.7745228536300651,-1.696888089179993,-3.278992652893066,0.160855770111084,-0.001423895359039307,-0.04783976078033447,1.783560395240784,XArbitraryZVertical,-0.6433332917101899,-0.08418042995521557,0.602561433141538,0.4647104067028519,0.6970565915107727,0.6993750929832458,-0.1580718606710434,0,0,0,-1,-1,5885.254239875,unknown,2,2022-06-30T10:08:31.213+02:00,2022-06-30T08:20:05.567+02:00,1582,1.513208,0,0,1248.267,0,0,2022-06-30T10:08:33.761+02:00
2022-06-30T10:08:35.852+02:00,5889.892132,0.55419921875,1.062026977539062,1.65203857421875,5889.882180000001,2.484306508520588,1.328865182505368,-0.7776482346022877,-2.154992580413818,-4.335705757141113,0.105724148452282,-0.05791795253753662,0.03045034408569336,1.888504028320312,XArbitraryZVertical,-0.6363771887612899,-0.09831869762105798,0.6140655521338727,0.4563781776064682,0.691813588142395,0.7016055583953857,-0.1707150191068649,0,0,0,-1,-1,5885.254239875,unknown,2,2022-06-30T10:08:31.213+02:00,2022-06-30T08:20:05.567+02:00,1582,1.513208,0,0,1248.267,0,0,2022-06-30T10:08:33.761+02:00
2022-06-30T10:08:35.862+02:00,5889.902083,0.5525054931640625,1.30609130859375,1.588668823242188,5889.892132,2.513168012573493,1.299474725416558,-0.7822160198416132,-1.981304168701172,-5.678399085998535,0.08598107099533081,-0.1048362851142883,0.199093222618103,1.948777437210083,XArbitraryZVertical,-0.625724566263585,-0.1158173265257614,0.6287974438232679,0.4468434212232971,0.6834036111831665,0.7048531174659729,-0.1901102215051651,0,0,0,-1,-1,5885.254239875,unknown,2,2022-06-30T10:08:31.213+02:00,2022-06-30T08:20:05.567+02:00,1582,1.513208,0,0,1248.267,0,0,2022-06-30T10:08:33.761+02:00
2022-06-30T10:08:35.872+02:00,5889.912035,0.4909515380859375,1.391769409179688,1.552520751953125,5889.902083,2.536474328843326,1.252262883134414,-0.7854762012748605,-1.316046237945557,-7.100578784942627,0.2457455396652222,-0.1172850728034973,0.3548653721809387,1.873469233512878,XArbitraryZVertical,-0.6092100876884464,-0.1347141267613413,0.6477771371467429,0.4371500966385113,0.6714841723442078,0.7071619629859924,-0.2214303463697433,0,0,0,-1,-1,5885.254239875,unknown,2,2022-06-30T10:08:31.213+02:00,2022-06-30T08:20:05.567+02:00,1582,1.513208,0,0,1248.267,0,0,2022-06-30T10:08:33.761+02:00
2022-06-30T10:08:35.882+02:00,5889.921986,0.4711761474609375,1.315261840820312,1.492538452148438,5889.912035,2.548572795889633,1.183905743568955,-0.7853450207710277,-0.2792979180812836,-8.342714309692383,0.3728707134723663,-0.1023718118667603,0.5990224480628967,1.855482220649719,XArbitraryZVertical,-0.5858016815836846,-0.1530679834692287,0.6708492104113362,0.4282149972846436,0.6548771858215332,0.7070692181587219,-0.2668131589889526,0,0,0,-1,-1,5885.254239875,unknown,2,2022-06-30T10:08:31.213+02:00,2022-06-30T08:20:05.567+02:00,1582,1.513208,0,0,1248.267,0,0,2022-06-30T10:08:33.761+02:00
2022-06-30T10:08:35.892+02:00,5889.931937,0.3453216552734375,1.167373657226562,1.513839721679688,5889.921986,2.549870767663323,1.095581782740519,-0.7804128617684288,0.4480438530445099,-9.597212791442871,0.6295231580734253,-0.1409309506416321,0.6881968379020691,1.877651929855347,XArbitraryZVertical,-0.5554038503695454,-0.1701796840290649,0.6974443555649449,0.4196866368930511,0.6318823099136353,0.7035728693008423,-0.3251308798789978,0,0,0,-1,-1,5885.254239875,unknown,2,2022-06-30T10:08:31.213+02:00,2022-06-30T08:20:05.567+02:00,1582,1.513208,0,0,1248.267,0,0,2022-06-30T10:08:33.761+02:00
2022-06-30T10:08:35.901+02:00,5889.941889000001,-0.1173095703125,1.107269287109375,1.375091552734375,5889.931937,2.55125375582903,0.9952855101572854,-0.7713842733187929,0.1465372741222382,-10.70149707794189,1.050804257392883,-0.130280613899231,0.6181337237358093,1.882746458053589,XArbitraryZVertical,-0.5193242989660002,-0.1876124811715942,0.7267080752254941,0.408655387979973,0.6014566421508789,0.6971283555030823,-0.3902076482772827,0,0,0,-1,-1,5885.254239875,unknown,2,2022-06-30T10:08:31.213+02:00,2022-06-30T08:20:05.567+02:00,1582,1.513208,0,0,1248.267,0,0,2022-06-30T10:08:33.761+02:00
2022-06-30T10:08:35.911+02:00,5889.951839750001,-0.7499847412109375,1.129745483398438,1.1434326171875,5889.941889000001,2.565531765976906,0.8955040846128275,-0.7644783859162079,-1.085312962532043,-11.27975559234619,1.258866786956787,-0.2180168628692627,0.475213348865509,1.965020298957825,XArbitraryZVertical,-0.4806588277871696,-0.2082713564236671,0.7560420573305525,0.3924163978423275,0.5633383989334106,0.6921606063842773,-0.4511802792549133,0,0,0,-1,-1,5885.254239875,unknown,2,2022-06-30T10:08:31.213+02:00,2022-06-30T08:20:05.567+02:00,1582,1.513208,0,0,1248.267,0,0,2022-06-30T10:08:33.761+02:00
2022-06-30T10:08:35.921+02:00,5889.96179175,-1.32513427734375,1.274765014648438,0.820648193359375,5889.951839750001,2.593604376923919,0.8011804511374602,-0.7668015771507325,-2.14183497428894,-11.57348155975342,1.071363210678101,-0.6344937086105347,0.4134340882301331,1.876203656196594,XArbitraryZVertical,-0.441363404918924,-0.2337573465054601,0.7826506705172763,0.371502041559742,0.5171840786933899,0.6938354969024658,-0.5011116862297058,0,0,0,-1,-1,5885.254239875,unknown,2,2022-06-30T10:08:31.213+02:00,2022-06-30T08:20:05.567+02:00,1582,1.513208,0,0,1248.267,0,0,2022-06-30T10:08:33.761+02:00
2022-06-30T10:08:35.931+02:00,5889.97174275,-5.308380126953125,-1.573684692382812,0.3332366943359375,5889.96179175,2.625236697781692,0.7052233498824154,-0.7764535136474178,-2.574396133422852,-12.38412380218506,0.7121733427047729,-1.212415456771851,0.4289920330047607,1.686665773391724,XArbitraryZVertical,-0.3997594606274903,-0.261870106866598,0.806466750992556,0.3481777361664285,0.4624307453632355,0.7007537484169006,-0.5432328581809998,0,0,0,-1,-1,5885.254239875,unknown,2,2022-06-30T10:08:31.213+02:00,2022-06-30T08:20:05.567+02:00,1582,1.513208,0,0,1248.267,0,0,2022-06-30T10:08:33.761+02:00
2022-06-30T10:08:35.942+02:00,5889.98169475,-7.796829223632812,0.475341796875,-14.76519775390625,5889.97174275,2.610073436571171,0.6007177406175743,-0.775966908301474,-3.970711469650269,1.848124027252197,3.432962656021118,-1.728567242622375,0.5743588209152222,1.409437656402588,XArbitraryZVertical,-0.3591729139587521,-0.2767675521956824,0.8237913493304631,0.3402387648598361,0.4034329652786255,0.700406551361084,-0.5887891054153442,0,0,0,-1,-1,5885.254239875,unknown,2,2022-06-30T10:08:31.213+02:00,2022-06-30T08:20:05.567+02:00,1582,1.513208,0,0,1248.267,0,0,2022-06-30T10:08:33.761+02:00
2022-06-30T10:08:35.951+02:00,5889.99164575,-3.101165771484375,2.107696533203125,-8.245559692382812,5889.98169475,2.713866623239692,0.6936135498504501,-0.8085041984389241,-5.795042037963867,-0.5671365261077881,0.4399311244487762,-5.749882221221924,-2.296939373016357,0.864253044128418,XArbitraryZVertical,-0.3838895686716458,-0.2951623571869457,0.8165859219168669,0.3141582634970916,0.4415022432804108,0.7232550382614136,-0.5310159921646118,0,0,0,-1,-1,5885.254239875,unknown,2,2022-06-30T10:08:31.213+02:00,2022-06-30T08:20:05.567+02:00,1582,1.513208,0,0,1248.267,0,0,2022-06-30T10:08:33.761+02:00
2022-06-30T10:08:35.962+02:00,5890.00159675,-1.635498046875,2.26495361328125,-4.522018432617188,5889.99164575,2.752986838759355,0.7006684016992384,-0.8419279230802185,-3.692256689071655,-1.666144251823425,-0.005011455155909061,-8.226235389709473,-0.2705865502357483,-14.25607967376709,XArbitraryZVertical,-0.3814619874496433,-0.3161136329208875,0.8140452505989273,0.3031323655241366,0.4294061064720154,0.7459285259246826,-0.5091178417205811,0,0,0,-1,-1,5885.254239875,unknown,2,2022-06-30T10:08:31.213+02:00,2022-06-30T08:20:05.567+02:00,1582,1.513208,0,0,1248.267,0,0,2022-06-30T10:08:33.761+02:00
2022-06-30T10:08:35.971+02:00,5890.011548750001,1.08087158203125,0.60784912109375,-1.39837646484375,5890.00159675,2.780024267891352,0.727125476875406,-0.8653130407562526,-2.3942551612854,3.075833797454834,-0.3905352652072906,-3.532174587249756,1.346398591995239,-7.76114559173584,XArbitraryZVertical,-0.3880377599353638,-0.3274445868261168,0.8078774540858766,0.2992338668908571,0.431008905172348,0.7612982988357544,-0.4844134747982025,0,0,0,-1,-1,5885.254239875,unknown,2,2022-06-30T10:08:31.213+02:00,2022-06-30T08:20:05.567+02:00,1582,1.513208,0,0,1248.267,0,0,2022-06-30T10:08:33.761+02:00
2022-06-30T10:08:35.981+02:00,5890.021499750001,1.3472900390625,0.079742431640625,0.718353271484375,5890.011548750001,2.801737569246117,0.7765265255705364,-0.8731988017711363,-0.3566141724586487,3.308600902557373,1.63387405872345,-2.085680484771729,1.498566269874573,-4.063776016235352,XArbitraryZVertical,-0.404315041548098,-0.3277321170603517,0.7995921872169712,0.2996223116604758,0.4501825869083405,0.7663877010345459,-0.4582419991493225,0,0,0,-1,-1,5885.254239875,unknown,2,2022-06-30T10:08:31.213+02:00,2022-06-30T08:20:05.567+02:00,1582,1.513208,0,0,1248.267,0,0,2022-06-30T10:08:33.761+02:00
2022-06-30T10:08:35.991+02:00,5890.03145175,1.009902954101562,0.349090576171875,1.147933959960938,5890.021499750001,2.820270865435388,0.8169247397743493,-0.8557261486622778,0.3751506507396698,2.115322589874268,1.903724551200867,0.6028586626052856,-0.1471978425979614,-0.9495916366577148,XArbitraryZVertical,-0.4176544823718913,-0.3180762493513037,0.7978853880088542,0.2962621694859265,0.478012889623642,0.7550472021102905,-0.4487844705581665,0,0,0,-1,-1,5885.254239875,unknown,2,2022-06-30T10:08:31.213+02:00,2022-06-30T08:20:05.567+02:00,1582,1.513208,0,0,1248.267,0,0,2022-06-30T10:08:33.761+02:00
2022-06-30T10:08:36.002+02:00,5890.04140275,1.169952392578125,-0.2509002685546875,-0.1846160888671875,5890.03145175,2.836172495278503,0.8409850250311788,-0.8548900392364811,-1.477968335151672,0.4202657043933868,-0.3743601739406586,0.8581483364105225,-0.6747559309005737,1.155929088592529,XArbitraryZVertical,-0.424725891867381,-0.3175220172056592,0.7953441700957276,0.2936248855288007,0.4891417920589447,0.7544987797737122,-0.4375753700733185,0,0,0,-1,-1,5885.254239875,unknown,2,2022-06-30T10:08:31.213+02:00,2022-06-30T08:20:05.567+02:00,1582,1.513208,0,0,1248.267,0,0,2022-06-30T10:08:33.761+02:00
2022-06-30T10:08:36.011+02:00,5890.05135475,0.6330718994140625,0.7116851806640625,-0.94793701171875,5890.04140275,2.838215352505996,0.8383280393126126,-0.862988852570154,0.6526648998260498,-1.05263340473175,-0.3516729772090912,0.5264848470687866,-0.4106983542442322,1.582707285881042,XArbitraryZVertical,-0.4231737681082651,-0.3217724319039911,0.794457847410484,0.2936381764651939,0.4834181070327759,0.7597892284393311,-0.4347729384899139,0,0,0,-1,-1,5885.254239875,unknown,2,2022-06-30T10:08:31.213+02:00,2022-06-30T08:20:05.567+02:00,1582,1.513208,0,0,1248.267,0,0,2022-06-30T10:08:33.761+02:00
2022-06-30T10:08:36.021+02:00,5890.06130575,-0.092254638671875,1.613327026367188,-1.05859375,5890.05135475,2.816044746013876,0.8082437114728533,-0.8478935538095894,3.386221647262573,-1.397333860397339,0.3847901225090027,0.691591739654541,-1.000788569450378,0.27237269282341,XArbitraryZVertical,-0.4149576434434817,-0.3151443900079836,0.8007609802102369,0.2954251632660025,0.4783606231212616,0.74988853931427,-0.4569883346557617,0,0,0,-1,-1,5885.254239875,unknown,2,2022-06-30T10:08:31.213+02:00,2022-06-30T08:20:05.567+02:00,1582,1.513208,0,0,1248.267,0,0,2022-06-30T10:08:33.761+02:00
2022-06-30T10:08:36.031+02:00,5890.07125675,-0.1992340087890625,1.17626953125,-0.9438018798828125,5890.06130575,2.774798235410795,0.765031858507479,-0.8179598424060918,4.608580589294434,-1.109634041786194,-0.1706424951553345,0.1595607399940491,-0.01806706190109253,-0.4547342956066132,XArbitraryZVertical,-0.4040115417222981,-0.3002890969417683,0.8098707952464939,0.3011816565775055,0.4735111594200134,0.7297524809837341,-0.493202269077301,0,0,0,-1,-1,5885.254239875,unknown,2,2022-06-30T10:08:31.213+02:00,2022-06-30T08:20:05.567+02:00,1582,1.513208,0,0,1248.267,0,0,2022-06-30T10:08:33.761+02:00
2022-06-30T10:08:36.041+02:00,5890.081208750001,-0.1492462158203125,0.4238433837890625,-1.055404663085938,5890.07125675,2.728360060323516,0.7217602063722072,-0.7896334080416693,3.68923282623291,-0.8240495920181274,-0.6946474313735962,-0.5574620962142944,0.9032320380210876,-0.5300606489181519,XArbitraryZVertical,-0.3928262368232722,-0.2853440637631249,0.8173782383994117,0.3100953061027745,0.4652075171470642,0.710095226764679,-0.5285326242446899,0,0,0,-1,-1,5885.254239875,unknown,2,2022-06-30T10:08:31.213+02:00,2022-06-30T08:20:05.567+02:00,1582,1.513208,0,0,1248.267,0,0,2022-06-30T10:08:33.761+02:00
2022-06-30T10:08:36.051+02:00,5890.091159750001,-0.009429931640625,0.297515869140625,-1.0750732421875,5890.081208750001,2.698961733521592,0.6960350244663485,-0.7762913296435603,0.9786580801010132,-0.1365071535110474,-0.6621366143226624,-0.6567268371582031,0.4756318330764771,-0.3962553739547729,XArbitraryZVertical,-0.386066012436016,-0.2778128652420606,0.8205668773095632,0.3169276318701356,0.4574928283691406,0.7006380558013916,-0.5475460886955261,0,0,0,-1,-1,5885.254239875,unknown,2,2022-06-30T10:08:31.213+02:00,2022-06-30T08:20:05.567+02:00,1582,1.513208,0,0,1248.267,0,0,2022-06-30T10:08:33.761+02:00
2022-06-30T10:08:36.061+02:00,5890.10111175,0.0168914794921875,0.865814208984375,-1.026138305664062,5890.091159750001,2.696457949812997,0.6962480488877545,-0.7812647619867193,-1.363078117370605,0.4950982630252838,-0.2741193175315857,-0.6046152114868164,-0.2803342938423157,-0.5106359720230103,XArbitraryZVertical,-0.3866641035976371,-0.279475744909647,0.8190896503270391,0.3185537657240783,0.4553690254688263,0.7041779756546021,-0.5447683334350586,0,0,0,-1,-1,5885.254239875,unknown,2,2022-06-30T10:08:31.213+02:00,2022-06-30T08:20:05.567+02:00,1582,1.513208,0,0,1248.267,0,0,2022-06-30T10:08:33.761+02:00
2022-06-30T10:08:36.071+02:00,5890.11106275,0.0267333984375,1.498306274414062,-0.9998016357421875,5890.10111175,2.710356892025054,0.7134140469813401,-0.7970120799024568,-2.112268686294556,0.9267973303794861,-0.3145445585250854,-0.4667687118053436,-0.4177550673484802,-0.5466521978378296,XArbitraryZVertical,-0.3921722344509571,-0.2863400646679818,0.8146377414368682,0.3171366033633897,0.4573387801647186,0.7152711749076843,-0.528420627117157,0,0,0,-1,-1,5885.254239875,unknown,2,2022-06-30T10:08:31.213+02:00,2022-06-30T08:20:05.567+02:00,1582,1.513208,0,0,1248.267,0,0,2022-06-30T10:08:33.761+02:00
2022-06-30T10:08:36.081+02:00,5890.121014750001,-0.0287322998046875,1.5989990234375,-0.9109039306640625,5890.11106275,2.723779294503976,0.7334222051987029,-0.8130203035798264,-1.346211910247803,1.131620049476624,-0.3822343945503235,-0.4432032704353333,0.1394481062889099,-0.5155453085899353,XArbitraryZVertical,-0.3987188748252464,-0.2927916666225272,0.8093920568850561,0.316513563310965,0.4600947201251984,0.7263663411140442,-0.5105925798416138,0,0,0,-1,-1,5885.254239875,unknown,2,2022-06-30T10:08:31.213+02:00,2022-06-30T08:20:05.567+02:00,1582,1.513208,0,0,1248.267,0,0,2022-06-30T10:08:33.761+02:00
2022-06-30T10:08:36.091+02:00,5890.130965750001,-0.0734100341796875,1.298324584960938,-0.8376922607421875,5890.121014750001,2.725050466880469,0.74624778088264,-0.8203611307056753,0.1627206951379776,1.238778352737427,-0.5038884878158569,-0.4362395405769348,0.766914427280426,-0.4990800023078918,XArbitraryZVertical,-0.4038449847436929,-0.2941914418003592,0.8054390842952424,0.3187925959415884,0.4629729688167572,0.7313921451568604,-0.500721275806427,0,0,0,-1,-1,5885.254239875,unknown,2,2022-06-30T10:08:31.213+02:00,2022-06-30T08:20:05.567+02:00,1582,1.513208,0,0,1248.267,0,0,2022-06-30T10:08:33.761+02:00
2022-06-30T10:08:36.101+02:00,5890.140916750001,-0.0853729248046875,0.9916229248046875,-0.7478485107421875,5890.130965750001,2.709861950825602,0.7474750598654561,-0.818397576044739,1.443702936172485,1.218301057815552,-0.7340692281723022,-0.4932947158813477,0.8689476251602173,-0.4096986651420593,XArbitraryZVertical,-0.4065200714412165,-0.2900672168615183,0.8031714720676044,0.3248354451705349,0.4645624160766602,0.7300516963005066,-0.5012049078941345,0,0,0,-1,-1,5885.254239875,unknown,2,2022-06-30T10:08:31.213+02:00,2022-06-30T08:20:05.567+02:00,1582,1.513208,0,0,1248.267,0,0,2022-06-30T10:08:33.761+02:00
2022-06-30T10:08:36.111+02:00,5890.15086875,-0.13299560546875,0.8431396484375,-0.619110107421875,5890.140916750001,2.684861471499957,0.7409274784987772,-0.811461118888625,1.822633862495422,1.111173391342163,-0.8268952965736389,-0.5380878448486328,0.5730310678482056,-0.3297317028045654,XArbitraryZVertical,-0.4073087075789754,-0.2830539069511614,0.8018956385393122,0.3330820678601305,0.4646777808666229,0.7252938151359558,-0.5079602003097534,0,0,0,-1,-1,5885.254239875,unknown,2,2022-06-30T10:08:31.213+02:00,2022-06-30T08:20:05.567+02:00,1582,1.513208,0,0,1248.267,0,0,2022-06-30T10:08:33.761+02:00
2022-06-30T10:08:36.120+02:00,5890.16081975,-0.228729248046875,0.91680908203125,-0.4617767333984375,5890.15086875,2.658394581983386,0.7320354255887307,-0.8033959330401306,1.860810279846191,0.9329119920730591,-0.7889087796211243,-0.549410343170166,0.2719053030014038,-0.2314417958259583,XArbitraryZVertical,-0.4071913452307655,-0.2756665500732157,0.8009910065145015,0.3414918658402217,0.4640374481678009,0.7197179198265076,-0.5164062976837158,0,0,0,-1,-1,5885.254239875,unknown,2,2022-06-30T10:08:31.213+02:00,2022-06-30T08:20:05.567+02:00,1582,1.513208,0,0,1248.267,0,0,2022-06-30T10:08:33.761+02:00
2022-06-30T10:08:36.135+02:00,5890.17077175,-0.3721160888671875,0.914154052734375,-0.376739501953125,5890.16081975,2.632166187585191,0.7217463840987424,-0.7948502703331149,1.848067283630371,0.7896196842193604,-0.8472586274147034,-0.5957421064376831,0.1293812394142151,-0.09335851669311523,XArbitraryZVertical,-0.4063086713191607,-0.2683983306083694,0.8004017117730623,0.349618156184426,0.4627464413642883,0.7137587666511536,-0.5257511734962463,0,0,0,-1,-1,5885.254239875,unknown,2,2022-06-30T10:08:31.213+02:00,2022-06-30T08:20:05.567+02:00,1582,1.513208,0,0,1248.267,0,0,2022-06-30T10:08:33.761+02:00
2022-06-30T10:08:36.143+02:00,5890.18072275,-0.4025115966796875,0.8903961181640625,-0.520904541015625,5890.17077175,2.603513058565864,0.7089859300680805,-0.7870894447014836,2.048081398010254,0.737943172454834,-1.183371901512146,-0.688322126865387,0.2085077166557312,0.07402515411376953,XArbitraryZVertical,-0.4046371047091965,-0.2614728280934089,0.7995932897796875,0.3585408317684436,0.4595928490161896,0.7083016633987427,-0.5358015298843384,0,0,0,-1,-1,5885.254239875,unknown,2,2022-06-30T10:08:31.213+02:00,2022-06-30T08:20:05.567+02:00,1582,1.513208,0,0,1248.267,0,0,2022-06-30T10:08:33.761+02:00
2022-06-30T10:08:36.151+02:00,5890.190674750001,-0.48541259765625,0.9411163330078125,-0.757476806640625,5890.18072275,2.569126042426617,0.6912529416210352,-0.7781779786573549,2.488271236419678,0.552154541015625,-1.385389447212219,-0.8261418342590332,0.2121713757514954,0.1719690561294556,XArbitraryZVertical,-0.4014810176774418,-0.2538875924724027,0.7988344157937717,0.3690768014547254,0.4540256559848785,0.7019829750061035,-0.5487081408500671,0,0,0,-1,-1,5885.254239875,unknown,2,2022-06-30T10:08:31.213+02:00,2022-06-30T08:20:05.567+02:00,1582,1.513208,0,0,1248.267,0,0,2022-06-30T10:08:33.761+02:00
2022-06-30T10:08:36.161+02:00,5890.200625750001,-0.688140869140625,1.091476440429688,-1.052276611328125,5890.190674750001,2.529090651154691,0.6676881645327869,-0.7663895575189705,2.985729217529297,0.3393597304821014,-1.598087906837463,-0.8485753536224365,0.1968576908111572,0.04480886459350586,XArbitraryZVertical,-0.3962695003445649,-0.2451814903507562,0.7985602270671777,0.3809962139949806,0.4460636973381042,0.6935387253761292,-0.5657130479812622,0,0,0,-1,-1,5885.254239875,unknown,2,2022-06-30T10:08:31.213+02:00,2022-06-30T08:20:05.567+02:00,1582,1.513208,0,0,1248.267,0,0,2022-06-30T10:08:33.761+02:00
2022-06-30T10:08:36.170+02:00,5890.210576750001,-0.92156982421875,1.169830322265625,-1.358428955078125,5890.200625750001,2.483916197976478,0.6400781250614059,-0.7514649834165853,3.369455575942993,0.4057405292987823,-1.812286376953125,-0.9218229055404663,0.2584066987037659,-0.1714276075363159,XArbitraryZVertical,-0.3894636927595038,-0.2351459632668346,0.7984091495616874,0.3944200304709423,0.4364101886749268,0.6827099323272705,-0.5860488414764404,0,0,0,-1,-1,5885.254239875,unknown,2,2022-06-30T10:08:31.213+02:00,2022-06-30T08:20:05.567+02:00,1582,1.513208,0,0,1248.267,0,0,2022-06-30T10:08:33.761+02:00
2022-06-30T10:08:36.180+02:00,5890.22052875,-1.010040283203125,1.337005615234375,-1.297073364257812,5890.210576750001,2.434384622675808,0.6118741500636946,-0.7340780582540833,3.785483360290527,0.6603637933731079,-2.047040462493896,-1.11460542678833,0.42157381772995,-0.4445278644561768,XArbitraryZVertical,-0.3822268874758943,-0.2236703272848541,0.7975584344513337,0.4096030971890366,0.4264644384384155,0.6699029207229614,-0.6077483892440796,0,0,0,-1,-1,5885.254239875,unknown,2,2022-06-30T10:08:31.213+02:00,2022-06-30T08:20:05.567+02:00,1582,1.513208,0,0,1248.267,0,0,2022-06-30T10:08:33.761+02:00
2022-06-30T10:08:36.190+02:00,5890.23047975,-1.141677856445312,1.344390869140625,-1.032852172851562,5890.22052875,2.380865710835912,0.5831641961814317,-0.7124503706630754,4.378665924072266,0.6697143316268921,-2.19916033744812,-1.338294625282288,0.5161405801773071,-0.7267405986785889,XArbitraryZVertical,-0.3741721866171152,-0.2101217094609027,0.796285143999518,0.4263498196930706,0.4167248010635376,0.6536900997161865,-0.6316880583763123,0,0,0,-1,-1,5885.254239875,unknown,2,2022-06-30T10:08:31.213+02:00,2022-06-30T08:20:05.567+02:00,1582,1.513208,0,0,1248.267,0,0,2022-06-30T10:08:33.761+02:00
2022-06-30T10:08:36.200+02:00,5890.24043175,-1.162460327148438,1.303878784179688,-0.8036346435546875,5890.23047975,2.321617103355686,0.5515289583401952,-0.6857351270095722,5.037301063537598,0.6526980996131897,-2.595367670059204,-1.415584444999695,0.7037638425827026,-0.6378778219223022,XArbitraryZVertical,-0.3641237656220219,-0.194464033492254,0.7946223079938965,0.4451662446239489,0.4055440723896027,0.633242130279541,-0.6591952443122864,0,0,0,-1,-1,5885.254239875,unknown,2,2022-06-30T10:08:31.213+02:00,2022-06-30T08:20:05.567+02:00,1582,1.513208,0,0,1248.267,0,0,2022-06-30T10:08:33.761+02:00
2022-06-30T10:08:36.215+02:00,5890.25038275,-1.214462280273438,1.157516479492188,-0.777130126953125,5890.24043175,2.25814864306485,0.5187465435845228,-0.6552150772544975,5.247020244598389,0.7072581648826599,-2.868602514266968,-1.534799814224243,0.7350614666938782,-0.3442500829696655,XArbitraryZVertical,-0.3524843496470819,-0.1773524180523509,0.7920258180400953,0.4658283526063529,0.3931218385696411,0.6093298196792603,-0.6886017918586731,0,0,0,-1,-1,5885.254239875,unknown,2,2022-06-30T10:08:31.213+02:00,2022-06-30T08:20:05.567+02:00,1582,1.513208,0,0,1248.267,0,0,2022-06-30T10:08:33.761+02:00
2022-06-30T10:08:36.222+02:00,5890.260334750001,-1.191329956054688,1.078659057617188,-1.045166015625,5890.25038275,2.194761624074125,0.488965909574362,-0.6261772328806928,4.747494220733643,0.9586416482925415,-3.254853010177612,-1.543056726455688,0.7178276181221008,-0.08830928802490234,XArbitraryZVertical,-0.3412092812786368,-0.1609772557051807,0.7875789474887648,0.4872185235568929,0.3805962800979614,0.5860515832901001,-0.7153251171112061,0,0,0,-1,-1,5885.254239875,unknown,2,2022-06-30T10:08:31.213+02:00,2022-06-30T08:20:05.567+02:00,1582,1.513208,0,0,1248.267,0,0,2022-06-30T10:08:33.761+02:00
2022-06-30T10:08:36.230+02:00,5890.270285750001,-1.180709838867188,1.662643432617188,-1.4393310546875,5890.260334750001,2.134785967497855,0.4659904913636866,-0.602211799826165,4.045742034912109,1.373786330223083,-3.170251607894897,-1.58473014831543,0.5910503268241882,-0.04091155529022217,XArbitraryZVertical,-0.3323556529084216,-0.1463917317719804,0.7808982505465341,0.5082393973413919,0.3702678084373474,0.5664665699005127,-0.7362183332443237,0,0,0,-1,-1,5885.254239875,unknown,2,2022-06-30T10:08:31.213+02:00,2022-06-30T08:20:05.567+02:00,1582,1.513208,0,0,1248.267,0,0,2022-06-30T10:08:33.761+02:00
2022-06-30T10:08:36.240+02:00,5890.280236750001,-1.446304321289062,2.197113037109375,-1.708358764648438,5890.270285750001,2.082922172342753,0.4531410085627146,-0.5813524819258727,3.62247633934021,1.887476325035095,-2.806512832641602,-1.557201623916626,0.5295047163963318,-0.2937889695167542,XArbitraryZVertical,-0.3267828414992314,-0.1323803759917432,0.7732902149975407,0.5269827440046464,0.3658716082572937,0.5491547584533691,-0.7513768076896667,0,0,0,-1,-1,5885.254239875,unknown,2,2022-06-30T10:08:31.213+02:00,2022-06-30T08:20:05.567+02:00,1582,1.513208,0,0,1248.267,0,0,2022-06-30T10:08:33.761+02:00
2022-06-30T10:08:36.250+02:00,5890.29018875,-1.537078857421875,2.36822509765625,-1.66937255859375,5890.280236750001,2.030631895128311,0.4468249389261189,-0.5602854545352789,4.129286766052246,2.507475852966309,-3.390030384063721,-1.546747088432312,1.131215810775757,-0.6753929257392883,XArbitraryZVertical,-0.3230931398178686,-0.1167984936958378,0.7639262931349559,0.5462467395984825,0.3660371005535126,0.5314280390739441,-0.7639378905296326,0,0,0,-1,-1,5885.254239875,unknown,2,2022-06-30T10:08:31.213+02:00,2022-06-30T08:20:05.567+02:00,1582,1.513208,0,0,1248.267,0,0,2022-06-30T10:08:33.761+02:00
2022-06-30T10:08:36.259+02:00,5890.30013975,-1.57232666015625,2.163223266601562,-1.394943237304688,5890.29018875,1.968886866130332,0.4418897403096821,-0.5348328581005829,5.070501804351807,2.976982593536377,-3.913447141647339,-1.814233541488647,1.687416195869446,-0.9306459426879883,XArbitraryZVertical,-0.3187143313192426,-0.09780002357155661,0.7517865971050972,0.5689228815640041,0.3679289817810059,0.5096972584724426,-0.7777126431465149,0,0,0,-1,-1,5885.254239875,unknown,2,2022-06-30T10:08:31.213+02:00,2022-06-30T08:20:05.567+02:00,1582,1.513208,0,0,1248.267,0,0,2022-06-30T10:08:33.761+02:00
2022-06-30T10:08:36.269+02:00,5890.310091750001,-1.647186279296875,2.1156005859375,-1.219207763671875,5890.30013975,1.900342720661533,0.4400813045193273,-0.5030944105269994,5.729390144348145,3.518896818161011,-4.179583549499512,-1.910306811332703,1.886086583137512,-0.8767544627189636,XArbitraryZVertical,-0.3132348928399824,-0.07466560121156898,0.737320900810889,0.5938575673788018,0.3732278048992157,0.4821388423442841,-0.7926179170608521,0,0,0,-1,-1,5885.254239875,unknown,2,2022-06-30T10:08:31.213+02:00,2022-06-30T08:20:05.567+02:00,1582,1.513208,0,0,1248.267,0,0,2022-06-30T10:08:33.761+02:00
2022-06-30T10:08:36.279+02:00,5890.320042750001,-1.689910888671875,2.410614013671875,-1.28521728515625,5890.310091750001,1.827773325180823,0.4443599438683875,-0.4685812521787195,6.034804821014404,4.166354179382324,-4.501490116119385,-1.955870151519775,1.711602687835693,-0.5893792510032654,XArbitraryZVertical,-0.3080139742956868,-0.04842997502795498,0.7200753710944847,0.6198979378038904,0.3835432827472687,0.4516209065914154,-0.8055638670921326,0,0,0,-1,-1,5885.254239875,unknown,2,2022-06-30T10:08:31.213+02:00,2022-06-30T08:20:05.567+02:00,1582,1.513208,0,0,1248.267,0,0,2022-06-30T10:08:33.761+02:00
2022-06-30T10:08:36.290+02:00,5890.329993750001,-1.7838134765625,2.739044189453125,-1.325439453125,5890.320042750001,1.751491692626342,0.4554025733439919,-0.433347323203628,6.351546287536621,4.723495483398438,-4.865750312805176,-2.046355485916138,1.695689916610718,-0.4041377902030945,XArbitraryZVertical,-0.3034444275159245,-0.01966086934653799,0.6996230471481069,0.6465774837815168,0.3991688787937164,0.4199110567569733,-0.815069854259491,0,0,0,-1,-1,5885.254239875,unknown,2,2022-06-30T10:08:31.213+02:00,2022-06-30T08:20:05.567+02:00,1582,1.513208,0,0,1248.267,0,0,2022-06-30T10:08:33.761+02:00
2022-06-30T10:08:36.299+02:00,5890.33994575,-1.908676147460938,2.990066528320312,-1.204833984375,5890.329993750001,1.670135423156901,0.4717394587110741,-0.3983408167433415,6.619073867797852,5.167656421661377,-5.369657039642334,-2.108767986297607,2.022724866867065,-0.4641808271408081,XArbitraryZVertical,-0.2989284707333602,0.01111670166814574,0.6755347729427612,0.6739221495089573,0.4188567399978638,0.3878895938396454,-0.8210363984107971,0,0,0,-1,-1,5885.254239875,unknown,2,2022-06-30T10:08:31.213+02:00,2022-06-30T08:20:05.567+02:00,1582,1.513208,0,0,1248.267,0,0,2022-06-30T10:08:33.761+02:00
2022-06-30T10:08:36.309+02:00,5890.34989675,-2.001876831054688,3.3375244140625,-0.9567413330078125,5890.33994575,1.583732965025066,0.4932501083058592,-0.3649539783474691,6.772178649902344,5.616304397583008,-5.764057636260986,-2.226120710372925,2.382138252258301,-0.5026500225067139,XArbitraryZVertical,-0.2944819175855301,0.04342457169028155,0.6475511946816512,0.701478675024126,0.4423070549964905,0.3569062948226929,-0.8227894306182861,0,0,0,-1,-1,5885.254239875,unknown,2,2022-06-30T10:08:31.213+02:00,2022-06-30T08:20:05.567+02:00,1582,1.513208,0,0,1248.267,0,0,2022-06-30T10:08:33.761+02:00
2022-06-30T10:08:36.319+02:00,5890.35984875,-2.065536499023438,3.640060424804688,-0.7851409912109375,5890.34989675,1.493981532926638,0.5202197963202285,-0.3344639586869592,6.804811477661133,5.983006477355957,-6.106666564941406,-2.37820291519165,2.661803960800171,-0.3852069973945618,XArbitraryZVertical,-0.2903283934576523,0.0767848654497504,0.6160081061783083,0.7282496103516701,0.4695263803005219,0.3282628655433655,-0.8196269869804382,0,0,0,-1,-1,5890.352133750001,unknown,2,2022-06-30T10:08:36.311+02:00,2022-06-30T08:20:05.567+02:00,1582,1.513208,0,0,1248.267,0,0,2022-06-30T10:08:36.311+02:00
2022-06-30T10:08:36.329+02:00,5890.36979975,-2.041107177734375,3.86712646484375,-0.6190032958984375,5890.35984875,1.399675955687668,0.5515633689806251,-0.3075863699111094,7.042895317077637,6.277685165405273,-6.596487522125244,-2.501302719116211,3.034765481948853,-0.1450080871582031,XArbitraryZVertical,-0.2860685476454607,0.1108970095926387,0.5805321453819556,0.7542208510557319,0.4994256496429443,0.3027591705322266,-0.8117333054542542,0,0,0,-1,-1,5890.352133750001,unknown,2,2022-06-30T10:08:36.311+02:00,2022-06-30T08:20:05.567+02:00,1582,1.513208,0,0,1248.267,0,0,2022-06-30T10:08:36.311+02:00
2022-06-30T10:08:36.339+02:00,5890.379751750001,-2.00872802734375,4.037551879882812,-0.492095947265625,5890.36979975,1.299717892205315,0.5858949139047573,-0.283479286231417,7.383340358734131,6.476736545562744,-6.954739093780518,-2.596412897109985,3.360363006591797,0.01482117176055908,XArbitraryZVertical,-0.2806578670162083,0.1457738405241951,0.5410078090737201,0.77928926932684,0.5308761596679688,0.2796977460384369,-0.7999622821807861,0,0,0,-1,-1,5890.352133750001,unknown,2,2022-06-30T10:08:36.311+02:00,2022-06-30T08:20:05.567+02:00,1582,1.513208,0,0,1248.267,0,0,2022-06-30T10:08:36.311+02:00
2022-06-30T10:08:36.350+02:00,5890.389702750001,-2.066925048828125,4.368698120117188,-0.4003753662109375,5890.379751750001,1.195723226535496,0.6229373718222128,-0.261374682621817,7.662782669067383,6.583172798156738,-7.078706741333008,-2.604715347290039,3.608717918395996,0.1655800342559814,XArbitraryZVertical,-0.2735550621323165,0.1813170752932598,0.4982154142092741,0.8025417409418025,0.5636077523231506,0.258408784866333,-0.7845835089683533,0,0,0,-1,-1,5890.352133750001,unknown,2,2022-06-30T10:08:36.311+02:00,2022-06-30T08:20:05.567+02:00,1582,1.513208,0,0,1248.267,0,0,2022-06-30T10:08:36.311+02:00
2022-06-30T10:08:36.359+02:00,5890.399653750001,-2.11334228515625,4.596145629882812,-0.224365234375,5890.389702750001,1.0891541648564,0.66202233923026,-0.2429634902440282,7.710452556610107,6.614140510559082,-7.337876319885254,-2.605386972427368,3.796972036361694,0.2734884023666382,XArbitraryZVertical,-0.2651538888116526,0.2165667612022571,0.4526351984484709,0.8233550879961176,0.5966586470603943,0.2405801266431808,-0.7655845284461975,0,0,0,-1,-1,5890.352133750001,unknown,2,2022-06-30T10:08:36.311+02:00,2022-06-30T08:20:05.567+02:00,1582,1.513208,0,0,1248.267,0,0,2022-06-30T10:08:36.311+02:00
2022-06-30T10:08:36.369+02:00,5890.40960575,-2.113296508789062,4.85888671875,0.0496978759765625,5890.399653750001,0.9799628588486816,0.7020384987315674,-0.2299817169282217,7.756124496459961,6.58025074005127,-7.549495220184326,-2.695698022842407,4.140738487243652,0.3430485725402832,XArbitraryZVertical,-0.2558173041052435,0.2506899152222904,0.4041834266887022,0.8416341133222099,0.6287726163864136,0.2279597222805023,-0.743424117565155,0,0,0,-1,-1,5890.352133750001,unknown,2,2022-06-30T10:08:36.311+02:00,2022-06-30T08:20:05.567+02:00,1582,1.513208,0,0,1248.267,0,0,2022-06-30T10:08:36.311+02:00
2022-06-30T10:08:36.379+02:00,5890.41955675,-2.13336181640625,5.093170166015625,0.1767730712890625,5890.40960575,0.869823555829718,0.7424147975103201,-0.2219827874467293,7.688196659088135,6.507537841796875,-7.584023475646973,-2.772822856903076,4.375981330871582,0.4943927526473999,XArbitraryZVertical,-0.2455038463928918,0.2834585304774719,0.3537794628699013,0.8568660115594777,0.6594803929328918,0.2201641947031021,-0.718758225440979,0,0,0,-1,-1,5890.352133750001,unknown,2,2022-06-30T10:08:36.311+02:00,2022-06-30T08:20:05.567+02:00,1582,1.513208,0,0,1248.267,0,0,2022-06-30T10:08:36.311+02:00
2022-06-30T10:08:36.389+02:00,5890.42950875,-2.09136962890625,5.225082397460938,0.156646728515625,5890.41955675,0.7595085582427505,0.7826012512001859,-0.2198229612983884,7.562682628631592,6.431256294250488,-7.771108627319336,-2.801455020904541,4.640830039978027,0.7417160272598267,XArbitraryZVertical,-0.2347007325201643,0.314493794032813,0.3017508812226609,0.8688818365455276,0.6881582140922546,0.2180568426847458,-0.692018449306488,0,0,0,-1,-1,5890.352133750001,unknown,2,2022-06-30T10:08:36.311+02:00,2022-06-30T08:20:05.567+02:00,1582,1.513208,0,0,1248.267,0,0,2022-06-30T10:08:36.311+02:00
2022-06-30T10:08:36.399+02:00,5890.43945975,-2.04656982421875,5.340988159179688,0.0948486328125,5890.42950875,0.6485104917868655,0.8218300078624804,-0.2238263420430764,7.551649570465088,6.370845794677734,-7.945832252502441,-2.847485780715942,4.871208190917969,0.8406704664230347,XArbitraryZVertical,-0.2235169201157296,0.3436442316634453,0.2479683169383408,0.8777588228487179,0.7141237258911133,0.2219621390104294,-0.6638976335525513,0,0,0,-1,-1,5890.352133750001,unknown,2,2022-06-30T10:08:36.311+02:00,2022-06-30T08:20:05.567+02:00,1582,1.513208,0,0,1248.267,0,0,2022-06-30T10:08:36.311+02:00
2022-06-30T10:08:36.409+02:00,5890.449411750001,-1.974777221679688,5.452407836914062,0.124114990234375,5890.43945975,0.5358075382889467,0.8593970478254198,-0.2325923459595402,7.762925148010254,6.300572395324707,-8.058696746826172,-2.828422546386719,4.994581699371338,0.7919597029685974,XArbitraryZVertical,-0.2112554329629508,0.3710990476662583,0.1924054805227547,0.8835366048567558,0.7370526194572449,0.2305008322000504,-0.6353132724761963,0,0,0,-1,-1,5890.352133750001,unknown,2,2022-06-30T10:08:36.311+02:00,2022-06-30T08:20:05.567+02:00,1582,1.513208,0,0,1248.267,0,0,2022-06-30T10:08:36.311+02:00
2022-06-30T10:08:36.419+02:00,5890.459362750001,-1.916656494140625,5.577362060546875,0.2471923828125,5890.449411750001,0.4196372509209043,0.8938531292887095,-0.2429416599761121,8.36290454864502,6.116047859191895,-8.060179710388184,-2.803171157836914,5.100429058074951,0.7028666138648987,XArbitraryZVertical,-0.1962298484865319,0.3968434092517392,0.1352192915471449,0.8864112974623591,0.756601095199585,0.2405589371919632,-0.6080183386802673,0,0,0,-1,-1,5890.352133750001,unknown,2,2022-06-30T10:08:36.311+02:00,2022-06-30T08:20:05.567+02:00,1582,1.513208,0,0,1248.267,0,0,2022-06-30T10:08:36.311+02:00
2022-06-30T10:08:36.429+02:00,5890.469313750001,-1.821701049804688,5.666900634765625,0.4110870361328125,5890.459362750001,0.2980987571630903,0.9232518196962435,-0.2533042456287837,9.018551826477051,5.78501033782959,-8.148983955383301,-2.746894359588623,5.201803684234619,0.7080952525138855,XArbitraryZVertical,-0.1774505202738538,0.4201440794760597,0.07625287943349043,0.8866655298316694,0.7721167802810669,0.250604122877121,-0.5839805603027344,0,0,0,-1,-1,5890.352133750001,unknown,2,2022-06-30T10:08:36.311+02:00,2022-06-30T08:20:05.567+02:00,1582,1.513208,0,0,1248.267,0,0,2022-06-30T10:08:36.311+02:00
2022-06-30T10:08:36.439+02:00,5890.47926575,-1.674392700195312,5.734893798828125,0.5633087158203125,5890.469313750001,0.1715992159596727,0.9465381857629882,-0.2646402996560925,9.367059707641602,5.408492088317871,-8.292050361633301,-2.699806213378906,5.315799713134766,0.8113393187522888,XArbitraryZVertical,-0.1557184777701672,0.4400887707470043,0.01569407647623623,0.8842100330712704,0.7831495404243469,0.2615621089935303,-0.5641472339630127,0,0,0,-1,-1,5890.352133750001,unknown,2,2022-06-30T10:08:36.311+02:00,2022-06-30T08:20:05.567+02:00,1582,1.513208,0,0,1248.267,0,0,2022-06-30T10:08:36.311+02:00
2022-06-30T10:08:36.449+02:00,5890.48921675,-1.531173706054688,5.786666870117188,0.7803955078125,5890.47926575,0.04310864227787194,0.9639899126466754,-0.2790643162276736,9.209375381469727,5.018723964691162,-8.425543785095215,-2.611394643783569,5.391444206237793,0.9592728614807129,XArbitraryZVertical,-0.1330997030213936,0.4562799792681768,-0.0455435823172228,0.8786459655494239,0.7896934747695923,0.2754562795162201,-0.5481861233711243,0,0,0,-1,-1,5890.352133750001,unknown,2,2022-06-30T10:08:36.311+02:00,2022-06-30T08:20:05.567+02:00,1582,1.513208,0,0,1248.267,0,0,2022-06-30T10:08:36.311+02:00
2022-06-30T10:08:36.459+02:00,5890.499168750001,-1.459030151367188,5.737136840820312,1.103195190429688,5890.48921675,-0.08240611018107132,0.9765423995952147,-0.2986870702830384,8.427282333374023,4.702581405639648,-8.506643295288086,-2.466273307800293,5.440628051757812,1.098409295082092,XArbitraryZVertical,-0.1121829720135603,0.4688971671905499,-0.1057107049902369,0.8696986669332912,0.7918806076049805,0.2942656576633453,-0.5351008772850037,0,0,0,-1,-1,5890.352133750001,unknown,2,2022-06-30T10:08:36.311+02:00,2022-06-30T08:20:05.567+02:00,1582,1.513208,0,0,1248.267,0,0,2022-06-30T10:08:36.311+02:00
2022-06-30T10:08:36.469+02:00,5890.509119750001,-1.32122802734375,5.598358154296875,1.475677490234375,5890.499168750001,-0.1994757086695552,0.9863471742970471,-0.326163526906569,7.068914413452148,4.50042724609375,-8.478875160217285,-2.321219444274902,5.466255664825439,1.303046703338623,XArbitraryZVertical,-0.09578694297261954,0.4790606195637585,-0.163026242725543,0.857174661809567,0.7900456786155701,0.3204111754894257,-0.5226515531539917,0,0,0,-1,-1,5890.352133750001,unknown,2,2022-06-30T10:08:36.311+02:00,2022-06-30T08:20:05.567+02:00,1582,1.513208,0,0,1248.267,0,0,2022-06-30T10:08:36.311+02:00
2022-06-30T10:08:36.479+02:00,5890.51907175,-1.174850463867188,5.583343505859375,1.76324462890625,5890.509119750001,-0.3044503069408987,0.9948365748545812,-0.3599888071931911,5.881444454193115,4.282507419586182,-8.099994659423828,-2.243942022323608,5.384872913360596,1.612923860549927,XArbitraryZVertical,-0.08432374515416442,0.4878781001386839,-0.215544163626609,0.8416680472914813,0.7849118113517761,0.3522637486457825,-0.5097289085388184,0,0,0,-1,-1,5890.352133750001,unknown,2,2022-06-30T10:08:36.311+02:00,2022-06-30T08:20:05.567+02:00,1582,1.513208,0,0,1248.267,0,0,2022-06-30T10:08:36.311+02:00
2022-06-30T10:08:36.489+02:00,5890.52902275,-0.952056884765625,5.36212158203125,1.961669921875,5890.51907175,-0.4003012320521979,1.000657289921814,-0.3964746970851596,5.268931865692139,3.993870735168457,-7.779932498931885,-2.09775185585022,5.212188720703125,1.973556995391846,XArbitraryZVertical,-0.07584434266509561,0.4952855459171155,-0.2636199789218466,0.8242841554642111,0.7765238881111145,0.386168897151947,-0.4978797137737274,0,0,0,-1,-1,5890.352133750001,unknown,2,2022-06-30T10:08:36.311+02:00,2022-06-30T08:20:05.567+02:00,1582,1.513208,0,0,1248.267,0,0,2022-06-30T10:08:36.311+02:00
2022-06-30T10:08:36.499+02:00,5890.53897375,-0.656707763671875,4.909072875976562,2.131668090820312,5890.52902275,-0.4925687881608898,1.001380511467759,-0.4324927642300395,5.145634651184082,3.603689670562744,-7.459719181060791,-1.939518451690674,5.164207935333252,2.252742528915405,XArbitraryZVertical,-0.06824072979662443,0.5005937743394491,-0.3087844641516747,0.8058543760655908,0.7646679878234863,0.4191353321075439,-0.4894981384277344,0,0,0,-1,-1,5890.352133750001,unknown,2,2022-06-30T10:08:36.311+02:00,2022-06-30T08:20:05.567+02:00,1582,1.513208,0,0,1248.267,0,0,2022-06-30T10:08:36.311+02:00
2022-06-30T10:08:36.509+02:00,5890.54892575,-0.3963470458984375,4.45660400390625,2.2010498046875,5890.53897375,-0.5834594171830424,0.9952900775779269,-0.4656674215193906,5.079010486602783,3.103623628616333,-7.057924747467041,-1.701647520065308,4.913102149963379,2.447977781295776,XArbitraryZVertical,-0.06059514486850934,0.5031642376173696,-0.3513951058461431,0.7871947200501561,0.7495908141136169,0.4490192532539368,-0.4863079488277435,0,0,0,-1,-1,5890.352133750001,unknown,2,2022-06-30T10:08:36.311+02:00,2022-06-30T08:20:05.567+02:00,1582,1.513208,0,0,1248.267,0,0,2022-06-30T10:08:36.311+02:00
2022-06-30T10:08:36.519+02:00,5890.55887675,-0.144927978515625,4.11346435546875,2.157867431640625,5890.54892575,-0.6734340386102436,0.982181284500015,-0.4952894863639154,5.053755760192871,2.628068685531616,-6.743252277374268,-1.388472437858582,4.433786392211914,2.620158672332764,XArbitraryZVertical,-0.05295969906392475,0.5029412105977182,-0.3915610220164443,0.7687168061060601,0.7317647933959961,0.4752863645553589,-0.4884908199310303,0,0,0,-1,-1,5890.352133750001,unknown,2,2022-06-30T10:08:36.311+02:00,2022-06-30T08:20:05.567+02:00,1582,1.513208,0,0,1248.267,0,0,2022-06-30T10:08:36.311+02:00
2022-06-30T10:08:36.528+02:00,5890.568828750001,0.0890350341796875,3.728271484375,2.106292724609375,5890.55887675,-0.7636670297521615,0.9620913615438185,-0.5213957240048327,5.079182147979736,2.169487953186035,-6.534929275512695,-1.107726812362671,3.958512783050537,2.696876525878906,XArbitraryZVertical,-0.04545763388640488,0.5000201924163054,-0.4298480404687011,0.750429398718349,0.7113799452781677,0.4980908930301666,-0.4958268105983734,0,0,0,-1,-1,5890.352133750001,unknown,2,2022-06-30T10:08:36.311+02:00,2022-06-30T08:20:05.567+02:00,1582,1.513208,0,0,1248.267,0,0,2022-06-30T10:08:36.311+02:00
2022-06-30T10:08:36.538+02:00,5890.578779750001,0.363861083984375,3.373672485351562,2.198410034179688,5890.568828750001,-0.855132145578869,0.9350768158539799,-0.544057668116102,5.144618511199951,1.73610532283783,-6.368197917938232,-0.8333942294120789,3.595851898193359,2.665894746780396,XArbitraryZVertical,-0.03824909396396412,0.4944930202516826,-0.4667379656389686,0.7322358302253412,0.6884664297103882,0.5176120400428772,-0.5080273151397705,0,0,0,-1,-1,5890.352133750001,unknown,2,2022-06-30T10:08:36.311+02:00,2022-06-30T08:20:05.567+02:00,1582,1.513208,0,0,1248.267,0,0,2022-06-30T10:08:36.311+02:00
2022-06-30T10:08:36.548+02:00,5890.58873175,0.6422576904296875,3.07794189453125,2.335174560546875,5890.578779750001,-0.9461508900361437,0.9019798979422349,-0.5624466125845397,4.913771152496338,1.223804593086243,-6.007172107696533,-0.5746623277664185,3.195013523101807,2.630832433700562,XArbitraryZVertical,-0.03156263622260262,0.4865531042644654,-0.5016403690099004,0.7145815261267443,0.6636975407600403,0.5332574844360352,-0.5245397686958313,0,0,0,-1,-1,5890.352133750001,unknown,2,2022-06-30T10:08:36.311+02:00,2022-06-30T08:20:05.567+02:00,1582,1.513208,0,0,1248.267,0,0,2022-06-30T10:08:36.311+02:00
2022-06-30T10:08:36.558+02:00,5890.59868275,1.037872314453125,2.729141235351562,2.363739013671875,5890.58873175,-1.031749402403515,0.8658593147067893,-0.578505760147302,4.175868511199951,0.8245548009872437,-5.668869972229004,-0.273855447769165,2.826898574829102,2.740955829620361,XArbitraryZVertical,-0.026869003169713,0.4774987518949299,-0.5332750932360499,0.6977755467657889,0.6377167701721191,0.5467734336853027,-0.5425459742546082,0,0,0,-1,-1,5890.352133750001,unknown,2,2022-06-30T10:08:36.311+02:00,2022-06-30T08:20:05.567+02:00,1582,1.513208,0,0,1248.267,0,0,2022-06-30T10:08:36.311+02:00
2022-06-30T10:08:36.568+02:00,5890.60863375,1.448837280273438,2.384323120117188,2.268844604492188,5890.59868275,-1.107672265291463,0.830563533079038,-0.5952636567972228,3.110594272613525,0.5264561176300049,-5.247176170349121,0.03093546628952026,2.51721453666687,2.893627643585205,XArbitraryZVertical,-0.02535354670396927,0.4691807769995491,-0.5607178450882159,0.6817786467281618,0.6113225221633911,0.560727059841156,-0.5584532022476196,0,0,0,-1,-1,5890.352133750001,unknown,2,2022-06-30T10:08:36.311+02:00,2022-06-30T08:20:05.567+02:00,1582,1.513208,0,0,1248.267,0,0,2022-06-30T10:08:36.311+02:00
2022-06-30T10:08:36.578+02:00,5890.61858575,1.661102294921875,2.192855834960938,2.050735473632812,5890.60863375,-1.172429921222538,0.7973677227424442,-0.6140086271575732,2.115249633789062,0.1957024484872818,-4.875636577606201,0.4530461430549622,2.152992248535156,2.934730052947998,XArbitraryZVertical,-0.02728599613811399,0.4623417613676176,-0.5837174231488195,0.666910392015004,0.5848264098167419,0.576148509979248,-0.5709911584854126,0,0,0,-1,-1,5890.352133750001,unknown,2,2022-06-30T10:08:36.311+02:00,2022-06-30T08:20:05.567+02:00,1582,1.513208,0,0,1248.267,0,0,2022-06-30T10:08:36.311+02:00
2022-06-30T10:08:36.588+02:00,5890.62853675,1.73614501953125,2.0679931640625,1.829498291015625,5890.61858575,-1.228713029283457,0.7648141441875904,-0.6354545129214183,1.309600234031677,-0.1069911122322083,-4.676971912384033,0.8915903568267822,1.79077935218811,2.849518060684204,XArbitraryZVertical,-0.03251097575408343,0.4567343600169508,-0.6032888750428678,0.652977203561782,0.5572472214698792,0.5935433506965637,-0.5806735157966614,0,0,0,-1,-1,5890.352133750001,unknown,2,2022-06-30T10:08:36.311+02:00,2022-06-30T08:20:05.567+02:00,1582,1.513208,0,0,1248.267,0,0,2022-06-30T10:08:36.311+02:00
2022-06-30T10:08:36.598+02:00,5890.638488750001,1.825912475585938,1.910064697265625,1.686325073242188,5890.62853675,-1.278434006855912,0.7330450953044282,-0.6589606483156339,0.678561806678772,-0.2373981177806854,-4.358837127685547,1.132064461708069,1.580560088157654,2.638283729553223,XArbitraryZVertical,-0.04013020948378378,0.4523443264098311,-0.6200434859554175,0.6397815494416493,0.52903813123703,0.6122954487800598,-0.5875483751296997,0,0,0,-1,-1,5890.352133750001,unknown,2,2022-06-30T10:08:36.311+02:00,2022-06-30T08:20:05.567+02:00,1582,1.513208,0,0,1248.267,0,0,2022-06-30T10:08:36.311+02:00
2022-06-30T10:08:36.608+02:00,5890.648439750001,1.950088500976562,1.76953125,1.548995971679688,5890.638488750001,-1.321506425013269,0.7035526666967634,-0.6831445360427644,0.1207117140293121,-0.3183099627494812,-3.936570167541504,1.234391212463379,1.436757802963257,2.420924663543701,XArbitraryZVertical,-0.04902499869939096,0.4493143008722892,-0.6339725144684784,0.6275286492212722,0.5017541646957397,0.6312350034713745,-0.5914264321327209,0,0,0,-1,-1,5890.352133750001,unknown,2,2022-06-30T10:08:36.311+02:00,2022-06-30T08:20:05.567+02:00,1582,1.513208,0,0,1248.267,0,0,2022-06-30T10:08:36.311+02:00
2022-06-30T10:08:36.618+02:00,5890.65839175,2.013397216796875,1.603500366210938,1.235916137695312,5890.648439750001,-1.357212112732183,0.6769626467689639,-0.7081730937804636,-0.4885531961917877,-0.4457038640975952,-3.535027265548706,1.35010814666748,1.259617209434509,2.278379440307617,XArbitraryZVertical,-0.05909617663560629,0.4477503994277268,-0.6449874716296973,0.6164563939726737,0.4758045971393585,0.6504472494125366,-0.5920544266700745,0,0,0,-1,-1,5890.352133750001,unknown,2,2022-06-30T10:08:36.311+02:00,2022-06-30T08:20:05.567+02:00,1582,1.513208,0,0,1248.267,0,0,2022-06-30T10:08:36.311+02:00
2022-06-30T10:08:36.628+02:00,5890.66834275,1.93798828125,1.53460693359375,0.9395751953125,5890.65839175,-1.386305430422532,0.6522501904635875,-0.7346881375761433,-0.9734448790550232,-0.6723229289054871,-3.21644926071167,1.499688267707825,1.099175214767456,2.138710021972656,XArbitraryZVertical,-0.07064894245785357,0.4473832100760646,-0.6534114734680089,0.6065563468596606,0.4504005908966064,0.6703557968139648,-0.589713990688324,0,0,0,-1,-1,5890.352133750001,unknown,2,2022-06-30T10:08:36.311+02:00,2022-06-30T08:20:05.567+02:00,1582,1.513208,0,0,1248.267,0,0,2022-06-30T10:08:36.311+02:00
2022-06-30T10:08:36.638+02:00,5890.67829375,1.837432861328125,1.558563232421875,0.6523590087890625,5890.66834275,-1.410699302305685,0.6281729433346981,-0.7616454695705356,-1.169286251068115,-0.807270884513855,-2.900326490402222,1.588101744651794,0.9133868813514709,1.821464776992798,XArbitraryZVertical,-0.08320866017134264,0.4475510734714962,-0.6598425915936902,0.597814499929986,0.4252957999706268,0.6901131868362427,-0.5855486989021301,0,0,0,-1,-1,5890.352133750001,unknown,2,2022-06-30T10:08:36.311+02:00,2022-06-30T08:20:05.567+02:00,1582,1.513208,0,0,1248.267,0,0,2022-06-30T10:08:36.311+02:00
2022-06-30T10:08:36.648+02:00,5890.688245750001,1.772613525390625,1.5106201171875,0.4058990478515625,5890.67829375,-1.432379007718459,0.6047318610596774,-0.7865725839779636,-1.108689069747925,-0.8687325716018677,-2.537674903869629,1.536441445350647,0.8266699314117432,1.520596146583557,XArbitraryZVertical,-0.09538676614472337,0.4476503526890585,-0.6649638321599922,0.5901979418936703,0.4015471339225769,0.7079367637634277,-0.5810210704803467,0,0,0,-1,-1,5890.352133750001,unknown,2,2022-06-30T10:08:36.311+02:00,2022-06-30T08:20:05.567+02:00,1582,1.513208,0,0,1248.267,0,0,2022-06-30T10:08:36.311+02:00
2022-06-30T10:08:36.658+02:00,5890.698196750001,1.6937255859375,1.454193115234375,0.3472442626953125,5890.688245750001,-1.451127505562897,0.5823903919153096,-0.8087869447275288,-1.141023635864258,-0.9227513074874878,-2.133408546447754,1.457710981369019,0.8351127505302429,1.228927135467529,XArbitraryZVertical,-0.1068267554761892,0.4475532790160188,-0.6688634266129554,0.5838715302424473,0.3797222077846527,0.723450243473053,-0.5765681862831116,0,0,0,-1,-1,5890.352133750001,unknown,2,2022-06-30T10:08:36.311+02:00,2022-06-30T08:20:05.567+02:00,1582,1.513208,0,0,1248.267,0,0,2022-06-30T10:08:36.311+02:00
2022-06-30T10:08:36.668+02:00,5890.70814875,1.660507202148438,1.385177612304688,0.2425384521484375,5890.698196750001,-1.464505421633074,0.5631474919622549,-0.8300855938736957,-1.499869227409363,-0.9905803799629211,-1.743680357933044,1.412364840507507,0.7726307511329651,0.9765064120292664,XArbitraryZVertical,-0.1180647436455836,0.4480591451384152,-0.6710178663454767,0.5788254235865613,0.3602489531040192,0.7379891276359558,-0.5706074237823486,0,0,0,-1,-1,5890.352133750001,unknown,2,2022-06-30T10:08:36.311+02:00,2022-06-30T08:20:05.567+02:00,1582,1.513208,0,0,1248.267,0,0,2022-06-30T10:08:36.311+02:00
2022-06-30T10:08:36.678+02:00,5890.71809975,1.630233764648438,1.276046752929688,0.00433349609375,5890.70814875,-1.470846094107533,0.5478843423860704,-0.8529668812177845,-1.94476842880249,-1.144315361976624,-1.407188892364502,1.351114869117737,0.7009576559066772,0.9087193608283997,XArbitraryZVertical,-0.1300782180342416,0.4498244755456667,-0.6710165158316556,0.5748690478985737,0.3426110744476318,0.7532351613044739,-0.5614752173423767,0,0,0,-1,-1,5890.352133750001,unknown,2,2022-06-30T10:08:36.311+02:00,2022-06-30T08:20:05.567+02:00,1582,1.513208,0,0,1248.267,0,0,2022-06-30T10:08:36.311+02:00
2022-06-30T10:08:36.688+02:00,5890.72805175,1.565841674804688,1.19390869140625,-0.2228240966796875,5890.71809975,-1.470299731137486,0.5360787269729382,-0.8772588744539007,-2.24297046661377,-1.311077833175659,-1.057701706886292,1.333992719650269,0.6161879301071167,0.7921230792999268,XArbitraryZVertical,-0.1429503604551217,0.4525183238154816,-0.6689524871261254,0.5720970459221668,0.3265147805213928,0.7689895033836365,-0.5495847463607788,0,0,0,-1,-1,5890.352133750001,unknown,2,2022-06-30T10:08:36.311+02:00,2022-06-30T08:20:05.567+02:00,1582,1.513208,0,0,1248.267,0,0,2022-06-30T10:08:36.311+02:00
2022-06-30T10:08:36.698+02:00,5890.73800275,1.514373779296875,1.146636962890625,-0.39849853515625,5890.72805175,-1.464376826637406,0.5269664373178383,-0.9009805657202992,-2.200549364089966,-1.448583722114563,-0.7153792977333069,1.318004369735718,0.4921104907989502,0.5409495830535889,XArbitraryZVertical,-0.1559053200292539,0.4553959113361666,-0.6653728410082572,0.5706024647400286,0.312229722738266,0.783936083316803,-0.5366162061691284,0,0,0,-1,-1,5890.352133750001,unknown,2,2022-06-30T10:08:36.311+02:00,2022-06-30T08:20:05.567+02:00,1582,1.513208,0,0,1248.267,0,0,2022-06-30T10:08:36.311+02:00
2022-06-30T10:08:36.708+02:00,5890.74795375,1.459381103515625,1.13055419921875,-0.5024261474609375,5890.73800275,-1.455552151856587,0.5188187452331214,-0.9211961442746494,-1.81971549987793,-1.59339702129364,-0.3771694898605347,1.265915274620056,0.3975827693939209,0.3024466037750244,XArbitraryZVertical,-0.1679215996792329,0.4573476841042983,-0.6610791646191919,0.5706223901130832,0.2999267280101776,0.79632568359375,-0.5252708792686462,0,0,0,-1,-1,5890.352133750001,unknown,2,2022-06-30T10:08:36.311+02:00,2022-06-30T08:20:05.567+02:00,1582,1.513208,0,0,1248.267,0,0,2022-06-30T10:08:36.311+02:00
2022-06-30T10:08:36.718+02:00,5890.757905750001,1.391387939453125,1.109085083007812,-0.55487060546875,5890.74795375,-1.445665472697819,0.510183850954236,-0.9357977615492473,-1.333758115768433,-1.730632662773132,-0.04342535510659218,1.224703788757324,0.3415641784667969,0.119139552116394,XArbitraryZVertical,-0.1783035579072089,0.4575901583544817,-0.6566523284108201,0.5723869564066296,0.2896703779697418,0.805072546005249,-0.5176381468772888,0,0,0,-1,-1,5890.352133750001,unknown,2,2022-06-30T10:08:36.311+02:00,2022-06-30T08:20:05.567+02:00,1582,1.513208,0,0,1248.267,0,0,2022-06-30T10:08:36.311+02:00
2022-06-30T10:08:36.727+02:00,5890.767856750001,1.358322143554688,1.057662963867188,-0.6033477783203125,5890.757905750001,-1.434191283973218,0.5017361890539359,-0.945774297324405,-1.120883584022522,-1.831450700759888,0.2552712261676788,1.177971243858337,0.3196038007736206,0.01057279109954834,XArbitraryZVertical,-0.1872992432281103,0.4565298031997252,-0.6519803146634743,0.5756919694968187,0.2814102470874786,0.8109502196311951,-0.5129990577697754,0,0,0,-1,-1,5890.352133750001,unknown,2,2022-06-30T10:08:36.311+02:00,2022-06-30T08:20:05.567+02:00,1582,1.513208,0,0,1248.267,0,0,2022-06-30T10:08:36.311+02:00
2022-06-30T10:08:36.737+02:00,5890.77780875,1.320236206054688,1.018936157226562,-0.66839599609375,5890.767856750001,-1.418363179331459,0.4959553616440376,-0.9541173073749318,-1.274463295936584,-1.92691433429718,0.5596215724945068,1.116177558898926,0.2932812571525574,-0.04622191190719604,XArbitraryZVertical,-0.1958108923840282,0.4553391031656535,-0.6463360864663733,0.5801500131853942,0.2752106785774231,0.815803587436676,-0.5086488127708435,0,0,0,-1,-1,5890.352133750001,unknown,2,2022-06-30T10:08:36.311+02:00,2022-06-30T08:20:05.567+02:00,1582,1.513208,0,0,1248.267,0,0,2022-06-30T10:08:36.311+02:00
2022-06-30T10:08:36.747+02:00,5890.78775975,1.293685913085938,0.98919677734375,-0.80902099609375,5890.77780875,-1.395603101210303,0.4949680213610936,-0.9636124202804898,-1.653358578681946,-2.012983798980713,0.8348538279533386,1.087305903434753,0.2364047765731812,-0.1012669205665588,XArbitraryZVertical,-0.204769728748239,0.4550042215721007,-0.6390193722231488,0.585401444311331,0.2710165977478027,0.821258008480072,-0.502081036567688,0,0,0,-1,-1,5890.352133750001,unknown,2,2022-06-30T10:08:36.311+02:00,2022-06-30T08:20:05.567+02:00,1582,1.513208,0,0,1248.267,0,0,2022-06-30T10:08:36.311+02:00
2022-06-30T10:08:36.758+02:00,5890.79771175,1.24969482421875,1.04901123046875,-0.9722442626953125,5890.78775975,-1.365937705510982,0.4989636714248646,-0.974462642601401,-1.833450555801392,-2.105342149734497,1.085765957832336,1.051495909690857,0.1915357112884521,-0.1752558648586273,XArbitraryZVertical,-0.2142386320882676,0.4555564274317431,-0.6300616843661931,0.5912633926552797,0.2687405645847321,0.8274002075195312,-0.493140310049057,0,0,0,-1,-1,5890.352133750001,unknown,2,2022-06-30T10:08:36.311+02:00,2022-06-30T08:20:05.567+02:00,1582,1.513208,0,0,1248.267,0,0,2022-06-30T10:08:36.311+02:00
2022-06-30T10:08:36.767+02:00,5890.80766275,1.239517211914062,1.163177490234375,-1.044418334960938,5890.79771175,-1.331705891903646,0.5061600390680521,-0.9839311047833044,-1.630565762519836,-2.160634517669678,1.36326789855957,1.025214195251465,0.1565158367156982,-0.3247013688087463,XArbitraryZVertical,-0.2232976406171403,0.4560463644451775,-0.6201358656575906,0.5979894078798573,0.2684720456600189,0.8326806426048279,-0.4843197464942932,0,0,0,-1,-1,5890.352133750001,unknown,2,2022-06-30T10:08:36.311+02:00,2022-06-30T08:20:05.567+02:00,1582,1.513208,0,0,1248.267,0,0,2022-06-30T10:08:36.311+02:00
2022-06-30T10:08:36.777+02:00,5890.81761375,1.287948608398438,1.190414428710938,-1.0565185546875,5890.80766275,-1.294873865371565,0.515228933245257,-0.9889002251876635,-1.234469056129456,-2.198428869247437,1.702208876609802,0.9788839817047119,0.2135889530181885,-0.4939857423305511,XArbitraryZVertical,-0.2307626714650867,0.4556525314157529,-0.6098215548768979,0.6060091211596385,0.2708110809326172,0.8354220390319824,-0.4782587289810181,0,0,0,-1,-1,5890.352133750001,unknown,2,2022-06-30T10:08:36.311+02:00,2022-06-30T08:20:05.567+02:00,1582,1.513208,0,0,1248.267,0,0,2022-06-30T10:08:36.311+02:00
2022-06-30T10:08:36.787+02:00,5890.827565750001,1.399703979492188,1.1142578125,-0.9970550537109375,5890.81761375,-1.255554117091176,0.5260456600296795,-0.9893425720110995,-1.042397856712341,-2.231878042221069,2.009947538375854,0.9637347459793091,0.327512264251709,-0.5694366097450256,XArbitraryZVertical,-0.2366071928671861,0.4544513984239462,-0.5990593259431873,0.6153202139141291,0.2757827639579773,0.8356650471687317,-0.4749819338321686,0,0,0,-1,-1,5890.352133750001,unknown,2,2022-06-30T10:08:36.311+02:00,2022-06-30T08:20:05.567+02:00,1582,1.513208,0,0,1248.267,0,0,2022-06-30T10:08:36.311+02:00
2022-06-30T10:08:36.797+02:00,5890.837516750001,1.5113525390625,1.099990844726562,-0.9436798095703125,5890.827565750001,-1.21119752508376,0.5407246530605,-0.9877682895156927,-1.213565945625305,-2.269668579101562,2.372197866439819,1.004546880722046,0.3556148409843445,-0.5845087766647339,XArbitraryZVertical,-0.2417192033998017,0.4533947623530148,-0.5871133807845287,0.6255421849253573,0.2834019362926483,0.8347994089126587,-0.4720100462436676,0,0,0,-1,-1,5890.352133750001,unknown,2,2022-06-30T10:08:36.311+02:00,2022-06-30T08:20:05.567+02:00,1582,1.513208,0,0,1248.267,0,0,2022-06-30T10:08:36.311+02:00
2022-06-30T10:08:36.807+02:00,5890.84746875,1.5833740234375,1.189529418945312,-0.9953765869140625,5890.837516750001,-1.159340992666294,0.5611024025036021,-0.9859187105115178,-1.459380865097046,-2.344224691390991,2.703214168548584,1.105922222137451,0.2804779410362244,-0.5296115279197693,XArbitraryZVertical,-0.2468433213277415,0.4531517305749082,-0.5732926396148474,0.6364412750389784,0.2937820255756378,0.8337796330451965,-0.4674437642097473,0,0,0,-1,-1,5890.352133750001,unknown,2,2022-06-30T10:08:36.311+02:00,2022-06-30T08:20:05.567+02:00,1582,1.513208,0,0,1248.267,0,0,2022-06-30T10:08:36.311+02:00
2022-06-30T10:08:36.817+02:00,5890.85741975,1.574066162109375,1.289657592773438,-1.1336669921875,5890.84746875,-1.101736169603324,0.5850481122313638,-0.9829272950861524,-1.470365285873413,-2.48945689201355,2.9923415184021,1.205086827278137,0.2678661942481995,-0.4813271462917328,XArbitraryZVertical,-0.251948729028005,0.4531505424263823,-0.5578273613463066,0.6480779596537104,0.3062659800052643,0.8321243524551392,-0.462352842092514,0,0,0,-1,-1,5890.352133750001,unknown,2,2022-06-30T10:08:36.311+02:00,2022-06-30T08:20:05.567+02:00,1582,1.513208,0,0,1248.267,0,0,2022-06-30T10:08:36.311+02:00
2022-06-30T10:08:36.827+02:00,5890.867371750001,1.570220947265625,1.319229125976562,-1.229049682617188,5890.85741975,-1.042233453219125,0.6096119614450721,-0.9763611629805513,-1.146013379096985,-2.486824035644531,3.25079870223999,1.262723207473755,0.3610641956329346,-0.5362159013748169,XArbitraryZVertical,-0.2560584063520705,0.4526076262191184,-0.5414995711858843,0.6605744684126821,0.3206510543823242,0.8284649848937988,-0.4591608643531799,0,0,0,-1,-1,5890.352133750001,unknown,2,2022-06-30T10:08:36.311+02:00,2022-06-30T08:20:05.567+02:00,1582,1.513208,0,0,1248.267,0,0,2022-06-30T10:08:36.311+02:00
