loggingTime(txt),accelerometerTimestamp_sinceReboot(s),accelerometerAccelerationX(G),accelerometerAccelerationY(G),accelerometerAccelerationZ(G),motionTimestamp_sinceReboot(s),motionYaw(rad),motionRoll(rad),motionPitch(rad),motionRotationRateX(rad/s),motionRotationRateY(rad/s),motionRotationRateZ(rad/s),motionUserAccelerationX(G),motionUserAccelerationY(G),motionUserAccelerationZ(G),motionAttitudeReferenceFrame(txt),motionQuaternionX(R),motionQuaternionY(R),motionQuaternionZ(R),motionQuaternionW(R),motionGravityX(G),motionGravityY(G),motionGravityZ(G),motionMagneticFieldX(µT),motionMagneticFieldY(µT),motionMagneticFieldZ(µT),motionHeading(°),motionMagneticFieldCalibrationAccuracy(Z),activityTimestamp_sinceReboot(s),activity(txt),activityActivityConfidence(Z),activityActivityStartDate(txt),pedometerStartDate(txt),pedometerNumberofSteps(N),pedometerAverageActivePace(s/m),pedometerCurrentPace(s/m),pedometerCurrentCadence(steps/s),pedometerDistance(m),pedometerFloorAscended(N),pedometerFloorDescended(N),pedometerEndDate(txt)
2022-06-30T10:08:47.091+02:00,5901.117343666667,-0.0763397216796875,-0.2102813720703125,-0.9785614013671875,5901.107392666667,2.773000783664315,-0.06974257126149942,0.2608808788878951,-0.3655834794044495,0.1826250553131104,-0.02331006713211536,-0.1773158311843872,-0.03561651706695557,-0.0006175041198730469,XArbitraryZVertical,0.05780421444127499,0.1214556821177096,0.9732905244013237,0.1860452191845064,-0.06732808798551559,-0.2579317390918732,-0.963814377784729,0,0,0,-1,-1,5900.541894,unknown,2,2022-06-30T10:08:46.501+02:00,2022-06-30T08:20:05.567+02:00,1582,1.513208,0,0,1248.267,0,0,2022-06-30T10:08:46.500+02:00
2022-06-30T10:08:47.093+02:00,5901.127295666667,-0.1218414306640625,-0.2315826416015625,-0.9630584716796875,5901.117343666667,2.7724322306168,-0.06874414223834907,0.258569027618453,-0.150658130645752,0.1060163080692291,-0.08787068724632263,-0.04890388995409012,0.008551180362701416,-0.03566396236419678,XArbitraryZVertical,0.05714769375985915,0.1204052461438151,0.9734206204559027,0.1862499741508974,-0.06640654057264328,-0.2556973993778229,-0.9644734263420105,0,0,0,-1,-1,5900.541894,unknown,2,2022-06-30T10:08:46.501+02:00,2022-06-30T08:20:05.567+02:00,1582,1.513208,0,0,1248.267,0,0,2022-06-30T10:08:46.500+02:00
2022-06-30T10:08:47.097+02:00,5901.137246666667,-0.1322479248046875,-0.287139892578125,-0.956878662109375,5901.127295666667,2.771118888313861,-0.06742417617143673,0.257908590377926,-0.01103618741035461,0.09646841138601303,-0.1514698415994644,-0.01119471341371536,0.04477784037590027,-0.01383298635482788,XArbitraryZVertical,0.05652550555044757,0.1201690657466828,0.9733794369960141,0.1868066327319219,-0.06514476984739304,-0.2550588846206665,-0.9647285342216492,0,0,0,-1,-1,5900.541894,unknown,2,2022-06-30T10:08:46.501+02:00,2022-06-30T08:20:05.567+02:00,1582,1.513208,0,0,1248.267,0,0,2022-06-30T10:08:46.500+02:00
2022-06-30T10:08:47.107+02:00,5901.147198666667,-0.1330718994140625,-0.2887420654296875,-0.9517974853515625,5901.137246666667,2.769667496597964,-0.0660700586058222,0.2580542991200829,0.008098624646663666,0.1104273721575737,-0.1270585060119629,-0.05800528824329376,0.0236174464225769,0.001720190048217773,XArbitraryZVertical,0.05596678750402019,0.1203259641426182,0.9732720854924134,0.1874322025795996,-0.06383590400218964,-0.2551997601985931,-0.9647787809371948,0,0,0,-1,-1,5900.541894,unknown,2,2022-06-30T10:08:46.501+02:00,2022-06-30T08:20:05.567+02:00,1582,1.513208,0,0,1248.267,0,0,2022-06-30T10:08:46.500+02:00
2022-06-30T10:08:47.117+02:00,5901.157149666667,-0.1104278564453125,-0.271820068359375,-0.957000732421875,5901.147198666667,2.768495043951326,-0.06446266728808236,0.2579378931330922,-0.04831038787961006,0.1561305671930313,-0.1051298677921295,-0.06996072828769684,-0.03205233812332153,0.008031010627746582,XArbitraryZVertical,0.05524470955310044,0.120387459437716,0.9732144595669778,0.1879055471746729,-0.06228695809841156,-0.2550871968269348,-0.9649097919464111,0,0,0,-1,-1,5900.541894,unknown,2,2022-06-30T10:08:46.501+02:00,2022-06-30T08:20:05.567+02:00,1582,1.513208,0,0,1248.267,0,0,2022-06-30T10:08:46.500+02:00
2022-06-30T10:08:47.127+02:00,5901.167100666667,-0.0903167724609375,-0.2636871337890625,-0.967681884765625,5901.157149666667,2.767288146821124,-0.0625065429468642,0.2572633670639084,-0.09578682482242584,0.1744613796472549,-0.1238441616296768,-0.07266157865524292,-0.03430679440498352,0.01340365409851074,XArbitraryZVertical,0.054304696612089,0.1202096863913035,0.9731989746758487,0.1883727567226119,-0.06041008979082108,-0.2544349431991577,-0.9652012586593628,0,0,0,-1,-1,5900.541894,unknown,2,2022-06-30T10:08:46.501+02:00,2022-06-30T08:20:05.567+02:00,1582,1.513208,0,0,1248.267,0,0,2022-06-30T10:08:46.500+02:00
2022-06-30T10:08:47.136+02:00,5901.177052666667,-0.112762451171875,-0.2764739990234375,-0.96466064453125,5901.167100666667,2.765796633946912,-0.06040517333309698,0.256248863193995,-0.1271025389432907,0.1747359335422516,-0.1602668166160583,-0.05203035473823547,-0.01836603879928589,0.008582413196563721,XArbitraryZVertical,0.05327991735106694,0.1198733884067002,0.9731815693557169,0.1889693826481153,-0.05839726701378822,-0.2534537017345428,-0.9655832648277283,0,0,0,-1,-1,5900.541894,unknown,2,2022-06-30T10:08:46.501+02:00,2022-06-30T08:20:05.567+02:00,1582,1.513208,0,0,1248.267,0,0,2022-06-30T10:08:46.500+02:00
2022-06-30T10:08:47.146+02:00,5901.187003666667,-0.1195831298828125,-0.304718017578125,-0.9703521728515625,5901.177052666667,2.763625456021907,-0.05797358288410305,0.2547250479900188,-0.2069292068481445,0.2016804665327072,-0.2226146161556244,-0.03424502909183502,-0.01170745491981506,-0.001575171947479248,XArbitraryZVertical,0.05208789752273769,0.119303963650572,0.9731394563412014,0.1898766356784128,-0.05607150495052338,-0.2519793510437012,-0.9661068320274353,0,0,0,-1,-1,5900.541894,unknown,2,2022-06-30T10:08:46.501+02:00,2022-06-30T08:20:05.567+02:00,1582,1.513208,0,0,1248.267,0,0,2022-06-30T10:08:46.500+02:00
2022-06-30T10:08:47.156+02:00,5901.196955666667,-0.084747314453125,-0.3917999267578125,-0.9721832275390625,5901.187003666667,2.760889894029105,-0.05519559225888586,0.2521482892015552,-0.355499655008316,0.237301379442215,-0.3278703987598419,-0.05933911353349686,-0.02698877453804016,0.002243220806121826,XArbitraryZVertical,0.05066234929879025,0.1182427569941056,0.9731168679522738,0.1910378064119409,-0.05342309921979904,-0.2494848966598511,-0.9669039249420166,0,0,0,-1,-1,5900.541894,unknown,2,2022-06-30T10:08:46.501+02:00,2022-06-30T08:20:05.567+02:00,1582,1.513208,0,0,1248.267,0,0,2022-06-30T10:08:46.500+02:00
2022-06-30T10:08:47.166+02:00,5901.206906666667,-0.0279541015625,-0.311798095703125,-0.9623870849609375,5901.196955666667,2.757346308269458,-0.05170045096651838,0.2480398259521761,-0.4892920553684235,0.2686827182769775,-0.2475505322217941,-0.06948703527450562,-0.05921342968940735,-0.002252042293548584,XArbitraryZVertical,0.04878914875390369,0.1164881921847673,0.9731258342598994,0.1925521377883169,-0.05009585991501808,-0.2455042451620102,-0.9681002497673035,0,0,0,-1,-1,5900.541894,unknown,2,2022-06-30T10:08:46.501+02:00,2022-06-30T08:20:05.567+02:00,1582,1.513208,0,0,1248.267,0,0,2022-06-30T10:08:46.500+02:00
2022-06-30T10:08:47.177+02:00,5901.216858666667,-0.093841552734375,-0.22137451171875,-0.9539337158203125,5901.206906666667,2.755139476477821,-0.04839779344856556,0.2427133545702018,-0.6021094918251038,0.3100415170192719,-0.1930675357580185,-0.03778619319200516,-0.1514622420072556,-0.002630531787872314,XArbitraryZVertical,0.046811310103907,0.1141590864720734,0.9733242878926214,0.1934330546908312,-0.04696089029312134,-0.2403373271226883,-0.9695528149604797,0,0,0,-1,-1,5900.541894,unknown,2,2022-06-30T10:08:46.501+02:00,2022-06-30T08:20:05.567+02:00,1582,1.513208,0,0,1248.267,0,0,2022-06-30T10:08:46.500+02:00
2022-06-30T10:08:47.186+02:00,5901.226809666667,-0.0143890380859375,-0.2169036865234375,-0.981719970703125,5901.216858666667,2.752092712528043,-0.04436961145432525,0.2367103896711602,-0.6029307842254639,0.3367436826229095,-0.3207176327705383,0.0151643343269825,-0.07729172706604004,0.008770763874053955,XArbitraryZVertical,0.04445657111330804,0.1115555467391744,0.9734859870567528,0.1946899987011497,-0.0431182011961937,-0.2345060259103775,-0.971157968044281,0,0,0,-1,-1,5900.541894,unknown,2,2022-06-30T10:08:46.501+02:00,2022-06-30T08:20:05.567+02:00,1582,1.513208,0,0,1248.267,0,0,2022-06-30T10:08:46.500+02:00
2022-06-30T10:08:47.196+02:00,5901.236760666667,-0.0106353759765625,-0.197662353515625,-0.9802398681640625,5901.226809666667,2.748848734356022,-0.04048299424097832,0.2315386326398341,-0.4531650543212891,0.2996342778205872,-0.264335423707962,-0.05444939434528351,0.008101209998130798,0.01858323812484741,XArbitraryZVertical,0.0422512186597447,0.1093450026278981,0.9735600561101626,0.1960596016147885,-0.03939192369580269,-0.2294753640890121,-0.9725170135498047,0,0,0,-1,-1,5900.541894,unknown,2,2022-06-30T10:08:46.501+02:00,2022-06-30T08:20:05.567+02:00,1582,1.513208,0,0,1248.267,0,0,2022-06-30T10:08:46.500+02:00
2022-06-30T10:08:47.206+02:00,5901.246712666667,-0.0005340576171875,-0.187347412109375,-0.9751129150390625,5901.236760666667,2.746005380590193,-0.03693862279544151,0.2278772211678325,-0.3006913661956787,0.2911718189716339,-0.2782248854637146,0.02158670872449875,0.009006798267364502,-0.008236408233642578,XArbitraryZVertical,0.04032821484734277,0.1078509152030651,0.9735662528884927,0.1972578046200062,-0.03597550839185715,-0.2259101271629333,-0.9734836220741272,0,0,0,-1,-1,5900.541894,unknown,2,2022-06-30T10:08:46.501+02:00,2022-06-30T08:20:05.567+02:00,1582,1.513208,0,0,1248.267,0,0,2022-06-30T10:08:46.500+02:00
2022-06-30T10:08:47.216+02:00,5901.256663666667,0.0066375732421875,-0.2096405029296875,-0.972381591796875,5901.246712666667,2.742930920226061,-0.03346824242577102,0.2256244404072891,-0.1724491864442825,0.2716114819049835,-0.3008363544940948,0.02197874709963799,0.02605302631855011,-0.006131172180175781,XArbitraryZVertical,0.0385856171386033,0.1070362355044276,0.9734593082981416,0.1985737304001641,-0.03261388838291168,-0.2237150222063065,-0.9741088151931763,0,0,0,-1,-1,5900.541894,unknown,2,2022-06-30T10:08:46.501+02:00,2022-06-30T08:20:05.567+02:00,1582,1.513208,0,0,1248.267,0,0,2022-06-30T10:08:46.500+02:00
2022-06-30T10:08:47.226+02:00,5901.266615666667,0.0026397705078125,-0.230316162109375,-0.961883544921875,5901.256663666667,2.739842112669756,-0.03018680852380465,0.2244659201698299,-0.08668021857738495,0.2545318305492401,-0.2956756949424744,0.02889122441411018,0.03523865342140198,-0.0006440281867980957,XArbitraryZVertical,0.0370402886289139,0.1067404912353358,0.9732791676985526,0.1999055633125808,-0.02942504733800888,-0.2225857079029083,-0.9744689464569092,0,0,0,-1,-1,5900.541894,unknown,2,2022-06-30T10:08:46.501+02:00,2022-06-30T08:20:05.567+02:00,1582,1.513208,0,0,1248.267,0,0,2022-06-30T10:08:46.500+02:00
2022-06-30T10:08:47.236+02:00,5901.276566666667,0.001434326171875,-0.245819091796875,-0.9531097412109375,5901.266615666667,2.736798495772485,-0.02702757390600411,0.2237329395059248,-0.08227881044149399,0.2487333714962006,-0.2984449565410614,0.0329885371029377,0.01223090291023254,0.002338230609893799,XArbitraryZVertical,0.03559305231764109,0.1066451428085584,0.9730725047144072,0.201221121507155,-0.02635073103010654,-0.2218710631132126,-0.9747198820114136,0,0,0,-1,-1,5900.541894,unknown,2,2022-06-30T10:08:46.501+02:00,2022-06-30T08:20:05.567+02:00,1582,1.513208,0,0,1248.267,0,0,2022-06-30T10:08:46.500+02:00
2022-06-30T10:08:47.246+02:00,5901.286518666667,-0.001007080078125,-0.2558135986328125,-0.9516143798828125,5901.276566666667,2.733687530975757,-0.02389402517245717,0.2228017164127662,-0.1256004422903061,0.2472390681505203,-0.3095436692237854,0.02594120427966118,-0.00935286283493042,0.01312017440795898,XArbitraryZVertical,0.03414165265032124,0.1064539430724192,0.9728650632657998,0.2025723082839946,-0.02330120094120502,-0.2209629565477371,-0.9750038385391235,0,0,0,-1,-1,5900.541894,unknown,2,2022-06-30T10:08:46.501+02:00,2022-06-30T08:20:05.567+02:00,1582,1.513208,0,0,1248.267,0,0,2022-06-30T10:08:46.500+02:00
2022-06-30T10:08:47.256+02:00,5901.296469666667,0.00189208984375,-0.2515411376953125,-0.96221923828125,5901.286518666667,2.73043091139621,-0.02070480511834437,0.221326222767741,-0.1841074377298355,0.254017174243927,-0.3180763125419617,0.02163286879658699,-0.02629505097866058,0.02228826284408569,XArbitraryZVertical,0.03261525561223895,0.1060057207432985,0.9726689989996417,0.2039955134848058,-0.02019831351935863,-0.2195236831903458,-0.975398063659668,0,0,0,-1,-1,5900.541894,unknown,2,2022-06-30T10:08:46.501+02:00,2022-06-30T08:20:05.567+02:00,1582,1.513208,0,0,1248.267,0,0,2022-06-30T10:08:46.500+02:00
2022-06-30T10:08:47.266+02:00,5901.306420666667,0.004425048828125,-0.2263946533203125,-0.9616241455078125,5901.296469666667,2.727163499535228,-0.01747021109532835,0.2192822783037945,-0.2360593229532242,0.2562651336193085,-0.3128602504730225,0.01604414731264114,-0.03828410804271698,0.02429044246673584,XArbitraryZVertical,0.0310077860946393,0.105290433060438,0.9724979677912504,0.2054271105245619,-0.01705099828541279,-0.2175291478633881,-0.9759048819541931,0,0,0,-1,-1,5900.541894,unknown,2,2022-06-30T10:08:46.501+02:00,2022-06-30T08:20:05.567+02:00,1582,1.513208,0,0,1248.267,0,0,2022-06-30T10:08:46.500+02:00
2022-06-30T10:08:47.276+02:00,5901.316372666667,0.001373291015625,-0.202362060546875,-0.964447021484375,5901.306420666667,2.723977509299745,-0.01422971408857264,0.216781881995028,-0.271192342042923,0.2596441209316254,-0.3060344159603119,0.01578851416707039,-0.03645282983779907,0.01427650451660156,XArbitraryZVertical,0.02934361087956361,0.1043601720364714,0.972353583244272,0.2068247653719462,-0.01389619428664446,-0.2150879502296448,-0.9764958024024963,0,0,0,-1,-1,5900.541894,unknown,2,2022-06-30T10:08:46.501+02:00,2022-06-30T08:20:05.567+02:00,1582,1.513208,0,0,1248.267,0,0,2022-06-30T10:08:46.500+02:00
2022-06-30T10:08:47.286+02:00,5901.326323666667,0.0013275146484375,-0.1837158203125,-0.96514892578125,5901.316372666667,2.720810478117806,-0.01098326517878832,0.2140709750037122,-0.2761029303073883,0.2604851424694061,-0.3089156746864319,0.01515762601047754,-0.01395457983016968,0.0154910683631897,XArbitraryZVertical,0.02765032957603573,0.1033336226395048,0.9722155768352774,0.2082178759940581,-0.01073234714567661,-0.212439700961113,-0.9771152138710022,0,0,0,-1,-1,5900.541894,unknown,2,2022-06-30T10:08:46.501+02:00,2022-06-30T08:20:05.567+02:00,1582,1.513208,0,0,1248.267,0,0,2022-06-30T10:08:46.500+02:00
2022-06-30T10:08:47.296+02:00,5901.336275666667,-0.0064849853515625,-0.1742706298828125,-0.9691162109375,5901.326323666667,2.717642960429758,-0.007740386326422816,0.2113568177316799,-0.2731518447399139,0.2626388669013977,-0.3097747266292572,0.008941583335399628,0.007425010204315186,0.0132707953453064,XArbitraryZVertical,0.0259547053985983,0.1023103666356516,0.9720702982764112,0.2096147856802625,-0.007568065077066422,-0.2097867131233215,-0.9777178764343262,0,0,0,-1,-1,5900.541894,unknown,2,2022-06-30T10:08:46.501+02:00,2022-06-30T08:20:05.567+02:00,1582,1.513208,0,0,1248.267,0,0,2022-06-30T10:08:46.500+02:00
2022-06-30T10:08:47.306+02:00,5901.346226666667,-0.005126953125,-0.171722412109375,-0.978424072265625,5901.336275666667,2.71448155148537,-0.004432508487888751,0.2087436363161539,-0.2514486610889435,0.2724938988685608,-0.3082061111927032,0.005664013791829348,0.02351553738117218,0.0131334662437439,XArbitraryZVertical,0.02423407579712095,0.1013483643795727,0.9719141124548963,0.2110078795838639,-0.004336273763328791,-0.2072309702634811,-0.9782824516296387,0,0,0,-1,-1,5900.541894,unknown,2,2022-06-30T10:08:46.501+02:00,2022-06-30T08:20:05.567+02:00,1582,1.513208,0,0,1248.267,0,0,2022-06-30T10:08:46.500+02:00
2022-06-30T10:08:47.316+02:00,5901.356178666667,-0.007293701171875,-0.1610870361328125,-0.9801177978515625,5901.346226666667,2.711374966271119,-0.001084419301492655,0.2064440296500317,-0.2104346603155136,0.2741053998470306,-0.3012621998786926,-0.005423363298177719,0.03071047365665436,0.009649157524108887,XArbitraryZVertical,0.02252091316534759,0.1005489554040652,0.9717411210466915,0.2123721827776654,-0.00106139259878546,-0.2049807459115982,-0.9787654280662537,0,0,0,-1,-1,5900.541894,unknown,2,2022-06-30T10:08:46.501+02:00,2022-06-30T08:20:05.567+02:00,1582,1.513208,0,0,1248.267,0,0,2022-06-30T10:08:46.500+02:00
2022-06-30T10:08:47.326+02:00,5901.366129666667,-0.0042877197265625,-0.16558837890625,-0.984039306640625,5901.356178666667,2.708345815335958,0.002266616284671396,0.2045441657864021,-0.1709972321987152,0.2789145112037659,-0.295666366815567,-0.00734608992934227,0.03139878809452057,0.0007269978523254395,XArbitraryZVertical,0.02084231350073111,0.09995007533767483,0.9715498946298995,0.2136969811858346,0.002219363814219832,-0.2031208425760269,-0.97915118932724,0,0,0,-1,-1,5900.541894,unknown,2,2022-06-30T10:08:46.501+02:00,2022-06-30T08:20:05.567+02:00,1582,1.513208,0,0,1248.267,0,0,2022-06-30T10:08:46.500+02:00
2022-06-30T10:08:47.336+02:00,5901.376080666667,0.00262451171875,-0.1883697509765625,-0.9828948974609375,5901.366129666667,2.7053270150679,0.005661226110706222,0.2029351206887982,-0.1523389220237732,0.2852672040462494,-0.3014979660511017,-0.01283850148320198,0.04045841097831726,-0.0006543397903442383,XArbitraryZVertical,0.01917123179643335,0.09950221779122016,0.9713398936303947,0.2150132393623745,0.005545023828744888,-0.2015450894832611,-0.979463517665863,0,0,0,-1,-1,5900.541894,unknown,2,2022-06-30T10:08:46.501+02:00,2022-06-30T08:20:05.567+02:00,1582,1.513208,0,0,1248.267,0,0,2022-06-30T10:08:46.500+02:00
2022-06-30T10:08:47.346+02:00,5901.386032666667,-0.003143310546875,-0.203338623046875,-0.975250244140625,5901.376080666667,2.702294041500144,0.009112431677603481,0.2013671667124229,-0.1593544781208038,0.290300041437149,-0.2983905971050262,-0.01321567595005035,0.03442104160785675,-0.004285991191864014,XArbitraryZVertical,0.01747619587089365,0.09908530492177998,0.9711210110108928,0.2163347269600117,0.008928182534873486,-0.2000090628862381,-0.9797533750534058,0,0,0,-1,-1,5900.541894,unknown,2,2022-06-30T10:08:46.501+02:00,2022-06-30T08:20:05.567+02:00,1582,1.513208,0,0,1248.267,0,0,2022-06-30T10:08:46.500+02:00
2022-06-30T10:08:47.356+02:00,5901.395983666667,-0.0155029296875,-0.2164459228515625,-0.9740447998046875,5901.386032666667,2.699229892064289,0.01261665815846228,0.1995409106662525,-0.2022211998701096,0.2987476587295532,-0.3111943006515503,-0.009741250425577164,0.009849995374679565,-0.002815306186676025,XArbitraryZVertical,0.01572714843217624,0.09855363619614391,0.9709057624497623,0.2176740814027213,0.01236598659306765,-0.1982193738222122,-0.9800796508789062,0,0,0,-1,-1,5900.541894,unknown,2,2022-06-30T10:08:46.501+02:00,2022-06-30T08:20:05.567+02:00,1582,1.513208,0,0,1248.267,0,0,2022-06-30T10:08:46.500+02:00
2022-06-30T10:08:47.366+02:00,5901.405935666667,-0.01080322265625,-0.216461181640625,-0.9832611083984375,5901.395983666667,2.696049964674564,0.01632167575626555,0.1972422157138398,-0.2440607845783234,0.323792576789856,-0.3184809684753418,-0.01914758794009686,-0.007372498512268066,0.005229830741882324,XArbitraryZVertical,0.0138322512781336,0.09781925185654693,0.9706950978115755,0.2190688239068752,0.01600449904799461,-0.1959657669067383,-0.9804801344871521,0,0,0,-1,-1,5900.541894,unknown,2,2022-06-30T10:08:46.501+02:00,2022-06-30T08:20:05.567+02:00,1582,1.513208,0,0,1248.267,0,0,2022-06-30T10:08:46.500+02:00
2022-06-30T10:08:47.376+02:00,5901.415886666667,-0.020172119140625,-0.1975250244140625,-0.984619140625,5901.405935666667,2.692876744037094,0.02017357378215235,0.1947568843785463,-0.2363219112157822,0.3291836082935333,-0.3172245025634766,-0.03529355302453041,-0.02291753888130188,0.006850242614746094,XArbitraryZVertical,0.01184224801867778,0.09701651057421484,0.9704871754119303,0.2204590963383631,0.01979084499180317,-0.193528026342392,-0.9808951020240784,0,0,0,-1,-1,5900.541894,unknown,2,2022-06-30T10:08:46.501+02:00,2022-06-30T08:20:05.567+02:00,1582,1.513208,0,0,1248.267,0,0,2022-06-30T10:08:46.500+02:00
2022-06-30T10:08:47.385+02:00,5901.425838666667,-0.0284423828125,-0.1880340576171875,-0.991241455078125,5901.415886666667,2.689645145806766,0.02410354509530617,0.1925342588965251,-0.191767230629921,0.3372673690319061,-0.33352330327034,-0.03445888310670853,-0.02511388063430786,-0.002023816108703613,XArbitraryZVertical,0.009843607088372045,0.09635571862789889,0.9702531438126311,0.2218729845062111,0.02365588024258614,-0.1913469433784485,-0.9812373518943787,0,0,0,-1,-1,5900.541894,unknown,2,2022-06-30T10:08:46.501+02:00,2022-06-30T08:20:05.567+02:00,1582,1.513208,0,0,1248.267,0,0,2022-06-30T10:08:46.500+02:00
2022-06-30T10:08:47.395+02:00,5901.435789666667,-0.0440521240234375,-0.1895751953125,-0.98931884765625,5901.425838666667,2.686226156225617,0.02809383460345187,0.1908916070341208,-0.1107665747404099,0.3363507986068726,-0.351999044418335,-0.04775179177522659,-0.007790267467498779,-0.003171145915985107,XArbitraryZVertical,0.007887660580879139,0.095988408200449,0.9699644466620476,0.2233675719035613,0.02757989428937435,-0.1897343844175339,-0.9814479947090149,0,0,0,-1,-1,5900.541894,unknown,2,2022-06-30T10:08:46.501+02:00,2022-06-30T08:20:05.567+02:00,1582,1.513208,0,0,1248.267,0,0,2022-06-30T10:08:46.500+02:00
2022-06-30T10:08:47.406+02:00,5901.445740666667,-0.0599822998046875,-0.2040557861328125,-0.9773712158203125,5901.435789666667,2.682514969959427,0.03220271332151941,0.1902655795398904,0.009752114303410053,0.3496902883052826,-0.3830427229404449,-0.06005828082561493,0.001085996627807617,-0.009796559810638428,XArbitraryZVertical,0.006002512200890981,0.09613272946320102,0.9695906221715327,0.2249810173711231,0.03161611780524254,-0.1891196817159653,-0.9814449548721313,0,0,0,-1,-1,5900.541894,unknown,2,2022-06-30T10:08:46.501+02:00,2022-06-30T08:20:05.567+02:00,1582,1.513208,0,0,1248.267,0,0,2022-06-30T10:08:46.500+02:00
2022-06-30T10:08:47.415+02:00,5901.455692666667,-0.0795135498046875,-0.2503814697265625,-0.9887847900390625,5901.445740666667,2.678417342088319,0.03645940243283988,0.1907344868531372,0.1093709766864777,0.3556628525257111,-0.428495466709137,-0.07984219491481781,5.27501106262207e-06,-0.00810617208480835,XArbitraryZVertical,0.004190761727549573,0.09683010737819361,0.969117897705067,0.2267526883970365,0.03579029068350792,-0.189580112695694,-0.9812127351760864,0,0,0,-1,-1,5900.541894,unknown,2,2022-06-30T10:08:46.501+02:00,2022-06-30T08:20:05.567+02:00,1582,1.513208,0,0,1248.267,0,0,2022-06-30T10:08:46.500+02:00
2022-06-30T10:08:47.425+02:00,5901.465643666667,-0.1011505126953125,-0.28228759765625,-0.982208251953125,5901.455692666667,2.673713571530239,0.04091665321516959,0.1920471218922894,0.1888173371553421,0.3681328296661377,-0.4887172877788544,-0.1001352965831757,-0.01318664848804474,0.003422677516937256,XArbitraryZVertical,0.00241253298932698,0.09796524820904325,0.9685315403191028,0.2287874876586281,0.04015321657061577,-0.1908687800168991,-0.9807939529418945,0,0,0,-1,-1,5900.541894,unknown,2,2022-06-30T10:08:46.501+02:00,2022-06-30T08:20:05.567+02:00,1582,1.513208,0,0,1248.267,0,0,2022-06-30T10:08:46.500+02:00
2022-06-30T10:08:47.435+02:00,5901.475595666667,-0.117950439453125,-0.3042755126953125,-0.9849395751953125,5901.465643666667,2.668435691544511,0.04573346238154163,0.1938896699340463,0.222670316696167,0.396043986082077,-0.5376304388046265,-0.1243742108345032,-0.05770397186279297,-0.008548617362976074,XArbitraryZVertical,0.00055672800821996,0.09940616121533064,0.967846691634466,0.2310648083653951,0.04486087709665298,-0.1926771253347397,-0.9802362322807312,0,0,0,-1,-1,5900.541894,unknown,2,2022-06-30T10:08:46.501+02:00,2022-06-30T08:20:05.567+02:00,1582,1.513208,0,0,1248.267,0,0,2022-06-30T10:08:46.500+02:00
2022-06-30T10:08:47.445+02:00,5901.485546666667,-0.131072998046875,-0.321563720703125,-1.004608154296875,5901.475595666667,2.662576799105962,0.05089727362872143,0.1958452204873975,0.2287987768650055,0.4217240512371063,-0.6021639108657837,-0.1510530412197113,-0.08769156038761139,-0.002595007419586182,XArbitraryZVertical,-0.001416070372240195,0.1009521540701822,0.9670781325243391,0.2335950380854017,0.04990274459123611,-0.1945956647396088,-0.9796133041381836,0,0,0,-1,-1,5900.541894,unknown,2,2022-06-30T10:08:46.501+02:00,2022-06-30T08:20:05.567+02:00,1582,1.513208,0,0,1248.267,0,0,2022-06-30T10:08:46.500+02:00
2022-06-30T10:08:47.455+02:00,5901.495498666667,-0.1375274658203125,-0.3124847412109375,-1.000747680664062,5901.485546666667,2.656020084129676,0.05655372256789491,0.1978579167863785,0.2453033775091171,0.4636203348636627,-0.6646611094474792,-0.1733710318803787,-0.1077056527137756,-0.00601726770401001,XArbitraryZVertical,-0.003574652286080861,0.1025965207273672,0.9662110165518873,0.236426455093395,0.05542080104351044,-0.196569487452507,-0.9789223670959473,0,0,0,-1,-1,5900.541894,unknown,2,2022-06-30T10:08:46.501+02:00,2022-06-30T08:20:05.567+02:00,1582,1.513208,0,0,1248.267,0,0,2022-06-30T10:08:46.500+02:00
2022-06-30T10:08:47.465+02:00,5901.505449666667,-0.1370086669921875,-0.319793701171875,-0.987457275390625,5901.495498666667,2.64884626232787,0.06272516451449889,0.1999154616031477,0.2495354264974594,0.4926863312721252,-0.7228258848190308,-0.1925083696842194,-0.1229768693447113,-0.02645224332809448,XArbitraryZVertical,-0.005932775751494364,0.1043399331329126,0.9652511296176394,0.2395168747856494,0.06143558770418167,-0.1985864788293839,-0.9781559705734253,0,0,0,-1,-1,5900.541894,unknown,2,2022-06-30T10:08:46.501+02:00,2022-06-30T08:20:05.567+02:00,1582,1.513208,0,0,1248.267,0,0,2022-06-30T10:08:46.500+02:00
2022-06-30T10:08:47.475+02:00,5901.515400666667,-0.1342315673828125,-0.3619384765625,-0.9774322509765625,5901.505449666667,2.640969550003796,0.06923799430910821,0.2018389388911257,0.236567422747612,0.5059006810188293,-0.802156925201416,-0.2053055167198181,-0.1120130717754364,-0.02339547872543335,XArbitraryZVertical,-0.008421809931998673,0.1060799612250186,0.9641920886694074,0.2429194191330641,0.06777825206518173,-0.2004712820053101,-0.9773522019386292,0,0,0,-1,-1,5900.541894,unknown,2,2022-06-30T10:08:46.501+02:00,2022-06-30T08:20:05.567+02:00,1582,1.513208,0,0,1248.267,0,0,2022-06-30T10:08:46.500+02:00
2022-06-30T10:08:47.485+02:00,5901.525352666667,-0.124542236328125,-0.4025115966796875,-0.9831085205078125,5901.515400666667,2.632275292505054,0.07607489710248463,0.2033286832516158,0.1790878772735596,0.5223371982574463,-0.8832360506057739,-0.2114443629980087,-0.1178627610206604,-0.01089018583297729,XArbitraryZVertical,-0.0110636225171121,0.1076755975038158,0.9630283440008146,0.2466981029440082,0.07443589717149734,-0.2019305527210236,-0.9765671491622925,0,0,0,-1,-1,5900.541894,unknown,2,2022-06-30T10:08:46.501+02:00,2022-06-30T08:20:05.567+02:00,1582,1.513208,0,0,1248.267,0,0,2022-06-30T10:08:46.500+02:00
2022-06-30T10:08:47.495+02:00,5901.535303666667,-0.1228179931640625,-0.4329071044921875,-0.985870361328125,5901.525352666667,2.622864069782683,0.08333169449172717,0.2038149064391155,0.05926487594842911,0.5575219988822937,-0.9602384567260742,-0.2157438099384308,-0.1595313549041748,-0.001529037952423096,XArbitraryZVertical,-0.01398377418276604,0.1088705993504072,0.9617909530550171,0.2508184331288121,0.0815124437212944,-0.2024067342281342,-0.9759032726287842,0,0,0,-1,-1,5900.541894,unknown,2,2022-06-30T10:08:46.501+02:00,2022-06-30T08:20:05.567+02:00,1582,1.513208,0,0,1248.267,0,0,2022-06-30T10:08:46.500+02:00
2022-06-30T10:08:47.517+02:00,5901.545255666667,-0.118316650390625,-0.460205078125,-0.9920806884765625,5901.535303666667,2.612732519560077,0.09111433969460865,0.2027135776082092,-0.1103340089321136,0.6008604168891907,-1.047446846961975,-0.2136672735214233,-0.2011831402778625,-0.007647812366485596,XArbitraryZVertical,-0.01731510502608417,0.1094066089067205,0.9604958282200319,0.2553002149049528,0.08912523090839386,-0.2013280838727951,-0.9754607677459717,0,0,0,-1,-1,5900.541894,unknown,2,2022-06-30T10:08:46.501+02:00,2022-06-30T08:20:05.567+02:00,1582,1.513208,0,0,1248.267,0,0,2022-06-30T10:08:46.500+02:00
2022-06-30T10:08:47.519+02:00,5901.555206666667,-0.11602783203125,-0.4664459228515625,-1.00653076171875,5901.545255666667,2.60189747650889,0.09940914194919477,0.1996274675166015,-0.3037545382976532,0.6409878134727478,-1.137707829475403,-0.2200923264026642,-0.2346025109291077,-0.01056885719299316,XArbitraryZVertical,-0.02111594062429258,0.1091024413726746,0.9591498820981177,0.2601583650064304,0.0972745269536972,-0.1983042061328888,-0.9753015637397766,0,0,0,-1,-1,5900.541894,unknown,2,2022-06-30T10:08:46.501+02:00,2022-06-30T08:20:05.567+02:00,1582,1.513208,0,0,1248.267,0,0,2022-06-30T10:08:46.500+02:00
2022-06-30T10:08:47.525+02:00,5901.565158666667,-0.10211181640625,-0.4214324951171875,-0.9979705810546875,5901.555206666667,2.590448845196285,0.1082430163804771,0.1945685717363089,-0.4676715731620789,0.6919779777526855,-1.213827133178711,-0.2243097871541977,-0.2668614387512207,-0.01669168472290039,XArbitraryZVertical,-0.02541757505810254,0.1079788050739455,0.9577471577212897,0.2653581631336769,0.1059933379292488,-0.1933432668447495,-0.9753890633583069,0,0,0,-1,-1,5900.541894,unknown,2,2022-06-30T10:08:46.501+02:00,2022-06-30T08:20:05.567+02:00,1582,1.513208,0,0,1248.267,0,0,2022-06-30T10:08:46.500+02:00
2022-06-30T10:08:47.535+02:00,5901.575109666667,-0.0678253173828125,-0.36553955078125,-1.002288818359375,5901.565158666667,2.578472383696399,0.1176622758037353,0.1879033864237947,-0.5843220353126526,0.7411742806434631,-1.284817457199097,-0.231352299451828,-0.2796459197998047,-0.03092527389526367,XArbitraryZVertical,-0.03021141885788332,0.1062285648921496,0.9562646525221999,0.2708519828892058,0.1153246611356735,-0.1867996007204056,-0.9756055474281311,0,0,0,-1,-1,5900.541894,unknown,2,2022-06-30T10:08:46.501+02:00,2022-06-30T08:20:05.567+02:00,1582,1.513208,0,0,1248.267,0,0,2022-06-30T10:08:46.500+02:00
2022-06-30T10:08:47.545+02:00,5901.585061666667,-0.04022216796875,-0.3265380859375,-1.010757446289062,5901.575109666667,2.565931341159911,0.1274677069841119,0.1803457714233569,-0.6094870567321777,0.7695585489273071,-1.364225029945374,-0.2271727323532104,-0.2420623600482941,-0.0221703052520752,XArbitraryZVertical,-0.03531142983534671,0.1041775159795898,0.9546555166984654,0.276646018469848,0.1250610947608948,-0.1793697476387024,-0.9758002758026123,0,0,0,-1,-1,5900.541894,unknown,2,2022-06-30T10:08:46.501+02:00,2022-06-30T08:20:05.567+02:00,1582,1.513208,0,0,1248.267,0,0,2022-06-30T10:08:46.500+02:00
2022-06-30T10:08:47.555+02:00,5901.595012666667,-0.020050048828125,-0.2950897216796875,-1.024581909179688,5901.585061666667,2.552597328615196,0.1375567073150236,0.1725727341226035,-0.5876507759094238,0.7896811962127686,-1.458351254463196,-0.2029116600751877,-0.1938217282295227,-0.02644830942153931,XArbitraryZVertical,-0.04056555571041903,0.1021477614143146,0.9528529246624459,0.2828280310216008,0.1350865215063095,-0.1717174351215363,-0.9758405685424805,0,0,0,-1,-1,5900.541894,unknown,2,2022-06-30T10:08:46.501+02:00,2022-06-30T08:20:05.567+02:00,1582,1.513208,0,0,1248.267,0,0,2022-06-30T10:08:46.500+02:00
2022-06-30T10:08:47.565+02:00,5901.604963666667,-0.00079345703125,-0.2730865478515625,-1.008453369140625,5901.595012666667,2.538452244906698,0.1478589457338991,0.1646430662138897,-0.5947584509849548,0.8097055554389954,-1.542913198471069,-0.1855505406856537,-0.1626374423503876,-0.03504425287246704,XArbitraryZVertical,-0.04593317493609259,0.1001674677482397,0.950842212870965,0.2894060656937569,0.145328551530838,-0.1639002412557602,-0.9757132530212402,0,0,0,-1,-1,5900.541894,unknown,2,2022-06-30T10:08:46.501+02:00,2022-06-30T08:20:05.567+02:00,1582,1.513208,0,0,1248.267,0,0,2022-06-30T10:08:46.500+02:00
2022-06-30T10:08:47.575+02:00,5901.614915666667,0.0346527099609375,-0.2514495849609375,-0.9936065673828125,5901.604963666667,2.523683430586455,0.1583797780439519,0.1561642672672459,-0.6443712115287781,0.8335327506065369,-1.61296010017395,-0.1758490949869156,-0.1395590305328369,-0.0491144061088562,XArbitraryZVertical,-0.0514885283277695,0.09805691956341403,0.9486491973638006,0.2963080630471734,0.1557992100715637,-0.1555303037166595,-0.9754675626754761,0,0,0,-1,-1,5900.541894,unknown,2,2022-06-30T10:08:46.501+02:00,2022-06-30T08:20:05.567+02:00,1582,1.513208,0,0,1248.267,0,0,2022-06-30T10:08:46.500+02:00
2022-06-30T10:08:47.585+02:00,5901.624866666667,0.08013916015625,-0.216949462890625,-0.990631103515625,5901.614915666667,2.508451970679925,0.1691135394355077,0.1468942591183634,-0.698189914226532,0.8684547543525696,-1.673004508018494,-0.1672892868518829,-0.12671959400177,-0.03333497047424316,XArbitraryZVertical,-0.05728032765589065,0.09570661314204827,0.9462899181038785,0.303471171584788,0.1664959937334061,-0.1463665515184402,-0.9751183986663818,0,0,0,-1,-1,5900.541894,unknown,2,2022-06-30T10:08:46.501+02:00,2022-06-30T08:20:05.567+02:00,1582,1.513208,0,0,1248.267,0,0,2022-06-30T10:08:46.500+02:00
2022-06-30T10:08:47.594+02:00,5901.634818666667,0.127716064453125,-0.1814422607421875,-1.000946044921875,5901.624866666667,2.492897356525553,0.1800737722115274,0.1369148075639578,-0.7337542176246643,0.8959321975708008,-1.721281886100769,-0.1427732110023499,-0.1149617284536362,-0.01898300647735596,XArbitraryZVertical,-0.06331597788206947,0.09316268323922741,0.9437684351689696,0.3108263695441545,0.1774260848760605,-0.1364874541759491,-0.9746236205101013,0,0,0,-1,-1,5900.541894,unknown,2,2022-06-30T10:08:46.501+02:00,2022-06-30T08:20:05.567+02:00,1582,1.513208,0,0,1248.267,0,0,2022-06-30T10:08:46.500+02:00
2022-06-30T10:08:47.604+02:00,5901.644769666667,0.17083740234375,-0.167999267578125,-1.03070068359375,5901.634818666667,2.477024601532278,0.1911766262119667,0.1265921818638734,-0.712037980556488,0.9195621609687805,-1.769921541213989,-0.108354389667511,-0.09069472551345825,-0.01670610904693604,XArbitraryZVertical,-0.06950199834825485,0.09059225186676284,0.9410693723074692,0.3183566978720502,0.1884936988353729,-0.1262543350458145,-0.9739250540733337,0,0,0,-1,-1,5900.541894,unknown,2,2022-06-30T10:08:46.501+02:00,2022-06-30T08:20:05.567+02:00,1582,1.513208,0,0,1248.267,0,0,2022-06-30T10:08:46.500+02:00
2022-06-30T10:08:47.614+02:00,5901.654721666667,0.198577880859375,-0.1591644287109375,-1.033477783203125,5901.644769666667,2.46075536714328,0.2022770535130615,0.1163513341063673,-0.6798374652862549,0.9170879125595093,-1.81486988067627,-0.07182593643665314,-0.06535285711288452,-0.0279577374458313,XArbitraryZVertical,-0.07569759915823314,0.08817999728114972,0.9381716277207608,0.326080035851475,0.1995421499013901,-0.1160889938473701,-0.9729883074760437,0,0,0,-1,-1,5900.541894,unknown,2,2022-06-30T10:08:46.501+02:00,2022-06-30T08:20:05.567+02:00,1582,1.513208,0,0,1248.267,0,0,2022-06-30T10:08:46.500+02:00
2022-06-30T10:08:47.624+02:00,5901.664672666667,0.1962432861328125,-0.1471710205078125,-1.019317626953125,5901.654721666667,2.444232976538944,0.2131954535496105,0.1059340156994605,-0.6945173144340515,0.9195846319198608,-1.843449831008911,-0.039560467004776,-0.06226284801959991,-0.05881971120834351,XArbitraryZVertical,-0.08186786731535728,0.0857739837236943,0.9351039357353754,0.3339477787574191,0.2103979885578156,-0.1057359948754311,-0.9718809723854065,0,0,0,-1,-1,5900.541894,unknown,2,2022-06-30T10:08:46.501+02:00,2022-06-30T08:20:05.567+02:00,1582,1.513208,0,0,1248.267,0,0,2022-06-30T10:08:46.500+02:00
2022-06-30T10:08:47.635+02:00,5901.674623666667,0.1976165771484375,-0.117828369140625,-0.9892120361328125,5901.664672666667,2.42781659443176,0.2240948276016351,0.09481564329530122,-0.7875821590423584,0.9492847323417664,-1.840174674987793,-0.02264775335788727,-0.06449036300182343,-0.06286144256591797,XArbitraryZVertical,-0.08819751843586507,0.08314464763538226,0.9319179881983135,0.3418142878272352,0.221225768327713,-0.09467364102602005,-0.970616340637207,0,0,0,-1,-1,5900.541894,unknown,2,2022-06-30T10:08:46.501+02:00,2022-06-30T08:20:05.567+02:00,1582,1.513208,0,0,1248.267,0,0,2022-06-30T10:08:46.500+02:00
2022-06-30T10:08:47.644+02:00,5901.684575666667,0.2084503173828125,-0.066162109375,-0.9712066650390625,5901.674623666667,2.4119083198322,0.2351460797367387,0.08236845592447167,-0.9185588359832764,0.9985710382461548,-1.825765132904053,-0.03595173358917236,-0.06489525735378265,-0.05013436079025269,XArbitraryZVertical,-0.09489957019549178,0.08001528103557504,0.9286672658509859,0.3495263248810882,0.2321951389312744,-0.08227534592151642,-0.9691832661628723,0,0,0,-1,-1,5900.541894,unknown,2,2022-06-30T10:08:46.501+02:00,2022-06-30T08:20:05.567+02:00,1582,1.513208,0,0,1248.267,0,0,2022-06-30T10:08:46.500+02:00
2022-06-30T10:08:47.654+02:00,5901.694526666667,0.2470245361328125,0.0348358154296875,-0.9849090576171875,5901.684575666667,2.396675178654025,0.246505128986551,0.06874713928108936,-0.999025821685791,1.05330765247345,-1.787204027175903,-0.04582314193248749,-0.04913494735956192,-0.02173161506652832,XArbitraryZVertical,-0.1020322766464881,0.07648015455975903,0.9253610757371711,0.35699740453899,0.2434398233890533,-0.06869299709796906,-0.9674804210662842,0,0,0,-1,-1,5900.541894,unknown,2,2022-06-30T10:08:46.501+02:00,2022-06-30T08:20:05.567+02:00,1582,1.513208,0,0,1248.267,0,0,2022-06-30T10:08:46.500+02:00
2022-06-30T10:08:47.664+02:00,5901.704478666667,0.3101806640625,0.1729736328125,-0.94757080078125,5901.694526666667,2.381962689030648,0.2581345962409226,0.05524101126332585,-0.8638477325439453,1.109790444374084,-1.748156189918518,-0.04643756151199341,-0.01094876974821091,-0.005813658237457275,XArbitraryZVertical,-0.1093371765829343,0.07313606348738542,0.9219749208861355,0.3642233818849293,0.2548879981040955,-0.05521291866898537,-0.9653930068016052,0,0,0,-1,-1,5900.541894,unknown,2,2022-06-30T10:08:46.501+02:00,2022-06-30T08:20:05.567+02:00,1582,1.513208,0,0,1248.267,0,0,2022-06-30T10:08:46.500+02:00
2022-06-30T10:08:47.674+02:00,5901.714429666667,0.38946533203125,0.231231689453125,-0.94976806640625,5901.704478666667,2.367478559270385,0.2698919224127898,0.04371937867428136,-0.6063238382339478,1.099513411521912,-1.655991792678833,-0.01934787631034851,0.07854169607162476,-0.0220302939414978,XArbitraryZVertical,-0.116378899567896,0.07082772568987598,0.9184958656247312,0.3712206171897828,0.2663725018501282,-0.04370545223355293,-0.9628787636756897,0,0,0,-1,-1,5900.541894,unknown,2,2022-06-30T10:08:46.501+02:00,2022-06-30T08:20:05.567+02:00,1582,1.513208,0,0,1248.267,0,0,2022-06-30T10:08:46.500+02:00
2022-06-30T10:08:47.684+02:00,5901.724381666667,0.43231201171875,0.2093963623046875,-0.942718505859375,5901.714429666667,2.353153797423288,0.2810088532418759,0.03498688592272216,-0.2993417382240295,1.024742007255554,-1.601148247718811,0.03302538394927979,0.2079538106918335,0.01261740922927856,XArbitraryZVertical,-0.1226285964239062,0.06977204876548315,0.9149990721838074,0.377982680701573,0.2771553695201874,-0.03497974947094917,-0.9601881504058838,0,0,0,-1,-1,5900.541894,unknown,2,2022-06-30T10:08:46.501+02:00,2022-06-30T08:20:05.567+02:00,1582,1.513208,0,0,1248.267,0,0,2022-06-30T10:08:46.500+02:00
2022-06-30T10:08:47.694+02:00,5901.734332666667,0.4551239013671875,0.1663818359375,-0.9311981201171875,5901.724381666667,2.338466145000288,0.291317971675233,0.02885483736709377,-0.06856952607631683,0.956797182559967,-1.574838638305664,0.1023700535297394,0.2600829601287842,0.007699429988861084,XArbitraryZVertical,-0.1280053197282452,0.06986358389771485,0.9114276533874678,0.3847510846857113,0.2870953679084778,-0.02885083295404911,-0.9574674367904663,0,0,0,-1,-1,5900.541894,unknown,2,2022-06-30T10:08:46.501+02:00,2022-06-30T08:20:05.567+02:00,1582,1.513208,0,0,1248.267,0,0,2022-06-30T10:08:46.500+02:00
2022-06-30T10:08:47.704+02:00,5901.744283666667,0.4453125,0.1093597412109375,-0.9226531982421875,5901.734332666667,2.323685495095067,0.3009764502936796,0.02425165746156676,0.03468069806694984,0.9147972464561462,-1.535657644271851,0.1359463334083557,0.2336460798978806,0.01204818487167358,XArbitraryZVertical,-0.1327806628477078,0.07061144714846837,0.9078236372020175,0.3914583608630672,0.2963657379150391,-0.02424927987158298,-0.9547666311264038,0,0,0,-1,-1,5900.541894,unknown,2,2022-06-30T10:08:46.501+02:00,2022-06-30T08:20:05.567+02:00,1582,1.513208,0,0,1248.267,0,0,2022-06-30T10:08:46.500+02:00
2022-06-30T10:08:47.714+02:00,5901.754235666667,0.4444427490234375,0.0665740966796875,-0.8946075439453125,5901.744283666667,2.309231907588866,0.3102737331354812,0.02010715635362742,0.0343984067440033,0.8954347968101501,-1.481840133666992,0.1498663723468781,0.1864880621433258,0.02085942029953003,XArbitraryZVertical,-0.1373032186142358,0.07154754622782912,0.9042377006279437,0.3979738311121228,0.3052575886249542,-0.02010580152273178,-0.9520575404167175,0,0,0,-1,-1,5900.541894,unknown,2,2022-06-30T10:08:46.501+02:00,2022-06-30T08:20:05.567+02:00,1582,1.513208,0,0,1248.267,0,0,2022-06-30T10:08:46.500+02:00
2022-06-30T10:08:47.724+02:00,5901.764186666667,0.4532928466796875,0.053863525390625,-0.8459625244140625,5901.754235666667,2.295638984472741,0.3192661369227259,0.0155780021509287,-0.07169260829687119,0.8627381324768066,-1.391679644584656,0.1314807832241058,0.1249375492334366,0.02669763565063477,XArbitraryZVertical,-0.1417864134278696,0.0722579334977764,0.9007581362966598,0.4041165445764274,0.3138317763805389,-0.01557737216353416,-0.9493508338928223,0,0,0,-1,-1,5900.541894,unknown,2,2022-06-30T10:08:46.501+02:00,2022-06-30T08:20:05.567+02:00,1582,1.513208,0,0,1248.267,0,0,2022-06-30T10:08:46.500+02:00
2022-06-30T10:08:47.734+02:00,5901.774138666667,0.47198486328125,0.05694580078125,-0.7960357666015625,5901.764186666667,2.283480601157144,0.3277160149919043,0.009764622904875946,-0.2704184353351593,0.8120733499526978,-1.297693014144897,0.1225767135620117,0.0763390064239502,0.05212730169296265,XArbitraryZVertical,-0.1463341887084046,0.07224183611194679,0.8974988662937771,0.4097110365810705,0.3218660950660706,-0.009764467366039753,-0.9467348456382751,0,0,0,-1,-1,5900.541894,unknown,2,2022-06-30T10:08:46.501+02:00,2022-06-30T08:20:05.567+02:00,1582,1.513208,0,0,1248.267,0,0,2022-06-30T10:08:46.500+02:00
2022-06-30T10:08:47.744+02:00,5901.784089666667,0.4927520751953125,0.0706024169921875,-0.7558746337890625,5901.774138666667,2.273021417079757,0.3356323932392292,0.001914216731299722,-0.5443516969680786,0.7751073241233826,-1.205848574638367,0.1239271759986877,0.05577819049358368,0.09823799133300781,XArbitraryZVertical,-0.1511272725886953,0.07113582550825999,0.894493691512553,0.4147063485166385,0.3293657302856445,-0.001914215506985784,-0.9442004561424255,0,0,0,-1,-1,5900.541894,unknown,2,2022-06-30T10:08:46.501+02:00,2022-06-30T08:20:05.567+02:00,1582,1.513208,0,0,1248.267,0,0,2022-06-30T10:08:46.500+02:00
2022-06-30T10:08:47.754+02:00,5901.794041666667,0.50579833984375,0.08514404296875,-0.7191925048828125,5901.784089666667,2.264358781940203,0.343216986231088,-0.008391334194810578,-0.8300691246986389,0.7628528475761414,-1.127530217170715,0.1354785561561584,0.04855500161647797,0.1456080675125122,XArbitraryZVertical,-0.1563568631402106,0.06877950250617977,0.8917296188664563,0.4190947304640185,0.3365063369274139,0.008391235955059528,-0.9416438341140747,0,0,0,-1,-1,5900.541894,unknown,2,2022-06-30T10:08:46.501+02:00,2022-06-30T08:20:05.567+02:00,1582,1.513208,0,0,1248.267,0,0,2022-06-30T10:08:46.500+02:00
2022-06-30T10:08:47.764+02:00,5901.803992666667,0.5181884765625,0.0877532958984375,-0.725311279296875,5901.794041666667,2.257369389787363,0.3506136354725061,-0.02114917239909704,-1.100243091583252,0.7514297962188721,-1.066630482673645,0.1493547558784485,0.04945525527000427,0.1830775141716003,XArbitraryZVertical,-0.162086823394477,0.06520591686453926,0.8891581838526147,0.4229348881290613,0.3433973789215088,0.021147595718503,-0.9389520883560181,0,0,0,-1,-1,5900.541894,unknown,2,2022-06-30T10:08:46.501+02:00,2022-06-30T08:20:05.567+02:00,1582,1.513208,0,0,1248.267,0,0,2022-06-30T10:08:46.500+02:00
2022-06-30T10:08:47.774+02:00,5901.813943666667,0.5081634521484375,0.1168365478515625,-0.72259521484375,5901.803992666667,2.251889108440737,0.3578735441220965,-0.03600519882063736,-1.307312965393066,0.7477542757987976,-1.004197001457214,0.1557421386241913,0.04914706200361252,0.2168442606925964,XArbitraryZVertical,-0.1682579037904256,0.06058798313788014,0.8867392079279529,0.4262768555868069,0.3500562608242035,0.0359974205493927,-0.9360367655754089,0,0,0,-1,-1,5900.541894,unknown,2,2022-06-30T10:08:46.501+02:00,2022-06-30T08:20:05.567+02:00,1582,1.513208,0,0,1248.267,0,0,2022-06-30T10:08:46.500+02:00
2022-06-30T10:08:47.784+02:00,5901.823895666667,0.5142974853515625,0.1776885986328125,-0.69329833984375,5901.813943666667,2.247684931329323,0.3652143253000581,-0.05212961282704544,-1.421384453773499,0.7721661329269409,-0.9260656833648682,0.1615242063999176,0.03564772754907608,0.2074671387672424,XArbitraryZVertical,-0.1747772123050806,0.05535101582001246,0.8844279243359567,0.4291577024807895,0.3566643297672272,0.05210600420832634,-0.9327783584594727,0,0,0,-1,-1,5900.541894,unknown,2,2022-06-30T10:08:46.501+02:00,2022-06-30T08:20:05.567+02:00,1582,1.513208,0,0,1248.267,0,0,2022-06-30T10:08:46.500+02:00
2022-06-30T10:08:47.793+02:00,5901.833846666667,0.521514892578125,0.2186279296875,-0.6633453369140625,5901.823895666667,2.244940261670573,0.3727062031679259,-0.0689270927639859,-1.527151823043823,0.7683046460151672,-0.8043726086616516,0.1448909640312195,0.04796446114778519,0.2065386772155762,XArbitraryZVertical,-0.1815440214210301,0.04974791101514136,0.8822783474478426,0.4314533076120706,0.3632725179195404,0.06887252628803253,-0.9291338324546814,0,0,0,-1,-1,5900.541894,unknown,2,2022-06-30T10:08:46.501+02:00,2022-06-30T08:20:05.567+02:00,1582,1.513208,0,0,1248.267,0,0,2022-06-30T10:08:46.500+02:00
2022-06-30T10:08:47.803+02:00,5901.843798666667,0.54510498046875,0.2454071044921875,-0.6225128173828125,5901.833846666667,2.243775479416985,0.380143718626198,-0.08628715405411801,-1.638819813728333,0.7520478963851929,-0.6994875073432922,0.1446240544319153,0.09150891751050949,0.2318582534790039,XArbitraryZVertical,-0.1884328355855789,0.04375866616862778,0.880336735752509,0.4331114619536289,0.3696734607219696,0.08618012070655823,-0.9251564741134644,0,0,0,-1,-1,5900.541894,unknown,2,2022-06-30T10:08:46.501+02:00,2022-06-30T08:20:05.567+02:00,1582,1.513208,0,0,1248.267,0,0,2022-06-30T10:08:46.500+02:00
2022-06-30T10:08:47.813+02:00,5901.853749666667,0.57513427734375,0.26123046875,-0.5737457275390625,5901.843798666667,2.24421335200995,0.3876262077764574,-0.104685038770928,-1.837742328643799,0.7500103712081909,-0.6081101298332214,0.1455924212932587,0.1141344308853149,0.2573953866958618,XArbitraryZVertical,-0.195569992814172,0.03717615669158503,0.8785645222133396,0.4341597585474899,0.3759225010871887,0.1044939383864403,-0.9207406044006348,0,0,0,-1,-1,5900.541894,unknown,2,2022-06-30T10:08:46.501+02:00,2022-06-30T08:20:05.567+02:00,1582,1.513208,0,0,1248.267,0,0,2022-06-30T10:08:46.500+02:00
2022-06-30T10:08:47.823+02:00,5901.863701666667,0.6029052734375,0.278533935546875,-0.516357421875,5901.853749666667,2.246441684911662,0.3953202411404756,-0.1251274279272389,-2.144719839096069,0.7479307651519775,-0.5500189065933228,0.1630120873451233,0.1206063777208328,0.2931452989578247,XArbitraryZVertical,-0.2032178580914331,0.02955450853857216,0.8769026986741295,0.4345927673744501,0.3820929229259491,0.1248011663556099,-0.9156580567359924,0,0,0,-1,-1,5900.541894,unknown,2,2022-06-30T10:08:46.501+02:00,2022-06-30T08:20:05.567+02:00,1582,1.513208,0,0,1248.267,0,0,2022-06-30T10:08:46.500+02:00
2022-06-30T10:08:47.833+02:00,5901.873652666667,0.616668701171875,0.2976531982421875,-0.4457855224609375,5901.863701666667,2.250707634400944,0.4033225710257936,-0.1486371330236896,-2.556677103042603,0.7474073767662048,-0.5068631768226624,0.1869853138923645,0.1131404787302017,0.3358749747276306,XArbitraryZVertical,-0.2115962271669471,0.02041429155017286,0.8752844511287682,0.4343816925955286,0.3881489634513855,0.1480904370546341,-0.9096205830574036,0,0,0,-1,-1,5900.541894,unknown,2,2022-06-30T10:08:46.501+02:00,2022-06-30T08:20:05.567+02:00,1582,1.513208,0,0,1248.267,0,0,2022-06-30T10:08:46.500+02:00
2022-06-30T10:08:47.843+02:00,5901.883603666667,0.62371826171875,0.3210906982421875,-0.3787994384765625,5901.873652666667,2.257382712266779,0.411873278970508,-0.176208422438325,-3.065261840820312,0.7623506188392639,-0.4769555926322937,0.208777517080307,0.1032363921403885,0.3858255743980408,XArbitraryZVertical,-0.2209572738128703,0.009297956542607174,0.8736248514873087,0.4334408737207981,0.394127756357193,0.1752979755401611,-0.9021828770637512,0,0,0,-1,-1,5900.541894,unknown,2,2022-06-30T10:08:46.501+02:00,2022-06-30T08:20:05.567+02:00,1582,1.513208,0,0,1248.267,0,0,2022-06-30T10:08:46.500+02:00
2022-06-30T10:08:47.853+02:00,5901.893555666667,0.627655029296875,0.369110107421875,-0.2881622314453125,5901.883603666667,2.266875843799657,0.4213724261221427,-0.2084790321874918,-3.63178563117981,0.7895745038986206,-0.4344441890716553,0.2165119647979736,0.0906815379858017,0.4469839334487915,XArbitraryZVertical,-0.2315139640486981,-0.004076466893761538,0.871817756313003,0.4316461733493275,0.4001567959785461,0.2069721072912216,-0.8927693367004395,0,0,0,-1,-1,5900.541894,unknown,2,2022-06-30T10:08:46.501+02:00,2022-06-30T08:20:05.567+02:00,1582,1.513208,0,0,1248.267,0,0,2022-06-30T10:08:46.500+02:00
2022-06-30T10:08:47.864+02:00,5901.903506666667,0.6379547119140625,0.4365081787109375,-0.219085693359375,5901.893555666667,2.279754288906888,0.4323209510374179,-0.245818831598561,-4.255282878875732,0.8315973281860352,-0.3739851117134094,0.217334121465683,0.07774052023887634,0.5019006729125977,XArbitraryZVertical,-0.2434226288947291,-0.01988584579479916,0.8697593542658384,0.4287991273327293,0.406384140253067,0.243350625038147,-0.8806999325752258,0,0,0,-1,-1,5900.541894,unknown,2,2022-06-30T10:08:46.501+02:00,2022-06-30T08:20:05.567+02:00,1582,1.513208,0,0,1248.267,0,0,2022-06-30T10:08:46.500+02:00
2022-06-30T10:08:47.873+02:00,5901.913458666667,0.67340087890625,0.5227508544921875,-0.1138458251953125,5901.903506666667,2.296798774120608,0.4454007408554693,-0.2887443874295427,-4.972256660461426,0.8985214829444885,-0.2920649945735931,0.2146705090999603,0.084361732006073,0.5769170522689819,XArbitraryZVertical,-0.2568794678050173,-0.03838469963540569,0.8673026856323632,0.4246476229819935,0.4129845499992371,0.2847488224506378,-0.8650791049003601,0,0,0,-1,-1,5900.541894,unknown,2,2022-06-30T10:08:46.501+02:00,2022-06-30T08:20:05.567+02:00,1582,1.513208,0,0,1248.267,0,0,2022-06-30T10:08:46.500+02:00
2022-06-30T10:08:47.883+02:00,5901.923409666667,0.69512939453125,0.612335205078125,-0.0242767333984375,5901.913458666667,2.319372426847485,0.4614990567257972,-0.3380488823130144,-5.84594202041626,0.9397901296615601,-0.1630502939224243,0.2178657650947571,0.1048615872859955,0.6256247758865356,XArbitraryZVertical,-0.2721069705947145,-0.0600219187533932,0.8642894840010444,0.4187588549495518,0.4200889766216278,0.3316470384597778,-0.8447103500366211,0,0,0,-1,-1,5900.541894,unknown,2,2022-06-30T10:08:46.501+02:00,2022-06-30T08:20:05.567+02:00,1582,1.513208,0,0,1248.267,0,0,2022-06-30T10:08:46.500+02:00
2022-06-30T10:08:47.893+02:00,5901.933361666667,0.7009429931640625,0.7188873291015625,0.092071533203125,5901.923409666667,2.34908758443897,0.4817815062045339,-0.3946238321715239,-6.820518970489502,1.005486130714417,-0.03054730966687202,0.2456554174423218,0.1382903158664703,0.7042152881622314,XArbitraryZVertical,-0.2892892501442531,-0.08533050089223573,0.8604438839391719,0.410690588479609,0.4277454614639282,0.3844609558582306,-0.8180608749389648,0,0,0,-1,-1,5900.541894,unknown,2,2022-06-30T10:08:46.501+02:00,2022-06-30T08:20:05.567+02:00,1582,1.513208,0,0,1248.267,0,0,2022-06-30T10:08:46.500+02:00
2022-06-30T10:08:47.903+02:00,5901.943312666667,0.697662353515625,0.9127197265625,0.2395477294921875,5901.933361666667,2.387226442400931,0.5079400887764639,-0.4580464292962053,-7.687695980072021,1.075577020645142,0.1291166543960571,0.258887767791748,0.1701388359069824,0.7594041228294373,XArbitraryZVertical,-0.3084203623775006,-0.1141777852433114,0.8553780614001646,0.4002109522291363,0.436241626739502,0.4421967566013336,-0.7836806178092957,0,0,0,-1,-1,5900.541894,unknown,2,2022-06-30T10:08:46.501+02:00,2022-06-30T08:20:05.567+02:00,1582,1.513208,0,0,1248.267,0,0,2022-06-30T10:08:46.500+02:00
2022-06-30T10:08:47.913+02:00,5901.953263666667,0.6797637939453125,1.141448974609375,0.4294891357421875,5901.943312666667,2.434792245872653,0.5410628973568307,-0.5263131575914181,-8.38599681854248,1.047200560569763,0.2907248735427856,0.2555995285511017,0.2165388464927673,0.8332296013832092,XArbitraryZVertical,-0.3288504872188006,-0.1458713653843517,0.8488945541549707,0.3872429469374623,0.4453434646129608,0.5023488998413086,-0.7411578297615051,0,0,0,-1,-1,5900.541894,unknown,2,2022-06-30T10:08:46.501+02:00,2022-06-30T08:20:05.567+02:00,1582,1.513208,0,0,1248.267,0,0,2022-06-30T10:08:46.500+02:00
2022-06-30T10:08:47.923+02:00,5901.96321625,0.6619110107421875,1.334487915039062,0.637664794921875,5901.953263666667,2.492369977751434,0.5817679240045882,-0.5974650845302489,-8.89771842956543,0.958687424659729,0.3813320100307465,0.2433538436889648,0.3501715660095215,0.9303034543991089,XArbitraryZVertical,-0.3497059078976595,-0.1798001135546901,0.8408252549047626,0.3720090896104532,0.4543085694313049,0.5625485181808472,-0.6907553672790527,0,0,0,-1,-1,5900.541894,unknown,2,2022-06-30T10:08:46.501+02:00,2022-06-30T08:20:05.567+02:00,1582,1.513208,0,0,1248.267,0,0,2022-06-30T10:08:46.500+02:00
2022-06-30T10:08:47.934+02:00,5901.97316725,0.673431396484375,1.506927490234375,0.87841796875,5901.96321625,2.559421501992765,0.6303046911215174,-0.6686016996316192,-8.97175407409668,0.8106387257575989,0.4104248285293579,0.217275083065033,0.5215599536895752,1.063399076461792,XArbitraryZVertical,-0.370011523428166,-0.2147944987275364,0.8311470894800095,0.3551750427088344,0.4624887108802795,0.6198893785476685,-0.6339095830917358,0,0,0,-1,-1,5900.541894,unknown,2,2022-06-30T10:08:46.501+02:00,2022-06-30T08:20:05.567+02:00,1582,1.513208,0,0,1248.267,0,0,2022-06-30T10:08:46.500+02:00
2022-06-30T10:08:47.944+02:00,5901.983119250001,0.7152862548828125,1.734939575195312,1.12713623046875,5901.97316725,2.633757897700046,0.6849350810355351,-0.7353248495703835,-8.53174877166748,0.4964627027511597,0.4291220605373383,0.1927498281002045,0.6636601090431213,1.21201491355896,XArbitraryZVertical,-0.3883681352701704,-0.2489887089095505,0.8204759231367171,0.3376301996091902,0.469161182641983,0.670828104019165,-0.5743496417999268,0,0,0,-1,-1,5900.541894,unknown,2,2022-06-30T10:08:46.501+02:00,2022-06-30T08:20:05.567+02:00,1582,1.513208,0,0,1248.267,0,0,2022-06-30T10:08:46.500+02:00
2022-06-30T10:08:47.953+02:00,5901.993070250001,0.79522705078125,1.986526489257812,1.291976928710938,5901.983119250001,2.712037241910455,0.7415910739400695,-0.7937414380999461,-7.736929893493652,-0.04673726111650467,0.4832819402217865,0.1998091042041779,0.7939460873603821,1.395466804504395,XArbitraryZVertical,-0.4032977424627727,-0.2807609317043913,0.809994721158864,0.3200513116154396,0.4736222624778748,0.7129817008972168,-0.5170484781265259,0,0,0,-1,-1,5900.541894,unknown,2,2022-06-30T10:08:46.501+02:00,2022-06-30T08:20:05.567+02:00,1582,1.513208,0,0,1248.267,0,0,2022-06-30T10:08:46.500+02:00
2022-06-30T10:08:47.963+02:00,5902.00302225,0.8504486083984375,2.156890869140625,1.404891967773438,5901.993070250001,2.790904211608872,0.7941723072704318,-0.8413037367084256,-6.646568775177002,-0.9781690239906311,0.7214726805686951,0.2398887276649475,0.9894271492958069,1.594264030456543,XArbitraryZVertical,-0.4132992917498675,-0.3092247739908586,0.8013407130573286,0.3023521766009852,0.475397527217865,0.7455126643180847,-0.4671274721622467,0,0,0,-1,-1,5900.541894,unknown,2,2022-06-30T10:08:46.501+02:00,2022-06-30T08:20:05.567+02:00,1582,1.513208,0,0,1248.267,0,0,2022-06-30T10:08:46.500+02:00
2022-06-30T10:08:47.973+02:00,5902.01297325,0.673583984375,2.144973754882812,1.127838134765625,5902.00302225,2.867541568710624,0.8365599676728108,-0.8751992481633184,-5.306117057800293,-2.202339172363281,1.188440084457397,0.3195012509822845,1.218855500221252,1.72135591506958,XArbitraryZVertical,-0.4173610396125603,-0.3333473445825468,0.7964135361533033,0.2835752586457607,0.4757258296012878,0.7676712274551392,-0.4293786287307739,0,0,0,-1,-1,5900.541894,unknown,2,2022-06-30T10:08:46.501+02:00,2022-06-30T08:20:05.567+02:00,1582,1.513208,0,0,1248.267,0,0,2022-06-30T10:08:46.500+02:00
2022-06-30T10:08:47.982+02:00,5902.02292425,0.376434326171875,1.984329223632812,0.772735595703125,5902.01297325,2.933932913090595,0.8588568741558905,-0.8961815272293094,-3.845790147781372,-3.66796875,1.168283224105835,0.3775689303874969,1.375943422317505,1.812943458557129,XArbitraryZVertical,-0.4140524511286274,-0.3528952569234526,0.7963350068779319,0.264340797438366,0.4728797078132629,0.7809476256370544,-0.4080510139465332,0,0,0,-1,-1,5900.541894,unknown,2,2022-06-30T10:08:46.501+02:00,2022-06-30T08:20:05.567+02:00,1582,1.513208,0,0,1248.267,0,0,2022-06-30T10:08:46.500+02:00
2022-06-30T10:08:47.992+02:00,5902.03287625,0.1295166015625,1.94549560546875,0.8701019287109375,5902.02292425,2.98581689930952,0.8555343779913775,-0.9097091808019901,-2.938628911972046,-5.201972484588623,1.049374341964722,0.2100808322429657,1.355648756027222,1.530492901802063,XArbitraryZVertical,-0.4026353417694042,-0.3695370089641712,0.8007217420718872,0.2452996068795661,0.4635031819343567,0.7893252372741699,-0.4026543498039246,0,0,0,-1,-1,5900.541894,unknown,2,2022-06-30T10:08:46.501+02:00,2022-06-30T08:20:05.567+02:00,1582,1.513208,0,0,1248.267,0,0,2022-06-30T10:08:46.500+02:00
2022-06-30T10:08:48.006+02:00,5902.04282725,-0.181884765625,1.8336181640625,0.9808197021484375,5902.03287625,3.034993095188033,0.8349736644478062,-0.9203109198187148,-3.088008880615234,-6.719861507415771,1.393853664398193,-0.07246392965316772,1.188539505004883,1.179194808006287,XArbitraryZVertical,-0.384400041232331,-0.3860145221020458,0.8082724581380385,0.2234392707233456,0.4488983154296875,0.7957899570465088,-0.4064587950706482,0,0,0,-1,-1,5900.541894,unknown,2,2022-06-30T10:08:46.501+02:00,2022-06-30T08:20:05.567+02:00,1582,1.513208,0,0,1248.267,0,0,2022-06-30T10:08:46.500+02:00
2022-06-30T10:08:48.013+02:00,5902.052779250001,-0.404510498046875,1.608795166015625,1.174667358398438,5902.04282725,3.092833429486681,0.8083204645811837,-0.9315718653286479,-3.563751935958862,-7.917631149291992,1.665212154388428,-0.3018822073936462,1.142937183380127,1.282163858413696,XArbitraryZVertical,-0.3613156637438629,-0.4042527080834238,0.8169352448080549,0.1965900026913531,0.4313989281654358,0.8025586605072021,-0.412061482667923,0,0,0,-1,-1,5900.541894,unknown,2,2022-06-30T10:08:46.501+02:00,2022-06-30T08:20:05.567+02:00,1582,1.513208,0,0,1248.267,0,0,2022-06-30T10:08:46.500+02:00
2022-06-30T10:08:48.023+02:00,5902.062730250001,-0.690460205078125,1.450942993164062,1.154800415039062,5902.052779250001,-3.127332796646879,0.7741689686807098,-0.9458165834568625,-3.69295859336853,-9.135262489318848,1.528080344200134,-0.5909276008605957,1.022643327713013,1.399154305458069,XArbitraryZVertical,-0.3330439138877591,-0.4241635054374312,0.825586125063499,0.1660561222549592,0.4090429842472076,0.8109749555587769,-0.4183341562747955,0,0,0,-1,-1,5900.541894,unknown,2,2022-06-30T10:08:46.501+02:00,2022-06-30T08:20:05.567+02:00,1582,1.513208,0,0,1248.267,0,0,2022-06-30T10:08:46.500+02:00
2022-06-30T10:08:48.032+02:00,5902.07268225,-1.113739013671875,1.543624877929688,0.8114013671875,5902.062730250001,-3.067505448618234,0.7272012181358252,-0.9615996159729501,-3.339307069778442,-10.06455612182617,1.424960374832153,-0.7849042415618896,0.7886873483657837,1.602129578590393,XArbitraryZVertical,-0.299096118308818,-0.4436334425801364,0.8341829520960885,0.1336777997498542,0.3803938925266266,0.8201079368591309,-0.4274617731571198,0,0,0,-1,-1,5900.541894,unknown,2,2022-06-30T10:08:46.501+02:00,2022-06-30T08:20:05.567+02:00,1582,1.513208,0,0,1248.267,0,0,2022-06-30T10:08:46.500+02:00
2022-06-30T10:08:48.043+02:00,5902.08263325,-1.691986083984375,1.793960571289062,0.156707763671875,5902.07268225,-3.014675675173107,0.6675276443493924,-0.9748990042693275,-2.536658763885498,-10.63367652893066,1.466886043548584,-1.037900686264038,0.6232979297637939,1.595582485198975,XArbitraryZVertical,-0.2607999396659524,-0.4599919486409202,0.8428239396539584,0.1001931896726555,0.3474407494068146,0.8276451826095581,-0.4407815933227539,0,0,0,-1,-1,5900.541894,unknown,2,2022-06-30T10:08:46.501+02:00,2022-06-30T08:20:05.567+02:00,1582,1.513208,0,0,1248.267,0,0,2022-06-30T10:08:46.500+02:00
2022-06-30T10:08:48.052+02:00,5902.09258525,-3.296585083007812,-0.412200927734375,3.917694091796875,5902.08263325,-2.97215949191588,0.5957097666792273,-0.9824374678595679,-1.458059430122375,-10.82875156402588,1.488696217536926,-1.425145387649536,0.7117723822593689,1.270800590515137,XArbitraryZVertical,-0.2196861931600189,-0.4712097187171922,0.8516236060101413,0.06660861682885069,0.3114066421985626,0.8318526148796082,-0.4593987464904785,0,0,0,-1,-1,5900.541894,unknown,2,2022-06-30T10:08:46.501+02:00,2022-06-30T08:20:05.567+02:00,1582,1.513208,0,0,1248.267,0,0,2022-06-30T10:08:46.500+02:00
2022-06-30T10:08:48.062+02:00,5902.10253625,-9.962738037109375,0.118743896484375,-14.93782043457031,5902.09258525,-2.99863877049346,0.4790054716987628,-0.9706675728462322,10.31139945983887,-1.800199031829834,-4.258293151855469,-1.952276706695557,0.9686978459358215,0.6578965783119202,XArbitraryZVertical,-0.1769246116160224,-0.4670154762262316,0.8649808220970431,0.04901535983596896,0.2602909207344055,0.8252629041671753,-0.5011884570121765,0,0,0,-1,-1,5900.541894,unknown,2,2022-06-30T10:08:46.501+02:00,2022-06-30T08:20:05.567+02:00,1582,1.513208,0,0,1248.267,0,0,2022-06-30T10:08:46.500+02:00
2022-06-30T10:08:48.072+02:00,5902.11248725,-4.038101196289062,0.2640228271484375,-9.4947509765625,5902.10253625,-2.971795412359171,0.4973147760870394,-0.9709520814600268,-3.356269121170044,3.552775144577026,3.48772120475769,-3.565896034240723,-1.237624406814575,4.413826942443848,XArbitraryZVertical,-0.1785307808593574,-0.4691060650631044,0.8639008041254609,0.04173324305630283,0.2693111300468445,0.825423538684845,-0.4961325228214264,0,0,0,-1,-1,5900.541894,unknown,2,2022-06-30T10:08:46.501+02:00,2022-06-30T08:20:05.567+02:00,1582,1.513208,0,0,1248.267,0,0,2022-06-30T10:08:46.500+02:00
2022-06-30T10:08:48.082+02:00,5902.122439250001,-2.854949951171875,2.006576538085938,-5.794631958007812,5902.11248725,-2.914258560719523,0.5422453426173007,-1.008785742686295,-4.867228031158447,-1.686167597770691,-1.320595860481262,-10.2377405166626,-0.7274415493011475,-14.48137378692627,XArbitraryZVertical,-0.1801369314475987,-0.4892108753648771,0.8527247453326418,0.03292208432350699,0.2750027477741241,0.8461853861808777,-0.4564467966556549,0,0,0,-1,-1,5900.541894,unknown,2,2022-06-30T10:08:46.501+02:00,2022-06-30T08:20:05.567+02:00,1582,1.513208,0,0,1248.267,0,0,2022-06-30T10:08:46.500+02:00
2022-06-30T10:08:48.092+02:00,5902.132390250001,-0.1289520263671875,1.4716796875,-2.460891723632812,5902.122439250001,-2.884231528461235,0.576384422712177,-1.060071373054855,-5.783671379089355,3.10770320892334,-1.370349645614624,-4.304500579833984,-0.6083673238754272,-9.08491325378418,XArbitraryZVertical,-0.1809925880852021,-0.5121748490945842,0.8388071288791497,0.03635105517265529,0.2663995623588562,0.8723903894424438,-0.4098372161388397,0,0,0,-1,-1,5900.541894,unknown,2,2022-06-30T10:08:46.501+02:00,2022-06-30T08:20:05.567+02:00,1582,1.513208,0,0,1248.267,0,0,2022-06-30T10:08:46.500+02:00
2022-06-30T10:08:48.102+02:00,5902.14234225,0.6964874267578125,1.2264404296875,0.1486358642578125,5902.132390250001,-2.828111618736988,0.6646951687996383,-1.108722028201233,-4.726625442504883,4.113393306732178,0.2401788532733917,-3.129931449890137,1.111446857452393,-5.443735599517822,XArbitraryZVertical,-0.1963259839732115,-0.5347972596286661,0.8206681035959428,0.04418055989570643,0.2749816477298737,0.8951296806335449,-0.3508960008621216,0,0,0,-1,-1,5900.541894,unknown,2,2022-06-30T10:08:46.501+02:00,2022-06-30T08:20:05.567+02:00,1582,1.513208,0,0,1248.267,0,0,2022-06-30T10:08:46.500+02:00
2022-06-30T10:08:48.112+02:00,5902.15229325,-0.24774169921875,0.9760894775390625,0.79803466796875,5902.14234225,-2.751015884920605,0.7678252116024478,-1.1290584875586,-2.867435932159424,2.512334108352661,1.552269577980042,-0.4258891940116882,0.567669689655304,-2.153329849243164,XArbitraryZVertical,-0.2141585389004191,-0.5480469444129776,0.8073374200265512,0.04457555335189362,0.2969374060630798,0.9040100574493408,-0.3075613379478455,0,0,0,-1,-1,5900.541894,unknown,2,2022-06-30T10:08:46.501+02:00,2022-06-30T08:20:05.567+02:00,1582,1.513208,0,0,1248.267,0,0,2022-06-30T10:08:46.500+02:00
2022-06-30T10:08:48.122+02:00,5902.162245250001,-0.3598480224609375,0.9212646484375,0.921844482421875,5902.15229325,-2.704135483079928,0.8348571491169018,-1.140158725334476,-1.436956882476807,2.399195432662964,-0.4094672501087189,0.3870732188224792,0.3177407383918762,0.4288638234138489,XArbitraryZVertical,-0.2261139850294218,-0.5556605898563592,0.7987129570423345,0.04659849284006844,0.3094144463539124,0.9086997509002686,-0.2802275419235229,0,0,0,-1,-1,5900.541894,unknown,2,2022-06-30T10:08:46.501+02:00,2022-06-30T08:20:05.567+02:00,1582,1.513208,0,0,1248.267,0,0,2022-06-30T10:08:46.500+02:00
2022-06-30T10:08:48.132+02:00,5902.172196250001,-0.535003662109375,0.8328704833984375,0.49139404296875,5902.162245250001,-2.71380761193537,0.848931173601715,-1.146608306137753,1.206357002258301,1.945594787597656,-0.8551516532897949,-0.5566638708114624,0.06471633911132812,1.07000207901001,XArbitraryZVertical,-0.2331849029517016,-0.5564542295104254,0.7955319423850781,0.05579049096873705,0.3089223802089691,0.9113732576370239,-0.2719669938087463,0,0,0,-1,-1,5900.541894,unknown,2,2022-06-30T10:08:46.501+02:00,2022-06-30T08:20:05.567+02:00,1582,1.513208,0,0,1248.267,0,0,2022-06-30T10:08:46.500+02:00
2022-06-30T10:08:48.142+02:00,5902.182147250001,-0.9389190673828125,1.109909057617188,-0.275604248046875,5902.172196250001,-2.771930858262594,0.812704403724626,-1.135826327759617,3.710224628448486,1.363355040550232,-0.8134313821792603,-0.6658350229263306,0.01438206434249878,1.211561679840088,XArbitraryZVertical,-0.2367384622172569,-0.546897162830151,0.800258985472193,0.0666641722388988,0.3059872686862946,0.9068827033042908,-0.2897167801856995,0,0,0,-1,-1,5900.541894,unknown,2,2022-06-30T10:08:46.501+02:00,2022-06-30T08:20:05.567+02:00,1582,1.513208,0,0,1248.267,0,0,2022-06-30T10:08:46.500+02:00
2022-06-30T10:08:48.152+02:00,5902.19209925,-1.020126342773438,1.07537841796875,-0.796051025390625,5902.182147250001,-2.853039963342321,0.7540858736545313,-1.113816766957882,4.09911060333252,1.575865983963013,-1.064604640007019,-0.8370862603187561,-0.06451863050460815,0.8130131959915161,XArbitraryZVertical,-0.2386351158627431,-0.5312663120271542,0.8090440542035094,0.07910324678668749,0.3020828664302826,0.8973893523216248,-0.3216187655925751,0,0,0,-1,-1,5900.541894,unknown,2,2022-06-30T10:08:46.501+02:00,2022-06-30T08:20:05.567+02:00,1582,1.513208,0,0,1248.267,0,0,2022-06-30T10:08:46.500+02:00
2022-06-30T10:08:48.162+02:00,5902.20205025,-0.9143829345703125,1.00921630859375,-1.051589965820312,5902.19209925,-2.928531003782694,0.7044531869135258,-1.094570985015227,3.260367393493652,1.882183074951172,-1.387813091278076,-1.235804796218872,0.2211776375770569,0.07370266318321228,XArbitraryZVertical,-0.240995598804992,-0.5169795589555845,0.8160590471791553,0.0932796405308539,0.2968859374523163,0.8887316584587097,-0.3493065237998962,0,0,0,-1,-1,5900.541894,unknown,2,2022-06-30T10:08:46.501+02:00,2022-06-30T08:20:05.567+02:00,1582,1.513208,0,0,1248.267,0,0,2022-06-30T10:08:46.500+02:00
2022-06-30T10:08:48.172+02:00,5902.21200225,-0.9676971435546875,1.106216430664062,-0.9954833984375,5902.20205025,-2.990001222387456,0.669678472603464,-1.082293548628874,2.313650608062744,2.037999868392944,-1.429922223091125,-1.311439275741577,0.1923420429229736,-0.428105890750885,XArbitraryZVertical,-0.2440151203313649,-0.5064427654320032,0.8200109531586297,0.1074918453329153,0.2913132011890411,0.8830364942550659,-0.3679446876049042,0,0,0,-1,-1,5900.541894,unknown,2,2022-06-30T10:08:46.501+02:00,2022-06-30T08:20:05.567+02:00,1582,1.513208,0,0,1248.267,0,0,2022-06-30T10:08:46.500+02:00
2022-06-30T10:08:48.182+02:00,5902.22195325,-1.000152587890625,1.342864990234375,-0.7966461181640625,5902.21200225,-3.040774451715761,0.6474755205765264,-1.075376087723818,1.750022411346436,2.504904985427856,-1.538893103599548,-1.201132893562317,0.1294474601745605,-0.6724050045013428,XArbitraryZVertical,-0.2484124308606507,-0.4986972971354152,0.821453027979785,0.1216851256531237,0.2867501974105835,0.8797690272331238,-0.3791845440864563,0,0,0,-1,-1,5900.541894,unknown,2,2022-06-30T10:08:46.501+02:00,2022-06-30T08:20:05.567+02:00,1582,1.513208,0,0,1248.267,0,0,2022-06-30T10:08:46.500+02:00
2022-06-30T10:08:48.192+02:00,5902.231905250001,-0.9370269775390625,1.61419677734375,-0.6879730224609375,5902.22195325,-3.089676096995879,0.6320521294908908,-1.071705456915266,1.72802746295929,2.984680652618408,-1.765453934669495,-1.250470876693726,0.2281985282897949,-0.6093182563781738,XArbitraryZVertical,-0.2545433943543978,-0.4920622973285562,0.8210961982425476,0.1374168366591487,0.2827739417552948,0.8780180811882019,-0.3861647248268127,0,0,0,-1,-1,5900.541894,unknown,2,2022-06-30T10:08:46.501+02:00,2022-06-30T08:20:05.567+02:00,1582,1.513208,0,0,1248.267,0,0,2022-06-30T10:08:46.500+02:00
2022-06-30T10:08:48.202+02:00,5902.241856250001,-0.9047088623046875,1.74774169921875,-0.5934906005859375,5902.231905250001,3.137971368196437,0.6144079396562537,-1.066741183751065,2.24976921081543,3.236735582351685,-2.000907182693481,-1.278578519821167,0.4672340750694275,-0.4019951224327087,XArbitraryZVertical,-0.2612685628993296,-0.4841626061843339,0.8205044947514905,0.1552349477024001,0.2784261405467987,0.8756312131881714,-0.3946506083011627,0,0,0,-1,-1,5900.541894,unknown,2,2022-06-30T10:08:46.501+02:00,2022-06-30T08:20:05.567+02:00,1582,1.513208,0,0,1248.267,0,0,2022-06-30T10:08:46.500+02:00
2022-06-30T10:08:48.212+02:00,5902.251807250001,-0.9052886962890625,1.726730346679688,-0.561614990234375,5902.241856250001,3.07143431026828,0.5896807370482092,-1.057329905198054,2.994294881820679,3.475847721099854,-2.274324655532837,-1.210180759429932,0.7431498169898987,-0.2797276377677917,XArbitraryZVertical,-0.2676884577206255,-0.4735191954256585,0.8205720154898105,0.1754536581026449,0.2731539607048035,0.8710470199584961,-0.4082449078559875,0,0,0,-1,-1,5900.541894,unknown,2,2022-06-30T10:08:46.501+02:00,2022-06-30T08:20:05.567+02:00,1582,1.513208,0,0,1248.267,0,0,2022-06-30T10:08:46.500+02:00
2022-06-30T10:08:48.221+02:00,5902.26175925,-0.9582061767578125,1.656463623046875,-0.5821990966796875,5902.251807250001,2.99498636435309,0.5590469484493439,-1.042301497011837,3.710094213485718,3.696948289871216,-2.483229160308838,-1.172143697738647,0.8841748833656311,-0.1660200953483582,XArbitraryZVertical,-0.2736769164196637,-0.4597454820239101,0.8212877365499354,0.1980443863750503,0.2674349546432495,0.8635669946670532,-0.4274700880050659,0,0,0,-1,-1,5900.541894,unknown,2,2022-06-30T10:08:46.501+02:00,2022-06-30T08:20:05.567+02:00,1582,1.513208,0,0,1248.267,0,0,2022-06-30T10:08:46.500+02:00
2022-06-30T10:08:48.231+02:00,5902.27171025,-1.087142944335938,1.63818359375,-0.626983642578125,5902.26175925,2.912270840818814,0.5255860798972908,-1.020932360191564,4.34282398223877,3.85047435760498,-2.588176012039185,-1.167473077774048,0.87413489818573,-0.1095747053623199,XArbitraryZVertical,-0.2791526618724817,-0.4427796938431038,0.8225078843054955,0.2224876486302373,0.2621845006942749,0.8525956273078918,-0.4520398676395416,0,0,0,-1,-1,5900.541894,unknown,2,2022-06-30T10:08:46.501+02:00,2022-06-30T08:20:05.567+02:00,1582,1.513208,0,0,1248.267,0,0,2022-06-30T10:08:46.500+02:00
2022-06-30T10:08:48.241+02:00,5902.28166225,-1.182525634765625,1.745941162109375,-0.6533355712890625,5902.27171025,2.8284001701216,0.4939194768785867,-0.9944881471053555,4.631514549255371,4.064058303833008,-2.646656513214111,-1.216547846794128,0.8179836869239807,-0.1023960113525391,XArbitraryZVertical,-0.2843597010171971,-0.4233653442522847,0.8236209845958788,0.2480924460611606,0.2583417594432831,0.8384801745414734,-0.4798026978969574,0,0,0,-1,-1,5900.541894,unknown,2,2022-06-30T10:08:46.501+02:00,2022-06-30T08:20:05.567+02:00,1582,1.513208,0,0,1248.267,0,0,2022-06-30T10:08:46.500+02:00
2022-06-30T10:08:48.251+02:00,5902.29161325,-1.293853759765625,1.922470092773438,-0.6592254638671875,5902.28166225,2.749166460314091,0.4694786793274931,-0.9661909591340488,4.46893310546875,4.251542568206787,-2.571230173110962,-1.344316244125366,0.8154573440551758,-0.1200481653213501,XArbitraryZVertical,-0.2900980451360626,-0.4029585236393087,0.8236849649943627,0.2738810779274645,0.2571733593940735,0.8227264881134033,-0.5069351196289062,0,0,0,-1,-1,5900.541894,unknown,2,2022-06-30T10:08:46.501+02:00,2022-06-30T08:20:05.567+02:00,1582,1.513208,0,0,1248.267,0,0,2022-06-30T10:08:46.500+02:00
2022-06-30T10:08:48.262+02:00,5902.301565250001,-1.382537841796875,2.1322021484375,-0.6104278564453125,5902.29161325,2.676250476674004,0.4533736731997889,-0.9390261331585885,4.215636730194092,4.468153476715088,-2.618942022323608,-1.441197633743286,0.9389581084251404,-0.1224238872528076,XArbitraryZVertical,-0.2966852718130049,-0.3827821977666731,0.8221111049348589,0.2993144053766283,0.2586720585823059,0.8069833517074585,-0.5309112668037415,0,0,0,-1,-1,5900.541894,unknown,2,2022-06-30T10:08:46.501+02:00,2022-06-30T08:20:05.567+02:00,1582,1.513208,0,0,1248.267,0,0,2022-06-30T10:08:46.500+02:00
2022-06-30T10:08:48.272+02:00,5902.311516250001,-1.445053100585938,2.28973388671875,-0.459259033203125,5902.301565250001,2.606329878252476,0.442942354973779,-0.9127358841325961,4.247270584106445,4.656437873840332,-2.68246865272522,-1.555978298187256,1.131290435791016,-0.1066626906394958,XArbitraryZVertical,-0.3038578623742865,-0.3624765004471676,0.8189582382846492,0.3249441796860166,0.2621245384216309,0.791179895401001,-0.5525623559951782,0,0,0,-1,-1,5900.541894,unknown,2,2022-06-30T10:08:46.501+02:00,2022-06-30T08:20:05.567+02:00,1582,1.513208,0,0,1248.267,0,0,2022-06-30T10:08:46.500+02:00
2022-06-30T10:08:48.281+02:00,5902.321467250001,-1.526092529296875,2.321304321289062,-0.3625030517578125,5902.311516250001,2.536907231318373,0.435782224860796,-0.8842790851978334,4.656861782073975,4.838618755340576,-2.764182806015015,-1.650097131729126,1.358744144439697,-0.03581947088241577,XArbitraryZVertical,-0.3109117737171749,-0.3406315846667277,0.8148993322290011,0.3510599388263351,0.2675593793392181,0.7734582424163818,-0.5746079683303833,0,0,0,-1,-1,5900.541894,unknown,2,2022-06-30T10:08:46.501+02:00,2022-06-30T08:20:05.567+02:00,1582,1.513208,0,0,1248.267,0,0,2022-06-30T10:08:46.500+02:00
2022-06-30T10:08:48.291+02:00,5902.33141925,-1.515899658203125,2.346954345703125,-0.331390380859375,5902.321467250001,2.465101908472273,0.4301977755196102,-0.8517669740050441,5.198047161102295,5.053597927093506,-2.94650936126709,-1.719745397567749,1.537288784980774,0.1393815279006958,XArbitraryZVertical,-0.3172934447906923,-0.3162353002582655,0.8100160295262697,0.3784100870874519,0.2746922969818115,0.7524453997612,-0.5986402034759521,0,0,0,-1,-1,5900.541894,unknown,2,2022-06-30T10:08:46.501+02:00,2022-06-30T08:20:05.567+02:00,1582,1.513208,0,0,1248.267,0,0,2022-06-30T10:08:46.500+02:00
2022-06-30T10:08:48.301+02:00,5902.34137025,-1.569183349609375,2.268905639648438,-0.3664398193359375,5902.33141925,2.39129465147413,0.4266175138332824,-0.814982927374566,5.615352630615234,5.213459968566895,-3.056680679321289,-1.809905767440796,1.59359073638916,0.2619030475616455,XArbitraryZVertical,-0.3227639685243617,-0.2891721872553369,0.8041638039755377,0.4068457174846275,0.2838132679462433,0.7277138829231262,-0.6244057416915894,0,0,0,-1,-1,5900.541894,unknown,2,2022-06-30T10:08:46.501+02:00,2022-06-30T08:20:05.567+02:00,1582,1.513208,0,0,1248.267,0,0,2022-06-30T10:08:46.500+02:00
2022-06-30T10:08:48.311+02:00,5902.351322250001,-1.601638793945312,2.183837890625,-0.38726806640625,5902.34137025,2.317115704705532,0.4265623682344857,-0.7771276087455155,5.551868438720703,5.441627979278564,-3.297580718994141,-1.810870289802551,1.645720243453979,0.3176574110984802,XArbitraryZVertical,-0.3278335455328294,-0.2607708710285849,0.7965828061105025,0.4358664914465985,0.2949705719947815,0.7012345194816589,-0.6490474343299866,0,0,0,-1,-1,5900.541894,unknown,2,2022-06-30T10:08:46.501+02:00,2022-06-30T08:20:05.567+02:00,1582,1.513208,0,0,1248.267,0,0,2022-06-30T10:08:46.500+02:00
2022-06-30T10:08:48.321+02:00,5902.361273250001,-1.647918701171875,2.247726440429688,-0.337646484375,5902.351322250001,2.24418891069469,0.4314633435918212,-0.742860359769965,5.11128568649292,5.638193607330322,-3.481625080108643,-1.877203464508057,1.592508554458618,0.3025972843170166,XArbitraryZVertical,-0.3335163596515395,-0.2329129380245009,0.7864060296054223,0.464848499130177,0.3080200850963593,0.676397442817688,-0.6690368056297302,0,0,0,-1,-1,5900.541894,unknown,2,2022-06-30T10:08:46.501+02:00,2022-06-30T08:20:05.567+02:00,1582,1.513208,0,0,1248.267,0,0,2022-06-30T10:08:46.500+02:00
2022-06-30T10:08:48.331+02:00,5902.37122525,-1.73980712890625,2.44683837890625,-0.2119598388671875,5902.361273250001,2.174059065941418,0.4417215719558618,-0.7132786500455596,4.756433010101318,5.811752319335938,-3.525125741958618,-1.924920558929443,1.529521584510803,0.2963685989379883,XArbitraryZVertical,-0.3401685968838427,-0.2060755917193781,0.7738213714917,0.4929691855047288,0.3232816159725189,0.6543166637420654,-0.6836363673210144,0,0,0,-1,-1,5900.541894,unknown,2,2022-06-30T10:08:46.501+02:00,2022-06-30T08:20:05.567+02:00,1582,1.513208,0,0,1248.267,0,0,2022-06-30T10:08:46.500+02:00
2022-06-30T10:08:48.341+02:00,5902.38117625,-1.798858642578125,2.595626831054688,-0.1436920166015625,5902.37122525,2.105623624226407,0.4565632512155272,-0.6861915848153213,4.748013019561768,6.031807899475098,-3.611124753952026,-1.989001274108887,1.614131450653076,0.3567742109298706,XArbitraryZVertical,-0.3474004823851355,-0.1791721893545299,0.7592617910111726,0.5203190146105868,0.3410824239253998,0.63359534740448,-0.6944204568862915,0,0,0,-1,-1,5900.541894,unknown,2,2022-06-30T10:08:46.501+02:00,2022-06-30T08:20:05.567+02:00,1582,1.513208,0,0,1248.267,0,0,2022-06-30T10:08:46.500+02:00
2022-06-30T10:08:48.351+02:00,5902.39112725,-1.813995361328125,2.7198486328125,-0.193206787109375,5902.38117625,2.035822868536183,0.474120150822179,-0.6595738451143285,4.974901676177979,6.235087871551514,-3.781176328659058,-2.100602149963379,1.834058523178101,0.4911248087882996,XArbitraryZVertical,-0.3543942587948108,-0.1512035862962539,0.7426963948430848,0.547671711333616,0.3607948124408722,0.6127801537513733,-0.7030843496322632,0,0,0,-1,-1,5900.541894,unknown,2,2022-06-30T10:08:46.501+02:00,2022-06-30T08:20:05.567+02:00,1582,1.513208,0,0,1248.267,0,0,2022-06-30T10:08:46.500+02:00
2022-06-30T10:08:48.361+02:00,5902.40107925,-1.873489379882812,2.881378173828125,-0.2839202880859375,5902.39112725,1.963499005804294,0.4935129142247852,-0.631908341590994,5.358850955963135,6.425010681152344,-3.902762174606323,-2.181106328964233,2.004941463470459,0.5669257044792175,XArbitraryZVertical,-0.3604411937724744,-0.1215458902281007,0.7242081375376662,0.575179305712385,0.3822475373744965,0.5906856656074524,-0.7106174826622009,0,0,0,-1,-1,5900.541894,unknown,2,2022-06-30T10:08:46.501+02:00,2022-06-30T08:20:05.567+02:00,1582,1.513208,0,0,1248.267,0,0,2022-06-30T10:08:46.500+02:00
2022-06-30T10:08:48.371+02:00,5902.41103025,-2.002212524414062,3.01788330078125,-0.36773681640625,5902.40107925,1.888233748025071,0.5150632376932025,-0.6023220294500127,5.799053192138672,6.672937393188477,-4.024195671081543,-2.219900608062744,2.153291463851929,0.5239083170890808,XArbitraryZVertical,-0.3652360309002335,-0.08969498834558264,0.7037079753691876,0.6027872505730302,0.4059050381183624,0.5665574073791504,-0.7171149253845215,0,0,0,-1,-1,5900.541894,unknown,2,2022-06-30T10:08:46.501+02:00,2022-06-30T08:20:05.567+02:00,1582,1.513208,0,0,1248.267,0,0,2022-06-30T10:08:46.500+02:00
2022-06-30T10:08:48.381+02:00,5902.420982250001,-2.177749633789062,3.099884033203125,-0.300323486328125,5902.41103025,1.810089748173124,0.5395521508831507,-0.571451520177696,6.111891746520996,6.95025634765625,-4.160647869110107,-2.305614948272705,2.340524911880493,0.4377066493034363,XArbitraryZVertical,-0.3688946473132971,-0.05570771681642292,0.6808787765423386,0.6302519097612951,0.4321252703666687,0.5408535003662109,-0.7216267585754395,0,0,0,-1,-1,5900.541894,unknown,2,2022-06-30T10:08:46.501+02:00,2022-06-30T08:20:05.567+02:00,1582,1.513208,0,0,1248.267,0,0,2022-06-30T10:08:46.500+02:00
2022-06-30T10:08:48.391+02:00,5902.430933250001,-2.32391357421875,3.177017211914062,-0.13031005859375,5902.420982250001,1.729911941515311,0.5676441367729557,-0.5413861873856634,6.176517009735107,7.201970100402832,-4.305022239685059,-2.462973833084106,2.502559185028076,0.3548558950424194,XArbitraryZVertical,-0.371873898959804,-0.02033527524925862,0.6554411686968619,0.657033594564682,0.4607610106468201,0.5153244137763977,-0.7225925326347351,0,0,0,-1,-1,5900.541894,unknown,2,2022-06-30T10:08:46.501+02:00,2022-06-30T08:20:05.567+02:00,1582,1.513208,0,0,1248.267,0,0,2022-06-30T10:08:46.500+02:00
2022-06-30T10:08:48.401+02:00,5902.44088525,-2.432785034179688,3.281463623046875,-0.01605224609375,5902.430933250001,1.6488690562792,0.5994918136469625,-0.5145763711202069,6.042392253875732,7.402927875518799,-4.482429504394531,-2.668906688690186,2.607718229293823,0.4183819890022278,XArbitraryZVertical,-0.3747133705030373,0.01540110622341736,0.6273249407430442,0.6825071642518465,0.4911568164825439,0.492166131734848,-0.718705415725708,0,0,0,-1,-1,5900.541894,unknown,2,2022-06-30T10:08:46.501+02:00,2022-06-30T08:20:05.567+02:00,1582,1.513208,0,0,1248.267,0,0,2022-06-30T10:08:46.500+02:00
2022-06-30T10:08:48.411+02:00,5902.45083625,-2.49395751953125,3.40960693359375,0.0089874267578125,5902.44088525,1.567244859432602,0.6350484847094866,-0.4927825436600371,5.846909046173096,7.673516273498535,-4.704024314880371,-2.846549510955811,2.703938484191895,0.5789488554000854,XArbitraryZVertical,-0.377858426143834,0.05092725257597323,0.5963711565631734,0.7063786922397811,0.5226355791091919,0.4730792045593262,-0.7092588543891907,0,0,0,-1,-1,5900.541894,unknown,2,2022-06-30T10:08:46.501+02:00,2022-06-30T08:20:05.567+02:00,1582,1.513208,0,0,1248.267,0,0,2022-06-30T10:08:46.500+02:00
2022-06-30T10:08:48.420+02:00,5902.46078725,-2.5802001953125,3.592315673828125,-0.0506591796875,5902.45083625,1.484979684581775,0.6744972928182373,-0.4757593408842627,5.791872978210449,7.954676628112793,-4.814568519592285,-2.987935781478882,2.823450326919556,0.6782325506210327,XArbitraryZVertical,-0.3812623314307061,0.08658290934547101,0.562621264153953,0.7284228175927562,0.5551505088806152,0.4580135941505432,-0.6942848563194275,0,0,0,-1,-1,5900.541894,unknown,2,2022-06-30T10:08:46.501+02:00,2022-06-30T08:20:05.567+02:00,1582,1.513208,0,0,1248.267,0,0,2022-06-30T10:08:46.500+02:00
2022-06-30T10:08:48.430+02:00,5902.47073925,-2.7012939453125,3.810638427734375,0.0021820068359375,5902.46078725,1.401311448913259,0.717039908219808,-0.4620914244116357,5.94014835357666,8.192573547363281,-4.952153205871582,-3.082192897796631,2.963786125183105,0.6836894750595093,XArbitraryZVertical,-0.384131878976794,0.1228481417933072,0.5262608766731151,0.7485990278491433,0.5882351398468018,0.4458211660385132,-0.6747020483016968,0,0,0,-1,-1,5900.541894,unknown,2,2022-06-30T10:08:46.501+02:00,2022-06-30T08:20:05.567+02:00,1582,1.513208,0,0,1248.267,0,0,2022-06-30T10:08:46.500+02:00
2022-06-30T10:08:48.440+02:00,5902.48069025,-2.8460693359375,3.976287841796875,0.1609039306640625,5902.47073925,1.314723554946763,0.7613477531366132,-0.4510624109253332,6.22761869430542,8.383618354797363,-5.104053020477295,-3.201097726821899,3.156394004821777,0.6008456945419312,XArbitraryZVertical,-0.3856269026070869,0.1598105212975341,0.4871512454484048,0.7670960172461468,0.6208972930908203,0.4359219372272491,-0.6515049934387207,0,0,0,-1,-1,5900.541894,unknown,2,2022-06-30T10:08:46.501+02:00,2022-06-30T08:20:05.567+02:00,1582,1.513208,0,0,1248.267,0,0,2022-06-30T10:08:46.500+02:00
2022-06-30T10:08:48.450+02:00,5902.490642250001,-2.9378662109375,4.120330810546875,0.36175537109375,5902.48069025,1.22395849336546,0.8060691356167583,-0.4425234712380152,6.599252700805664,8.471796989440918,-5.346227645874023,-3.353359460830688,3.382417440414429,0.6278316378593445,XArbitraryZVertical,-0.3850664435765103,0.1972280886611246,0.4451211452022534,0.7840231429223889,0.6520652174949646,0.4282212257385254,-0.6256498098373413,0,0,0,-1,-1,5900.541894,unknown,2,2022-06-30T10:08:46.501+02:00,2022-06-30T08:20:05.567+02:00,1582,1.513208,0,0,1248.267,0,0,2022-06-30T10:08:46.500+02:00
2022-06-30T10:08:48.461+02:00,5902.500593250001,-2.963272094726562,4.272048950195312,0.531219482421875,5902.490642250001,1.128795357672099,0.8499156413264077,-0.4370353563283287,6.872602939605713,8.483317375183105,-5.541706085205078,-3.526687145233154,3.553032636642456,0.7589128017425537,XArbitraryZVertical,-0.3821594025005026,0.2344134388672354,0.4002270034334732,0.7992640025293828,0.6806174516677856,0.4232553243637085,-0.5980090498924255,0,0,0,-1,-1,5900.541894,unknown,2,2022-06-30T10:08:46.501+02:00,2022-06-30T08:20:05.567+02:00,1582,1.513208,0,0,1248.267,0,0,2022-06-30T10:08:46.500+02:00
2022-06-30T10:08:48.470+02:00,5902.51054525,-2.9422607421875,4.432235717773438,0.6732025146484375,5902.500593250001,1.03061844114084,0.892508592677774,-0.4352991107574401,7.033447742462158,8.395698547363281,-5.719282150268555,-3.643901109695435,3.698649406433105,0.9307013750076294,XArbitraryZVertical,-0.377164800012096,0.2706910240831075,0.3529627527271996,0.8123363249630215,0.7060345411300659,0.4216816425323486,-0.5689461827278137,0,0,0,-1,-1,5900.541894,unknown,2,2022-06-30T10:08:46.501+02:00,2022-06-30T08:20:05.567+02:00,1582,1.513208,0,0,1248.267,0,0,2022-06-30T10:08:46.500+02:00
2022-06-30T10:08:48.480+02:00,5902.52049625,-2.939743041992188,4.568222045898438,0.762603759765625,5902.51054525,0.929897733396856,0.9326479064819524,-0.4377341222874237,7.161200523376465,8.229575157165527,-5.883175849914551,-3.690742492675781,3.848160743713379,1.070761680603027,XArbitraryZVertical,-0.3701367710905795,0.3053318253052478,0.3036909791487077,0.8231299972589283,0.7274699807167053,0.4238883256912231,-0.5395424962043762,0,0,0,-1,-1,5900.541894,unknown,2,2022-06-30T10:08:46.501+02:00,2022-06-30T08:20:05.567+02:00,1582,1.513208,0,0,1248.267,0,0,2022-06-30T10:08:46.500+02:00
2022-06-30T10:08:48.492+02:00,5902.53044725,-2.9307861328125,4.711151123046875,0.81707763671875,5902.52049625,0.8275719102360277,0.9700784332680205,-0.4444048566881879,7.188593864440918,8.069918632507324,-6.021847724914551,-3.687062978744507,4.002315044403076,1.183533906936646,XArbitraryZVertical,-0.3613630901143136,0.338010147034854,0.2528780843094546,0.8313955613554619,0.7448018789291382,0.4299206137657166,-0.5103316903114319,0,0,0,-1,-1,5900.541894,unknown,2,2022-06-30T10:08:46.501+02:00,2022-06-30T08:20:05.567+02:00,1582,1.513208,0,0,1248.267,0,0,2022-06-30T10:08:46.500+02:00
2022-06-30T10:08:48.506+02:00,5902.540399250001,-2.862380981445312,4.921279907226562,0.8856658935546875,5902.53044725,0.724442640570783,1.004502185700752,-0.4557016235581119,7.142245769500732,7.852304935455322,-6.15172815322876,-3.697520732879639,4.128129482269287,1.244362473487854,XArbitraryZVertical,-0.351317113507335,0.3683704356479249,0.2008779418720637,0.8369752198126621,0.7577775716781616,0.4400924444198608,-0.4817590117454529,0,0,0,-1,-1,5900.541894,unknown,2,2022-06-30T10:08:46.501+02:00,2022-06-30T08:20:05.567+02:00,1582,1.513208,0,0,1248.267,0,0,2022-06-30T10:08:46.500+02:00
2022-06-30T10:08:48.512+02:00,5902.550350250001,-2.762649536132812,5.071441650390625,1.010528564453125,5902.540399250001,0.6205818467257684,1.034740255170743,-0.4709459671552649,7.179697036743164,7.543265819549561,-6.256053447723389,-3.696925401687622,4.257421493530273,1.272226095199585,XArbitraryZVertical,-0.3399360528862317,0.396067007580461,0.1481707571486972,0.8400117740936571,0.7661390900611877,0.4537294805049896,-0.4551488161087036,0,0,0,-1,-1,5900.541894,unknown,2,2022-06-30T10:08:46.501+02:00,2022-06-30T08:20:05.567+02:00,1582,1.513208,0,0,1248.267,0,0,2022-06-30T10:08:46.500+02:00
2022-06-30T10:08:48.520+02:00,5902.56030225,-2.590728759765625,5.191253662109375,1.18603515625,5902.550350250001,0.5143210096591888,1.059152082217024,-0.4894269549258227,7.3771653175354,7.221456050872803,-6.430667400360107,-3.6319580078125,4.451159477233887,1.317797899246216,XArbitraryZVertical,-0.3268697590200071,0.4208206095177413,0.09459095301811987,0.8409034856639225,0.7695769071578979,0.4701201915740967,-0.432132363319397,0,0,0,-1,-1,5900.541894,unknown,2,2022-06-30T10:08:46.501+02:00,2022-06-30T08:20:05.567+02:00,1582,1.513208,0,0,1248.267,0,0,2022-06-30T10:08:46.500+02:00
2022-06-30T10:08:48.530+02:00,5902.57025325,-2.431961059570312,5.190338134765625,1.35595703125,5902.56030225,0.4044309379693877,1.076431704524456,-0.5101411990918312,7.586240291595459,6.831227779388428,-6.566145420074463,-3.530840158462524,4.583141326904297,1.424588680267334,XArbitraryZVertical,-0.3118491697764644,0.4424023622498779,0.04016499205449305,0.8398910406796022,0.7681903839111328,0.4883004724979401,-0.4140605032444,0,0,0,-1,-1,5900.541894,unknown,2,2022-06-30T10:08:46.501+02:00,2022-06-30T08:20:05.567+02:00,1582,1.513208,0,0,1248.267,0,0,2022-06-30T10:08:46.500+02:00
2022-06-30T10:08:48.540+02:00,5902.58020525,-2.240478515625,5.126449584960938,1.564361572265625,5902.57025325,0.2915843291177896,1.086209125876355,-0.5330381527388598,7.575316905975342,6.42796802520752,-6.736040115356445,-3.352836132049561,4.683101177215576,1.587250232696533,XArbitraryZVertical,-0.2955129502558744,0.4605044721155829,-0.01468616932102655,0.8368943729513801,0.7621073126792908,0.5081523656845093,-0.4012154638767242,0,0,0,-1,-1,5900.541894,unknown,2,2022-06-30T10:08:46.501+02:00,2022-06-30T08:20:05.567+02:00,1582,1.513208,0,0,1248.267,0,0,2022-06-30T10:08:46.500+02:00
2022-06-30T10:08:48.550+02:00,5902.59015625,-2.058670043945312,5.096969604492188,1.88470458984375,5902.58020525,0.178532059743512,1.089160295692376,-0.5581890259572767,7.229439258575439,5.94753885269165,-6.749032974243164,-3.183682441711426,4.66068696975708,1.748875379562378,XArbitraryZVertical,-0.2790933477591565,0.4750237087682377,-0.0688480460272294,0.8316967532488803,0.7517212629318237,0.5296509861946106,-0.3929187655448914,0,0,0,-1,-1,5900.541894,unknown,2,2022-06-30T10:08:46.501+02:00,2022-06-30T08:20:05.567+02:00,1582,1.513208,0,0,1248.267,0,0,2022-06-30T10:08:46.500+02:00
2022-06-30T10:08:48.560+02:00,5902.60010725,-1.77655029296875,4.923431396484375,2.2022705078125,5902.59015625,0.06840641527118446,1.086239558986612,-0.5855623656342653,6.701421737670898,5.434639453887939,-6.79512882232666,-2.977940082550049,4.573781490325928,1.95257306098938,XArbitraryZVertical,-0.2638609429266226,0.4860776212786411,-0.1210424363385059,0.8242904427809506,0.7374615073204041,0.5526681542396545,-0.3882119059562683,0,0,0,-1,-1,5900.541894,unknown,2,2022-06-30T10:08:46.501+02:00,2022-06-30T08:20:05.567+02:00,1582,1.513208,0,0,1248.267,0,0,2022-06-30T10:08:46.500+02:00
2022-06-30T10:08:48.570+02:00,5902.610059250001,-1.455322265625,4.726333618164062,2.387802124023438,5902.60010725,-0.03853606894693342,1.077066265266993,-0.6152370960933222,6.146931648254395,4.853775978088379,-6.7735915184021,-2.777776956558228,4.519817352294922,2.271719694137573,XArbitraryZVertical,-0.2504676264785029,0.49371881676094,-0.1710285927822038,0.8150196827410001,0.7191068530082703,0.5771521329879761,-0.3870154023170471,0,0,0,-1,-1,5900.541894,unknown,2,2022-06-30T10:08:46.501+02:00,2022-06-30T08:20:05.567+02:00,1582,1.513208,0,0,1248.267,0,0,2022-06-30T10:08:46.500+02:00
2022-06-30T10:08:48.580+02:00,5902.620010250001,-1.174972534179688,4.47711181640625,2.42462158203125,5902.610059250001,-0.1416143841222407,1.061752804702946,-0.645637842704504,5.624459266662598,4.276086807250977,-6.62787389755249,-2.473998069763184,4.321722984313965,2.591518402099609,XArbitraryZVertical,-0.2389229604046628,0.4982888306190602,-0.218072365265344,0.8044056706215855,0.6974477171897888,0.6017079949378967,-0.3892481327056885,0,0,0,-1,-1,5900.541894,unknown,2,2022-06-30T10:08:46.501+02:00,2022-06-30T08:20:05.567+02:00,1582,1.513208,0,0,1248.267,0,0,2022-06-30T10:08:46.500+02:00
2022-06-30T10:08:48.591+02:00,5902.62996225,-0.918731689453125,4.164764404296875,2.47454833984375,5902.620010250001,-0.2423222190307638,1.039615383842474,-0.6749252262095271,5.34259033203125,3.686431407928467,-6.41765308380127,-2.128495454788208,4.101494312286377,2.783294200897217,XArbitraryZVertical,-0.2286055305368537,0.4999933553481579,-0.2622368344680671,0.7930814013732687,0.6731733083724976,0.6248389482498169,-0.3954923152923584,0,0,0,-1,-1,5900.541894,unknown,2,2022-06-30T10:08:46.501+02:00,2022-06-30T08:20:05.567+02:00,1582,1.513208,0,0,1248.267,0,0,2022-06-30T10:08:46.500+02:00
2022-06-30T10:08:48.600+02:00,5902.63991325,-0.664306640625,3.814987182617188,2.524734497070312,5902.62996225,-0.3424129583546768,1.009980445604912,-0.7012985820858201,5.20142936706543,3.134541034698486,-6.186713218688965,-1.821948289871216,3.831901073455811,2.830978155136108,XArbitraryZVertical,-0.2188256707749569,0.4989357354262879,-0.3037912598035336,0.7815941376546071,0.6469758152961731,0.645210325717926,-0.4063569009304047,0,0,0,-1,-1,5900.541894,unknown,2,2022-06-30T10:08:46.501+02:00,2022-06-30T08:20:05.567+02:00,1582,1.513208,0,0,1248.267,0,0,2022-06-30T10:08:46.500+02:00
2022-06-30T10:08:48.610+02:00,5902.64986525,-0.409027099609375,3.486968994140625,2.542816162109375,5902.63991325,-0.4429696403049113,0.9728508010904163,-0.7239090075131369,5.110347747802734,2.621138095855713,-5.99395227432251,-1.537959456443787,3.502445697784424,2.896319627761841,XArbitraryZVertical,-0.2093446343258475,0.4952666273391876,-0.3431034845465851,0.7701726646237735,0.6192278861999512,0.6623184680938721,-0.4217715859413147,0,0,0,-1,-1,5900.541894,unknown,2,2022-06-30T10:08:46.501+02:00,2022-06-30T08:20:05.567+02:00,1582,1.513208,0,0,1248.267,0,0,2022-06-30T10:08:46.500+02:00
2022-06-30T10:08:48.619+02:00,5902.65981625,-0.1383209228515625,3.155685424804688,2.5484619140625,5902.64986525,-0.5436439732245739,0.9293049853263682,-0.7427404700496353,4.912029266357422,2.165698289871216,-5.821118354797363,-1.254487991333008,3.138677835464478,2.965519666671753,XArbitraryZVertical,-0.2003955146548775,0.4893351292181572,-0.3803050831407812,0.7587890741358325,0.5901814103126526,0.6763091087341309,-0.4407855272293091,0,0,0,-1,-1,5900.541894,unknown,2,2022-06-30T10:08:46.501+02:00,2022-06-30T08:20:05.567+02:00,1582,1.513208,0,0,1248.267,0,0,2022-06-30T10:08:46.500+02:00
2022-06-30T10:08:48.630+02:00,5902.669768250001,0.166717529296875,2.82666015625,2.530181884765625,5902.65981625,-0.642571316533627,0.8811009674492283,-0.7588098210623673,4.50221061706543,1.710365056991577,-5.703585624694824,-0.9688264727592468,2.79891037940979,3.004552125930786,XArbitraryZVertical,-0.1927751466416519,0.4816323146565873,-0.4151786357905433,0.7473250134665907,0.5597994923591614,0.6880582571029663,-0.4617361128330231,0,0,0,-1,-1,5900.541894,unknown,2,2022-06-30T10:08:46.501+02:00,2022-06-30T08:20:05.567+02:00,1582,1.513208,0,0,1248.267,0,0,2022-06-30T10:08:46.500+02:00
2022-06-30T10:08:48.639+02:00,5902.679719250001,0.5073699951171875,2.519515991210938,2.506607055664062,5902.669768250001,-0.7371609488195691,0.8304809799718068,-0.773995023480077,3.805994749069214,1.299265146255493,-5.565983772277832,-0.6662652492523193,2.456687450408936,3.030827522277832,XArbitraryZVertical,-0.1875477850822686,0.4729089518377697,-0.4473188413374918,0.735587404683671,0.5279444456100464,0.6989977359771729,-0.4823659062385559,0,0,0,-1,-1,5900.541894,unknown,2,2022-06-30T10:08:46.501+02:00,2022-06-30T08:20:05.567+02:00,1582,1.513208,0,0,1248.267,0,0,2022-06-30T10:08:46.500+02:00
2022-06-30T10:08:48.649+02:00,5902.689670250001,0.8304290771484375,2.257980346679688,2.430984497070312,5902.679719250001,-0.8240595514192173,0.7804381918401039,-0.7899029242377882,2.915389776229858,0.9549333453178406,-5.316651821136475,-0.3285499811172485,2.116374969482422,3.030386924743652,XArbitraryZVertical,-0.1854511393494518,0.4642254220901851,-0.4759641310928758,0.7235750731400836,0.4952677190303802,0.710284948348999,-0.5002052783966064,0,0,0,-1,-1,5900.541894,unknown,2,2022-06-30T10:08:46.501+02:00,2022-06-30T08:20:05.567+02:00,1582,1.513208,0,0,1248.267,0,0,2022-06-30T10:08:46.500+02:00
2022-06-30T10:08:48.659+02:00,5902.69962225,1.115921020507812,2.085220336914062,2.315582275390625,5902.689670250001,-0.9017572092094746,0.7331444344890015,-0.8075639389003499,1.999354600906372,0.7358691692352295,-5.042782783508301,0.04477190971374512,1.796910285949707,3.020264625549316,XArbitraryZVertical,-0.1865166935514038,0.4564894477120409,-0.5008395826283132,0.7113288162952413,0.4625983238220215,0.7226053476333618,-0.513657808303833,0,0,0,-1,-1,5900.541894,unknown,2,2022-06-30T10:08:46.501+02:00,2022-06-30T08:20:05.567+02:00,1582,1.513208,0,0,1248.267,0,0,2022-06-30T10:08:46.500+02:00
2022-06-30T10:08:48.669+02:00,5902.70957325,1.272674560546875,1.982757568359375,2.204620361328125,5902.69962225,-0.9710535650659875,0.6888815026250453,-0.827477916383815,1.210959315299988,0.5047869086265564,-4.805099010467529,0.4002464711666107,1.521753072738647,2.953394889831543,XArbitraryZVertical,-0.1904014029369734,0.4500467309114006,-0.5222667369535863,0.6988868083365271,0.4301828145980835,0.7362269163131714,-0.52241051197052,0,0,0,-1,-1,5900.541894,unknown,2,2022-06-30T10:08:46.501+02:00,2022-06-30T08:20:05.567+02:00,1582,1.513208,0,0,1248.267,0,0,2022-06-30T10:08:46.500+02:00
2022-06-30T10:08:48.679+02:00,5902.719525250001,1.34588623046875,1.945632934570312,2.071762084960938,5902.70957325,-1.035181676032185,0.6448579852852785,-0.8494444681497725,0.7107750773429871,0.2220390886068344,-4.703719615936279,0.7189645171165466,1.334306478500366,2.843364238739014,XArbitraryZVertical,-0.1967851185197108,0.4442797651539973,-0.5410650834058854,0.6863961899850505,0.3969567716121674,0.7509136199951172,-0.5277822017669678,0,0,0,-1,-1,5900.541894,unknown,2,2022-06-30T10:08:46.501+02:00,2022-06-30T08:20:05.567+02:00,1582,1.513208,0,0,1248.267,0,0,2022-06-30T10:08:46.500+02:00
2022-06-30T10:08:48.689+02:00,5902.729476250001,1.438385009765625,1.907073974609375,1.897552490234375,5902.719525250001,-1.097349484457826,0.5984788653599387,-0.8717427878818202,0.3990606665611267,-0.0808858647942543,-4.507853507995605,0.910139262676239,1.217305779457092,2.736270427703857,XArbitraryZVertical,-0.2048440172719521,0.4384219218758061,-0.5579751804085822,0.6741580090263791,0.3625355362892151,0.7654515504837036,-0.5316503047943115,0,0,0,-1,-1,5900.541894,unknown,2,2022-06-30T10:08:46.501+02:00,2022-06-30T08:20:05.567+02:00,1582,1.513208,0,0,1248.267,0,0,2022-06-30T10:08:46.500+02:00
2022-06-30T10:08:48.699+02:00,5902.73942825,1.595260620117188,1.799285888671875,1.686370849609375,5902.729476250001,-1.156245916746682,0.5507017679955856,-0.8934821821977122,0.03358041495084763,-0.3764415979385376,-4.160457611083984,1.017942309379578,1.16637396812439,2.60581111907959,XArbitraryZVertical,-0.2141986637760862,0.4325440624233147,-0.5726323561042553,0.6626589145215658,0.3279441893100739,0.7792587876319885,-0.5340491533279419,0,0,0,-1,-1,5900.541894,unknown,2,2022-06-30T10:08:46.501+02:00,2022-06-30T08:20:05.567+02:00,1582,1.513208,0,0,1248.267,0,0,2022-06-30T10:08:46.500+02:00
2022-06-30T10:08:48.710+02:00,5902.74937925,1.722503662109375,1.747802734375,1.471160888671875,5902.73942825,-1.209680088731344,0.5037096904547028,-0.914356526446905,-0.2983858287334442,-0.638022243976593,-3.688455820083618,1.14380669593811,1.114903688430786,2.432052135467529,XArbitraryZVertical,-0.2245015249352014,0.4270235086637866,-0.5846227539072717,0.6522777953476997,0.294578492641449,0.7921700477600098,-0.5345000028610229,0,0,0,-1,-1,5900.541894,unknown,2,2022-06-30T10:08:46.501+02:00,2022-06-30T08:20:05.567+02:00,1582,1.513208,0,0,1248.267,0,0,2022-06-30T10:08:46.500+02:00
2022-06-30T10:08:48.719+02:00,5902.75933025,1.70001220703125,1.736587524414062,1.25537109375,5902.74937925,-1.257288174406173,0.4578840846315048,-0.9342399329109915,-0.5495839715003967,-0.9486528038978577,-3.297269105911255,1.332492470741272,0.9951381683349609,2.219568252563477,XArbitraryZVertical,-0.2355651358628304,0.4217941103132577,-0.594010649734412,0.643234228509253,0.262768417596817,0.804147481918335,-0.5331975817680359,0,0,0,-1,-1,5900.541894,unknown,2,2022-06-30T10:08:46.501+02:00,2022-06-30T08:20:05.567+02:00,1582,1.513208,0,0,1248.267,0,0,2022-06-30T10:08:46.500+02:00
2022-06-30T10:08:48.729+02:00,5902.76928225,1.6014404296875,1.715744018554688,1.080352783203125,5902.75933025,-1.301318973889472,0.4111883714317028,-0.9535123260103112,-0.7529926300048828,-1.280049085617065,-3.051521301269531,1.491149187088013,0.9323489665985107,2.001736402511597,XArbitraryZVertical,-0.2475831054027769,0.4164309356676692,-0.6013761549732043,0.6353225790511235,0.2313548028469086,0.8154535293579102,-0.5305757522583008,0,0,0,-1,-1,5900.541894,unknown,2,2022-06-30T10:08:46.501+02:00,2022-06-30T08:20:05.567+02:00,1582,1.513208,0,0,1248.267,0,0,2022-06-30T10:08:46.500+02:00
2022-06-30T10:08:48.739+02:00,5902.77923325,1.506103515625,1.672760009765625,0.8495635986328125,5902.76928225,-1.342950172648472,0.3625843297309098,-0.9721474685988981,-0.8966811299324036,-1.63044548034668,-2.785268306732178,1.500134229660034,0.910489559173584,1.782259106636047,XArbitraryZVertical,-0.2605662918861132,0.4106836761553176,-0.607009478076218,0.6284773121693601,0.1998783349990845,0.8260977864265442,-0.5268882513046265,0,0,0,-1,-1,5900.541894,unknown,2,2022-06-30T10:08:46.501+02:00,2022-06-30T08:20:05.567+02:00,1582,1.513208,0,0,1248.267,0,0,2022-06-30T10:08:46.500+02:00
2022-06-30T10:08:48.749+02:00,5902.789185250001,1.40277099609375,1.6038818359375,0.5807647705078125,5902.77923325,-1.381616334271139,0.3123861203017362,-0.9901998949520443,-1.087750673294067,-1.997767925262451,-2.49507474899292,1.432863116264343,0.8796082139015198,1.602328538894653,XArbitraryZVertical,-0.2745176768598209,0.4045393382238125,-0.6107898142284588,0.6228353519128088,0.1685775965452194,0.8361356258392334,-0.5219759345054626,0,0,0,-1,-1,5900.541894,unknown,2,2022-06-30T10:08:46.501+02:00,2022-06-30T08:20:05.567+02:00,1582,1.513208,0,0,1248.267,0,0,2022-06-30T10:08:46.500+02:00
2022-06-30T10:08:48.759+02:00,5902.799136250001,1.297225952148438,1.573623657226562,0.3525390625,5902.789185250001,-1.416475894662167,0.261763096839905,-1.008004108510981,-1.241892576217651,-2.277447462081909,-2.153637647628784,1.368029594421387,0.8269912004470825,1.364938020706177,XArbitraryZVertical,-0.2893166242352555,0.3982569216948918,-0.6126093967574909,0.6183826424797215,0.1380741745233536,0.8457686305046082,-0.5153746008872986,0,0,0,-1,-1,5900.541894,unknown,2,2022-06-30T10:08:46.501+02:00,2022-06-30T08:20:05.567+02:00,1582,1.513208,0,0,1248.267,0,0,2022-06-30T10:08:46.500+02:00
2022-06-30T10:08:48.769+02:00,5902.80908825,1.173980712890625,1.559585571289062,0.1598663330078125,5902.799136250001,-1.447170088004985,0.2120030987567847,-1.024531942538678,-1.176384329795837,-2.479828596115112,-1.789868474006653,1.293459057807922,0.7494105696678162,1.088632583618164,XArbitraryZVertical,-0.3042195684790527,0.39181167530325,-0.6127155368641899,0.6152347918588474,0.1093122363090515,0.8544711470603943,-0.5078681111335754,0,0,0,-1,-1,5900.541894,unknown,2,2022-06-30T10:08:46.501+02:00,2022-06-30T08:20:05.567+02:00,1582,1.513208,0,0,1248.267,0,0,2022-06-30T10:08:46.500+02:00
2022-06-30T10:08:48.779+02:00,5902.81903925,1.0081787109375,1.531005859375,0.0136566162109375,5902.80908825,-1.474077905259755,0.1634636449089392,-1.037943653375234,-0.9409688711166382,-2.63847827911377,-1.459922313690186,1.21455717086792,0.7122621536254883,0.853759765625,XArbitraryZVertical,-0.3183881282701551,0.3847317139858024,-0.6116380815260676,0.6136037601802022,0.08266904205083847,0.8613614439964294,-0.5012210011482239,0,0,0,-1,-1,5900.541894,unknown,2,2022-06-30T10:08:46.501+02:00,2022-06-30T08:20:05.567+02:00,1582,1.513208,0,0,1248.267,0,0,2022-06-30T10:08:46.500+02:00
2022-06-30T10:08:48.789+02:00,5902.82899025,0.8035736083984375,1.490524291992188,-0.134918212890625,5902.81903925,-1.49759842989149,0.1161195750498234,-1.048457066304434,-0.8410727381706238,-2.795348644256592,-1.205538034439087,1.116178035736084,0.6929309368133545,0.6554151773452759,XArbitraryZVertical,-0.3318372686827617,0.3769740941685847,-0.609623476611021,0.6132975360287547,0.05780298635363579,0.8666544556617737,-0.4955491125583649,0,0,0,-1,-1,5900.541894,unknown,2,2022-06-30T10:08:46.501+02:00,2022-06-30T08:20:05.567+02:00,1582,1.513208,0,0,1248.267,0,0,2022-06-30T10:08:46.500+02:00
2022-06-30T10:08:48.799+02:00,5902.83894225,0.5885162353515625,1.470001220703125,-0.3338470458984375,5902.82899025,-1.517754980651087,0.0699995216482962,-1.058490331386994,-0.9803137183189392,-2.95540714263916,-0.9886088967323303,0.9738940000534058,0.6593892574310303,0.502644419670105,XArbitraryZVertical,-0.3453380070235396,0.3691173567306064,-0.6064219859691872,0.6137967498867342,0.03428494930267334,0.8716164827346802,-0.488988071680069,0,0,0,-1,-1,5900.541894,unknown,2,2022-06-30T10:08:46.501+02:00,2022-06-30T08:20:05.567+02:00,1582,1.513208,0,0,1248.267,0,0,2022-06-30T10:08:46.500+02:00
2022-06-30T10:08:48.809+02:00,5902.84889325,0.45989990234375,1.496963500976562,-0.5050811767578125,5902.83894225,-1.534622915921309,0.02551264282437303,-1.069460231741008,-1.112248420715332,-3.00590181350708,-0.7546958923339844,0.7913138270378113,0.6135829091072083,0.3455227911472321,XArbitraryZVertical,-0.3591571448482835,0.3616427765361379,-0.6019265828037754,0.6147398508755559,0.01225998718291521,0.8769412040710449,-0.4804413020610809,0,0,0,-1,-1,5900.541894,unknown,2,2022-06-30T10:08:46.501+02:00,2022-06-30T08:20:05.567+02:00,1582,1.513208,0,0,1248.267,0,0,2022-06-30T10:08:46.500+02:00
2022-06-30T10:08:48.818+02:00,5902.858845250001,0.3704833984375,1.52410888671875,-0.603302001953125,5902.84889325,-1.546881711591271,-0.01516640623526383,-1.080694172413167,-1.110211372375488,-3.014557600021362,-0.434688538312912,0.5956552624702454,0.587716281414032,0.1368145644664764,XArbitraryZVertical,-0.3726152613569504,0.3547209033889961,-0.5962632866330957,0.6162800101811221,-0.007138797082006931,0.8822847604751587,-0.4706619083881378,0,0,0,-1,-1,5900.541894,unknown,2,2022-06-30T10:08:46.501+02:00,2022-06-30T08:20:05.567+02:00,1582,1.513208,0,0,1248.267,0,0,2022-06-30T10:08:46.500+02:00
2022-06-30T10:08:48.829+02:00,5902.868796250001,0.2988128662109375,1.510940551757812,-0.6723175048828125,5902.858845250001,-1.554050267762036,-0.05156442061458815,-1.09132122118988,-1.031359553337097,-3.027449607849121,-0.1819161176681519,0.483676940202713,0.6097261905670166,-0.04438102245330811,XArbitraryZVertical,-0.3853637883011545,0.348058208853156,-0.5896035430555679,0.6186420391527526,-0.0237768292427063,0.8872371912002563,-0.4607004821300507,0,0,0,-1,-1,5900.541894,unknown,2,2022-06-30T10:08:46.501+02:00,2022-06-30T08:20:05.567+02:00,1582,1.513208,0,0,1248.267,0,0,2022-06-30T10:08:46.500+02:00
2022-06-30T10:08:48.838+02:00,5902.87874825,0.184967041015625,1.481201171875,-0.8503265380859375,5902.868796250001,-1.556941719328212,-0.08429907303220889,-1.101091688042315,-0.9332647323608398,-3.03814697265625,0.03267394006252289,0.408594161272049,0.6324067711830139,-0.1522864699363708,XArbitraryZVertical,-0.3973638235638809,0.3414587387818336,-0.5822084102250628,0.6217245835357875,-0.03811053559184074,0.8917019963264465,-0.451015830039978,0,0,0,-1,-1,5900.541894,unknown,2,2022-06-30T10:08:46.501+02:00,2022-06-30T08:20:05.567+02:00,1582,1.513208,0,0,1248.267,0,0,2022-06-30T10:08:46.500+02:00
2022-06-30T10:08:48.848+02:00,5902.88869925,0.0840606689453125,1.44439697265625,-0.9912109375,5902.87874825,-1.556080266661793,-0.1137327435212499,-1.109933066466543,-0.8073413372039795,-3.031413555145264,0.2147370427846909,0.3492835164070129,0.6152714490890503,-0.2304694950580597,XArbitraryZVertical,-0.4086148104080219,0.3348279899904774,-0.5742488840178402,0.625429755246559,-0.05047042295336723,0.8956689238548279,-0.4418483078479767,0,0,0,-1,-1,5900.541894,unknown,2,2022-06-30T10:08:46.501+02:00,2022-06-30T08:20:05.567+02:00,1582,1.513208,0,0,1248.267,0,0,2022-06-30T10:08:46.500+02:00
2022-06-30T10:08:48.858+02:00,5902.89865025,0.0509185791015625,1.434249877929688,-1.073226928710938,5902.88869925,-1.550462944810197,-0.1386759881412697,-1.117243629258365,-0.5494048595428467,-2.994953393936157,0.4658896327018738,0.2455351948738098,0.5823049545288086,-0.4163713455200195,XArbitraryZVertical,-0.4187789167893586,0.3280951776928782,-0.56583554808119,0.6299269990941853,-0.06056797504425049,0.8988960981369019,-0.4339555501937866,0,0,0,-1,-1,5900.541894,unknown,2,2022-06-30T10:08:46.501+02:00,2022-06-30T08:20:05.567+02:00,1582,1.513208,0,0,1248.267,0,0,2022-06-30T10:08:46.500+02:00
2022-06-30T10:08:48.868+02:00,5902.908602250001,0.0762939453125,1.375045776367188,-1.1041259765625,5902.89865025,-1.537996822671353,-0.1569123184380262,-1.121899090614917,-0.2082589864730835,-2.927623510360718,0.7373329997062683,0.151877373456955,0.5434706211090088,-0.5625704526901245,XArbitraryZVertical,-0.427267411242457,0.3211263704502482,-0.5570698290071097,0.6356049866590564,-0.06781652569770813,0.9009262323379517,-0.4286408126354218,0,0,0,-1,-1,5900.541894,unknown,2,2022-06-30T10:08:46.501+02:00,2022-06-30T08:20:05.567+02:00,1582,1.513208,0,0,1248.267,0,0,2022-06-30T10:08:46.500+02:00
2022-06-30T10:08:48.878+02:00,5902.918553250001,0.1219329833984375,1.306716918945312,-1.07427978515625,5902.908602250001,-1.518570363847884,-0.1680780618564401,-1.124066392203358,0.03625382855534554,-2.844964981079102,0.9986463785171509,0.1231902241706848,0.5323851108551025,-0.6472964286804199,XArbitraryZVertical,-0.4340647248124172,0.3140420277062797,-0.5480069719875545,0.6423813983751643,-0.07227147370576859,0.9018646478652954,-0.4259308278560638,0,0,0,-1,-1,5900.541894,unknown,2,2022-06-30T10:08:46.501+02:00,2022-06-30T08:20:05.567+02:00,1582,1.513208,0,0,1248.267,0,0,2022-06-30T10:08:46.500+02:00
2022-06-30T10:08:48.888+02:00,5902.92850525,0.1244049072265625,1.274887084960938,-1.07879638671875,5902.918553250001,-1.492946866057036,-0.1729820364025285,-1.125472895933337,0.05139623209834099,-2.788157224655151,1.216558814048767,0.1504350304603577,0.4725742340087891,-0.6798050403594971,XArbitraryZVertical,-0.4397876313005515,0.3072884418561216,-0.5383650672095807,0.6498644218687731,-0.07414094358682632,0.9024714231491089,-0.4243212938308716,0,0,0,-1,-1,5900.541894,unknown,2,2022-06-30T10:08:46.501+02:00,2022-06-30T08:20:05.567+02:00,1582,1.513208,0,0,1248.267,0,0,2022-06-30T10:08:46.500+02:00
2022-06-30T10:08:48.898+02:00,5902.93845625,0.1297760009765625,1.244277954101562,-1.13848876953125,5902.92850525,-1.463284562078674,-0.1736665815223051,-1.12772093156101,-0.04701130092144012,-2.718043327331543,1.371006488800049,0.1960137784481049,0.4032794237136841,-0.6520090103149414,XArbitraryZVertical,-0.4451471528984287,0.3011784004415559,-0.5280550682016318,0.6574903255116253,-0.07408065348863602,0.9034374356269836,-0.4222711622714996,0,0,0,-1,-1,5900.541894,unknown,2,2022-06-30T10:08:46.501+02:00,2022-06-30T08:20:05.567+02:00,1582,1.513208,0,0,1248.267,0,0,2022-06-30T10:08:46.500+02:00
2022-06-30T10:08:48.908+02:00,5902.94840825,0.139495849609375,1.272781372070312,-1.137786865234375,5902.93845625,-1.429685024677054,-0.1698536943387996,-1.131185867809036,-0.1276719868183136,-2.632148504257202,1.592508554458618,0.1963454782962799,0.3699694275856018,-0.6593340635299683,XArbitraryZVertical,-0.450207192325545,0.2959428779429628,-0.5170932896586267,0.665090843791182,-0.07194043695926666,0.9049175381660461,-0.4194625914096832,0,0,0,-1,-1,5900.541894,unknown,2,2022-06-30T10:08:46.501+02:00,2022-06-30T08:20:05.567+02:00,1582,1.513208,0,0,1248.267,0,0,2022-06-30T10:08:46.500+02:00
2022-06-30T10:08:48.918+02:00,5902.958358625,0.16400146484375,1.291351318359375,-1.1844482421875,5902.94840825,-1.390629360734261,-0.1603616792277688,-1.135141814522512,-0.07807567715644836,-2.574316263198853,1.796842813491821,0.1971597075462341,0.3376837968826294,-0.721899688243866,XArbitraryZVertical,-0.4547258299091687,0.2914270268388477,-0.5053851690230788,0.6729640094151207,-0.06738357990980148,0.9065940380096436,-0.4165894091129303,0,0,0,-1,-1,5900.541894,unknown,2,2022-06-30T10:08:46.501+02:00,2022-06-30T08:20:05.567+02:00,1582,1.513208,0,0,1248.267,0,0,2022-06-30T10:08:46.500+02:00
2022-06-30T10:08:48.928+02:00,5902.968309625,0.153106689453125,1.297256469726562,-1.242919921875,5902.958358625,-1.346602869590226,-0.1458048116507124,-1.13787114777983,0.12649105489254,-2.532771825790405,1.957565188407898,0.2004486620426178,0.3650387525558472,-0.7227106690406799,XArbitraryZVertical,-0.4583119363189968,0.2870747261516251,-0.4932701182619942,0.6813390870972684,-0.06095270067453384,0.907742440700531,-0.4150765538215637,0,0,0,-1,-1,5900.541894,unknown,2,2022-06-30T10:08:46.501+02:00,2022-06-30T08:20:05.567+02:00,1582,1.513208,0,0,1248.267,0,0,2022-06-30T10:08:46.500+02:00
2022-06-30T10:08:48.938+02:00,5902.978261625,0.1141815185546875,1.367965698242188,-1.221649169921875,5902.968309625,-1.296941094755247,-0.1255873201683406,-1.137922840037433,0.4380952715873718,-2.465863466262817,2.189809799194336,0.2165446877479553,0.383587121963501,-0.7682710886001587,XArbitraryZVertical,-0.4604775256768521,0.2826158281910038,-0.4808712242233125,0.6905445455291863,-0.05254314467310905,0.9077641367912292,-0.4161774814128876,0,0,0,-1,-1,5900.541894,unknown,2,2022-06-30T10:08:46.501+02:00,2022-06-30T08:20:05.567+02:00,1582,1.513208,0,0,1248.267,0,0,2022-06-30T10:08:46.500+02:00
2022-06-30T10:08:48.948+02:00,5902.988212625,0.14300537109375,1.374801635742188,-1.153854370117188,5902.978261625,-1.240930544728676,-0.09883400805441275,-1.135004171839169,0.6666359305381775,-2.366194248199463,2.439127445220947,0.1947595477104187,0.3907203674316406,-0.8228516578674316,XArbitraryZVertical,-0.4610207560822643,0.2782544584956433,-0.4680734293339857,0.7006722470813443,-0.04165278002619743,0.9065359234809875,-0.4200686514377594,0,0,0,-1,-1,5900.541894,unknown,2,2022-06-30T10:08:46.501+02:00,2022-06-30T08:20:05.567+02:00,1582,1.513208,0,0,1248.267,0,0,2022-06-30T10:08:46.500+02:00
2022-06-30T10:08:48.958+02:00,5902.998164625001,0.2371063232421875,1.345199584960938,-1.087066650390625,5902.988212625,-1.179439481154388,-0.06607563117839668,-1.130099648227491,0.7218171358108521,-2.250482797622681,2.702189445495605,0.142346978187561,0.4635108709335327,-0.7960104942321777,XArbitraryZVertical,-0.4602888692749083,0.2744351239649963,-0.4547285801512699,0.7113660094422718,-0.02816537022590637,0.9044547080993652,-0.4256390333175659,0,0,0,-1,-1,5900.541894,unknown,2,2022-06-30T10:08:46.501+02:00,2022-06-30T08:20:05.567+02:00,1582,1.513208,0,0,1248.267,0,0,2022-06-30T10:08:46.500+02:00
2022-06-30T10:08:48.968+02:00,5903.008115625001,0.29656982421875,1.391159057617188,-1.066268920898438,5902.998164625001,-1.112797147980587,-0.02804976867658205,-1.124886751439645,0.5792632102966309,-2.225296258926392,2.975406646728516,0.155101090669632,0.4725827574729919,-0.7227454781532288,XArbitraryZVertical,-0.4590412212482755,0.2715262876763717,-0.4403807509649994,0.7222323688525265,-0.01209568791091442,0.902218759059906,-0.4311092793941498,0,0,0,-1,-1,5900.541894,unknown,2,2022-06-30T10:08:46.501+02:00,2022-06-30T08:20:05.567+02:00,1582,1.513208,0,0,1248.267,0,0,2022-06-30T10:08:46.500+02:00
2022-06-30T10:08:48.978+02:00,5903.018067625,0.3237457275390625,1.458572387695312,-1.213241577148438,5903.008115625001,-1.041489855654548,0.01406242935979072,-1.120353482501341,0.3895422518253326,-2.229072093963623,3.21226954460144,0.2309842705726624,0.4449450373649597,-0.6517457962036133,XArbitraryZVertical,-0.4579317956723434,0.2695141276800985,-0.4247154098318802,0.7329921093255423,0.006122077349573374,0.9002543687820435,-0.4353212118148804,0,0,0,-1,-1,5900.541894,unknown,2,2022-06-30T10:08:46.501+02:00,2022-06-30T08:20:05.567+02:00,1582,1.513208,0,0,1248.267,0,0,2022-06-30T10:08:46.500+02:00
2022-06-30T10:08:48.988+02:00,5903.028018625,0.3125457763671875,1.513824462890625,-1.386734008789062,5903.018067625,-0.9664487673502948,0.05943336243155087,-1.115272686551646,0.4349574446678162,-2.216742515563965,3.405260801315308,0.2704385817050934,0.4931280612945557,-0.6271134614944458,XArbitraryZVertical,-0.4566705572439421,0.2680934091663945,-0.4079970298823716,0.7437179217799783,0.0261312834918499,0.8980307579040527,-0.4391558468341827,0,0,0,-1,-1,5900.541894,unknown,2,2022-06-30T10:08:46.501+02:00,2022-06-30T08:20:05.567+02:00,1582,1.513208,0,0,1248.267,0,0,2022-06-30T10:08:46.500+02:00
2022-06-30T10:08:48.998+02:00,5903.037969625,0.320404052734375,1.515045166015625,-1.43682861328125,5903.028018625,-0.8897956002082283,0.1065034531975843,-1.105685757098295,0.9822442531585693,-2.099412679672241,3.564257860183716,0.2760668694972992,0.5648002624511719,-0.7672615051269531,XArbitraryZVertical,-0.4538253370218892,0.2665564507844654,-0.3909659973592426,0.7550734886248819,0.0476788692176342,0.8937720060348511,-0.445980429649353,0,0,0,-1,-1,5900.541894,unknown,2,2022-06-30T10:08:46.501+02:00,2022-06-30T08:20:05.567+02:00,1582,1.513208,0,0,1248.267,0,0,2022-06-30T10:08:46.500+02:00
2022-06-30T10:08:49.007+02:00,5903.047921625001,0.39483642578125,1.478973388671875,-1.364837646484375,5903.037969625,-0.8145051022890518,0.1542481200388813,-1.087313887026809,1.804751396179199,-1.749638438224792,3.762638568878174,0.2411251664161682,0.6284428834915161,-0.927388072013855,XArbitraryZVertical,-0.4474333918147507,0.2648211281032823,-0.3745682730554014,0.7677056034799239,0.07142062485218048,0.8853814005851746,-0.4593462646007538,0,0,0,-1,-1,5900.541894,unknown,2,2022-06-30T10:08:46.501+02:00,2022-06-30T08:20:05.567+02:00,1582,1.513208,0,0,1248.267,0,0,2022-06-30T10:08:46.500+02:00
2022-06-30T10:08:49.017+02:00,5903.057872625001,0.50469970703125,1.429611206054688,-1.220855712890625,5903.047921625001,-0.7427743296346614,0.2021458513426357,-1.059170380866401,2.504786968231201,-1.291711926460266,3.999817371368408,0.2221069931983948,0.6430953145027161,-0.9572025537490845,XArbitraryZVertical,-0.4367308223159684,0.2635393197916071,-0.3590952005845236,0.781577758957133,0.09829705953598022,0.8719496130943298,-0.4796264171600342,0,0,0,-1,-1,5900.541894,unknown,2,2022-06-30T10:08:46.501+02:00,2022-06-30T08:20:05.567+02:00,1582,1.513208,0,0,1248.267,0,0,2022-06-30T10:08:46.500+02:00
2022-06-30T10:08:49.027+02:00,5903.067824625,0.6458587646484375,1.39202880859375,-1.06756591796875,5903.057872625001,-0.675211789224865,0.2505112248414004,-1.024711531343345,2.635969877243042,-0.6990954279899597,4.217958450317383,0.2660910487174988,0.6244087219238281,-0.8617035746574402,XArbitraryZVertical,-0.4228683011287256,0.2638469383306071,-0.344221622489757,0.7956623444664076,0.1287453174591064,0.8545644283294678,-0.5031343698501587,0,0,0,-1,-1,5900.541894,unknown,2,2022-06-30T10:08:46.501+02:00,2022-06-30T08:20:05.567+02:00,1582,1.513208,0,0,1248.267,0,0,2022-06-30T10:08:46.500+02:00
