loggingTime(txt),accelerometerTimestamp_sinceReboot(s),accelerometerAccelerationX(G),accelerometerAccelerationY(G),accelerometerAccelerationZ(G),motionTimestamp_sinceReboot(s),motionYaw(rad),motionRoll(rad),motionPitch(rad),motionRotationRateX(rad/s),motionRotationRateY(rad/s),motionRotationRateZ(rad/s),motionUserAccelerationX(G),motionUserAccelerationY(G),motionUserAccelerationZ(G),motionAttitudeReferenceFrame(txt),motionQuaternionX(R),motionQuaternionY(R),motionQuaternionZ(R),motionQuaternionW(R),motionGravityX(G),motionGravityY(G),motionGravityZ(G),motionMagneticFieldX(µT),motionMagneticFieldY(µT),motionMagneticFieldZ(µT),motionHeading(°),motionMagneticFieldCalibrationAccuracy(Z),activityTimestamp_sinceReboot(s),activity(txt),activityActivityConfidence(Z),activityActivityStartDate(txt),pedometerStartDate(txt),pedometerNumberofSteps(N),pedometerAverageActivePace(s/m),pedometerCurrentPace(s/m),pedometerCurrentCadence(steps/s),pedometerDistance(m),pedometerFloorAscended(N),pedometerFloorDescended(N),pedometerEndDate(txt)
2022-06-30T10:08:57.460+02:00,5911.486735541667,0.1499176025390625,-0.324676513671875,-0.9379425048828125,5911.476783541667,3.08483645544684,0.1315496132099551,0.378240517956519,-0.4155465960502625,0.1278975605964661,0.01948483288288116,-0.2181356549263,-0.05834141373634338,0.02210116386413574,XArbitraryZVertical,-0.05920678930586348,0.1893445784049096,0.9800022028122704,0.01545667747109293,0.1218988448381424,-0.3692859411239624,-0.9212863445281982,0,0,0,-1,-1,5910.728871750001,unknown,2,2022-06-30T10:08:56.688+02:00,2022-06-30T08:20:05.567+02:00,1582,1.524751,0,0,1248.267,0,0,2022-06-30T10:08:51.596+02:00
2022-06-30T10:08:57.462+02:00,5911.496686541667,0.09600830078125,-0.3102569580078125,-0.9182891845703125,5911.486735541667,3.085161764667909,0.1323369847777878,0.3754628824417688,-0.1802264750003815,0.09211824834346771,-0.05885471031069756,-0.04162772744894028,-0.01635321974754333,-0.01622748374938965,XArbitraryZVertical,-0.05967899564348644,0.1879807375691857,0.9802381911080762,0.01532022132968444,0.122759073972702,-0.3667032122612,-0.9222033023834229,0,0,0,-1,-1,5910.728871750001,unknown,2,2022-06-30T10:08:56.688+02:00,2022-06-30T08:20:05.567+02:00,1582,1.524751,0,0,1248.267,0,0,2022-06-30T10:08:51.596+02:00
2022-06-30T10:08:57.466+02:00,5911.506638541667,0.0764007568359375,-0.397247314453125,-0.9091949462890625,5911.496686541667,3.084011572197621,0.1335996896898146,0.3745054059563273,0.01220734976232052,0.06446614861488342,-0.1638271659612656,0.02594780176877975,0.04113596677780151,-0.01554739475250244,XArbitraryZVertical,-0.0602091919295439,0.1875560631087231,0.9802796275116462,0.01579920378050863,0.1239701583981514,-0.3658122718334198,-0.9223951697349548,0,0,0,-1,-1,5910.728871750001,unknown,2,2022-06-30T10:08:56.688+02:00,2022-06-30T08:20:05.567+02:00,1582,1.524751,0,0,1248.267,0,0,2022-06-30T10:08:51.596+02:00
2022-06-30T10:08:57.476+02:00,5911.516589541667,0.062744140625,-0.4307861328125,-0.8925628662109375,5911.506638541667,3.082154833328003,0.1347059870158397,0.3747797398298262,0.06390836089849472,0.03302087634801865,-0.1565735042095184,-0.02896837890148163,0.0558108389377594,0.003868699073791504,XArbitraryZVertical,-0.06057156051955852,0.187755462142342,0.9802058758461963,0.01659564303161712,0.1249770447611809,-0.3660675585269928,-0.9221579432487488,0,0,0,-1,-1,5910.728871750001,unknown,2,2022-06-30T10:08:56.688+02:00,2022-06-30T08:20:05.567+02:00,1582,1.524751,0,0,1248.267,0,0,2022-06-30T10:08:51.596+02:00
2022-06-30T10:08:57.486+02:00,5911.526540541667,0.0803375244140625,-0.4153594970703125,-0.9067535400390625,5911.516589541667,3.080602147444155,0.1358152602330417,0.3746508654448958,-0.06110315024852753,0.07895813882350922,-0.1422942727804184,-0.04960516095161438,-0.03129944205284119,0.01287049055099487,XArbitraryZVertical,-0.06097216019656601,0.1877489160934549,0.9801708807738088,0.01725710957138439,0.1260062754154205,-0.3659476339817047,-0.9220654964447021,0,0,0,-1,-1,5910.728871750001,unknown,2,2022-06-30T10:08:56.688+02:00,2022-06-30T08:20:05.567+02:00,1582,1.524751,0,0,1248.267,0,0,2022-06-30T10:08:51.596+02:00
2022-06-30T10:08:57.496+02:00,5911.536492541667,0.098358154296875,-0.3676910400390625,-0.93084716796875,5911.526540541667,3.079137867755843,0.1373401934449903,0.3731540082965821,-0.1941924840211868,0.1130732297897339,-0.1694196462631226,-0.0647425651550293,-0.06623169779777527,0.02985095977783203,XArbitraryZVertical,-0.06161444959138555,0.1870741518021539,0.9802484820047468,0.01788630772800924,0.1274870783090591,-0.3645541965961456,-0.9224138259887695,0,0,0,-1,-1,5910.728871750001,unknown,2,2022-06-30T10:08:56.688+02:00,2022-06-30T08:20:05.567+02:00,1582,1.524751,0,0,1248.267,0,0,2022-06-30T10:08:51.596+02:00
2022-06-30T10:08:57.506+02:00,5911.546443541667,0.1153411865234375,-0.3381195068359375,-0.9543609619140625,5911.536492541667,3.077594046807878,0.1391326451297373,0.3706888261525,-0.2417953610420227,0.1311554610729218,-0.1829204261302948,-0.04892660677433014,-0.05310168862342834,0.01631748676300049,XArbitraryZVertical,-0.06240301130566096,0.1859310140203654,0.9804033852192857,0.01856668047378538,0.1292644888162613,-0.3622575700283051,-0.923071026802063,0,0,0,-1,-1,5910.728871750001,unknown,2,2022-06-30T10:08:56.688+02:00,2022-06-30T08:20:05.567+02:00,1582,1.524751,0,0,1248.267,0,0,2022-06-30T10:08:51.596+02:00
2022-06-30T10:08:57.516+02:00,5911.556395541667,0.136138916015625,-0.3311309814453125,-0.961883544921875,5911.546443541667,3.075939016036808,0.1410355385420857,0.3681493081552292,-0.2144747972488403,0.1325802505016327,-0.1945954710245132,-0.0327911376953125,-0.007801443338394165,-0.007115960121154785,XArbitraryZVertical,-0.06323917415214249,0.1847570952277792,0.9805576277815982,0.01929654363660928,0.1311496496200562,-0.3598893582820892,-0.92373126745224,0,0,0,-1,-1,5910.728871750001,unknown,2,2022-06-30T10:08:56.688+02:00,2022-06-30T08:20:05.567+02:00,1582,1.524751,0,0,1248.267,0,0,2022-06-30T10:08:51.596+02:00
2022-06-30T10:08:57.526+02:00,5911.566346541667,0.125885009765625,-0.3520355224609375,-0.9565277099609375,5911.556395541667,3.074146529466913,0.1429845554362179,0.3658551014430322,-0.1953944563865662,0.1351131349802017,-0.2048413753509521,-0.01772552728652954,0.01962864398956299,-0.03007233142852783,XArbitraryZVertical,-0.0640819478245912,0.18370944953906,0.9806839696991837,0.02008280118257026,0.1330670714378357,-0.3577479422092438,-0.9242886900901794,0,0,0,-1,-1,5910.728871750001,unknown,2,2022-06-30T10:08:56.688+02:00,2022-06-30T08:20:05.567+02:00,1582,1.524751,0,0,1248.267,0,0,2022-06-30T10:08:51.596+02:00
2022-06-30T10:08:57.536+02:00,5911.576298541667,0.1530914306640625,-0.42840576171875,-0.966064453125,5911.566346541667,3.07200125040023,0.1452153494636645,0.3634698538483324,-0.2375245988368988,0.1641160249710083,-0.2779882848262787,0.0008875429630279541,0.02438879013061523,-0.03705233335494995,XArbitraryZVertical,-0.06503501532571386,0.1826330258966651,0.9808026071521082,0.02102224935331492,0.1352517455816269,-0.3555195331573486,-0.9248312711715698,0,0,0,-1,-1,5910.728871750001,unknown,2,2022-06-30T10:08:56.688+02:00,2022-06-30T08:20:05.567+02:00,1582,1.524751,0,0,1248.267,0,0,2022-06-30T10:08:51.596+02:00
2022-06-30T10:08:57.546+02:00,5911.586249541667,0.1487579345703125,-0.3746490478515625,-0.926910400390625,5911.576298541667,3.069467396759719,0.1478620638854793,0.3605861563228798,-0.2615827023983002,0.1679434478282928,-0.2413594722747803,-0.0119641125202179,0.0007874965667724609,-0.031047523021698,XArbitraryZVertical,-0.06617159837658888,0.1813317770890643,0.980943459402269,0.02213704171507431,0.1378494948148727,-0.3528227508068085,-0.9254801869392395,0,0,0,-1,-1,5910.728871750001,unknown,2,2022-06-30T10:08:56.688+02:00,2022-06-30T08:20:05.567+02:00,1582,1.524751,0,0,1248.267,0,0,2022-06-30T10:08:51.596+02:00
2022-06-30T10:08:57.556+02:00,5911.596200541667,0.1534423828125,-0.344329833984375,-0.9352264404296875,5911.586249541667,3.067792825600121,0.1502856607401132,0.3572388293974794,-0.3445428311824799,0.2124856114387512,-0.2071487754583359,0.012823686003685,-0.07871681451797485,-0.03975856304168701,XArbitraryZVertical,-0.06729137641819322,0.1797746140986961,0.9811369807056989,0.02287307415854394,0.1402681171894073,-0.349688708782196,-0.926305890083313,0,0,0,-1,-1,5910.728871750001,unknown,2,2022-06-30T10:08:56.688+02:00,2022-06-30T08:20:05.567+02:00,1582,1.524751,0,0,1248.267,0,0,2022-06-30T10:08:51.596+02:00
2022-06-30T10:08:57.566+02:00,5911.606152541667,0.203369140625,-0.3028717041015625,-0.9345550537109375,5911.596200541667,3.065863813726206,0.1531628646290145,0.3537408913837822,-0.2770669460296631,0.2237587124109268,-0.2393708676099777,0.005639851093292236,-0.02823930978775024,0.0001912713050842285,XArbitraryZVertical,-0.06861792138165705,0.1781592530957057,0.9813201211978561,0.02370392725065976,0.1431184411048889,-0.3464094996452332,-0.927101731300354,0,0,0,-1,-1,5910.728871750001,unknown,2,2022-06-30T10:08:56.688+02:00,2022-06-30T08:20:05.567+02:00,1582,1.524751,0,0,1248.267,0,0,2022-06-30T10:08:51.596+02:00
2022-06-30T10:08:57.576+02:00,5911.616103541667,0.1890716552734375,-0.28863525390625,-0.9249267578125,5911.606152541667,3.063960378141635,0.1558529432381236,0.3512856236740191,-0.1473345011472702,0.1978767812252045,-0.2023012638092041,0.007699266076087952,-0.000224381685256958,-0.007675707340240479,XArbitraryZVertical,-0.06983166526626572,0.1770540816151591,0.981414871543669,0.02450044668571964,0.1457434743642807,-0.3441052138805389,-0.9275507926940918,0,0,0,-1,-1,5910.728871750001,unknown,2,2022-06-30T10:08:56.688+02:00,2022-06-30T08:20:05.567+02:00,1582,1.524751,0,0,1248.267,0,0,2022-06-30T10:08:51.596+02:00
2022-06-30T10:08:57.586+02:00,5911.626055541667,0.1968536376953125,-0.315826416015625,-0.9268341064453125,5911.616103541667,3.061855945478634,0.1584937953148993,0.3501582282857329,-0.01750893332064152,0.1862788647413254,-0.2305517643690109,0.05511587858200073,0.04017496109008789,-0.007009923458099365,XArbitraryZVertical,-0.07097094859112243,0.1766084578538385,0.9813919573685863,0.02534700364763196,0.1482536196708679,-0.3430464267730713,-0.9275451302528381,0,0,0,-1,-1,5910.728871750001,unknown,2,2022-06-30T10:08:56.688+02:00,2022-06-30T08:20:05.567+02:00,1582,1.524751,0,0,1248.267,0,0,2022-06-30T10:08:51.596+02:00
2022-06-30T10:08:57.596+02:00,5911.636006541667,0.189056396484375,-0.3475189208984375,-0.9278106689453125,5911.626055541667,3.059388996293256,0.16104678556564,0.3499900764913112,0.05110927671194077,0.1636052429676056,-0.2318295538425446,0.03844161331653595,0.05425348877906799,0.002293825149536133,XArbitraryZVertical,-0.07201026331678324,0.1766472160633997,0.9812831382968589,0.02633918666714695,0.1506303995847702,-0.3428884744644165,-0.9272205829620361,0,0,0,-1,-1,5910.728871750001,unknown,2,2022-06-30T10:08:56.688+02:00,2022-06-30T08:20:05.567+02:00,1582,1.524751,0,0,1248.267,0,0,2022-06-30T10:08:51.596+02:00
2022-06-30T10:08:57.606+02:00,5911.645958541667,0.175262451171875,-0.3438720703125,-0.9324798583984375,5911.636006541667,3.05696016957824,0.1635460796536324,0.3501637900542268,0.04973288625478745,0.1741259694099426,-0.2170720100402832,0.04391637444496155,0.02722549438476562,-5.173683166503906e-05,XArbitraryZVertical,-0.07301700207484232,0.1768539070905867,0.9811452351079547,0.02730236539547568,0.1529376208782196,-0.3430516719818115,-0.9267824292182922,0,0,0,-1,-1,5910.728871750001,unknown,2,2022-06-30T10:08:56.688+02:00,2022-06-30T08:20:05.567+02:00,1582,1.524751,0,0,1248.267,0,0,2022-06-30T10:08:51.596+02:00
2022-06-30T10:08:57.616+02:00,5911.655909541667,0.172271728515625,-0.3292083740234375,-0.9390106201171875,5911.645958541667,3.054701744246347,0.1661388519038352,0.3501090407892499,0.009654976427555084,0.1924634426832199,-0.2075930237770081,0.03371359407901764,-0.004518449306488037,-0.001409411430358887,XArbitraryZVertical,-0.07409065860151993,0.1769461192506919,0.9810231354145509,0.02818329687966923,0.1553431451320648,-0.3430002331733704,-0.9264013171195984,0,0,0,-1,-1,5910.728871750001,unknown,2,2022-06-30T10:08:56.688+02:00,2022-06-30T08:20:05.567+02:00,1582,1.524751,0,0,1248.267,0,0,2022-06-30T10:08:51.596+02:00
2022-06-30T10:08:57.626+02:00,5911.665860541667,0.1820526123046875,-0.3118743896484375,-0.9535064697265625,5911.655909541667,3.052646408458987,0.1687706576906548,0.3496967853888322,-0.02258358895778656,0.1948037296533585,-0.1882499903440475,0.01745833456516266,-0.001258820295333862,-0.006351292133331299,XArbitraryZVertical,-0.07521161465807161,0.1768584940701386,0.9809305487660438,0.02897716754945514,0.1578044593334198,-0.3426129519939423,-0.9261285662651062,0,0,0,-1,-1,5910.728871750001,unknown,2,2022-06-30T10:08:56.688+02:00,2022-06-30T08:20:05.567+02:00,1582,1.524751,0,0,1248.267,0,0,2022-06-30T10:08:51.596+02:00
2022-06-30T10:08:57.636+02:00,5911.675812541667,0.1855010986328125,-0.2967376708984375,-0.954376220703125,5911.665860541667,3.050830579705154,0.1713620999010622,0.3490894518959456,-0.03471694886684418,0.204097107052803,-0.1740044802427292,0.01203271746635437,0.01283419132232666,-0.01308929920196533,XArbitraryZVertical,-0.07633995719267392,0.1766678281175902,0.9808571057396455,0.02966642838802786,0.1602393835783005,-0.3420423269271851,-0.9259213805198669,0,0,0,-1,-1,5910.728871750001,unknown,2,2022-06-30T10:08:56.688+02:00,2022-06-30T08:20:05.567+02:00,1582,1.524751,0,0,1248.267,0,0,2022-06-30T10:08:51.596+02:00
2022-06-30T10:08:57.645+02:00,5911.685763541667,0.184600830078125,-0.2907867431640625,-0.949859619140625,5911.675812541667,3.049104832508773,0.1740077401088963,0.3483909120842361,-0.04485340788960457,0.2109768092632294,-0.1715123206377029,0.01932317018508911,0.02951169013977051,-0.02777719497680664,XArbitraryZVertical,-0.07750598189581555,0.1764317770322685,0.9807884355156532,0.03031161020518533,0.162729799747467,-0.3413858413696289,-0.9257292747497559,0,0,0,-1,-1,5910.728871750001,unknown,2,2022-06-30T10:08:56.688+02:00,2022-06-30T08:20:05.567+02:00,1582,1.524751,0,0,1248.267,0,0,2022-06-30T10:08:51.596+02:00
2022-06-30T10:08:57.655+02:00,5911.695715541667,0.1778411865234375,-0.296356201171875,-0.946441650390625,5911.685763541667,3.047449589022036,0.1766784081201387,0.3476311483004085,-0.04919862002134323,0.213843435049057,-0.1586095690727234,0.02025435864925385,0.04393419623374939,-0.02882975339889526,XArbitraryZVertical,-0.07869284894820459,0.1761652700789887,0.9807226892513328,0.03092366144374011,0.1652470678091049,-0.3406715989112854,-0.9255464673042297,0,0,0,-1,-1,5910.728871750001,unknown,2,2022-06-30T10:08:56.688+02:00,2022-06-30T08:20:05.567+02:00,1582,1.524751,0,0,1248.267,0,0,2022-06-30T10:08:51.596+02:00
2022-06-30T10:08:57.665+02:00,5911.705666541667,0.17303466796875,-0.2977142333984375,-0.93890380859375,5911.695715541667,3.046024859665479,0.1793164550723819,0.3468627594711909,-0.05417487025260925,0.2221056520938873,-0.136485680937767,0.01686641573905945,0.0491625964641571,-0.02449500560760498,XArbitraryZVertical,-0.07988477617876483,0.1758866639118405,0.9806602918220247,0.03142681160327673,0.1677347719669342,-0.3399491012096405,-0.92536461353302,0,0,0,-1,-1,5910.728871750001,unknown,2,2022-06-30T10:08:56.688+02:00,2022-06-30T08:20:05.567+02:00,1582,1.524751,0,0,1248.267,0,0,2022-06-30T10:08:51.596+02:00
2022-06-30T10:08:57.675+02:00,5911.715618541667,0.1647796630859375,-0.29681396484375,-0.934295654296875,5911.705666541667,3.044812988180052,0.1819035351606025,0.3460810939575741,-0.05622124299407005,0.2240476161241531,-0.1211948841810226,0.007665336132049561,0.04285791516304016,-0.02125304937362671,XArbitraryZVertical,-0.08107127339997211,0.1755936626924583,0.9806023746564388,0.03183158846686212,0.1701762229204178,-0.3392138779163361,-0.9251886010169983,0,0,0,-1,-1,5910.728871750001,unknown,2,2022-06-30T10:08:56.688+02:00,2022-06-30T08:20:05.567+02:00,1582,1.524751,0,0,1248.267,0,0,2022-06-30T10:08:51.596+02:00
2022-06-30T10:08:57.685+02:00,5911.725569541667,0.1624908447265625,-0.2873992919921875,-0.9336395263671875,5911.715618541667,3.043746305387633,0.1845201672818795,0.3453748232573001,-0.04761630296707153,0.2322114109992981,-0.1021050810813904,0.0003945976495742798,0.04083541035652161,-0.01392835378646851,XArbitraryZVertical,-0.08228298010081567,0.1753333422766065,0.9805373722609111,0.03215974285186058,0.1726404279470444,-0.33854940533638,-0.9249754548072815,0,0,0,-1,-1,5910.728871750001,unknown,2,2022-06-30T10:08:56.688+02:00,2022-06-30T08:20:05.567+02:00,1582,1.524751,0,0,1248.267,0,0,2022-06-30T10:08:51.596+02:00
2022-06-30T10:08:57.695+02:00,5911.735521541667,0.164642333984375,-0.2898712158203125,-0.9371490478515625,5911.725569541667,3.042841419145186,0.1871477206209924,0.3447275910432157,-0.04757662117481232,0.2367480993270874,-0.0923754870891571,-0.01033096015453339,0.04112657904624939,-0.009561896324157715,XArbitraryZVertical,-0.08351260309665001,0.1750964483084695,0.9804677290134041,0.03240544864784962,0.1751109808683395,-0.3379403054714203,-0.9247337579727173,0,0,0,-1,-1,5910.728871750001,unknown,2,2022-06-30T10:08:56.688+02:00,2022-06-30T08:20:05.567+02:00,1582,1.524751,0,0,1248.267,0,0,2022-06-30T10:08:51.596+02:00
2022-06-30T10:08:57.705+02:00,5911.745472541667,0.1736907958984375,-0.2969207763671875,-0.9406890869140625,5911.735521541667,3.042000561391729,0.1898199706941611,0.3440628297419769,-0.05171563848853111,0.242443785071373,-0.08931635320186615,-0.01513262093067169,0.04991555213928223,-0.009156644344329834,XArbitraryZVertical,-0.08477053927368655,0.1748499310501422,0.9803966586467762,0.03261743669812125,0.1776238232851028,-0.3373145759105682,-0.9244829416275024,0,0,0,-1,-1,5910.728871750001,unknown,2,2022-06-30T10:08:56.688+02:00,2022-06-30T08:20:05.567+02:00,1582,1.524751,0,0,1248.267,0,0,2022-06-30T10:08:51.596+02:00
2022-06-30T10:08:57.715+02:00,5911.755423541667,0.177459716796875,-0.292449951171875,-0.9399871826171875,5911.745472541667,3.041241751018875,0.1925149654613151,0.3433871485851903,-0.05356653779745102,0.2474428117275238,-0.07757021486759186,-0.0155155211687088,0.04680746793746948,-0.01292473077774048,XArbitraryZVertical,-0.08604734109978769,0.1745957416026842,0.980325055952906,0.03278856198501168,0.1801582127809525,-0.3366784155368805,-0.9242243766784668,0,0,0,-1,-1,5910.728871750001,unknown,2,2022-06-30T10:08:56.688+02:00,2022-06-30T08:20:05.567+02:00,1582,1.524751,0,0,1248.267,0,0,2022-06-30T10:08:51.596+02:00
2022-06-30T10:08:57.725+02:00,5911.765375541667,0.1743011474609375,-0.29583740234375,-0.9367218017578125,5911.755423541667,3.04063469071449,0.1951667852727841,0.3427157806128502,-0.05505630746483803,0.2471220046281815,-0.06173824891448021,-0.008961096405982971,0.03912565112113953,-0.01672422885894775,XArbitraryZVertical,-0.08731626812020506,0.1743370959265848,0.980255427277685,0.03288960358031506,0.1826522499322891,-0.3360461592674255,-0.9239649176597595,0,0,0,-1,-1,5910.728871750001,unknown,2,2022-06-30T10:08:56.688+02:00,2022-06-30T08:20:05.567+02:00,1582,1.524751,0,0,1248.267,0,0,2022-06-30T10:08:51.596+02:00
2022-06-30T10:08:57.735+02:00,5911.775326541667,0.17755126953125,-0.3046417236328125,-0.9373626708984375,5911.765375541667,3.040173014408036,0.1977616469777848,0.3420649602990615,-0.05127808079123497,0.2484930008649826,-0.04970609024167061,-0.007632046937942505,0.04298344254493713,-0.01628512144088745,XArbitraryZVertical,-0.08856939214291334,0.1740816673203933,0.9801872358302172,0.03292404830216786,0.1850921213626862,-0.3354331254959106,-0.9237020611763,0,0,0,-1,-1,5910.728871750001,unknown,2,2022-06-30T10:08:56.688+02:00,2022-06-30T08:20:05.567+02:00,1582,1.524751,0,0,1248.267,0,0,2022-06-30T10:08:51.596+02:00
2022-06-30T10:08:57.745+02:00,5911.785278541667,0.1717071533203125,-0.312103271484375,-0.922088623046875,5911.775326541667,3.039863448654327,0.2002815432362924,0.3414889705949584,-0.04734066873788834,0.2387426346540451,-0.03086831793189049,-0.01315607130527496,0.0390532910823822,-0.01329988241195679,XArbitraryZVertical,-0.08979660014024746,0.1738551443687762,0.9801170250192008,0.03288720193961731,0.1874575763940811,-0.3348904550075531,-0.9234219193458557,0,0,0,-1,-1,5910.728871750001,unknown,2,2022-06-30T10:08:56.688+02:00,2022-06-30T08:20:05.567+02:00,1582,1.524751,0,0,1248.267,0,0,2022-06-30T10:08:51.596+02:00
2022-06-30T10:08:57.755+02:00,5911.795229541667,0.167999267578125,-0.3184661865234375,-0.9076690673828125,5911.785278541667,3.039684760498735,0.2026667738563197,0.3409861727454657,-0.04435126855969429,0.2294753640890121,-0.02391507290303707,-0.01214183866977692,0.02977517247200012,-0.01422572135925293,XArbitraryZVertical,-0.09096677114450026,0.1736564361467934,0.9800474158905933,0.03279458058741248,0.1896934807300568,-0.3344166576862335,-0.9231369495391846,0,0,0,-1,-1,5910.728871750001,unknown,2,2022-06-30T10:08:56.688+02:00,2022-06-30T08:20:05.567+02:00,1582,1.524751,0,0,1248.267,0,0,2022-06-30T10:08:51.596+02:00
2022-06-30T10:08:57.765+02:00,5911.805181541667,0.167755126953125,-0.329315185546875,-0.9009246826171875,5911.795229541667,3.039560814356889,0.204940763048685,0.3404610276406291,-0.05521556735038757,0.2230292409658432,-0.02005938068032265,-0.02012038230895996,0.02181866765022278,0.0007864236831665039,XArbitraryZVertical,-0.09208792631900484,0.1734424641964352,0.9799842456246368,0.03268654462358424,0.1918279081583023,-0.3339217007160187,-0.9228750467300415,0,0,0,-1,-1,5910.728871750001,unknown,2,2022-06-30T10:08:56.688+02:00,2022-06-30T08:20:05.567+02:00,1582,1.524751,0,0,1248.267,0,0,2022-06-30T10:08:51.596+02:00
2022-06-30T10:08:57.775+02:00,5911.815132541667,0.1715545654296875,-0.320953369140625,-0.89215087890625,5911.805181541667,3.039882918338325,0.2060584054368887,0.3386274041618818,-0.05571757256984711,0.2119454443454742,-0.008183546364307404,-0.02498455345630646,0.01372683048248291,0.01558876037597656,XArbitraryZVertical,-0.09272507834316543,0.1725489057691793,0.9800870789455806,0.03253245454244521,0.1929841786623001,-0.3321927487850189,-0.9232578873634338,0,0,0,-1,-1,5910.728871750001,unknown,2,2022-06-30T10:08:56.688+02:00,2022-06-30T08:20:05.567+02:00,1582,1.524751,0,0,1248.267,0,0,2022-06-30T10:08:51.596+02:00
2022-06-30T10:08:57.785+02:00,5911.825083541667,0.1817474365234375,-0.31976318359375,-0.89300537109375,5911.815132541667,3.040359940389083,0.2069350502989385,0.336536953135528,-0.05354509875178337,0.2079723179340363,0.001430931151844561,-0.02618023753166199,0.0009053647518157959,0.02284121513366699,XArbitraryZVertical,-0.09326578152328227,0.171518291638875,0.9802231161047783,0.03233819051409393,0.1939357370138168,-0.3302202820777893,-0.9237659573554993,0,0,0,-1,-1,5910.728871750001,unknown,2,2022-06-30T10:08:56.688+02:00,2022-06-30T08:20:05.567+02:00,1582,1.524751,0,0,1248.267,0,0,2022-06-30T10:08:51.596+02:00
2022-06-30T10:08:57.795+02:00,5911.835035541667,0.188568115234375,-0.3296051025390625,-0.8916015625,5911.825083541667,3.040878062175314,0.2076912721110236,0.3346258998139788,-0.03971530497074127,0.1915038526058197,0.001209888723678887,-0.0232090950012207,0.007462739944458008,0.03208392858505249,XArbitraryZVertical,-0.09374453215206111,0.1705712369832207,0.9803496780623641,0.03212492283164668,0.1947640180587769,-0.3284158408641815,-0.9242348074913025,0,0,0,-1,-1,5910.728871750001,unknown,2,2022-06-30T10:08:56.688+02:00,2022-06-30T08:20:05.567+02:00,1582,1.524751,0,0,1248.267,0,0,2022-06-30T10:08:51.596+02:00
2022-06-30T10:08:57.818+02:00,5911.844986541667,0.183929443359375,-0.33001708984375,-0.8802947998046875,5911.835035541667,3.041248431370881,0.2084965532395865,0.3331098623180183,-0.01863545179367065,0.1641025543212891,0.0029782943893224,-0.01386325061321259,0.007220596075057983,0.0315583348274231,XArbitraryZVertical,-0.09422122107665445,0.1698249007639885,0.9804389227986282,0.03195865713842895,0.1956110596656799,-0.3269835114479065,-0.9245637059211731,0,0,0,-1,-1,5910.728871750001,unknown,2,2022-06-30T10:08:56.688+02:00,2022-06-30T08:20:05.567+02:00,1582,1.524751,0,0,1248.267,0,0,2022-06-30T10:08:51.596+02:00
2022-06-30T10:08:57.820+02:00,5911.854938541667,0.1758575439453125,-0.3345947265625,-0.8745880126953125,5911.844986541667,3.041600820097063,0.2092132990177255,0.3316774666453617,-0.00271827052347362,0.1520661264657974,0.008511544205248356,-0.007802277803421021,-0.003975331783294678,0.0332789421081543,XArbitraryZVertical,-0.09464996146532416,0.1691187034393876,0.9805247092482058,0.03180460259995148,0.1963707655668259,-0.3256295323371887,-0.9248805046081543,0,0,0,-1,-1,5910.728871750001,unknown,2,2022-06-30T10:08:56.688+02:00,2022-06-30T08:20:05.567+02:00,1582,1.524751,0,0,1248.267,0,0,2022-06-30T10:08:51.596+02:00
2022-06-30T10:08:57.825+02:00,5911.864889541667,0.177398681640625,-0.3374481201171875,-0.8743743896484375,5911.854938541667,3.041868464749657,0.2099499429131968,0.3309268864115469,0.01853828132152557,0.1391490697860718,0.001927810488268733,-0.01317308843135834,-0.005097061395645142,0.04467958211898804,XArbitraryZVertical,-0.09505855122112314,0.168750343228377,0.9805536326714673,0.03165291912384872,0.1971029043197632,-0.3249197602272034,-0.9249743819236755,0,0,0,-1,-1,5910.728871750001,unknown,2,2022-06-30T10:08:56.688+02:00,2022-06-30T08:20:05.567+02:00,1582,1.524751,0,0,1248.267,0,0,2022-06-30T10:08:51.596+02:00
2022-06-30T10:08:57.835+02:00,5911.874841541667,0.18060302734375,-0.332611083984375,-0.8702850341796875,5911.864889541667,3.041958464203858,0.2107827086727344,0.3308068878557935,0.04410409554839134,0.1212409138679504,0.002418098505586386,-0.02202336490154266,-0.009788185358047485,0.05026000738143921,XArbitraryZVertical,-0.09547838903575478,0.1687004815805841,0.9805249140032115,0.03154524047778542,0.1978812664747238,-0.324806272983551,-0.9248480200767517,0,0,0,-1,-1,5910.728871750001,unknown,2,2022-06-30T10:08:56.688+02:00,2022-06-30T08:20:05.567+02:00,1582,1.524751,0,0,1248.267,0,0,2022-06-30T10:08:51.596+02:00
2022-06-30T10:08:57.844+02:00,5911.884792541667,0.193603515625,-0.3446807861328125,-0.8796539306640625,5911.874841541667,3.042015678275928,0.2114862507562804,0.3310795926073931,0.03891991823911667,0.1106488555669785,-0.003080097492784262,-0.02111424505710602,-0.01238369941711426,0.05024755001068115,XArbitraryZVertical,-0.09581911960797113,0.1688423005052351,0.9804704456647377,0.03144253252384802,0.1985132843255997,-0.3250641822814941,-0.9246219396591187,0,0,0,-1,-1,5910.728871750001,unknown,2,2022-06-30T10:08:56.688+02:00,2022-06-30T08:20:05.567+02:00,1582,1.524751,0,0,1248.267,0,0,2022-06-30T10:08:51.596+02:00
2022-06-30T10:08:57.854+02:00,5911.894743541667,0.196807861328125,-0.3659210205078125,-0.880615234375,5911.884792541667,3.041968211429531,0.2121381341047692,0.3313820289870486,0.01427449472248554,0.09287917613983154,-0.01863642036914825,-0.01849190890789032,-0.007260650396347046,0.05411118268966675,XArbitraryZVertical,-0.09612465174607014,0.1690028019290382,0.9804145413846067,0.03139378153070251,0.199095293879509,-0.3253501653671265,-0.9243962168693542,0,0,0,-1,-1,5910.728871750001,unknown,2,2022-06-30T10:08:56.688+02:00,2022-06-30T08:20:05.567+02:00,1582,1.524751,0,0,1248.267,0,0,2022-06-30T10:08:51.596+02:00
2022-06-30T10:08:57.864+02:00,5911.904695541667,0.20513916015625,-0.3697662353515625,-0.8795928955078125,5911.894743541667,3.041766496206598,0.2127509403165258,0.3313591716898372,-0.03583201393485069,0.09088854491710663,-0.04915441572666168,-0.006059437990188599,-0.01935195922851562,0.04462736845016479,XArbitraryZVertical,-0.09640877136160826,0.1690109665976219,0.980383601647012,0.0314421476197413,0.1996632963418961,-0.3253285586833954,-0.9242812991142273,0,0,0,-1,-1,5910.728871750001,unknown,2,2022-06-30T10:08:56.688+02:00,2022-06-30T08:20:05.567+02:00,1582,1.524751,0,0,1248.267,0,0,2022-06-30T10:08:51.596+02:00
2022-06-30T10:08:57.874+02:00,5911.914646541667,0.1953582763671875,-0.36322021484375,-0.880950927734375,5911.904695541667,3.04157528453263,0.2134522713752777,0.3306944237074464,-0.1081901043653488,0.08799475431442261,-0.03608335554599762,-0.003549009561538696,-0.04122084379196167,0.04373693466186523,XArbitraryZVertical,-0.09675851001353318,0.1687059601549697,0.9803993895128779,0.0315142112172996,0.2003572434186935,-0.3246999084949493,-0.9243521690368652,0,0,0,-1,-1,5910.728871750001,unknown,2,2022-06-30T10:08:56.688+02:00,2022-06-30T08:20:05.567+02:00,1582,1.524751,0,0,1248.267,0,0,2022-06-30T10:08:51.596+02:00
2022-06-30T10:08:57.885+02:00,5911.924598541667,0.1974334716796875,-0.3498382568359375,-0.883941650390625,5911.914646541667,3.041422023469587,0.2142773924747605,0.3293669282094087,-0.1568322032690048,0.09052381664514542,-0.05898573994636536,0.003928154706954956,-0.04632195830345154,0.04501402378082275,XArbitraryZVertical,-0.09719428340049038,0.1680768174066962,0.9804617276640993,0.03159508232022338,0.2012113481760025,-0.3234440386295319,-0.9246069192886353,0,0,0,-1,-1,5910.728871750001,unknown,2,2022-06-30T10:08:56.688+02:00,2022-06-30T08:20:05.567+02:00,1582,1.524751,0,0,1248.267,0,0,2022-06-30T10:08:51.596+02:00
2022-06-30T10:08:57.894+02:00,5911.934549541667,0.1858367919921875,-0.336273193359375,-0.888153076171875,5911.924598541667,3.04119173917029,0.2151468024158399,0.3277978130878401,-0.1716625541448593,0.08549230545759201,-0.06397783756256104,-0.006764605641365051,-0.04126104712486267,0.04397541284561157,XArbitraryZVertical,-0.09765350777779264,0.1673339215432046,0.9805389620858401,0.03172429427550644,0.2021232396364212,-0.3219588696956635,-0.9249262809753418,0,0,0,-1,-1,5910.728871750001,unknown,2,2022-06-30T10:08:56.688+02:00,2022-06-30T08:20:05.567+02:00,1582,1.524751,0,0,1248.267,0,0,2022-06-30T10:08:51.596+02:00
2022-06-30T10:08:57.904+02:00,5911.944501541667,0.1781158447265625,-0.3289794921875,-0.8985443115234375,5911.934549541667,3.04086594041972,0.2160081156245387,0.3262916289588422,-0.1537993401288986,0.08107200264930725,-0.07780087739229202,-0.005589678883552551,-0.02930545806884766,0.04128283262252808,XArbitraryZVertical,-0.09809890030154143,0.166626429438425,0.9806093374872263,0.03189807864405304,0.2030235230922699,-0.3205325305461884,-0.9252244830131531,0,0,0,-1,-1,5910.728871750001,unknown,2,2022-06-30T10:08:56.688+02:00,2022-06-30T08:20:05.567+02:00,1582,1.524751,0,0,1248.267,0,0,2022-06-30T10:08:51.596+02:00
2022-06-30T10:08:57.914+02:00,5911.954452541667,0.1716766357421875,-0.32366943359375,-0.901611328125,5911.944501541667,3.04037775196116,0.2167920809539783,0.3250298496678932,-0.1259879469871521,0.07639815658330917,-0.09075129777193069,-0.01799847185611725,-0.01693585515022278,0.03730618953704834,XArbitraryZVertical,-0.09848495108887789,0.1660454124016442,0.9806611685458765,0.0321445229486706,0.2038356363773346,-0.3193370699882507,-0.9254592657089233,0,0,0,-1,-1,5910.728871750001,unknown,2,2022-06-30T10:08:56.688+02:00,2022-06-30T08:20:05.567+02:00,1582,1.524751,0,0,1248.267,0,0,2022-06-30T10:08:51.596+02:00
2022-06-30T10:08:57.924+02:00,5911.964403541667,0.1674041748046875,-0.3206329345703125,-0.903900146484375,5911.954452541667,3.039710751596237,0.2176501645987219,0.3240962304061456,-0.08804521709680557,0.07936389744281769,-0.0952473059296608,-0.02657777070999146,-0.01052704453468323,0.02703040838241577,XArbitraryZVertical,-0.09888178798673632,0.165635208461271,0.9806805087252821,0.03245412258446499,0.2046939730644226,-0.3184522092342377,-0.9255747199058533,0,0,0,-1,-1,5910.728871750001,unknown,2,2022-06-30T10:08:56.688+02:00,2022-06-30T08:20:05.567+02:00,1582,1.524751,0,0,1248.267,0,0,2022-06-30T10:08:51.596+02:00
2022-06-30T10:08:57.934+02:00,5911.974356000001,0.17205810546875,-0.323699951171875,-0.90606689453125,5911.964403541667,3.038885813479554,0.2186298675514173,0.3234794546244714,-0.05404704064130783,0.08687028288841248,-0.103552371263504,-0.03396622836589813,-0.005801737308502197,0.02395397424697876,XArbitraryZVertical,-0.09931478079040792,0.1653902024392667,0.9806661077066895,0.03281314600703533,0.2056432217359543,-0.3178674578666687,-0.9255653023719788,0,0,0,-1,-1,5910.728871750001,unknown,2,2022-06-30T10:08:56.688+02:00,2022-06-30T08:20:05.567+02:00,1582,1.524751,0,0,1248.267,0,0,2022-06-30T10:08:51.596+02:00
2022-06-30T10:08:57.944+02:00,5911.984307000001,0.18267822265625,-0.3349151611328125,-0.91717529296875,5911.974356000001,3.037897609362631,0.2198007750075704,0.3231196322783266,-0.04714998230338097,0.09077583253383636,-0.1126549243927002,-0.03934723138809204,-0.003106355667114258,0.02153533697128296,XArbitraryZVertical,-0.09981947157020184,0.1652826221526584,0.9806192767639983,0.03322177588717022,0.2067517638206482,-0.3175262808799744,-0.925435483455658,0,0,0,-1,-1,5910.728871750001,unknown,2,2022-06-30T10:08:56.688+02:00,2022-06-30T08:20:05.567+02:00,1582,1.524751,0,0,1248.267,0,0,2022-06-30T10:08:51.596+02:00
2022-06-30T10:08:57.954+02:00,5911.994259,0.18994140625,-0.336090087890625,-0.9255828857421875,5911.984307000001,3.036774294979202,0.2210787558485595,0.3229085909766343,-0.05346167460083961,0.0959964320063591,-0.1318123787641525,-0.03589051961898804,-0.00637352466583252,0.01916897296905518,XArbitraryZVertical,-0.1003604831185243,0.1652569274043035,0.980552830972257,0.03367925354288342,0.2079489678144455,-0.317326158285141,-0.9252358675003052,0,0,0,-1,-1,5910.728871750001,unknown,2,2022-06-30T10:08:56.688+02:00,2022-06-30T08:20:05.567+02:00,1582,1.524751,0,0,1248.267,0,0,2022-06-30T10:08:51.596+02:00
2022-06-30T10:08:57.964+02:00,5912.00421,0.1878509521484375,-0.3276824951171875,-0.9230194091796875,5911.994259,3.03546064790821,0.2225539777250361,0.3226497984563201,-0.06923983991146088,0.1057474240660667,-0.1450023353099823,-0.02665320038795471,-0.01783415675163269,0.007832825183868408,XArbitraryZVertical,-0.1009841821858185,0.1652214658155332,0.9804761251149685,0.03421659294905318,0.2093317955732346,-0.3170807361602783,-0.9250081181526184,0,0,0,-1,-1,5910.728871750001,unknown,2,2022-06-30T10:08:56.688+02:00,2022-06-30T08:20:05.567+02:00,1582,1.524751,0,0,1248.267,0,0,2022-06-30T10:08:51.596+02:00
2022-06-30T10:08:57.974+02:00,5912.014162,0.1902923583984375,-0.3353118896484375,-0.92315673828125,5912.00421,3.034098481697857,0.2240463426270816,0.3221567680758012,-0.09386129677295685,0.1156650334596634,-0.1620332598686218,-0.02080495655536652,-0.01947671175003052,-0.0007358789443969727,XArbitraryZVertical,-0.1016206105829271,0.1650749918466744,0.980414793576046,0.03479028527034213,0.210746705532074,-0.316613107919693,-0.9248470067977905,0,0,0,-1,-1,5910.728871750001,unknown,2,2022-06-30T10:08:56.688+02:00,2022-06-30T08:20:05.567+02:00,1582,1.524751,0,0,1248.267,0,0,2022-06-30T10:08:51.596+02:00
2022-06-30T10:08:57.984+02:00,5912.024113,0.1932525634765625,-0.3555755615234375,-0.9286956787109375,5912.014162,3.032632527079444,0.2256225137452995,0.3212393282735992,-0.1362284570932388,0.1221156269311905,-0.178199976682663,-0.02441775798797607,-0.01193949580192566,0.001776993274688721,XArbitraryZVertical,-0.1023049440144353,0.1647285640019394,0.9803788465645377,0.03543360579808224,0.212269052863121,-0.3157427310943604,-0.9247964024543762,0,0,0,-1,-1,5910.728871750001,unknown,2,2022-06-30T10:08:56.688+02:00,2022-06-30T08:20:05.567+02:00,1582,1.524751,0,0,1248.267,0,0,2022-06-30T10:08:51.596+02:00
2022-06-30T10:08:57.994+02:00,5912.034064,0.191986083984375,-0.376190185546875,-0.9305419921875,5912.024113,3.031211317895886,0.227097658425223,0.3197504135953599,-0.1876317262649536,0.1366319805383682,-0.1947043836116791,-0.02344591915607452,-0.02098199725151062,0.001782536506652832,XArbitraryZVertical,-0.1029646296191062,0.1640994884276406,0.9803910579168865,0.03609835527099475,0.2137386500835419,-0.3143296241760254,-0.9249392747879028,0,0,0,-1,-1,5910.728871750001,unknown,2,2022-06-30T10:08:56.688+02:00,2022-06-30T08:20:05.567+02:00,1582,1.524751,0,0,1248.267,0,0,2022-06-30T10:08:51.596+02:00
2022-06-30T10:08:58.004+02:00,5912.044016000001,0.183837890625,-0.402618408203125,-0.93109130859375,5912.034064,3.029796292704993,0.2284918997871261,0.3175746130483092,-0.2614155411720276,0.154184490442276,-0.2206095606088638,-0.02192951738834381,-0.04331189393997192,-0.0033913254737854,XArbitraryZVertical,-0.1036111765561071,0.1631335558523363,0.9804576836097104,0.03680935964666241,0.215182438492775,-0.3122633695602417,-0.9253043532371521,0,0,0,-1,-1,5910.728871750001,unknown,2,2022-06-30T10:08:56.688+02:00,2022-06-30T08:20:05.567+02:00,1582,1.524751,0,0,1248.267,0,0,2022-06-30T10:08:51.596+02:00
2022-06-30T10:08:58.014+02:00,5912.053967000001,0.167205810546875,-0.4138031005859375,-0.9257659912109375,5912.044016000001,3.028382031808218,0.2297015944084868,0.314707921804683,-0.3315994143486023,0.1736575216054916,-0.2531624138355255,-0.02451808750629425,-0.06665119528770447,-0.004630804061889648,XArbitraryZVertical,-0.1041941596725866,0.1618270060977008,0.9805831927962867,0.0375785626497156,0.2165045291185379,-0.3095387518405914,-0.9259111881256104,0,0,0,-1,-1,5910.728871750001,unknown,2,2022-06-30T10:08:56.688+02:00,2022-06-30T08:20:05.567+02:00,1582,1.524751,0,0,1248.267,0,0,2022-06-30T10:08:51.596+02:00
2022-06-30T10:08:58.024+02:00,5912.063919,0.1481475830078125,-0.426422119140625,-0.9178619384765625,5912.053967000001,3.026935852651623,0.2306706586558971,0.3111198036712727,-0.4271262884140015,0.1972615718841553,-0.2976848483085632,-0.03381599485874176,-0.09649327397346497,-0.004315078258514404,XArbitraryZVertical,-0.1046851862794754,0.160165188455264,0.9807708614452624,0.03842868515047897,0.2176542431116104,-0.3061248660087585,-0.9267762303352356,0,0,0,-1,-1,5910.728871750001,unknown,2,2022-06-30T10:08:56.688+02:00,2022-06-30T08:20:05.567+02:00,1582,1.524751,0,0,1248.267,0,0,2022-06-30T10:08:51.596+02:00
2022-06-30T10:08:58.033+02:00,5912.07387,0.1375274658203125,-0.451446533203125,-0.91314697265625,5912.063919,3.024990890792175,0.2326208351605924,0.3062862711881726,-0.5366668701171875,0.2372867465019226,-0.3630108535289764,-0.05259357392787933,-0.1122829914093018,0.002013027667999268,XArbitraryZVertical,-0.1056668829576819,0.1579398880914154,0.9809828834887909,0.0395243104291446,0.219799742102623,-0.3015198409557343,-0.9277790188789368,0,0,0,-1,-1,5910.728871750001,unknown,2,2022-06-30T10:08:56.688+02:00,2022-06-30T08:20:05.567+02:00,1582,1.524751,0,0,1248.267,0,0,2022-06-30T10:08:51.596+02:00
2022-06-30T10:08:58.044+02:00,5912.083822000001,0.128021240234375,-0.5001983642578125,-0.9209747314453125,5912.07387,3.022406205832295,0.2359531899236652,0.2994910157461025,-0.6830424666404724,0.2817493677139282,-0.4419697523117065,-0.07521608471870422,-0.1313879191875458,0.01115018129348755,XArbitraryZVertical,-0.1073558194887782,0.1548181901620498,0.9812384426613512,0.04095354350448802,0.2233640253543854,-0.2950339317321777,-0.92901211977005,0,0,0,-1,-1,5910.728871750001,unknown,2,2022-06-30T10:08:56.688+02:00,2022-06-30T08:20:05.567+02:00,1582,1.524751,0,0,1248.267,0,0,2022-06-30T10:08:51.596+02:00
2022-06-30T10:08:58.053+02:00,5912.093773000001,0.114715576171875,-0.550811767578125,-0.9498443603515625,5912.083822000001,3.019391421206514,0.2399435721418512,0.2907256492909973,-0.8945110440254211,0.351513534784317,-0.5382698774337769,-0.09014737606048584,-0.164798766374588,0.01744276285171509,XArbitraryZVertical,-0.1094195164401657,0.1507730304488649,0.9815668085433306,0.04268025568870924,0.227675199508667,-0.2866474986076355,-0.9305897355079651,0,0,0,-1,-1,5910.728871750001,unknown,2,2022-06-30T10:08:56.688+02:00,2022-06-30T08:20:05.567+02:00,1582,1.524751,0,0,1248.267,0,0,2022-06-30T10:08:51.596+02:00
2022-06-30T10:08:58.063+02:00,5912.103724000001,0.088531494140625,-0.590484619140625,-0.971160888671875,5912.093773000001,3.015972062880461,0.2447868503295373,0.2793607262330167,-1.174337863922119,0.4339692294597626,-0.6528880596160889,-0.1049325168132782,-0.2244568765163422,0.01160192489624023,XArbitraryZVertical,-0.1119868621602521,0.1455013025064224,0.9819815089246154,0.04472829389040725,0.2329540997743607,-0.2757412195205688,-0.9325766563415527,0,0,0,-1,-1,5910.728871750001,unknown,2,2022-06-30T10:08:56.688+02:00,2022-06-30T08:20:05.567+02:00,1582,1.524751,0,0,1248.267,0,0,2022-06-30T10:08:51.596+02:00
2022-06-30T10:08:58.073+02:00,5912.113676,0.0608062744140625,-0.6001129150390625,-0.9646148681640625,5912.103724000001,3.012127944256113,0.2506361847313625,0.2646592120578577,-1.505669951438904,0.538577675819397,-0.7972396612167358,-0.1246687471866608,-0.2892310917377472,-0.01481986045837402,XArbitraryZVertical,-0.1151699415686486,0.1386494279541856,0.9824907627341164,0.04716162584966924,0.2393846660852432,-0.2615803480148315,-0.9350244402885437,0,0,0,-1,-1,5910.728871750001,unknown,2,2022-06-30T10:08:56.688+02:00,2022-06-30T08:20:05.567+02:00,1582,1.524751,0,0,1248.267,0,0,2022-06-30T10:08:51.596+02:00
2022-06-30T10:08:58.083+02:00,5912.123627,0.02154541015625,-0.5709228515625,-0.9469757080078125,5912.113676,3.007841458194395,0.2576455403491894,0.2462191955908916,-1.879100680351257,0.6541810631752014,-0.9416340589523315,-0.1585879921913147,-0.3467454314231873,-0.03333193063735962,XArbitraryZVertical,-0.1190713308894014,0.1300290068382008,0.9830623783885859,0.05003017091712855,0.2471198439598083,-0.2437389343976974,-0.9378289580345154,0,0,0,-1,-1,5910.728871750001,unknown,2,2022-06-30T10:08:56.688+02:00,2022-06-30T08:20:05.567+02:00,1582,1.524751,0,0,1248.267,0,0,2022-06-30T10:08:51.596+02:00
2022-06-30T10:08:58.093+02:00,5912.133579,-0.003570556640625,-0.539337158203125,-0.9198760986328125,5912.123627,3.003376769390123,0.2659025091265724,0.2235635676692729,-2.290015459060669,0.8016472458839417,-1.083664774894714,-0.1954338848590851,-0.3784067332744598,-0.02377092838287354,XArbitraryZVertical,-0.1237833300346485,0.119397316005957,0.9836589906991752,0.05326476527702417,0.2562405169010162,-0.2217059135437012,-0.940843939781189,0,0,0,-1,-1,5910.728871750001,unknown,2,2022-06-30T10:08:56.688+02:00,2022-06-30T08:20:05.567+02:00,1582,1.524751,0,0,1248.267,0,0,2022-06-30T10:08:51.596+02:00
2022-06-30T10:08:58.103+02:00,5912.14353,-0.0019378662109375,-0.5220489501953125,-0.874786376953125,5912.133579,2.99878358162697,0.275574295479021,0.1963812695646374,-2.735235929489136,0.9554456472396851,-1.245815277099609,-0.2453238368034363,-0.375801146030426,-0.003202259540557861,XArbitraryZVertical,-0.1294138828174146,0.1066083498590154,0.9842000109947717,0.05689666715548754,0.2668696045875549,-0.1951214373111725,-0.9437733888626099,0,0,0,-1,-1,5910.728871750001,unknown,2,2022-06-30T10:08:56.688+02:00,2022-06-30T08:20:05.567+02:00,1582,1.524751,0,0,1248.267,0,0,2022-06-30T10:08:51.596+02:00
2022-06-30T10:08:58.113+02:00,5912.153482000001,0.0212554931640625,-0.5051116943359375,-0.879974365234375,5912.14353,2.994243821756264,0.2865968948654151,0.1642871314306085,-3.214558362960815,1.099600434303284,-1.406154632568359,-0.2824534475803375,-0.375787764787674,0.02641981840133667,XArbitraryZVertical,-0.1359631877748037,0.09146629226287037,0.9845996685694866,0.06092185573349974,0.2788832187652588,-0.1635490953922272,-0.9462958574295044,0,0,0,-1,-1,5910.728871750001,unknown,2,2022-06-30T10:08:56.688+02:00,2022-06-30T08:20:05.567+02:00,1582,1.524751,0,0,1248.267,0,0,2022-06-30T10:08:51.596+02:00
2022-06-30T10:08:58.123+02:00,5912.163433000001,0.0380859375,-0.4317169189453125,-0.871368408203125,5912.153482000001,2.990242292214776,0.29886413819604,0.1271011200533415,-3.717930793762207,1.252298712730408,-1.501191854476929,-0.2939973771572113,-0.3952894806861877,0.07317632436752319,XArbitraryZVertical,-0.1434029222466491,0.0738531008524189,0.9847500949857916,0.06518177175244406,0.2920598387718201,-0.1267591863870621,-0.9479626417160034,0,0,0,-1,-1,5910.728871750001,unknown,2,2022-06-30T10:08:56.688+02:00,2022-06-30T08:20:05.567+02:00,1582,1.524751,0,0,1248.267,0,0,2022-06-30T10:08:51.596+02:00
2022-06-30T10:08:58.133+02:00,5912.173385,0.066253662109375,-0.3289337158203125,-0.8948516845703125,5912.163433000001,2.987715058457871,0.3125564433751913,0.08456053076036721,-4.283574104309082,1.452832102775574,-1.548171639442444,-0.2851376831531525,-0.4206516146659851,0.06817632913589478,XArbitraryZVertical,-0.1518345075359115,0.0535815230371077,0.9845166813298154,0.06929918243915958,0.3063935339450836,-0.08445978909730911,-0.948150634765625,0,0,0,-1,-1,5910.728871750001,unknown,2,2022-06-30T10:08:56.688+02:00,2022-06-30T08:20:05.567+02:00,1582,1.524751,0,0,1248.267,0,0,2022-06-30T10:08:51.596+02:00
2022-06-30T10:08:58.143+02:00,5912.183336,0.121978759765625,-0.2034912109375,-0.8884735107421875,5912.173385,2.987193793923268,0.3282626455813808,0.0367301586571455,-4.791232585906982,1.6944659948349,-1.575889706611633,-0.2840952277183533,-0.394994705915451,0.07459712028503418,XArbitraryZVertical,-0.1614840080326615,0.03066266626715616,0.9836878504482288,0.07308180053271195,0.3221814930438995,-0.03672190010547638,-0.9459654092788696,0,0,0,-1,-1,5910.728871750001,unknown,2,2022-06-30T10:08:56.688+02:00,2022-06-30T08:20:05.567+02:00,1582,1.524751,0,0,1248.267,0,0,2022-06-30T10:08:51.596+02:00
2022-06-30T10:08:58.153+02:00,5912.193287,0.1763916015625,-0.0470733642578125,-0.8691864013671875,5912.183336,2.988697698032389,0.3462517700776922,-0.01521465231475388,-5.141563892364502,1.926145315170288,-1.591001629829407,-0.2730811536312103,-0.3441474735736847,0.04569095373153687,XArbitraryZVertical,-0.1723265540282133,0.005684170740303194,0.9820455680003295,0.07653578069045627,0.3393351435661316,0.01521406508982182,-0.9405425190925598,0,0,0,-1,-1,5910.728871750001,unknown,2,2022-06-30T10:08:56.688+02:00,2022-06-30T08:20:05.567+02:00,1582,1.524751,0,0,1248.267,0,0,2022-06-30T10:08:51.596+02:00
2022-06-30T10:08:58.163+02:00,5912.203239,0.241119384765625,0.08990478515625,-0.816436767578125,5912.193287,2.992155373749449,0.3664557685948222,-0.06987542822250387,-5.385178565979004,2.096272945404053,-1.584848403930664,-0.235455334186554,-0.2733094692230225,0.04285150766372681,XArbitraryZVertical,-0.1841489886208176,-0.02065696036276439,0.97944385825808,0.07970153514983731,0.3574344217777252,0.06981857866048813,-0.9313248991966248,0,0,0,-1,-1,5910.728871750001,unknown,2,2022-06-30T10:08:56.688+02:00,2022-06-30T08:20:05.567+02:00,1582,1.524751,0,0,1248.267,0,0,2022-06-30T10:08:51.596+02:00
2022-06-30T10:08:58.173+02:00,5912.21319,0.3128204345703125,0.2154998779296875,-0.763641357421875,5912.203239,2.997728761899836,0.388617493454144,-0.1259441695450453,-5.48371696472168,2.25394606590271,-1.523860931396484,-0.1995163261890411,-0.1726845353841782,0.04891765117645264,XArbitraryZVertical,-0.1966449704409231,-0.04773679084577056,0.9758310523584978,0.08249739296112965,0.375908225774765,0.1256114840507507,-0.9181039333343506,0,0,0,-1,-1,5910.728871750001,unknown,2,2022-06-30T10:08:56.688+02:00,2022-06-30T08:20:05.567+02:00,1582,1.524751,0,0,1248.267,0,0,2022-06-30T10:08:51.596+02:00
2022-06-30T10:08:58.183+02:00,5912.223142000001,0.3797760009765625,0.3212432861328125,-0.6716461181640625,5912.21319,3.005659334986948,0.4128564121005234,-0.1818401748286216,-5.468328475952148,2.364799737930298,-1.401435017585754,-0.1534924805164337,-0.0909346342086792,0.08443981409072876,XArbitraryZVertical,-0.2096827417527485,-0.07479946182412749,0.9712122328022563,0.08476474679240396,0.3946121633052826,0.1808397173881531,-0.9008764028549194,0,0,0,-1,-1,5910.728871750001,unknown,2,2022-06-30T10:08:56.688+02:00,2022-06-30T08:20:05.567+02:00,1582,1.524751,0,0,1248.267,0,0,2022-06-30T10:08:51.596+02:00
2022-06-30T10:08:58.193+02:00,5912.233093000001,0.4357452392578125,0.398529052734375,-0.636505126953125,5912.223142000001,3.015899575019442,0.4390578710920593,-0.236296315655861,-5.302081108093262,2.481245994567871,-1.292343974113464,-0.1004537045955658,-0.01860329508781433,0.116358757019043,XArbitraryZVertical,-0.2230501976255327,-0.1012356805957714,0.9656705496422094,0.08648915098260467,0.4132744371891022,0.2341034710407257,-0.8799998760223389,0,0,0,-1,-1,5910.728871750001,unknown,2,2022-06-30T10:08:56.688+02:00,2022-06-30T08:20:05.567+02:00,1582,1.524751,0,0,1248.267,0,0,2022-06-30T10:08:51.596+02:00
2022-06-30T10:08:58.203+02:00,5912.243045,0.5037384033203125,0.464202880859375,-0.6376800537109375,5912.233093000001,3.027567112072975,0.4673269772216668,-0.287924617433694,-5.019032955169678,2.588501214981079,-1.208947658538818,-0.05218046903610229,0.03728067874908447,0.184378981590271,XArbitraryZVertical,-0.2367282174717492,-0.1262827816315804,0.9593040169562448,0.08802442128060831,0.4319567084312439,0.2839628756046295,-0.8560248017311096,0,0,0,-1,-1,5910.728871750001,unknown,2,2022-06-30T10:08:56.688+02:00,2022-06-30T08:20:05.567+02:00,1582,1.524751,0,0,1248.267,0,0,2022-06-30T10:08:51.596+02:00
2022-06-30T10:08:58.213+02:00,5912.252996,0.564788818359375,0.5037689208984375,-0.6402587890625,5912.243045,3.040486659358216,0.4974202153964052,-0.3363829138899072,-4.750175952911377,2.658779144287109,-1.110481977462769,-0.0146719217300415,0.06845444440841675,0.1930581331253052,XArbitraryZVertical,-0.2505691442467344,-0.1497785508975996,0.9522511490933284,0.08943898289310223,0.4504174292087555,0.3300749063491821,-0.8295629620552063,0,0,0,-1,-1,5910.728871750001,unknown,2,2022-06-30T10:08:56.688+02:00,2022-06-30T08:20:05.567+02:00,1582,1.524751,0,0,1248.267,0,0,2022-06-30T10:08:51.596+02:00
2022-06-30T10:08:58.223+02:00,5912.262947,0.6204986572265625,0.5433197021484375,-0.60638427734375,5912.252996,3.055017607191671,0.5291196593360784,-0.3816962458722145,-4.544764041900635,2.683976650238037,-0.9695085883140564,0.03529155254364014,0.0917079746723175,0.163447380065918,XArbitraryZVertical,-0.2644194601307491,-0.171810324662557,0.9446489344663832,0.09056500290809627,0.4684471189975739,0.372495174407959,-0.8011271357536316,0,0,0,-1,-1,5910.728871750001,unknown,2,2022-06-30T10:08:56.688+02:00,2022-06-30T08:20:05.567+02:00,1582,1.524751,0,0,1248.267,0,0,2022-06-30T10:08:51.596+02:00
2022-06-30T10:08:58.233+02:00,5912.272899000001,0.651519775390625,0.555908203125,-0.5663909912109375,5912.262947,3.072026820959515,0.5623474782987697,-0.4246943564579667,-4.487114906311035,2.654449224472046,-0.8346892595291138,0.07898008823394775,0.0917268693447113,0.1305921673774719,XArbitraryZVertical,-0.2781282117435775,-0.1929232025901617,0.9365496166435938,0.09110547651884152,0.4858090281486511,0.4120423197746277,-0.770850658416748,0,0,0,-1,-1,5910.728871750001,unknown,2,2022-06-30T10:08:56.688+02:00,2022-06-30T08:20:05.567+02:00,1582,1.524751,0,0,1248.267,0,0,2022-06-30T10:08:51.596+02:00
2022-06-30T10:08:58.243+02:00,5912.282850000001,0.687774658203125,0.5687255859375,-0.4638519287109375,5912.272899000001,3.09170271026536,0.5970920543431991,-0.466250346507926,-4.4515700340271,2.627012014389038,-0.7649667859077454,0.1182722449302673,0.09377992153167725,0.1323190927505493,XArbitraryZVertical,-0.2915926290810071,-0.2135936149896474,0.9279267844204823,0.09112295604055615,0.5022266507148743,0.4495400488376617,-0.7387030124664307,0,0,0,-1,-1,5910.728871750001,unknown,2,2022-06-30T10:08:56.688+02:00,2022-06-30T08:20:05.567+02:00,1582,1.524751,0,0,1248.267,0,0,2022-06-30T10:08:51.596+02:00
2022-06-30T10:08:58.253+02:00,5912.292802,0.7171630859375,0.5648651123046875,-0.389251708984375,5912.282850000001,3.113687110551015,0.6333397558147029,-0.5067653920231956,-4.455653190612793,2.590046167373657,-0.7455467581748962,0.1340629458427429,0.07055670022964478,0.1383589506149292,XArbitraryZVertical,-0.3047549420172463,-0.2339864192827687,0.9187566280241474,0.09089034636206987,0.5174570083618164,0.4853517115116119,-0.704749584197998,0,0,0,-1,-1,5910.728871750001,unknown,2,2022-06-30T10:08:56.688+02:00,2022-06-30T08:20:05.567+02:00,1582,1.524751,0,0,1248.267,0,0,2022-06-30T10:08:51.596+02:00
2022-06-30T10:08:58.262+02:00,5912.302753,0.7603607177734375,0.5784912109375,-0.3407745361328125,5912.292802,3.137921193544885,0.6710639084190362,-0.5464718197444852,-4.423190116882324,2.538898229598999,-0.7471405267715454,0.1565150022506714,0.04904967546463013,0.2052521109580994,XArbitraryZVertical,-0.3175236393562221,-0.2542182114042228,0.9090421161225808,0.09052239414573138,0.5312598347663879,0.519676148891449,-0.6691036820411682,0,0,0,-1,-1,5910.728871750001,unknown,2,2022-06-30T10:08:56.688+02:00,2022-06-30T08:20:05.567+02:00,1582,1.524751,0,0,1248.267,0,0,2022-06-30T10:08:51.596+02:00
2022-06-30T10:08:58.272+02:00,5912.312705,0.776519775390625,0.5901641845703125,-0.2883148193359375,5912.302753,-3.118736925613441,0.7101672595128313,-0.58464351782607,-4.372676372528076,2.458746910095215,-0.6493404507637024,0.1734875440597534,0.01296317577362061,0.243062436580658,XArbitraryZVertical,-0.3298102968958707,-0.273985925539833,0.8989275016842654,0.08992317284665151,0.5436757206916809,0.5519021153450012,-0.6323137879371643,0,0,0,-1,-1,5910.728871750001,unknown,2,2022-06-30T10:08:56.688+02:00,2022-06-30T08:20:05.567+02:00,1582,1.524751,0,0,1248.267,0,0,2022-06-30T10:08:51.596+02:00
2022-06-30T10:08:58.282+02:00,5912.322656,0.7692718505859375,0.575439453125,-0.2334442138671875,5912.312705,-3.088702987004408,0.75144203925829,-0.6208487871573602,-4.365230083465576,2.421319484710693,-0.5143166780471802,0.2050685286521912,-0.003234386444091797,0.2535704970359802,XArbitraryZVertical,-0.3417692017951994,-0.2932942101192565,0.8884355410209452,0.08862671054943887,0.5552924275398254,0.5817257761955261,-0.5943446159362793,0,0,0,-1,-1,5910.728871750001,unknown,2,2022-06-30T10:08:56.688+02:00,2022-06-30T08:20:05.567+02:00,1582,1.524751,0,0,1248.267,0,0,2022-06-30T10:08:51.596+02:00
2022-06-30T10:08:58.293+02:00,5912.332607,0.7941436767578125,0.564178466796875,-0.1671142578125,5912.322656,-3.055194794858413,0.7954775290873337,-0.6555373077862031,-4.40010929107666,2.412745714187622,-0.4886954724788666,0.210360586643219,-0.01942092180252075,0.2665454149246216,XArbitraryZVertical,-0.3535544837704681,-0.3123609046187882,0.8774286412522558,0.08688400343324512,0.5661593079566956,0.6095852851867676,-0.5548597574234009,0,0,0,-1,-1,5910.728871750001,unknown,2,2022-06-30T10:08:56.688+02:00,2022-06-30T08:20:05.567+02:00,1582,1.524751,0,0,1248.267,0,0,2022-06-30T10:08:51.596+02:00
2022-06-30T10:08:58.309+02:00,5912.342559000001,0.8280029296875,0.556427001953125,-0.0997314453125,5912.332607,-3.018627417507431,0.8419713041619291,-0.6889093171280072,-4.364179134368896,2.344457864761353,-0.4684499502182007,0.1934376955032349,-0.06025594472885132,0.2806632518768311,XArbitraryZVertical,-0.3649916567922833,-0.3312515023808585,0.8659312144003299,0.08495206171162968,0.575834333896637,0.6356956362724304,-0.5141070485115051,0,0,0,-1,-1,5910.728871750001,unknown,2,2022-06-30T10:08:56.688+02:00,2022-06-30T08:20:05.567+02:00,1582,1.524751,0,0,1248.267,0,0,2022-06-30T10:08:51.596+02:00
2022-06-30T10:08:58.312+02:00,5912.352510000001,0.8380889892578125,0.6014251708984375,-0.0339508056640625,5912.342559000001,-2.979644583954592,0.8898949839985868,-0.7200154301474202,-4.228101253509521,2.215319156646729,-0.4219495356082916,0.209994375705719,-0.09521764516830444,0.3061367273330688,XArbitraryZVertical,-0.3757786593480967,-0.3495212640131211,0.8542656057074601,0.08279911884106285,0.5841494798660278,0.6593962907791138,-0.4732505679130554,0,0,0,-1,-1,5910.728871750001,unknown,2,2022-06-30T10:08:56.688+02:00,2022-06-30T08:20:05.567+02:00,1582,1.524751,0,0,1248.267,0,0,2022-06-30T10:08:51.596+02:00
2022-06-30T10:08:58.322+02:00,5912.362462,0.85009765625,0.68853759765625,0.000885009765625,5912.352510000001,-2.938530255445522,0.9391635488539087,-0.7484627866178135,-4.140408039093018,2.166183233261108,-0.3525107800960541,0.2366380095481873,-0.1240860223770142,0.332922637462616,XArbitraryZVertical,-0.385984138910449,-0.3670005775878933,0.8425299231810077,0.08043757506614437,0.5913650989532471,0.6805132031440735,-0.4326536357402802,0,0,0,-1,-1,5910.728871750001,unknown,2,2022-06-30T10:08:56.688+02:00,2022-06-30T08:20:05.567+02:00,1582,1.524751,0,0,1248.267,0,0,2022-06-30T10:08:51.596+02:00
2022-06-30T10:08:58.332+02:00,5912.372413,0.8399810791015625,0.786590576171875,0.0171051025390625,5912.362462,-2.894701110104639,0.990899194026917,-0.77422559384786,-4.013883590698242,2.147968769073486,-0.2848009765148163,0.2400091290473938,-0.09773725271224976,0.3578048944473267,XArbitraryZVertical,-0.3960017658240695,-0.3838033078710946,0.8305565647531498,0.07780508196155152,0.598080039024353,0.6991626024246216,-0.3917552530765533,0,0,0,-1,-1,5910.728871750001,unknown,2,2022-06-30T10:08:56.688+02:00,2022-06-30T08:20:05.567+02:00,1582,1.524751,0,0,1248.267,0,0,2022-06-30T10:08:51.596+02:00
2022-06-30T10:08:58.342+02:00,5912.382365,0.839691162109375,0.92230224609375,0.0853271484375,5912.372413,-2.851473327562741,1.042644954026235,-0.7967756453748261,-3.554982423782349,2.101791381835938,-0.3388085067272186,0.2463294863700867,-0.02656817436218262,0.353145956993103,XArbitraryZVertical,-0.4055774335719853,-0.3992201257636713,0.8187851597164887,0.07563895616722992,0.6037684082984924,0.7151059508323669,-0.3522604703903198,0,0,0,-1,-1,5910.728871750001,unknown,2,2022-06-30T10:08:56.688+02:00,2022-06-30T08:20:05.567+02:00,1582,1.524751,0,0,1248.267,0,0,2022-06-30T10:08:51.596+02:00
2022-06-30T10:08:58.352+02:00,5912.392316,0.8408660888671875,1.009597778320312,0.2027587890625,5912.382365,-2.81333935676451,1.090742607682043,-0.8153303560498211,-2.873592853546143,2.035470724105835,-0.3381413817405701,0.2318496704101562,0.05863857269287109,0.3337469100952148,XArbitraryZVertical,-0.4144430248651804,-0.4122090202730276,0.8079276730248107,0.0746568126951357,0.6081315279006958,0.7279521226882935,-0.3166414201259613,0,0,0,-1,-1,5910.728871750001,unknown,2,2022-06-30T10:08:56.688+02:00,2022-06-30T08:20:05.567+02:00,1582,1.524751,0,0,1248.267,0,0,2022-06-30T10:08:51.596+02:00
2022-06-30T10:08:58.362+02:00,5912.402267,0.8389739990234375,0.953125,0.4320526123046875,5912.392316,-2.782052525133734,1.133532251884641,-0.8289818788462497,-2.188579559326172,1.9530348777771,-0.2116274833679199,0.2276318073272705,0.1850584745407104,0.3714302778244019,XArbitraryZVertical,-0.4227731786392439,-0.4221510689652248,0.7984209663857845,0.07466811730749251,0.612059473991394,0.7372438907623291,-0.2861026227474213,0,0,0,-1,-1,5910.728871750001,unknown,2,2022-06-30T10:08:56.688+02:00,2022-06-30T08:20:05.567+02:00,1582,1.524751,0,0,1248.267,0,0,2022-06-30T10:08:51.596+02:00
2022-06-30T10:08:58.372+02:00,5912.412219000001,0.83953857421875,0.7852935791015625,0.71807861328125,5912.402267,-2.757823759354406,1.170143408147311,-0.8377744014669103,-1.532589793205261,1.789594292640686,-0.07256466150283813,0.2247374653816223,0.2664420604705811,0.4637286365032196,XArbitraryZVertical,-0.430584677382871,-0.4290829269555496,0.7904557564368334,0.07526235476846307,0.61612868309021,0.7431557774543762,-0.260969340801239,0,0,0,-1,-1,5910.728871750001,unknown,2,2022-06-30T10:08:56.688+02:00,2022-06-30T08:20:05.567+02:00,1582,1.524751,0,0,1248.267,0,0,2022-06-30T10:08:51.596+02:00
2022-06-30T10:08:58.382+02:00,5912.422170000001,0.852020263671875,0.614105224609375,1.014556884765625,5912.412219000001,-2.740052837231799,1.200073275006515,-0.8430265957922158,-1.115962028503418,1.552247166633606,-0.01395504921674728,0.2189584970474243,0.2064651846885681,0.6730501651763916,XArbitraryZVertical,-0.4375581937451188,-0.4336407271798606,0.7840220527766287,0.07620936057200536,0.620015561580658,0.7466598749160767,-0.2409970909357071,0,0,0,-1,-1,5910.728871750001,unknown,2,2022-06-30T10:08:56.688+02:00,2022-06-30T08:20:05.567+02:00,1582,1.524751,0,0,1248.267,0,0,2022-06-30T10:08:51.596+02:00
2022-06-30T10:08:58.392+02:00,5912.432122,0.8775482177734375,0.4973602294921875,1.236953735351562,5912.422170000001,-2.724743336406027,1.225274371663649,-0.8470548099158312,-1.154454588890076,1.194338798522949,-0.03961247205734253,0.2164820432662964,0.03596025705337524,0.942355751991272,XArbitraryZVertical,-0.4433017803994274,-0.4374301985484335,0.7786064247328794,0.07687928502444276,0.6230565905570984,0.749333381652832,-0.2242767065763474,0,0,0,-1,-1,5910.728871750001,unknown,2,2022-06-30T10:08:56.688+02:00,2022-06-30T08:20:05.567+02:00,1582,1.524751,0,0,1248.267,0,0,2022-06-30T10:08:51.596+02:00
2022-06-30T10:08:58.402+02:00,5912.442073,0.882537841796875,0.4958953857421875,1.393356323242188,5912.432122,-2.705076236149332,1.249226106194108,-0.8522248440386795,-1.680910229682922,0.6235638856887817,-0.0817747488617897,0.2274550795555115,-0.1386415958404541,1.222620725631714,XArbitraryZVertical,-0.4472583543224448,-0.4426379039594359,0.7734663227908052,0.07603645593240867,0.6245653033256531,0.7527468800544739,-0.2080633044242859,0,0,0,-1,-1,5910.728871750001,unknown,2,2022-06-30T10:08:56.688+02:00,2022-06-30T08:20:05.567+02:00,1582,1.524751,0,0,1248.267,0,0,2022-06-30T10:08:51.596+02:00
2022-06-30T10:08:58.412+02:00,5912.452025000001,0.8266754150390625,0.646453857421875,1.505706787109375,5912.442073,-2.676779180665712,1.273113041144222,-0.8590174551379856,-2.27850341796875,-0.1272493749856949,-0.07125525921583176,0.2530943155288696,-0.2598408460617065,1.428536534309387,XArbitraryZVertical,-0.4487818200690518,-0.4503373581925819,0.7684635840766695,0.07249115779382811,0.6244540214538574,0.7572011351585388,-0.1915822774171829,0,0,0,-1,-1,5910.728871750001,unknown,2,2022-06-30T10:08:56.688+02:00,2022-06-30T08:20:05.567+02:00,1582,1.524751,0,0,1248.267,0,0,2022-06-30T10:08:51.596+02:00
2022-06-30T10:08:58.422+02:00,5912.461976000001,0.7335052490234375,0.8154754638671875,1.54327392578125,5912.452025000001,-2.639868022774928,1.295905912112461,-0.8665706922013976,-2.747432708740234,-0.9318958520889282,-0.02196277491748333,0.259402334690094,-0.2662177085876465,1.569099903106689,XArbitraryZVertical,-0.4475350865621486,-0.4602616557792087,0.7638959152095645,0.06583745337457717,0.6231355667114258,0.7621131539344788,-0.1757431030273438,0,0,0,-1,-1,5910.728871750001,unknown,2,2022-06-30T10:08:56.688+02:00,2022-06-30T08:20:05.567+02:00,1582,1.524751,0,0,1248.267,0,0,2022-06-30T10:08:51.596+02:00
2022-06-30T10:08:58.432+02:00,5912.471928,0.6139068603515625,0.91729736328125,1.507888793945312,5912.461976000001,-2.597968869921244,1.314553334864568,-0.8741168283286805,-2.831222295761108,-1.765425562858582,-0.02710400708019733,0.2059522271156311,-0.1205231547355652,1.668338418006897,XArbitraryZVertical,-0.4432464632831271,-0.4713989757792477,0.7603407185372423,0.05654802117246165,0.6207233071327209,0.766977071762085,-0.1626311540603638,0,0,0,-1,-1,5910.728871750001,unknown,2,2022-06-30T10:08:56.688+02:00,2022-06-30T08:20:05.567+02:00,1582,1.524751,0,0,1248.267,0,0,2022-06-30T10:08:51.596+02:00
2022-06-30T10:08:58.442+02:00,5912.481879,0.4827728271484375,1.029098510742188,1.44012451171875,5912.471928,-2.558073803690766,1.323218383615349,-0.8815024869242466,-2.457269668579102,-2.663738012313843,-0.1413848102092743,0.1169049739837646,0.04378020763397217,1.69912850856781,XArbitraryZVertical,-0.435367968930847,-0.4822112460542999,0.7588358932577731,0.04577382744057008,0.6166003942489624,0.7716953158378601,-0.1558540910482407,0,0,0,-1,-1,5910.728871750001,unknown,2,2022-06-30T10:08:56.688+02:00,2022-06-30T08:20:05.567+02:00,1582,1.524751,0,0,1248.267,0,0,2022-06-30T10:08:51.596+02:00
2022-06-30T10:08:58.452+02:00,5912.49183,0.32958984375,1.173324584960938,1.407608032226562,5912.481879,-2.525186884321226,1.317527043578276,-0.8889394236374722,-1.970231771469116,-3.601519346237183,-0.2666681706905365,0.003776490688323975,0.1408937573432922,1.665807723999023,XArbitraryZVertical,-0.4234822636788936,-0.4916335526716805,0.7601230867499944,0.03423962037429184,0.6101306080818176,0.7764037847518921,-0.1579184383153915,0,0,0,-1,-1,5910.728871750001,unknown,2,2022-06-30T10:08:56.688+02:00,2022-06-30T08:20:05.567+02:00,1582,1.524751,0,0,1248.267,0,0,2022-06-30T10:08:51.596+02:00
2022-06-30T10:08:58.462+02:00,5912.501782,0.160552978515625,1.261367797851562,1.381942749023438,5912.49183,-2.498790645525205,1.297500875542671,-0.8966539730760806,-1.685141563415527,-4.551908493041992,-0.3582203090190887,-0.1182875037193298,0.2478559613227844,1.608607769012451,XArbitraryZVertical,-0.4074907360756974,-0.4997098043192419,0.7640505764692058,0.02163911363269646,0.6010605096817017,0.7812426090240479,-0.1684828251600266,0,0,0,-1,-1,5910.728871750001,unknown,2,2022-06-30T10:08:56.688+02:00,2022-06-30T08:20:05.567+02:00,1582,1.524751,0,0,1248.267,0,0,2022-06-30T10:08:51.596+02:00
2022-06-30T10:08:58.471+02:00,5912.511733,0.0502166748046875,1.278289794921875,1.394195556640625,5912.501782,-2.475640358987395,1.265841359158321,-0.9050201455327882,-1.559406280517578,-5.441256523132324,-0.4247591197490692,-0.2595808506011963,0.3868870139122009,1.593064069747925,XArbitraryZVertical,-0.3875211504870692,-0.5070498924662616,0.7698527393896771,0.007393275110541115,0.5891709327697754,0.7864375710487366,-0.1854555308818817,0,0,0,-1,-1,5910.728871750001,unknown,2,2022-06-30T10:08:56.688+02:00,2022-06-30T08:20:05.567+02:00,1582,1.524751,0,0,1248.267,0,0,2022-06-30T10:08:51.596+02:00
2022-06-30T10:08:58.481+02:00,5912.521685000001,-0.012786865234375,1.25445556640625,1.404052734375,5912.511733,-2.454382765188682,1.224272755421145,-0.913943473876183,-1.523917317390442,-6.289238929748535,-0.4262861013412476,-0.4137782454490662,0.4694498777389526,1.589330792427063,XArbitraryZVertical,-0.3638617320295198,-0.5137225717099078,0.776928602506853,-0.0087033533596868,0.5743314027786255,0.7919178605079651,-0.2073875218629837,0,0,0,-1,-1,5910.728871750001,unknown,2,2022-06-30T10:08:56.688+02:00,2022-06-30T08:20:05.567+02:00,1582,1.524751,0,0,1248.267,0,0,2022-06-30T10:08:51.596+02:00
2022-06-30T10:08:58.491+02:00,5912.531636000001,-0.0812835693359375,1.174163818359375,1.31475830078125,5912.521685000001,-2.433136748324397,1.174227817421024,-0.9236207681099073,-1.592509627342224,-7.160614013671875,-0.4543837606906891,-0.5059260129928589,0.480499804019928,1.6270831823349,XArbitraryZVertical,-0.3364694383601626,-0.5199468635199134,0.7846739318225746,-0.02702706843640235,0.5561428666114807,0.7977899312973022,-0.2328871488571167,0,0,0,-1,-1,5910.728871750001,unknown,2,2022-06-30T10:08:56.688+02:00,2022-06-30T08:20:05.567+02:00,1582,1.524751,0,0,1248.267,0,0,2022-06-30T10:08:51.596+02:00
2022-06-30T10:08:58.501+02:00,5912.541588,-0.175262451171875,1.151168823242188,1.134902954101562,5912.531636000001,-2.412154035605461,1.115533370611566,-0.934649965376512,-1.615219712257385,-8.014551162719727,-0.5116180181503296,-0.5463748574256897,0.4500643610954285,1.665278077125549,XArbitraryZVertical,-0.3051247658808175,-0.5256295683347986,0.7926941879549184,-0.04741639993314022,0.533588171005249,0.8043911457061768,-0.2612248659133911,0,0,0,-1,-1,5910.728871750001,unknown,2,2022-06-30T10:08:56.688+02:00,2022-06-30T08:20:05.567+02:00,1582,1.524751,0,0,1248.267,0,0,2022-06-30T10:08:51.596+02:00
2022-06-30T10:08:58.511+02:00,5912.551539,-0.420654296875,1.209518432617188,0.7867279052734375,5912.541588,-2.391969532000163,1.04816557308431,-0.9464964835194176,-1.582378149032593,-8.779592514038086,-0.452579528093338,-0.5877833962440491,0.3627913594245911,1.606533288955688,XArbitraryZVertical,-0.2700323174640774,-0.5302784503110083,0.8006276309862139,-0.06987789228070114,0.5065001249313354,0.8113725781440735,-0.2917746305465698,0,0,0,-1,-1,5910.728871750001,unknown,2,2022-06-30T10:08:56.688+02:00,2022-06-30T08:20:05.567+02:00,1582,1.524751,0,0,1248.267,0,0,2022-06-30T10:08:51.596+02:00
2022-06-30T10:08:58.522+02:00,5912.56149,-0.7760467529296875,1.3084716796875,0.50927734375,5912.551539,-2.372408267834887,0.9741652339648311,-0.9582934518620635,-1.669757962226868,-9.257468223571777,-0.3335888981819153,-0.6508527994155884,0.3329572081565857,1.4579256772995,XArbitraryZVertical,-0.2321507467587747,-0.5334743325078005,0.8078606685905471,-0.09419359196197512,0.4755906462669373,0.8182116150856018,-0.323022335767746,0,0,0,-1,-1,5910.728871750001,unknown,2,2022-06-30T10:08:56.688+02:00,2022-06-30T08:20:05.567+02:00,1582,1.524751,0,0,1248.267,0,0,2022-06-30T10:08:51.596+02:00
2022-06-30T10:08:58.531+02:00,5912.571442,-1.132522583007812,1.317657470703125,0.201995849609375,5912.56149,-2.349320721260871,0.8995522198618874,-0.9713567144205163,-1.950782179832458,-9.518261909484863,-0.2168641239404678,-0.8624343276023865,0.3838666677474976,1.137626051902771,XArbitraryZVertical,-0.1925049484930074,-0.5361836604545243,0.8130399466972322,-0.1200633174298825,0.4417804181575775,0.8256518840789795,-0.3508978486061096,0,0,0,-1,-1,5910.728871750001,unknown,2,2022-06-30T10:08:56.688+02:00,2022-06-30T08:20:05.567+02:00,1582,1.524751,0,0,1248.267,0,0,2022-06-30T10:08:51.596+02:00
2022-06-30T10:08:58.541+02:00,5912.581393,-1.381103515625,1.597763061523438,-0.1162872314453125,5912.571442,-2.323876893442699,0.8259260501438539,-0.9851699550759347,-2.040509939193726,-9.491138458251953,0.01086081843823195,-1.182393908500671,0.4751055836677551,0.8839545249938965,XArbitraryZVertical,-0.1522623907450734,-0.5380313437560825,0.8159757242171584,-0.1467039570434552,0.4063474833965302,0.8333660364151001,-0.3746768832206726,0,0,0,-1,-1,5910.728871750001,unknown,2,2022-06-30T10:08:56.688+02:00,2022-06-30T08:20:05.567+02:00,1582,1.524751,0,0,1248.267,0,0,2022-06-30T10:08:51.596+02:00
2022-06-30T10:08:58.551+02:00,5912.591345000001,-1.596694946289062,1.439590454101562,3.670394897460938,5912.581393,-2.291450720939268,0.7594587898737086,-0.9975675731003276,-2.244644641876221,-9.344141006469727,0.802189826965332,-1.50594425201416,0.4775031805038452,0.5953112840652466,XArbitraryZVertical,-0.1133260673156147,-0.5389801759140097,0.816148497290083,-0.1748118122547913,0.3734219968318939,0.840154230594635,-0.3933151364326477,0,0,0,-1,-1,5910.728871750001,unknown,2,2022-06-30T10:08:56.688+02:00,2022-06-30T08:20:05.567+02:00,1582,1.524751,0,0,1248.267,0,0,2022-06-30T10:08:51.596+02:00
2022-06-30T10:08:58.561+02:00,5912.601296000001,-8.335769653320312,-0.0206298828125,-10.65255737304688,5912.591345000001,-2.284418687794468,0.6678225380645003,-0.9967433201084492,4.336441993713379,-8.62930965423584,-2.070219755172729,-1.717395544052124,0.7580560445785522,0.3100926876068115,XArbitraryZVertical,-0.07416130149333872,-0.5303869237338493,0.81989672150814,-0.2023836234937728,0.3362924754619598,0.8397069573402405,-0.4263796210289001,0,0,0,-1,-1,5910.728871750001,unknown,2,2022-06-30T10:08:56.688+02:00,2022-06-30T08:20:05.567+02:00,1582,1.524751,0,0,1248.267,0,0,2022-06-30T10:08:51.596+02:00
2022-06-30T10:08:58.571+02:00,5912.611248,-2.421051025390625,1.338027954101562,-12.16078186035156,5912.601296000001,-2.288041722192656,0.655439408838642,-1.023564969116658,-4.883401870727539,4.258950233459473,-0.7911473512649536,-1.913836479187012,0.5856220126152039,4.082898616790771,XArbitraryZVertical,-0.06354093215193754,-0.5382479997967383,0.8166824773284073,-0.1981953379939781,0.3171420097351074,0.8539683818817139,-0.4125032722949982,0,0,0,-1,-1,5910.728871750001,unknown,2,2022-06-30T10:08:56.688+02:00,2022-06-30T08:20:05.567+02:00,1582,1.524751,0,0,1248.267,0,0,2022-06-30T10:08:51.596+02:00
2022-06-30T10:08:58.581+02:00,5912.621199,-3.478286743164062,4.01275634765625,-4.818939208984375,5912.611248,-2.226314109576277,0.7128592474840922,-1.049877731895248,-2.175588369369507,-1.482733726501465,1.924252986907959,-8.661250114440918,-0.887992262840271,-10.27606678009033,XArbitraryZVertical,-0.06336617075960756,-0.5547427668809624,0.8047790386313809,-0.2014349209438333,0.3254806697368622,0.867362380027771,-0.3764903843402863,0,0,0,-1,-1,5910.728871750001,unknown,2,2022-06-30T10:08:56.688+02:00,2022-06-30T08:20:05.567+02:00,1582,1.524751,0,0,1248.267,0,0,2022-06-30T10:08:51.596+02:00
2022-06-30T10:08:58.591+02:00,5912.63115,-0.9763641357421875,1.810562133789062,-0.9818572998046875,5912.621199,-2.16631908114917,0.7670823430018202,-1.062701798178623,-3.944332599639893,2.75070858001709,0.2841529846191406,-2.758709192276001,0.4643547534942627,-11.81052207946777,XArbitraryZVertical,-0.06485011671001741,-0.5662725379517459,0.7951397465367647,-0.2070811549009355,0.337658554315567,0.873673141002655,-0.3502597510814667,0,0,0,-1,-1,5910.728871750001,unknown,2,2022-06-30T10:08:56.688+02:00,2022-06-30T08:20:05.567+02:00,1582,1.524751,0,0,1248.267,0,0,2022-06-30T10:08:51.596+02:00
2022-06-30T10:08:58.601+02:00,5912.641102000001,1.169357299804688,-0.053619384765625,1.198471069335938,5912.63115,-2.105233719123915,0.8586152173405172,-1.100011918169758,-5.178011417388916,3.986679077148438,-1.369769334793091,-3.821622610092163,3.121543407440186,-4.52252721786499,XArbitraryZVertical,-0.07287407870375559,-0.5886284193425482,0.7811580092377149,-0.1949310573826464,0.3433362543582916,0.8912127614021301,-0.2964119017124176,0,0,0,-1,-1,5910.728871750001,unknown,2,2022-06-30T10:08:56.688+02:00,2022-06-30T08:20:05.567+02:00,1582,1.524751,0,0,1248.267,0,0,2022-06-30T10:08:51.596+02:00
2022-06-30T10:08:58.611+02:00,5912.651053000001,1.071044921875,-0.1955718994140625,1.73699951171875,5912.641102000001,-2.036607096737707,0.9496682958267005,-1.131739626201669,-3.231326341629028,1.750431656837463,0.4652962386608124,-1.322053074836731,0.9054089784622192,-0.734477162361145,XArbitraryZVertical,-0.07825863876913387,-0.6084288383369998,0.7676839451363533,-0.1853408983336058,0.3456892967224121,0.9051530361175537,-0.247379869222641,0,0,0,-1,-1,5910.728871750001,unknown,2,2022-06-30T10:08:56.688+02:00,2022-06-30T08:20:05.567+02:00,1582,1.524751,0,0,1248.267,0,0,2022-06-30T10:08:51.596+02:00
2022-06-30T10:08:58.621+02:00,5912.661005,0.9824981689453125,0.677978515625,1.093521118164062,5912.651053000001,-1.976017505961698,1.018578480019323,-1.136338451672696,-2.007279872894287,1.119924426078796,1.162544846534729,0.8110029101371765,-0.9607177972793579,1.419275522232056,XArbitraryZVertical,-0.08456287330249329,-0.61842300685325,0.7588259809072436,-0.1859712322174669,0.358354777097702,0.9070983529090881,-0.2208042144775391,0,0,0,-1,-1,5910.728871750001,unknown,2,2022-06-30T10:08:56.688+02:00,2022-06-30T08:20:05.567+02:00,1582,1.524751,0,0,1248.267,0,0,2022-06-30T10:08:51.596+02:00
2022-06-30T10:08:58.631+02:00,5912.670956,0.95123291015625,1.619033813476562,-0.4595489501953125,5912.661005,-1.92307299484325,1.073975091560987,-1.145029272145248,-2.600224733352661,0.02763475477695465,-0.3559525907039642,0.7079588770866394,-1.10629415512085,1.933858633041382,XArbitraryZVertical,-0.08622702533805317,-0.6278020465122228,0.7508782433051784,-0.1860414593577058,0.3630864024162292,0.9107221961021423,-0.1968589872121811,0,0,0,-1,-1,5910.728871750001,unknown,2,2022-06-30T10:08:56.688+02:00,2022-06-30T08:20:05.567+02:00,1582,1.524751,0,0,1248.267,0,0,2022-06-30T10:08:51.596+02:00
2022-06-30T10:08:58.641+02:00,5912.680908,0.19219970703125,2.2733154296875,-1.238174438476562,5912.670956,-1.888957351703692,1.100223992880229,-1.157593508460823,-0.6396901607513428,-0.8933156132698059,-0.3248398005962372,0.6245979070663452,-0.2378608584403992,1.275580525398254,XArbitraryZVertical,-0.08122928134074962,-0.6343281854901885,0.7457932491760011,-0.1866070257845946,0.3579006791114807,0.9158394336700439,-0.182059109210968,0,0,0,-1,-1,5910.728871750001,unknown,2,2022-06-30T10:08:56.688+02:00,2022-06-30T08:20:05.567+02:00,1582,1.524751,0,0,1248.267,0,0,2022-06-30T10:08:51.596+02:00
2022-06-30T10:08:58.651+02:00,5912.690859,-0.3936767578125,2.29461669921875,-1.103713989257812,5912.680908,-1.915320101748044,1.069925357624985,-1.152476054822593,2.916101694107056,-0.2928862273693085,0.1793778240680695,0.5949058532714844,0.7052612900733948,-0.2644829452037811,XArbitraryZVertical,-0.07988261729292474,-0.6293535388596873,0.749813298358336,-0.1879177730461841,0.3563275337219238,0.9137725830078125,-0.1950657814741135,0,0,0,-1,-1,5910.728871750001,unknown,2,2022-06-30T10:08:56.688+02:00,2022-06-30T08:20:05.567+02:00,1582,1.524751,0,0,1248.267,0,0,2022-06-30T10:08:51.596+02:00
2022-06-30T10:08:58.660+02:00,5912.70081,-0.48065185546875,1.361663818359375,-0.9081268310546875,5912.690859,-1.999365518500726,0.9931614102960804,-1.132122652091685,5.018874645233154,0.1448651552200317,-0.3940747082233429,-0.1636280417442322,1.367999672889709,-1.006247758865356,XArbitraryZVertical,-0.0833975666590623,-0.6140697205327839,0.7624298787585904,-0.1861829118301911,0.3558281660079956,0.9053158164024353,-0.231926441192627,0,0,0,-1,-1,5910.728871750001,unknown,2,2022-06-30T10:08:56.688+02:00,2022-06-30T08:20:05.567+02:00,1582,1.524751,0,0,1248.267,0,0,2022-06-30T10:08:51.596+02:00
2022-06-30T10:08:58.670+02:00,5912.710762000001,-0.3589935302734375,0.5285491943359375,-0.6170654296875,5912.70081,-2.104013184451389,0.9018505506342702,-1.108408251821195,4.803266525268555,0.420221358537674,-0.9336833953857422,-0.7436206340789795,1.399626970291138,-0.8270688056945801,XArbitraryZVertical,-0.08695232325083377,-0.5950771790230607,0.7783403309277961,-0.1803021104197134,0.3499443531036377,0.8949897885322571,-0.2766448855400085,0,0,0,-1,-1,5910.728871750001,unknown,2,2022-06-30T10:08:56.688+02:00,2022-06-30T08:20:05.567+02:00,1582,1.524751,0,0,1248.267,0,0,2022-06-30T10:08:51.596+02:00
2022-06-30T10:08:58.680+02:00,5912.720713000001,-0.3466339111328125,-0.2324676513671875,-0.822235107421875,5912.710762000001,-2.180677503450804,0.84022880922965,-1.091280550156304,2.69392466545105,1.015001058578491,-1.008936166763306,-0.8242627382278442,0.4744453430175781,-0.600271463394165,XArbitraryZVertical,-0.09016848676051259,-0.581327853722313,0.7899324629368084,-0.1730153438464463,0.3436112999916077,0.8872184157371521,-0.3078551292419434,0,0,0,-1,-1,5910.728871750001,unknown,2,2022-06-30T10:08:56.688+02:00,2022-06-30T08:20:05.567+02:00,1582,1.524751,0,0,1248.267,0,0,2022-06-30T10:08:51.596+02:00
2022-06-30T10:08:58.690+02:00,5912.730665,-0.075042724609375,0.13153076171875,-1.075393676757812,5912.720713000001,-2.224080624262178,0.8155489817925886,-1.088163539152806,0.6277523636817932,1.680869102478027,-1.097259879112244,-0.6969146728515625,-0.3572269082069397,-0.298930287361145,XArbitraryZVertical,-0.09379171252737414,-0.5763121174284798,0.7951393082906378,-0.163771150193116,0.3379215598106384,0.8857761025428772,-0.3181349039077759,0,0,0,-1,-1,5910.728871750001,unknown,2,2022-06-30T10:08:56.688+02:00,2022-06-30T08:20:05.567+02:00,1582,1.524751,0,0,1248.267,0,0,2022-06-30T10:08:51.596+02:00
2022-06-30T10:08:58.700+02:00,5912.740616,-0.2333831787109375,0.58782958984375,-1.077072143554688,5912.730665,-2.225888453423873,0.8314051143048602,-1.097012314482097,-1.535645365715027,1.842615962028503,-0.4122799038887024,-0.683752179145813,-1.122315883636475,-0.5147914886474609,XArbitraryZVertical,-0.09825326444579334,-0.5801936002923967,0.793302957119569,-0.156180132332336,0.3371186256408691,0.8898481726646423,-0.3074433505535126,0,0,0,-1,-1,5910.728871750001,unknown,2,2022-06-30T10:08:56.688+02:00,2022-06-30T08:20:05.567+02:00,1582,1.524751,0,0,1248.267,0,0,2022-06-30T10:08:51.596+02:00
2022-06-30T10:08:58.710+02:00,5912.750568,-0.2884979248046875,1.151947021484375,-0.96356201171875,5912.740616,-2.203394653828353,0.8710045206330753,-1.112731152808106,-1.902728915214539,2.055209398269653,-0.6771501898765564,-0.4133252501487732,-0.7653791308403015,-0.7905820608139038,XArbitraryZVertical,-0.1030800743405414,-0.5890405896193514,0.7874656597900804,-0.1493435621088088,0.3382828831672668,0.896909773349762,-0.2848113775253296,0,0,0,-1,-1,5910.728871750001,unknown,2,2022-06-30T10:08:56.688+02:00,2022-06-30T08:20:05.567+02:00,1582,1.524751,0,0,1248.267,0,0,2022-06-30T10:08:51.596+02:00
2022-06-30T10:08:58.720+02:00,5912.760519,-0.3614654541015625,1.450515747070312,-0.8256072998046875,5912.750568,-2.192028161749169,0.9020099508693934,-1.127711522777206,-0.4824200868606567,2.136888265609741,-0.9854881763458252,-0.5697525143623352,-0.3156037926673889,-0.8112453818321228,XArbitraryZVertical,-0.1077592092555118,-0.59621699532091,0.7830428232146824,-0.1405608765136033,0.3363697230815887,0.9034334421157837,-0.2658264935016632,0,0,0,-1,-1,5910.728871750001,unknown,2,2022-06-30T10:08:56.688+02:00,2022-06-30T08:20:05.567+02:00,1582,1.524751,0,0,1248.267,0,0,2022-06-30T10:08:51.596+02:00
2022-06-30T10:08:58.730+02:00,5912.770471000001,-0.524078369140625,1.566726684570312,-0.7749481201171875,5912.760519,-2.218417255639213,0.8998461643163488,-1.131753250248889,1.674432277679443,2.232398271560669,-1.032673478126526,-0.6214285492897034,0.2467882037162781,-0.6992804408073425,XArbitraryZVertical,-0.1136614907768619,-0.5957687716066312,0.7844122829032424,-0.1297618210662573,0.3329310119152069,0.9051588177680969,-0.2642812728881836,0,0,0,-1,-1,5910.728871750001,unknown,2,2022-06-30T10:08:56.688+02:00,2022-06-30T08:20:05.567+02:00,1582,1.524751,0,0,1248.267,0,0,2022-06-30T10:08:51.596+02:00
2022-06-30T10:08:58.740+02:00,5912.780422000001,-0.5405731201171875,1.521286010742188,-0.68890380859375,5912.770471000001,-2.278149454662707,0.8687865834525944,-1.125196574989499,3.022318363189697,2.369838714599609,-1.223703384399414,-0.6905527710914612,0.5481634140014648,-0.5472877025604248,XArbitraryZVertical,-0.1208712721087741,-0.5884135497861984,0.7908394356738629,-0.1171864233414667,0.3290877044200897,0.9023523330688477,-0.2783192694187164,0,0,0,-1,-1,5910.728871750001,unknown,2,2022-06-30T10:08:56.688+02:00,2022-06-30T08:20:05.567+02:00,1582,1.524751,0,0,1248.267,0,0,2022-06-30T10:08:51.596+02:00
2022-06-30T10:08:58.750+02:00,5912.790373000001,-0.5466766357421875,1.390167236328125,-0.6490325927734375,5912.780422000001,-2.353752274712299,0.8235218377026351,-1.113990854506189,3.338370800018311,2.172493457794189,-1.485032677650452,-0.8476322293281555,0.669260561466217,-0.4751688838005066,XArbitraryZVertical,-0.1277707528158047,-0.5777414207918989,0.7995248664560439,-0.1031970795043019,0.3235542476177216,0.8974661231040955,-0.2997789680957794,0,0,0,-1,-1,5910.728871750001,unknown,2,2022-06-30T10:08:56.688+02:00,2022-06-30T08:20:05.567+02:00,1582,1.524751,0,0,1248.267,0,0,2022-06-30T10:08:51.596+02:00
2022-06-30T10:08:58.760+02:00,5912.800325,-0.567138671875,1.397186279296875,-0.5230865478515625,5912.790373000001,-2.431320772518288,0.7744899587823482,-1.102673330150665,3.182100296020508,1.948567509651184,-1.68885326385498,-0.8561286926269531,0.6288692355155945,-0.3663870692253113,XArbitraryZVertical,-0.1329524350758559,-0.5666263640962995,0.8083159940752271,-0.08878934522928891,0.3155559301376343,0.892416775226593,-0.3225164413452148,0,0,0,-1,-1,5910.728871750001,unknown,2,2022-06-30T10:08:56.688+02:00,2022-06-30T08:20:05.567+02:00,1582,1.524751,0,0,1248.267,0,0,2022-06-30T10:08:51.596+02:00
2022-06-30T10:08:58.770+02:00,5912.810276,-0.6616058349609375,1.556396484375,-0.1948699951171875,5912.800325,-2.501913715019175,0.7292487516161846,-1.0917171851712,2.853959798812866,1.558818936347961,-1.515670895576477,-0.8538198471069336,0.5027474761009216,-0.3053041696548462,XArbitraryZVertical,-0.1368238581966607,-0.5562510136499602,0.8162054574705018,-0.07531744294039425,0.3071435689926147,0.8874197602272034,-0.343728095293045,0,0,0,-1,-1,5910.728871750001,unknown,2,2022-06-30T10:08:56.688+02:00,2022-06-30T08:20:05.567+02:00,1582,1.524751,0,0,1248.267,0,0,2022-06-30T10:08:51.596+02:00
2022-06-30T10:08:58.780+02:00,5912.820228,-0.9620361328125,1.9075927734375,-0.044891357421875,5912.810276,-2.563974878924196,0.6879616220484098,-1.079756837359948,2.65031623840332,1.225312232971191,-1.367209196090698,-0.8665511012077332,0.515343189239502,-0.158799409866333,XArbitraryZVertical,-0.1394663921080526,-0.5462652433987409,0.8234504362219235,-0.06382015877654268,0.2994127869606018,0.8818431496620178,-0.3642868101596832,0,0,0,-1,-1,5910.728871750001,unknown,2,2022-06-30T10:08:56.688+02:00,2022-06-30T08:20:05.567+02:00,1582,1.524751,0,0,1248.267,0,0,2022-06-30T10:08:51.596+02:00
2022-06-30T10:08:58.790+02:00,5912.830179,-1.003631591796875,2.10125732421875,-0.380706787109375,5912.820228,-2.62277024538632,0.6489564125583243,-1.070390951457208,2.486755847930908,1.422368049621582,-1.948265671730042,-0.951563835144043,0.6790083646774292,0.1873792707920074,XArbitraryZVertical,-0.1410620700399688,-0.5375658468900838,0.8297128565980634,-0.05197161207622594,0.2899583578109741,0.8773881196975708,-0.3822489082813263,0,0,0,-1,-1,5910.728871750001,unknown,2,2022-06-30T10:08:56.688+02:00,2022-06-30T08:20:05.567+02:00,1582,1.524751,0,0,1248.267,0,0,2022-06-30T10:08:51.596+02:00
2022-06-30T10:08:58.803+02:00,5912.840131,-0.990020751953125,2.326019287109375,-0.6137237548828125,5912.830179,-2.692179468114627,0.6034437537908084,-1.059045342125191,3.440716743469238,1.563172936439514,-2.069654941558838,-1.239934206008911,1.035704493522644,0.3583251237869263,XArbitraryZVertical,-0.1425528073200155,-0.5273240125260523,0.8367902040731251,-0.03728708327592217,0.2778983414173126,0.8718883991241455,-0.403216153383255,0,0,0,-1,-1,5910.728871750001,unknown,2,2022-06-30T10:08:56.688+02:00,2022-06-30T08:20:05.567+02:00,1582,1.524751,0,0,1248.267,0,0,2022-06-30T10:08:51.596+02:00
2022-06-30T10:08:58.812+02:00,5912.850082,-1.262954711914062,2.163742065429688,-0.85009765625,5912.840131,-2.772323523063369,0.5485118912182144,-1.034818317566635,5.046326637268066,1.356964349746704,-2.168734550476074,-1.269910216331482,1.241487741470337,0.05505943298339844,XArbitraryZVertical,-0.1439652490699945,-0.5112641769947938,0.846996487939195,-0.02190923156720585,0.2662789225578308,0.8597695827484131,-0.4357658922672272,0,0,0,-1,-1,5910.728871750001,unknown,2,2022-06-30T10:08:56.688+02:00,2022-06-30T08:20:05.567+02:00,1582,1.524751,0,0,1248.267,0,0,2022-06-30T10:08:51.596+02:00
2022-06-30T10:08:58.820+02:00,5912.860033,-1.412918090820312,2.14410400390625,-0.883636474609375,5912.850082,-2.865892588357387,0.4829761086362055,-0.9944892828714305,6.72649097442627,1.458275198936462,-2.300003051757812,-1.243095755577087,1.487538576126099,-0.1311231851577759,XArbitraryZVertical,-0.1445478890533514,-0.4876533517016342,0.8609773078357964,-0.004275987621534244,0.2530753016471863,0.8384807705879211,-0.4826002418994904,0,0,0,-1,-1,5910.728871750001,unknown,2,2022-06-30T10:08:56.688+02:00,2022-06-30T08:20:05.567+02:00,1582,1.524751,0,0,1248.267,0,0,2022-06-30T10:08:51.596+02:00
2022-06-30T10:08:58.830+02:00,5912.869985,-1.681228637695312,1.805145263671875,-0.98236083984375,5912.860033,-2.955884342788639,0.4241211196696365,-0.9419242494868523,7.153182029724121,1.72411572933197,-2.386012554168701,-1.505024075508118,1.355050683021545,-0.3139812350273132,XArbitraryZVertical,-0.1456237470642703,-0.4590595583587923,0.8762723738319984,0.01431458172122641,0.2420696467161179,0.8086915016174316,-0.5361160635948181,0,0,0,-1,-1,5910.728871750001,unknown,2,2022-06-30T10:08:56.688+02:00,2022-06-30T08:20:05.567+02:00,1582,1.524751,0,0,1248.267,0,0,2022-06-30T10:08:51.596+02:00
2022-06-30T10:08:58.840+02:00,5912.879936,-1.636032104492188,1.581893920898438,-1.0579833984375,5912.869985,-3.03893051411361,0.378792456288265,-0.8893830887229641,6.44526195526123,2.401886224746704,-2.852061748504639,-1.645850896835327,1.36742091178894,-0.2983966469764709,XArbitraryZVertical,-0.1480547942973208,-0.4306507010465216,0.8895882550788162,0.03539127851419503,0.2329330593347549,0.7766833305358887,-0.5852395296096802,0,0,0,-1,-1,5910.728871750001,unknown,2,2022-06-30T10:08:56.688+02:00,2022-06-30T08:20:05.567+02:00,1582,1.524751,0,0,1248.267,0,0,2022-06-30T10:08:51.596+02:00
2022-06-30T10:08:58.853+02:00,5912.889888000001,-1.654693603515625,1.690536499023438,-1.2166748046875,5912.879936,-3.113360071667416,0.3488263914204586,-0.8452477516297029,5.262598037719727,2.986227035522461,-2.981192588806152,-1.908025145530701,1.057009935379028,-0.3587769269943237,XArbitraryZVertical,-0.152544753090581,-0.4061259815144024,0.8990944795968834,0.05848865123913406,0.2267967760562897,0.748135507106781,-0.6235835552215576,0,0,0,-1,-1,5910.728871750001,unknown,2,2022-06-30T10:08:56.688+02:00,2022-06-30T08:20:05.567+02:00,1582,1.524751,0,0,1248.267,0,0,2022-06-30T10:08:51.596+02:00
2022-06-30T10:08:58.860+02:00,5912.899839000001,-1.769287109375,2.10491943359375,-1.4952392578125,5912.889888000001,3.105348253006583,0.3346089018342742,-0.8101984216110278,4.396356582641602,3.714054346084595,-2.929354429244995,-1.862415790557861,0.8574701547622681,-0.4068607091903687,XArbitraryZVertical,-0.1600639414718594,-0.3857698244641038,0.9048926521684927,0.08204037738859414,0.2263839691877365,0.7244239449501038,-0.6511223316192627,0,0,0,-1,-1,5910.728871750001,unknown,2,2022-06-30T10:08:56.688+02:00,2022-06-30T08:20:05.567+02:00,1582,1.524751,0,0,1248.267,0,0,2022-06-30T10:08:51.596+02:00
2022-06-30T10:08:58.869+02:00,5912.909791,-1.965225219726562,2.4605712890625,-1.6767578125,5912.899839000001,3.044468946963109,0.3318895083044734,-0.7789461212716968,4.509544372558594,4.472643375396729,-3.167221784591675,-1.886571645736694,0.9880068898200989,-0.5438562631607056,XArbitraryZVertical,-0.17081179669557,-0.3666254620061919,0.9082805745317413,0.1069371152938578,0.2318783402442932,0.7025297880172729,-0.6728181838989258,0,0,0,-1,-1,5910.728871750001,unknown,2,2022-06-30T10:08:56.688+02:00,2022-06-30T08:20:05.567+02:00,1582,1.524751,0,0,1248.267,0,0,2022-06-30T10:08:51.596+02:00
2022-06-30T10:08:58.880+02:00,5912.919742,-2.14044189453125,2.612930297851562,-1.56817626953125,5912.909791,2.978037363749276,0.3342883161436317,-0.7428525806708431,5.548618793487549,5.209466457366943,-3.571249008178711,-2.010944128036499,1.428528070449829,-0.7994687557220459,XArbitraryZVertical,-0.1837389706448918,-0.3440274765566149,0.9108218872318542,0.1352358604387806,0.2416572421789169,0.6763917207717896,-0.6957701444625854,0,0,0,-1,-1,5910.728871750001,unknown,2,2022-06-30T10:08:56.688+02:00,2022-06-30T08:20:05.567+02:00,1582,1.524751,0,0,1248.267,0,0,2022-06-30T10:08:51.596+02:00
2022-06-30T10:08:58.889+02:00,5912.929693,-2.339736938476562,2.598953247070312,-1.35589599609375,5912.919742,2.905578498681364,0.3417841405500629,-0.697718139938747,6.607795715332031,5.90756368637085,-3.735691785812378,-2.222068071365356,1.818100810050964,-0.9547720551490784,XArbitraryZVertical,-0.1983641487745994,-0.3156880518700392,0.912789598031635,0.166756969940998,0.256843090057373,0.6424707770347595,-0.7219854593276978,0,0,0,-1,-1,5910.728871750001,unknown,2,2022-06-30T10:08:56.688+02:00,2022-06-30T08:20:05.567+02:00,1582,1.524751,0,0,1248.267,0,0,2022-06-30T10:08:51.596+02:00
2022-06-30T10:08:58.899+02:00,5912.939645,-2.530746459960938,2.758224487304688,-1.101547241210938,5912.929693,2.828940189607707,0.3555080032938373,-0.6455500354899787,7.308693408966064,6.39472770690918,-4.046708106994629,-2.418466567993164,2.011292695999146,-0.8193541765213013,XArbitraryZVertical,-0.2142501845625324,-0.2822870227572244,0.9133015169173793,0.2007268949985481,0.2780248522758484,0.6016378998756409,-0.7488217949867249,0,0,0,-1,-1,5910.728871750001,unknown,2,2022-06-30T10:08:56.688+02:00,2022-06-30T08:20:05.567+02:00,1582,1.524751,0,0,1248.267,0,0,2022-06-30T10:08:51.596+02:00
2022-06-30T10:08:58.909+02:00,5912.949596,-2.718185424804688,2.683303833007812,-0.9199066162109375,5912.939645,2.747872628183651,0.3741426223563238,-0.5920400644396282,7.331521034240723,6.848214626312256,-4.521214962005615,-2.643008947372437,2.040898561477661,-0.5834964513778687,XArbitraryZVertical,-0.2305184116934851,-0.2462958948764103,0.9110534465506842,0.2370257280522216,0.3032722473144531,0.55805504322052,-0.7723991870880127,0,0,0,-1,-1,5910.728871750001,unknown,2,2022-06-30T10:08:56.688+02:00,2022-06-30T08:20:05.567+02:00,1582,1.524751,0,0,1248.267,0,0,2022-06-30T10:08:51.596+02:00
2022-06-30T10:08:58.919+02:00,5912.959548000001,-2.685836791992188,2.752639770507812,-0.754730224609375,5912.949596,2.665245690779526,0.401141573188394,-0.5449564204854578,6.60753059387207,7.480568408966064,-4.85153341293335,-2.864656448364258,2.239844083786011,-0.3142824172973633,XArbitraryZVertical,-0.248681808861788,-0.211009683760719,0.9045070196105361,0.2747714926773266,0.3339099884033203,0.5183808207511902,-0.7872645258903503,0,0,0,-1,-1,5910.728871750001,unknown,2,2022-06-30T10:08:56.688+02:00,2022-06-30T08:20:05.567+02:00,1582,1.524751,0,0,1248.267,0,0,2022-06-30T10:08:51.596+02:00
2022-06-30T10:08:58.929+02:00,5912.969497416667,-2.755523681640625,3.159652709960938,-0.7090606689453125,5912.959548000001,2.585033374331074,0.4367948060971288,-0.5097583938953514,5.539014339447021,7.763967990875244,-4.981261253356934,-3.087438821792603,2.195337772369385,-0.1289950013160706,XArbitraryZVertical,-0.2692147234606137,-0.1790747130207717,0.8933574923831766,0.3120388382350799,0.3692534565925598,0.4879663586616516,-0.7909113764762878,0,0,0,-1,-1,5910.728871750001,unknown,2,2022-06-30T10:08:56.688+02:00,2022-06-30T08:20:05.567+02:00,1582,1.524751,0,0,1248.267,0,0,2022-06-30T10:08:51.596+02:00
2022-06-30T10:08:58.939+02:00,5912.979449416667,-2.936859130859375,3.701507568359375,-0.7841644287109375,5912.969497416667,2.507661441266035,0.4786323012171271,-0.4847140736794177,5.169711112976074,8.091131210327148,-5.077648639678955,-3.093348979949951,2.28668475151062,0.03064852952957153,XArbitraryZVertical,-0.2913178787278204,-0.1498153699955206,0.878396974493529,0.3480058518102406,0.4075122475624084,0.465955376625061,-0.7853785157203674,0,0,0,-1,-1,5910.728871750001,unknown,2,2022-06-30T10:08:56.688+02:00,2022-06-30T08:20:05.567+02:00,1582,1.524751,0,0,1248.267,0,0,2022-06-30T10:08:51.596+02:00
2022-06-30T10:08:58.949+02:00,5912.989400416667,-3.072036743164062,4.02203369140625,-0.7317352294921875,5912.979449416667,2.428314906056459,0.5249548087915851,-0.4622528272234187,5.701022148132324,8.485795974731445,-5.170648097991943,-3.204099416732788,2.713687419891357,0.0654681921005249,XArbitraryZVertical,-0.3139178133326573,-0.1191272828928744,0.8601649435769628,0.3839020832461648,0.4485757648944855,0.4459656178951263,-0.7745286226272583,0,0,0,-1,-1,5910.728871750001,unknown,2,2022-06-30T10:08:56.688+02:00,2022-06-30T08:20:05.567+02:00,1582,1.524751,0,0,1248.267,0,0,2022-06-30T10:08:51.596+02:00
2022-06-30T10:08:58.959+02:00,5912.999351416667,-3.175033569335938,4.23101806640625,-0.4728851318359375,5912.989400416667,2.343677965634775,0.5737715554096477,-0.4365749057566514,6.717136383056641,8.690083503723145,-5.195688247680664,-3.428750514984131,3.278669834136963,-0.02307891845703125,XArbitraryZVertical,-0.3352422754654218,-0.08408312590855027,0.8390288147155474,0.4202062250055568,0.4918913543224335,0.4228381216526031,-0.7610852718353271,0,0,0,-1,-1,5910.728871750001,unknown,2,2022-06-30T10:08:56.688+02:00,2022-06-30T08:20:05.567+02:00,1582,1.524751,0,0,1248.267,0,0,2022-06-30T10:08:51.596+02:00
2022-06-30T10:08:58.969+02:00,5913.009303416667,-3.30230712890625,4.381317138671875,-0.118408203125,5912.999351416667,2.251867360002748,0.6226935036173188,-0.406349147842248,7.758489608764648,8.697291374206543,-5.304769039154053,-3.607769966125488,3.626775741577148,0.01442897319793701,XArbitraryZVertical,-0.3534946794412275,-0.0442660860477267,0.8149963867090217,0.4570153736961263,0.5357332229614258,0.3952583968639374,-0.7461640238761902,0,0,0,-1,-1,5910.728871750001,unknown,2,2022-06-30T10:08:56.688+02:00,2022-06-30T08:20:05.567+02:00,1582,1.524751,0,0,1248.267,0,0,2022-06-30T10:08:51.596+02:00
2022-06-30T10:08:58.979+02:00,5913.019254416667,-3.313095092773438,4.459243774414062,0.108154296875,5913.009303416667,2.153320979446506,0.6719212623305402,-0.3750244607385648,8.225016593933105,8.745967864990234,-5.523125648498535,-3.754260540008545,3.864723205566406,0.2553485631942749,XArbitraryZVertical,-0.3686210704610511,-0.001325908705782407,0.7874439286484326,0.4940129058601976,0.5792267918586731,0.3662952780723572,-0.7282335162162781,0,0,0,-1,-1,5910.728871750001,unknown,2,2022-06-30T10:08:56.688+02:00,2022-06-30T08:20:05.567+02:00,1582,1.524751,0,0,1248.267,0,0,2022-06-30T10:08:51.596+02:00
2022-06-30T10:08:58.989+02:00,5913.029206416667,-3.227432250976562,4.65301513671875,0.252227783203125,5913.019254416667,2.050734797386373,0.7222294321627435,-0.3482370493659699,8.261684417724609,8.602107048034668,-5.779368877410889,-3.923686742782593,4.04007625579834,0.586887538433075,XArbitraryZVertical,-0.3815632124465809,0.04197257266565752,0.7559196663322327,0.530314481033883,0.6213796138763428,0.3412412106990814,-0.7052956223487854,0,0,0,-1,-1,5910.728871750001,unknown,2,2022-06-30T10:08:56.688+02:00,2022-06-30T08:20:05.567+02:00,1582,1.524751,0,0,1248.267,0,0,2022-06-30T10:08:51.596+02:00
2022-06-30T10:08:58.999+02:00,5913.039157416667,-3.232864379882812,4.722244262695312,0.308685302734375,5913.029206416667,1.946935112749586,0.7726036165332884,-0.3272645592552758,8.195216178894043,8.441122055053711,-5.796664714813232,-3.974050998687744,4.137790203094482,0.7862434983253479,XArbitraryZVertical,-0.3922343950342272,0.08430662861500997,0.7211588784217081,0.5647782672584848,0.6609557271003723,0.3214539885520935,-0.6780891418457031,0,0,0,-1,-1,5910.728871750001,unknown,2,2022-06-30T10:08:56.688+02:00,2022-06-30T08:20:05.567+02:00,1582,1.524751,0,0,1248.267,0,0,2022-06-30T10:08:51.596+02:00
2022-06-30T10:08:59.009+02:00,5913.049109416667,-3.209213256835938,4.842483520507812,0.304656982421875,5913.039157416667,1.843241155472862,0.8234179661103073,-0.3122766314763564,8.039881706237793,8.315537452697754,-5.865925788879395,-3.925432443618774,4.345789432525635,0.899072527885437,XArbitraryZVertical,-0.4010472241006368,0.1254542649822436,0.6835185337470243,0.5968456559752591,0.6980000734329224,0.3072259426116943,-0.6468446850776672,0,0,0,-1,-1,5910.728871750001,unknown,2,2022-06-30T10:08:56.688+02:00,2022-06-30T08:20:05.567+02:00,1582,1.524751,0,0,1248.267,0,0,2022-06-30T10:08:51.596+02:00
2022-06-30T10:08:59.019+02:00,5913.059060416667,-3.175918579101562,5.04498291015625,0.39935302734375,5913.049109416667,1.740518682920499,0.8742175394860285,-0.3038994370508823,7.854681015014648,8.136001586914062,-5.862771511077881,-3.964757919311523,4.423001289367676,0.9208825826644897,XArbitraryZVertical,-0.4082995660641662,0.1649024834233286,0.6433318463211896,0.6262770104312194,0.7318934798240662,0.2992432117462158,-0.6121972799301147,0,0,0,-1,-1,5910.728871750001,unknown,2,2022-06-30T10:08:56.688+02:00,2022-06-30T08:20:05.567+02:00,1582,1.524751,0,0,1248.267,0,0,2022-06-30T10:08:51.596+02:00
2022-06-30T10:08:59.029+02:00,5913.069012416667,-3.1737060546875,5.220367431640625,0.48089599609375,5913.059060416667,1.638961474347234,0.923648603328268,-0.3011043538448406,7.784685611724854,7.878037929534912,-5.839086532592773,-3.971126556396484,4.54590892791748,0.8804449439048767,XArbitraryZVertical,-0.4135983048337419,0.2025893969734288,0.6012157893021067,0.653018808179501,0.7619130611419678,0.2965750694274902,-0.5757879614830017,0,0,0,-1,-1,5910.728871750001,unknown,2,2022-06-30T10:08:56.688+02:00,2022-06-30T08:20:05.567+02:00,1582,1.524751,0,0,1248.267,0,0,2022-06-30T10:08:51.596+02:00
2022-06-30T10:08:59.039+02:00,5913.078963416667,-3.105392456054688,5.278976440429688,0.5388641357421875,5913.069012416667,1.536271821099644,0.969844528456795,-0.3029969673282495,8.004510879516602,7.536819458007812,-6.006024360656738,-3.963144302368164,4.746601104736328,0.939023494720459,XArbitraryZVertical,-0.4161909486630642,0.2386416044240439,0.5570569727591841,0.6778810648698266,0.7872253656387329,0.2983819842338562,-0.5396705865859985,0,0,0,-1,-1,5910.728871750001,unknown,2,2022-06-30T10:08:56.688+02:00,2022-06-30T08:20:05.567+02:00,1582,1.524751,0,0,1248.267,0,0,2022-06-30T10:08:51.596+02:00
2022-06-30T10:08:59.049+02:00,5913.088914416667,-2.956146240234375,5.279983520507812,0.5835418701171875,5913.078963416667,1.430428868728258,1.011239397369076,-0.3093613106370977,8.26341438293457,7.19581413269043,-6.160866737365723,-3.980964660644531,4.91591739654541,0.9865080714225769,XArbitraryZVertical,-0.4155922119364078,0.2729047403446921,0.5105393645557222,0.7015381155317034,0.8072585463523865,0.3044503331184387,-0.5056122541427612,0,0,0,-1,-1,5910.728871750001,unknown,2,2022-06-30T10:08:56.688+02:00,2022-06-30T08:20:05.567+02:00,1582,1.524751,0,0,1248.267,0,0,2022-06-30T10:08:51.596+02:00
2022-06-30T10:08:59.059+02:00,5913.098866416667,-2.782928466796875,5.296875,0.7121734619140625,5913.088914416667,1.321959798360413,1.047197876905843,-0.3193601936166852,8.450627326965332,6.761252880096436,-6.247395038604736,-3.927628993988037,4.965017318725586,1.013581991195679,XArbitraryZVertical,-0.4117397126118783,0.3051416166443208,0.4621238529240179,0.7237407399387931,0.8222362995147705,0.3139591813087463,-0.4747180044651031,0,0,0,-1,-1,5910.728871750001,unknown,2,2022-06-30T10:08:56.688+02:00,2022-06-30T08:20:05.567+02:00,1582,1.524751,0,0,1248.267,0,0,2022-06-30T10:08:51.596+02:00
2022-06-30T10:08:59.069+02:00,5913.108817416667,-2.596145629882812,5.235809326171875,0.83624267578125,5913.098866416667,1.212162948169639,1.0769906036087,-0.3329792315075685,8.426085472106934,6.296847343444824,-6.327187061309814,-3.788316488265991,4.953123569488525,1.031487584114075,XArbitraryZVertical,-0.4050319212565236,0.3346283750237387,0.4124212323762242,0.7442324015727216,0.8321700692176819,0.3268600702285767,-0.4479459822177887,0,0,0,-1,-1,5910.728871750001,unknown,2,2022-06-30T10:08:56.688+02:00,2022-06-30T08:20:05.567+02:00,1582,1.524751,0,0,1248.267,0,0,2022-06-30T10:08:51.596+02:00
2022-06-30T10:08:59.078+02:00,5913.118769416667,-2.43096923828125,5.321990966796875,0.9232635498046875,5913.108817416667,1.103033131525771,1.100903412232252,-0.3507390708283185,8.192298889160156,5.850272655487061,-6.401633739471436,-3.62026309967041,4.953283309936523,1.137397766113281,XArbitraryZVertical,-0.3965281026277522,0.360767526070823,0.3620018409960353,0.762605462162719,0.8373343944549561,0.3435919880867004,-0.4252245128154755,0,0,0,-1,-1,5910.728871750001,unknown,2,2022-06-30T10:08:56.688+02:00,2022-06-30T08:20:05.567+02:00,1582,1.524751,0,0,1248.267,0,0,2022-06-30T10:08:51.596+02:00
2022-06-30T10:08:59.088+02:00,5913.128720416667,-2.390884399414062,5.417343139648438,1.003952026367188,5913.118769416667,0.9966704093478811,1.11948365742877,-0.3726880605342063,7.729365348815918,5.463463306427002,-6.476137638092041,-3.43424654006958,4.871689319610596,1.242448925971985,XArbitraryZVertical,-0.3872902313023749,0.38327927339101,0.3116041306212277,0.7784641021619905,0.838100790977478,0.3641202747821808,-0.4062065482139587,0,0,0,-1,-1,5910.728871750001,unknown,2,2022-06-30T10:08:56.688+02:00,2022-06-30T08:20:05.567+02:00,1582,1.524751,0,0,1248.267,0,0,2022-06-30T10:08:51.596+02:00
2022-06-30T10:08:59.098+02:00,5913.138672416667,-2.2894287109375,5.538299560546875,1.27545166015625,5913.128720416667,0.8935708396453178,1.133378376470532,-0.399978243513699,7.26953649520874,5.136682033538818,-6.693415641784668,-3.265318870544434,4.932592868804932,1.313430070877075,XArbitraryZVertical,-0.3784823647150454,0.4020792149547582,0.2610837710345962,0.791781961897841,0.8343493342399597,0.3893983066082001,-0.3901668190956116,0,0,0,-1,-1,5910.728871750001,unknown,2,2022-06-30T10:08:56.688+02:00,2022-06-30T08:20:05.567+02:00,1582,1.524751,0,0,1248.267,0,0,2022-06-30T10:08:51.596+02:00
2022-06-30T10:08:59.109+02:00,5913.148623416667,-2.1424560546875,5.529190063476562,1.601669311523438,5913.138672416667,0.7928465751349477,1.142335129281166,-0.4303177764421385,7.00834321975708,4.838242530822754,-6.611939430236816,-3.217564821243286,5.000183582305908,1.381546020507812,XArbitraryZVertical,-0.3696138891083453,0.4178377342959616,0.2108713319654352,0.8027020167753911,0.8266803026199341,0.4171596169471741,-0.3775944113731384,0,0,0,-1,-1,5910.728871750001,unknown,2,2022-06-30T10:08:56.688+02:00,2022-06-30T08:20:05.567+02:00,1582,1.524751,0,0,1248.267,0,0,2022-06-30T10:08:51.596+02:00
2022-06-30T10:08:59.118+02:00,5913.158574416667,-1.85626220703125,5.322036743164062,1.8807373046875,5913.148623416667,0.6929382417089551,1.145782439734675,-0.4618775332129256,6.868566513061523,4.507575511932373,-6.676266670227051,-3.105001449584961,5.09266996383667,1.644579410552979,XArbitraryZVertical,-0.3601029883425622,0.4310009134749049,0.1610839782078926,0.8115516869383408,0.8155726790428162,0.4456296861171722,-0.3691281080245972,0,0,0,-1,-1,5910.728871750001,unknown,2,2022-06-30T10:08:56.688+02:00,2022-06-30T08:20:05.567+02:00,1582,1.524751,0,0,1248.267,0,0,2022-06-30T10:08:51.596+02:00
2022-06-30T10:08:59.128+02:00,5913.168526416667,-1.539306640625,4.94439697265625,2.096023559570312,5913.158574416667,0.5925599865993872,1.142621917874789,-0.4943722705859498,6.727778911590576,4.139452457427979,-6.668658256530762,-2.943257093429565,5.054710865020752,1.967165112495422,XArbitraryZVertical,-0.3499291790671257,0.4413632037485421,0.1115926418116776,0.8187155881226224,0.8008009195327759,0.4744791686534882,-0.3654961884021759,0,0,0,-1,-1,5910.728871750001,unknown,2,2022-06-30T10:08:56.688+02:00,2022-06-30T08:20:05.567+02:00,1582,1.524751,0,0,1248.267,0,0,2022-06-30T10:08:51.596+02:00
2022-06-30T10:08:59.138+02:00,5913.178477416667,-1.251434326171875,4.589401245117188,2.2142333984375,5913.168526416667,0.4927529744703027,1.133132658402498,-0.5267539175172785,6.389548301696777,3.750756502151489,-6.581762313842773,-2.639227151870728,4.81930685043335,2.247109413146973,XArbitraryZVertical,-0.3394221563264877,0.4490060284099306,0.06317093752837796,0.8241332996478719,0.7829648852348328,0.5027299523353577,-0.3663723766803741,0,0,0,-1,-1,5910.728871750001,unknown,2,2022-06-30T10:08:56.688+02:00,2022-06-30T08:20:05.567+02:00,1582,1.524751,0,0,1248.267,0,0,2022-06-30T10:08:51.596+02:00
2022-06-30T10:08:59.149+02:00,5913.188429416667,-1.010223388671875,4.296600341796875,2.278228759765625,5913.178477416667,0.3954371231825921,1.118028274771385,-0.5588495864833517,5.96084451675415,3.317765712738037,-6.44818639755249,-2.301741123199463,4.414185523986816,2.466927528381348,XArbitraryZVertical,-0.3294018428637757,0.4539188305836192,0.01665007772120989,0.8277529897530524,0.7624344825744629,0.5302111506462097,-0.3709042370319366,0,0,0,-1,-1,5910.728871750001,unknown,2,2022-06-30T10:08:56.688+02:00,2022-06-30T08:20:05.567+02:00,1582,1.524751,0,0,1248.267,0,0,2022-06-30T10:08:51.596+02:00
2022-06-30T10:08:59.158+02:00,5913.198380416667,-0.7678985595703125,3.976669311523438,2.346359252929688,5913.188429416667,0.2998494021361916,1.097026694344493,-0.5900610843695763,5.672571659088135,2.917382717132568,-6.394330024719238,-1.9908207654953,4.032989501953125,2.593329191207886,XArbitraryZVertical,-0.3198462608903536,0.4562348839814604,-0.02796648918780776,0.8299193524797437,0.7393863797187805,0.5564118027687073,-0.3790962100028992,0,0,0,-1,-1,5910.728871750001,unknown,2,2022-06-30T10:08:56.688+02:00,2022-06-30T08:20:05.567+02:00,1582,1.524751,0,0,1248.267,0,0,2022-06-30T10:08:51.596+02:00
2022-06-30T10:08:59.168+02:00,5913.208332416667,-0.4358978271484375,3.682098388671875,2.490875244140625,5913.198380416667,0.2045825928951846,1.070108231341354,-0.6204277581697801,5.370489597320557,2.559988260269165,-6.360421657562256,-1.723982334136963,3.715217113494873,2.668794631958008,XArbitraryZVertical,-0.3108074504843009,0.456196933807493,-0.07118688654287715,0.8307921367178495,0.7137588262557983,0.581383228302002,-0.3905661702156067,0,0,0,-1,-1,5910.728871750001,unknown,2,2022-06-30T10:08:56.688+02:00,2022-06-30T08:20:05.567+02:00,1582,1.524751,0,0,1248.267,0,0,2022-06-30T10:08:51.596+02:00
2022-06-30T10:08:59.178+02:00,5913.218283416667,-0.07000732421875,3.391204833984375,2.566619873046875,5913.208332416667,0.1109474138767281,1.037989102523833,-0.6496985268842425,4.849814891815186,2.140054225921631,-6.235130310058594,-1.453790068626404,3.37172269821167,2.750825166702271,XArbitraryZVertical,-0.3027742121621158,0.4539765118222488,-0.1124389552801708,0.8304159845088095,0.6858914494514465,0.6049463748931885,-0.4044662117958069,0,0,0,-1,-1,5910.728871750001,unknown,2,2022-06-30T10:08:56.688+02:00,2022-06-30T08:20:05.567+02:00,1582,1.524751,0,0,1248.267,0,0,2022-06-30T10:08:51.596+02:00
2022-06-30T10:08:59.188+02:00,5913.228234416667,0.3425750732421875,3.122421264648438,2.54693603515625,5913.218283416667,0.02201490991882164,1.002491127649342,-0.6782990237607268,4.116991519927979,1.743541479110718,-6.017396926879883,-1.092147827148438,3.054628849029541,2.909943103790283,XArbitraryZVertical,-0.2967300188752832,0.4499080097092925,-0.150748271726907,0.828739495842845,0.65625,0.6274694800376892,-0.4190681576728821,0,0,0,-1,-1,5910.728871750001,unknown,2,2022-06-30T10:08:56.688+02:00,2022-06-30T08:20:05.567+02:00,1582,1.524751,0,0,1248.267,0,0,2022-06-30T10:08:51.596+02:00
2022-06-30T10:08:59.198+02:00,5913.238186416667,0.746917724609375,2.877349853515625,2.4473876953125,5913.228234416667,-0.05970013468815665,0.9659385027925549,-0.7062500188945081,3.306998014450073,1.392784476280212,-5.655848026275635,-0.6958292126655579,2.7422194480896,2.999245166778564,XArbitraryZVertical,-0.2931335761038926,0.4447019609905316,-0.1853373725865298,0.8258104925965025,0.6258218884468079,0.6489853262901306,-0.4326257407665253,0,0,0,-1,-1,5910.728871750001,unknown,2,2022-06-30T10:08:56.688+02:00,2022-06-30T08:20:05.567+02:00,1582,1.524751,0,0,1248.267,0,0,2022-06-30T10:08:51.596+02:00
2022-06-30T10:08:59.208+02:00,5913.248137416667,1.14508056640625,2.630813598632812,2.318603515625,5913.238186416667,-0.1335571734178429,0.9295040508304815,-0.7335156300730907,2.570420503616333,1.065582156181335,-5.311703205108643,-0.2526682615280151,2.452935695648193,2.991317272186279,XArbitraryZVertical,-0.291922577103271,0.4388512897459984,-0.2160466486552361,0.8218969734322276,0.5952432751655579,0.6694852709770203,-0.4443815052509308,0,0,0,-1,-1,5910.728871750001,unknown,2,2022-06-30T10:08:56.688+02:00,2022-06-30T08:20:05.567+02:00,1582,1.524751,0,0,1248.267,0,0,2022-06-30T10:08:51.596+02:00
2022-06-30T10:08:59.218+02:00,5913.258089416667,1.474288940429688,2.409210205078125,2.174072265625,5913.248137416667,-0.2001489994939291,0.8931006329632148,-0.7599575459894148,1.950540900230408,0.6920828223228455,-4.900081634521484,0.182233452796936,2.188458919525146,2.901877641677856,XArbitraryZVertical,-0.2927890331871098,0.432469005090114,-0.2430579807283033,0.8174154968751782,0.5646843314170837,0.6888906955718994,-0.4544902741909027,0,0,0,-1,-1,5910.728871750001,unknown,2,2022-06-30T10:08:56.688+02:00,2022-06-30T08:20:05.567+02:00,1582,1.524751,0,0,1248.267,0,0,2022-06-30T10:08:51.596+02:00
2022-06-30T10:08:59.228+02:00,5913.268040416667,1.628005981445312,2.2562255859375,1.968978881835938,5913.258089416667,-0.2598365911566087,0.8560905384476903,-0.7849749597698837,1.432942271232605,0.2320148348808289,-4.479576110839844,0.6107866168022156,1.92400586605072,2.782233715057373,XArbitraryZVertical,-0.2953593600797615,0.4253793547564886,-0.2663324458464356,0.8129466756348942,0.5342938899993896,0.7068074941635132,-0.4636304974555969,0,0,0,-1,-1,5910.728871750001,unknown,2,2022-06-30T10:08:56.688+02:00,2022-06-30T08:20:05.567+02:00,1582,1.524751,0,0,1248.267,0,0,2022-06-30T10:08:51.596+02:00
2022-06-30T10:08:59.238+02:00,5913.277992416667,1.678268432617188,2.152542114257812,1.678787231445312,5913.268040416667,-0.3137389169938484,0.8177513702763147,-0.8087033020985396,1.028242468833923,-0.1816459745168686,-4.15266227722168,0.9705392122268677,1.68581748008728,2.646236658096313,XArbitraryZVertical,-0.2994562795173511,0.4174249050024472,-0.286284444594875,0.8087791331936548,0.5037497282028198,0.7233924865722656,-0.4721647799015045,0,0,0,-1,-1,5910.728871750001,unknown,2,2022-06-30T10:08:56.688+02:00,2022-06-30T08:20:05.567+02:00,1582,1.524751,0,0,1248.267,0,0,2022-06-30T10:08:51.596+02:00
2022-06-30T10:08:59.248+02:00,5913.287943416667,1.71917724609375,2.106491088867188,1.4659423828125,5913.277992416667,-0.3640805650496674,0.7777227846453301,-0.8306934151600256,0.8417260646820068,-0.4644540250301361,-3.833109617233276,1.154832601547241,1.517826199531555,2.449471950531006,XArbitraryZVertical,-0.3044107430907852,0.4087633321755986,-0.3037332047742063,0.8049800805649397,0.4731733798980713,0.7383991479873657,-0.4804932773113251,0,0,0,-1,-1,5913.279808416667,unknown,2,2022-06-30T10:08:59.239+02:00,2022-06-30T08:20:05.567+02:00,1582,1.524751,0,0,1248.267,0,0,2022-06-30T10:08:51.596+02:00
2022-06-30T10:08:59.258+02:00,5913.297894416667,1.788482666015625,1.995697021484375,1.315872192382812,5913.287943416667,-0.4111163880127897,0.7369961752542505,-0.8500828572537797,0.6684792637825012,-0.6748929619789124,-3.419728517532349,1.234757542610168,1.401206851005554,2.167452335357666,XArbitraryZVertical,-0.3095954929760117,0.3997723771082627,-0.3188793063721379,0.8016538056527207,0.443510890007019,0.751335084438324,-0.4886653423309326,0,0,0,-1,-1,5913.279808416667,unknown,2,2022-06-30T10:08:59.239+02:00,2022-06-30T08:20:05.567+02:00,1582,1.524751,0,0,1248.267,0,0,2022-06-30T10:08:51.596+02:00
2022-06-30T10:08:59.267+02:00,5913.307846416667,1.843215942382812,1.875228881835938,1.20111083984375,5913.297894416667,-0.4531628217599815,0.6975727453259847,-0.8667522282106211,0.4142336845397949,-0.8645198941230774,-2.95453953742981,1.303374528884888,1.344260215759277,1.962039470672607,XArbitraryZVertical,-0.3148873117673062,0.3908929527090961,-0.3314520615217244,0.7988669141975526,0.4158028066158295,0.7622306346893311,-0.4960973560810089,0,0,0,-1,-1,5913.279808416667,unknown,2,2022-06-30T10:08:59.239+02:00,2022-06-30T08:20:05.567+02:00,1582,1.524751,0,0,1248.267,0,0,2022-06-30T10:08:51.596+02:00
2022-06-30T10:08:59.278+02:00,5913.317797416667,1.82196044921875,1.765228271484375,1.030670166015625,5913.307846416667,-0.4880685105633704,0.6611285370711846,-0.8823502107214306,-0.03593521192669868,-1.081148266792297,-2.530155181884766,1.398380041122437,1.223462581634521,1.817344069480896,XArbitraryZVertical,-0.3210025611964197,0.3823888817391436,-0.3411441034190528,0.7964652400978458,0.3901026546955109,0.7722342014312744,-0.5014721751213074,0,0,0,-1,-1,5913.279808416667,unknown,2,2022-06-30T10:08:59.239+02:00,2022-06-30T08:20:05.567+02:00,1582,1.524751,0,0,1248.267,0,0,2022-06-30T10:08:51.596+02:00
2022-06-30T10:08:59.287+02:00,5913.327749416667,1.7703857421875,1.7027587890625,0.7643890380859375,5913.317797416667,-0.5150932729333668,0.6284893012260243,-0.8985663914929974,-0.4928050339221954,-1.260758757591248,-2.16671085357666,1.477097034454346,1.092793703079224,1.704849004745483,XArbitraryZVertical,-0.3285112514186897,0.3744477081245373,-0.3480157270163739,0.794200464422342,0.3661189377307892,0.7824349403381348,-0.5037385225296021,0,0,0,-1,-1,5913.279808416667,unknown,2,2022-06-30T10:08:59.239+02:00,2022-06-30T08:20:05.567+02:00,1582,1.524751,0,0,1248.267,0,0,2022-06-30T10:08:51.596+02:00
2022-06-30T10:08:59.297+02:00,5913.337700416667,1.648284912109375,1.67193603515625,0.4785308837890625,5913.327749416667,-0.5354674585077188,0.5991060671767668,-0.9152357154621144,-0.7752178311347961,-1.425468325614929,-1.841976761817932,1.478202104568481,0.9725217819213867,1.534105062484741,XArbitraryZVertical,-0.3370647048070884,0.3669737909073622,-0.3524890581104491,0.792129526602346,0.3437583148479462,0.792706310749054,-0.5034352540969849,0,0,0,-1,-1,5913.279808416667,unknown,2,2022-06-30T10:08:59.239+02:00,2022-06-30T08:20:05.567+02:00,1582,1.524751,0,0,1248.267,0,0,2022-06-30T10:08:51.596+02:00
2022-06-30T10:08:59.307+02:00,5913.347652416667,1.494659423828125,1.629058837890625,0.32012939453125,5913.337700416667,-0.5511298235082077,0.5717272041614589,-0.9315395858007181,-0.8847895860671997,-1.570855617523193,-1.552722096443176,1.447574615478516,0.900219202041626,1.266109228134155,XArbitraryZVertical,-0.3460759038130744,0.3596820415326935,-0.3551057407227791,0.7904177748101765,0.3228110671043396,0.8025394082069397,-0.5017206072807312,0,0,0,-1,-1,5913.279808416667,unknown,2,2022-06-30T10:08:59.239+02:00,2022-06-30T08:20:05.567+02:00,1582,1.524751,0,0,1248.267,0,0,2022-06-30T10:08:51.596+02:00
2022-06-30T10:08:59.318+02:00,5913.357603416667,1.340194702148438,1.556564331054688,0.1492462158203125,5913.347652416667,-0.5630080216078375,0.5458077403765142,-0.9463887535940144,-0.8918195366859436,-1.721861243247986,-1.230896472930908,1.344805359840393,0.8606261610984802,0.9782072305679321,XArbitraryZVertical,-0.3549442012734337,0.3523865223511848,-0.3561222487515507,0.7893131384154193,0.3034795820713043,0.8113095760345459,-0.4996767044067383,0,0,0,-1,-1,5913.279808416667,unknown,2,2022-06-30T10:08:59.239+02:00,2022-06-30T08:20:05.567+02:00,1582,1.524751,0,0,1248.267,0,0,2022-06-30T10:08:51.596+02:00
2022-06-30T10:08:59.327+02:00,5913.367555416667,1.158111572265625,1.498001098632812,-0.0910491943359375,5913.357603416667,-0.5713188073560935,0.5209096100301883,-0.9594331995929457,-0.8550176024436951,-1.923464059829712,-0.9523590207099915,1.209005117416382,0.8101922273635864,0.8179839849472046,XArbitraryZVertical,-0.363513962273173,0.3448625379356409,-0.3555884279207054,0.7889767236937476,0.2856543064117432,0.8188663721084595,-0.4978548586368561,0,0,0,-1,-1,5913.279808416667,unknown,2,2022-06-30T10:08:59.239+02:00,2022-06-30T08:20:05.567+02:00,1582,1.524751,0,0,1248.267,0,0,2022-06-30T10:08:51.596+02:00
2022-06-30T10:08:59.337+02:00,5913.377506416667,0.9988861083984375,1.496688842773438,-0.2555999755859375,5913.367555416667,-0.5770273147438154,0.4964232227933081,-0.9703051949703849,-0.7337960600852966,-2.046473741531372,-0.6847848296165466,1.071071743965149,0.7315059900283813,0.6460878252983093,XArbitraryZVertical,-0.3715332828389604,0.3369600082258679,-0.3538122004197097,0.7894542759167412,0.2691230177879333,0.8250582218170166,-0.4968419373035431,0,0,0,-1,-1,5913.279808416667,unknown,2,2022-06-30T10:08:59.239+02:00,2022-06-30T08:20:05.567+02:00,1582,1.524751,0,0,1248.267,0,0,2022-06-30T10:08:51.596+02:00
2022-06-30T10:08:59.347+02:00,5913.387457416667,0.907318115234375,1.45111083984375,-0.3936920166015625,5913.377506416667,-0.5802053435786865,0.4731573858256113,-0.978500870080486,-0.5304147005081177,-2.091094970703125,-0.4102547466754913,0.903709888458252,0.6683394908905029,0.4058827757835388,XArbitraryZVertical,-0.3786043663783181,0.328926401448486,-0.3510063237705187,0.7907342699370398,0.2544017136096954,0.8296613693237305,-0.4969322979450226,0,0,0,-1,-1,5913.279808416667,unknown,2,2022-06-30T10:08:59.239+02:00,2022-06-30T08:20:05.567+02:00,1582,1.524751,0,0,1248.267,0,0,2022-06-30T10:08:51.596+02:00
2022-06-30T10:08:59.357+02:00,5913.397409416667,0.8489990234375,1.362152099609375,-0.4245147705078125,5913.387457416667,-0.5811529394195897,0.4516292030466898,-0.9836068702790546,-0.3699628710746765,-2.077395439147949,-0.1565807461738586,0.7570925951004028,0.6641875505447388,0.2428752481937408,XArbitraryZVertical,-0.3843886992905901,0.3209478884343639,-0.3474342186516678,0.7927971288693706,0.2417935580015182,0.8325010538101196,-0.4984755516052246,0,0,0,-1,-1,5913.279808416667,unknown,2,2022-06-30T10:08:59.239+02:00,2022-06-30T08:20:05.567+02:00,1582,1.524751,0,0,1248.267,0,0,2022-06-30T10:08:51.596+02:00
2022-06-30T10:08:59.367+02:00,5913.407360416667,0.8010711669921875,1.289627075195312,-0.483062744140625,5913.397409416667,-0.5786648779232555,0.4332997977110667,-0.9872917895431076,-0.4314051866531372,-2.024789094924927,0.08400070667266846,0.6759910583496094,0.6165736317634583,0.1063435077667236,XArbitraryZVertical,-0.3895194775934439,0.3134591999616929,-0.3429983587910129,0.7952169278961254,0.2313270419836044,0.8345369696617126,-0.50003582239151,0,0,0,-1,-1,5913.279808416667,unknown,2,2022-06-30T10:08:59.239+02:00,2022-06-30T08:20:05.567+02:00,1582,1.524751,0,0,1248.267,0,0,2022-06-30T10:08:51.596+02:00
2022-06-30T10:08:59.377+02:00,5913.417312416667,0.729278564453125,1.280593872070312,-0.5926971435546875,5913.407360416667,-0.5713801823418648,0.4195008491486473,-0.9914029152424799,-0.6695592999458313,-1.982689619064331,0.2850617170333862,0.625993013381958,0.5253570079803467,0.0755276083946228,XArbitraryZVertical,-0.3947508109577655,0.3068394380439305,-0.3374885657107224,0.7975731775828411,0.2230060398578644,0.836794912815094,-0.500042736530304,0,0,0,-1,-1,5913.279808416667,unknown,2,2022-06-30T10:08:59.239+02:00,2022-06-30T08:20:05.567+02:00,1582,1.524751,0,0,1248.267,0,0,2022-06-30T10:08:51.596+02:00
2022-06-30T10:08:59.387+02:00,5913.427263416667,0.679656982421875,1.22723388671875,-0.69580078125,5913.417312416667,-0.5593245832650333,0.4099586971836717,-0.9976253465067527,-1.004366040229797,-1.969595074653625,0.414339005947113,0.5849262475967407,0.4494413137435913,0.01429957151412964,XArbitraryZVertical,-0.4008324666735477,0.301084714618516,-0.3309128180945536,0.7994861360131282,0.2161449044942856,0.8401855826377869,-0.4973626434803009,0,0,0,-1,-1,5913.279808416667,unknown,2,2022-06-30T10:08:59.239+02:00,2022-06-30T08:20:05.567+02:00,1582,1.524751,0,0,1248.267,0,0,2022-06-30T10:08:51.596+02:00
