loggingTime(txt),accelerometerTimestamp_sinceReboot(s),accelerometerAccelerationX(G),accelerometerAccelerationY(G),accelerometerAccelerationZ(G),motionTimestamp_sinceReboot(s),motionYaw(rad),motionRoll(rad),motionPitch(rad),motionRotationRateX(rad/s),motionRotationRateY(rad/s),motionRotationRateZ(rad/s),motionUserAccelerationX(G),motionUserAccelerationY(G),motionUserAccelerationZ(G),motionAttitudeReferenceFrame(txt),motionQuaternionX(R),motionQuaternionY(R),motionQuaternionZ(R),motionQuaternionW(R),motionGravityX(G),motionGravityY(G),motionGravityZ(G),motionMagneticFieldX(µT),motionMagneticFieldY(µT),motionMagneticFieldZ(µT),motionHeading(°),motionMagneticFieldCalibrationAccuracy(Z),activityTimestamp_sinceReboot(s),activity(txt),activityActivityConfidence(Z),activityActivityStartDate(txt),pedometerStartDate(txt),pedometerNumberofSteps(N),pedometerAverageActivePace(s/m),pedometerCurrentPace(s/m),pedometerCurrentCadence(steps/s),pedometerDistance(m),pedometerFloorAscended(N),pedometerFloorDescended(N),pedometerEndDate(txt)
2022-06-30T10:09:23.287+02:00,5937.310722291667,0.109100341796875,-0.256561279296875,-0.890960693359375,5937.300770291667,-1.576272388049298,0.1300490359998722,0.4088273485361055,-0.5116814374923706,0.1344138830900192,0.01754914782941341,-0.0936196893453598,-0.06004732847213745,0.05971109867095947,XArbitraryZVertical,-0.1879550149970287,0.09875916632755741,0.6835095336337067,-0.6983796831819283,0.118995301425457,-0.3975335955619812,-0.9098390936851501,0,0,0,-1,-1,5936.208852666667,unknown,2,2022-06-30T10:09:22.168+02:00,2022-06-30T08:20:05.567+02:00,1582,1.53258,0,0,1248.267,0,0,2022-06-30T10:09:22.167+02:00
2022-06-30T10:09:23.289+02:00,5937.320673291667,0.068572998046875,-0.3313751220703125,-0.8712310791015625,5937.310722291667,-1.576119627624657,0.1308652453186791,0.4055098977522277,-0.1522831916809082,0.05564668029546738,-0.07120569050312042,0.03263305127620697,0.06486663222312927,-0.00518488883972168,XArbitraryZVertical,-0.1871138430577167,0.09729502007183147,0.6836915917222964,-0.6986329253455835,0.1199093163013458,-0.3944873511791229,-0.911044180393219,0,0,0,-1,-1,5936.208852666667,unknown,2,2022-06-30T10:09:22.168+02:00,2022-06-30T08:20:05.567+02:00,1582,1.53258,0,0,1248.267,0,0,2022-06-30T10:09:22.167+02:00
2022-06-30T10:09:23.297+02:00,5937.330625291667,0.0662384033203125,-0.4116363525390625,-0.84375,5937.320673291667,-1.577071771801562,0.1314640194101831,0.4051666076033579,0.07675478607416153,0.003859384916722775,-0.1030709445476532,-0.01137195527553558,0.1376102566719055,0.02014589309692383,XArbitraryZVertical,-0.1871556352873836,0.09705442258772695,0.6840003155318328,-0.6983529312386962,0.1204725429415703,-0.3941718935966492,-0.9111064076423645,0,0,0,-1,-1,5936.208852666667,unknown,2,2022-06-30T10:09:22.168+02:00,2022-06-30T08:20:05.567+02:00,1582,1.53258,0,0,1248.267,0,0,2022-06-30T10:09:22.167+02:00
2022-06-30T10:09:23.300+02:00,5937.340576291667,0.07745361328125,-0.4485626220703125,-0.8432769775390625,5937.330625291667,-1.578171230925254,0.1318981161958672,0.4057207391309928,0.04124119505286217,0.01774318143725395,-0.08435980975627899,-0.05226604640483856,0.06330561637878418,0.03960645198822021,XArbitraryZVertical,-0.1874389661491735,0.09720058673467288,0.684291386126493,-0.6979713128880837,0.1208392977714539,-0.3946810960769653,-0.9108373522758484,0,0,0,-1,-1,5936.208852666667,unknown,2,2022-06-30T10:09:22.168+02:00,2022-06-30T08:20:05.567+02:00,1582,1.53258,0,0,1248.267,0,0,2022-06-30T10:09:22.167+02:00
2022-06-30T10:09:23.310+02:00,5937.350527291667,0.1021575927734375,-0.43756103515625,-0.8586883544921875,5937.340576291667,-1.579029314658734,0.1325871145713592,0.4052856991614421,-0.1042701974511147,0.06067520380020142,-0.08480748534202576,-0.05525089800357819,-0.01735538244247437,0.06717419624328613,XArbitraryZVertical,-0.1874854297323464,0.09688765949400617,0.6845671526423578,-0.6977318532756784,0.1214895248413086,-0.3942813277244568,-0.9109240174293518,0,0,0,-1,-1,5936.208852666667,unknown,2,2022-06-30T10:09:22.168+02:00,2022-06-30T08:20:05.567+02:00,1582,1.53258,0,0,1248.267,0,0,2022-06-30T10:09:22.167+02:00
2022-06-30T10:09:23.320+02:00,5937.360479291667,0.1167449951171875,-0.4137115478515625,-0.8802337646484375,5937.350527291667,-1.579778932956857,0.1335155631545446,0.4035714905430473,-0.2046870142221451,0.07119552046060562,-0.1013908907771111,-0.04497115314006805,-0.05585753917694092,0.06820255517959595,XArbitraryZVertical,-0.1871854216343979,0.09603098375314573,0.6849029520150657,-0.6976013450482861,0.1224250122904778,-0.3927054107189178,-0.9114793539047241,0,0,0,-1,-1,5936.208852666667,unknown,2,2022-06-30T10:09:22.168+02:00,2022-06-30T08:20:05.567+02:00,1582,1.53258,0,0,1248.267,0,0,2022-06-30T10:09:22.167+02:00
2022-06-30T10:09:23.330+02:00,5937.370430291667,0.13092041015625,-0.4084320068359375,-0.9071044921875,5937.360479291667,-1.580610795450931,0.134477227948921,0.4011073256237306,-0.2546290159225464,0.06172825396060944,-0.118169866502285,-0.02127303183078766,-0.04712337255477905,0.05362921953201294,XArbitraryZVertical,-0.1866391243992,0.09490598030866849,0.6853345963791622,-0.6974778605874826,0.1234308555722237,-0.3904380202293396,-0.9123173952102661,0,0,0,-1,-1,5936.208852666667,unknown,2,2022-06-30T10:09:22.168+02:00,2022-06-30T08:20:05.567+02:00,1582,1.53258,0,0,1248.267,0,0,2022-06-30T10:09:22.167+02:00
2022-06-30T10:09:23.340+02:00,5937.380382291667,0.1318206787109375,-0.401702880859375,-0.91650390625,5937.370430291667,-1.581539827581218,0.1352973723077795,0.3982229314161089,-0.2935850024223328,0.04074829444289207,-0.1341559886932373,-0.007585212588310242,-0.0259309709072113,0.03309434652328491,XArbitraryZVertical,-0.1858980930032745,0.09369061147670726,0.6858521883420627,-0.6973313005055298,0.1243304386734962,-0.3877809345722198,-0.9133279323577881,0,0,0,-1,-1,5936.208852666667,unknown,2,2022-06-30T10:09:22.168+02:00,2022-06-30T08:20:05.567+02:00,1582,1.53258,0,0,1248.267,0,0,2022-06-30T10:09:22.167+02:00
2022-06-30T10:09:23.350+02:00,5937.390333291667,0.1279296875,-0.39447021484375,-0.9248504638671875,5937.380382291667,-1.582518630672252,0.1360457302097075,0.3948147825434128,-0.3579922318458557,0.04393529891967773,-0.1407513171434402,0.005728229880332947,-0.02379512786865234,0.007434427738189697,XArbitraryZVertical,-0.1849534976746795,0.09231923675592646,0.6864417827771927,-0.6971851504519641,0.1251924186944962,-0.3846372365951538,-0.9145387411117554,0,0,0,-1,-1,5936.208852666667,unknown,2,2022-06-30T10:09:22.168+02:00,2022-06-30T08:20:05.567+02:00,1582,1.53258,0,0,1248.267,0,0,2022-06-30T10:09:22.167+02:00
2022-06-30T10:09:23.360+02:00,5937.400285291667,0.1245269775390625,-0.3768768310546875,-0.93194580078125,5937.390333291667,-1.583410645257202,0.1368514346849219,0.3906990823974282,-0.4313443899154663,0.05893231928348541,-0.137175515294075,0.005676805973052979,-0.02086833119392395,-0.0005056858062744141,XArbitraryZVertical,-0.1837936831945621,0.09066892785429015,0.6870601127363977,-0.6970993174819196,0.1261441260576248,-0.3808349072933197,-0.9159980416297913,0,0,0,-1,-1,5936.208852666667,unknown,2,2022-06-30T10:09:22.168+02:00,2022-06-30T08:20:05.567+02:00,1582,1.53258,0,0,1248.267,0,0,2022-06-30T10:09:22.167+02:00
2022-06-30T10:09:23.370+02:00,5937.410236291667,0.127471923828125,-0.3450469970703125,-0.937042236328125,5937.400285291667,-1.584121975438735,0.137789587546144,0.3860901084784616,-0.4552944898605347,0.08507204800844193,-0.1215720549225807,0.0006867647171020508,-0.01790133118629456,-0.007242083549499512,XArbitraryZVertical,-0.1825211654616858,0.08878021882658393,0.6876468607614704,-0.6970981859558005,0.1272431612014771,-0.3765692114830017,-0.9176082015037537,0,0,0,-1,-1,5936.208852666667,unknown,2,2022-06-30T10:09:22.168+02:00,2022-06-30T08:20:05.567+02:00,1582,1.53258,0,0,1248.267,0,0,2022-06-30T10:09:22.167+02:00
2022-06-30T10:09:23.380+02:00,5937.420187291667,0.138519287109375,-0.3300323486328125,-0.9374847412109375,5937.410236291667,-1.584668367777899,0.1388494451992482,0.3815624600143529,-0.4238219559192657,0.09278781712055206,-0.110586017370224,-0.00392305850982666,-0.004506170749664307,-0.01279366016387939,XArbitraryZVertical,-0.181326032498499,0.08686130551325008,0.6881554128021223,-0.6971499316293975,0.1284502744674683,-0.3723710179328918,-0.9191519618034363,0,0,0,-1,-1,5936.208852666667,unknown,2,2022-06-30T10:09:22.168+02:00,2022-06-30T08:20:05.567+02:00,1582,1.53258,0,0,1248.267,0,0,2022-06-30T10:09:22.167+02:00
2022-06-30T10:09:23.390+02:00,5937.430139291667,0.146240234375,-0.3495025634765625,-0.935516357421875,5937.420187291667,-1.585287099267093,0.1399458273936907,0.377543487813774,-0.3541720509529114,0.08862476795911789,-0.1201808527112007,-0.002193480730056763,0.02359071373939514,-0.01655697822570801,XArbitraryZVertical,-0.1803134809944495,0.08511466802759313,0.6886377337579109,-0.6971517908036617,0.1296656429767609,-0.3686380684375763,-0.9204850792884827,0,0,0,-1,-1,5936.208852666667,unknown,2,2022-06-30T10:09:22.168+02:00,2022-06-30T08:20:05.567+02:00,1582,1.53258,0,0,1248.267,0,0,2022-06-30T10:09:22.167+02:00
2022-06-30T10:09:23.400+02:00,5937.440090291667,0.148590087890625,-0.3715667724609375,-0.9294281005859375,5937.430139291667,-1.586118077075479,0.141069881886431,0.3741986527552497,-0.2895050942897797,0.08492039144039154,-0.1289932876825333,0.007646650075912476,0.03549405932426453,-0.01593017578125,XArbitraryZVertical,-0.179531008348069,0.08361475734694676,0.6891292233219147,-0.6970495196622674,0.1308728754520416,-0.3655267655849457,-0.9215543866157532,0,0,0,-1,-1,5936.208852666667,unknown,2,2022-06-30T10:09:22.168+02:00,2022-06-30T08:20:05.567+02:00,1582,1.53258,0,0,1248.267,0,0,2022-06-30T10:09:22.167+02:00
2022-06-30T10:09:23.410+02:00,5937.450042291667,0.1439361572265625,-0.3873443603515625,-0.9214019775390625,5937.440090291667,-1.587024685105697,0.1422199007167491,0.3713113127142575,-0.2631640434265137,0.08769593387842178,-0.1245532631874084,0.01415883004665375,0.01333475112915039,-0.01307201385498047,XArbitraryZVertical,-0.1789105698413054,0.08227342625475415,0.6896027075626905,-0.6969005202437131,0.1320816427469254,-0.3628377020359039,-0.9224441647529602,0,0,0,-1,-1,5936.208852666667,unknown,2,2022-06-30T10:09:22.168+02:00,2022-06-30T08:20:05.567+02:00,1582,1.53258,0,0,1248.267,0,0,2022-06-30T10:09:22.167+02:00
2022-06-30T10:09:23.420+02:00,5937.459993291667,0.1398468017578125,-0.3896636962890625,-0.92462158203125,5937.450042291667,-1.587919671525537,0.1433845852867377,0.3685149547123307,-0.265529066324234,0.09025218337774277,-0.1241585165262222,0.01528996229171753,-0.01133662462234497,-0.006137609481811523,XArbitraryZVertical,-0.1783276350123894,0.08095732661104255,0.6900621248809887,-0.6967493168619153,0.1333003640174866,-0.3602304756641388,-0.9232903122901917,0,0,0,-1,-1,5936.208852666667,unknown,2,2022-06-30T10:09:22.168+02:00,2022-06-30T08:20:05.567+02:00,1582,1.53258,0,0,1248.267,0,0,2022-06-30T10:09:22.167+02:00
2022-06-30T10:09:23.430+02:00,5937.469945291667,0.1328887939453125,-0.380889892578125,-0.9275360107421875,5937.459993291667,-1.588831323494938,0.14461350740099,0.3657522420865699,-0.2560572624206543,0.0942051112651825,-0.1292941570281982,0.009358584880828857,-0.02969282865524292,0.00270533561706543,XArbitraryZVertical,-0.1777787205190695,0.07963145523354839,0.690518143964021,-0.6965905440300522,0.1345778256654739,-0.3576518893241882,-0.9241071343421936,0,0,0,-1,-1,5936.208852666667,unknown,2,2022-06-30T10:09:22.168+02:00,2022-06-30T08:20:05.567+02:00,1582,1.53258,0,0,1248.267,0,0,2022-06-30T10:09:22.167+02:00
2022-06-30T10:09:23.440+02:00,5937.479896291667,0.129913330078125,-0.3783111572265625,-0.9369049072265625,5937.469945291667,-1.589771482063347,0.1458319218358221,0.3630375345976222,-0.2532683908939362,0.09281313419342041,-0.12553471326828,0.004002779722213745,-0.03454864025115967,0.0002782344818115234,XArbitraryZVertical,-0.1772424697524853,0.0783280039268227,0.6909803008000355,-0.6964166309935634,0.1358442604541779,-0.3551154136657715,-0.9248996376991272,0,0,0,-1,-1,5936.208852666667,unknown,2,2022-06-30T10:09:22.168+02:00,2022-06-30T08:20:05.567+02:00,1582,1.53258,0,0,1248.267,0,0,2022-06-30T10:09:22.167+02:00
2022-06-30T10:09:23.450+02:00,5937.489848291667,0.1319580078125,-0.3690643310546875,-0.92938232421875,5937.479896291667,-1.590690129895836,0.1470218562336581,0.360367986476028,-0.2471180856227875,0.0825682133436203,-0.1225122809410095,-0.004194080829620361,-0.02827164530754089,-0.001864016056060791,XArbitraryZVertical,-0.1767136672204961,0.07704781408577235,0.6914330402717215,-0.6962443878313007,0.137083113193512,-0.3526186048984528,-0.9256718158721924,0,0,0,-1,-1,5936.208852666667,unknown,2,2022-06-30T10:09:22.168+02:00,2022-06-30T08:20:05.567+02:00,1582,1.53258,0,0,1248.267,0,0,2022-06-30T10:09:22.167+02:00
2022-06-30T10:09:23.460+02:00,5937.499799291667,0.1346893310546875,-0.36090087890625,-0.927093505859375,5937.489848291667,-1.59161599390581,0.1481183043665557,0.3577631145551516,-0.2430863380432129,0.08124113827943802,-0.1282449960708618,-0.008319497108459473,-0.02813166379928589,-0.0104784369468689,XArbitraryZVertical,-0.1761752627583493,0.0758229959911383,0.6918903681862836,-0.6960609981287057,0.1382330805063248,-0.3501798510551453,-0.9264262914657593,0,0,0,-1,-1,5936.208852666667,unknown,2,2022-06-30T10:09:22.168+02:00,2022-06-30T08:20:05.567+02:00,1582,1.53258,0,0,1248.267,0,0,2022-06-30T10:09:22.167+02:00
2022-06-30T10:09:23.469+02:00,5937.509750291667,0.1382598876953125,-0.3500518798828125,-0.9280853271484375,5937.499799291667,-1.592588946022544,0.1491540263330746,0.3552012800996919,-0.2339668720960617,0.06869471818208694,-0.1334461569786072,-0.007367148995399475,-0.02128556370735168,-0.002215385437011719,XArbitraryZVertical,-0.1756297315248601,0.07463802287818504,0.6923651579613146,-0.6958547184752304,0.1393253654241562,-0.3477790951728821,-0.9271667003631592,0,0,0,-1,-1,5936.208852666667,unknown,2,2022-06-30T10:09:22.168+02:00,2022-06-30T08:20:05.567+02:00,1582,1.53258,0,0,1248.267,0,0,2022-06-30T10:09:22.167+02:00
2022-06-30T10:09:23.479+02:00,5937.519702291667,0.135650634765625,-0.3385162353515625,-0.923309326171875,5937.509750291667,-1.593642706433259,0.1501307513777025,0.3528232929334925,-0.2065238654613495,0.06319336593151093,-0.1318892389535904,-0.005664616823196411,-0.01535266637802124,0.0007519721984863281,XArbitraryZVertical,-0.1751240963055562,0.07354526216620393,0.6928565138968931,-0.6956093960865037,0.140354186296463,-0.3455485701560974,-0.927845299243927,0,0,0,-1,-1,5936.208852666667,unknown,2,2022-06-30T10:09:22.168+02:00,2022-06-30T08:20:05.567+02:00,1582,1.53258,0,0,1248.267,0,0,2022-06-30T10:09:22.167+02:00
2022-06-30T10:09:23.489+02:00,5937.529653291667,0.12994384765625,-0.3473358154296875,-0.9231414794921875,5937.519702291667,-1.594772638879117,0.1510444834432219,0.3507782827419966,-0.1637316644191742,0.05012070760130882,-0.147082582116127,-0.003047838807106018,-0.006423413753509521,0.0003281831741333008,XArbitraryZVertical,-0.1747075999832135,0.07259881748763826,0.6933500709466349,-0.6953218137436298,0.1413079649209976,-0.3436287939548492,-0.9284133315086365,0,0,0,-1,-1,5936.208852666667,unknown,2,2022-06-30T10:09:22.168+02:00,2022-06-30T08:20:05.567+02:00,1582,1.53258,0,0,1248.267,0,0,2022-06-30T10:09:22.167+02:00
2022-06-30T10:09:23.499+02:00,5937.539605291667,0.1138153076171875,-0.3572998046875,-0.92474365234375,5937.529653291667,-1.596151052872489,0.151915952728189,0.349171796135357,-0.1160062775015831,0.03658934682607651,-0.1559766978025436,-0.006549477577209473,0.003603100776672363,0.005525171756744385,XArbitraryZVertical,-0.1744168501151684,0.07184430497111408,0.6938946986529656,-0.6949297988610925,0.1422003656625748,-0.3421196937561035,-0.9288343191146851,0,0,0,-1,-1,5936.208852666667,unknown,2,2022-06-30T10:09:22.168+02:00,2022-06-30T08:20:05.567+02:00,1582,1.53258,0,0,1248.267,0,0,2022-06-30T10:09:22.167+02:00
2022-06-30T10:09:23.509+02:00,5937.549556291667,0.09893798828125,-0.3620147705078125,-0.9149627685546875,5937.539605291667,-1.597622799253185,0.1526755208195346,0.347910729628325,-0.09284023940563202,0.02562217973172665,-0.1574763357639313,-0.01302723586559296,-0.006401717662811279,0.00601041316986084,XArbitraryZVertical,-0.1742017065402563,0.07125941998896426,0.6944507654840149,-0.6944884301376971,0.1429713368415833,-0.3409344553947449,-0.929151713848114,0,0,0,-1,-1,5936.208852666667,unknown,2,2022-06-30T10:09:22.168+02:00,2022-06-30T08:20:05.567+02:00,1582,1.53258,0,0,1248.267,0,0,2022-06-30T10:09:22.167+02:00
2022-06-30T10:09:23.519+02:00,5937.559508291667,0.085906982421875,-0.3584747314453125,-0.91143798828125,5937.549556291667,-1.599149758219819,0.1533942046692382,0.3466981907324824,-0.1053005009889603,0.02422419004142284,-0.1691389083862305,-0.02988655865192413,-0.01750585436820984,0.004713118076324463,XArbitraryZVertical,-0.1739877365315599,0.0707105065229358,0.6950249497645692,-0.6940235753505398,0.1437021195888519,-0.3397943079471588,-0.9294565916061401,0,0,0,-1,-1,5936.208852666667,unknown,2,2022-06-30T10:09:22.168+02:00,2022-06-30T08:20:05.567+02:00,1582,1.53258,0,0,1248.267,0,0,2022-06-30T10:09:22.167+02:00
2022-06-30T10:09:23.529+02:00,5937.569459291667,0.0666656494140625,-0.3473968505859375,-0.908721923828125,5937.559508291667,-1.600813539568238,0.1541953274038196,0.3453255950836692,-0.1109101846814156,0.02843384817242622,-0.1858065575361252,-0.0455799400806427,-0.02351206541061401,0.0148385763168335,XArbitraryZVertical,-0.1737445826322843,0.07008738231580451,0.695653131765108,-0.6935181839777055,0.144518181681633,-0.3385030627250671,-0.9298011660575867,0,0,0,-1,-1,5936.208852666667,unknown,2,2022-06-30T10:09:22.168+02:00,2022-06-30T08:20:05.567+02:00,1582,1.53258,0,0,1248.267,0,0,2022-06-30T10:09:22.167+02:00
2022-06-30T10:09:23.539+02:00,5937.579411291667,0.04266357421875,-0.3451385498046875,-0.9157562255859375,5937.569459291667,-1.602659209862111,0.1550764341182787,0.3439616563933711,-0.1023015826940536,0.03086356073617935,-0.2050906121730804,-0.05950132012367249,-0.02125576138496399,0.01869094371795654,XArbitraryZVertical,-0.1735270298635253,0.06945500704968142,0.6963362033544808,-0.6929504406099348,0.1454085558652878,-0.3372193276882172,-0.9301287531852722,0,0,0,-1,-1,5936.208852666667,unknown,2,2022-06-30T10:09:22.168+02:00,2022-06-30T08:20:05.567+02:00,1582,1.53258,0,0,1248.267,0,0,2022-06-30T10:09:22.167+02:00
2022-06-30T10:09:23.549+02:00,5937.589362291667,0.00787353515625,-0.357391357421875,-0.927734375,5937.579411291667,-1.60480174043181,0.1561252255765324,0.3426594406170909,-0.09063267707824707,0.04550562053918839,-0.2419511675834656,-0.07978624105453491,-0.01140409708023071,0.02168697118759155,XArbitraryZVertical,-0.173379781854287,0.06881195470870984,0.6971015787563486,-0.6922815994581408,0.1464521437883377,-0.3359931111335754,-0.9304087162017822,0,0,0,-1,-1,5936.208852666667,unknown,2,2022-06-30T10:09:22.168+02:00,2022-06-30T08:20:05.567+02:00,1582,1.53258,0,0,1248.267,0,0,2022-06-30T10:09:22.167+02:00
2022-06-30T10:09:23.559+02:00,5937.599313291667,-0.1228179931640625,-0.384918212890625,-0.9357452392578125,5937.589362291667,-1.60729256045836,0.1571883105405105,0.3420124661647109,-0.1007004976272583,0.05901198461651802,-0.2886150777339935,-0.1048113405704498,-0.009755223989486694,0.01471096277236938,XArbitraryZVertical,-0.1734474718256155,0.06842853948961951,0.6979279152730092,-0.691469581725889,0.1474751532077789,-0.3353836834430695,-0.9304670095443726,0,0,0,-1,-1,5936.208852666667,unknown,2,2022-06-30T10:09:22.168+02:00,2022-06-30T08:20:05.567+02:00,1582,1.53258,0,0,1248.267,0,0,2022-06-30T10:09:22.167+02:00
2022-06-30T10:09:23.569+02:00,5937.609265291667,-0.1275787353515625,-0.591156005859375,-0.973358154296875,5937.599313291667,-1.61117617443036,0.1591745788883715,0.3402309590115751,-0.2171144485473633,0.1453554034233093,-0.5982323288917542,-0.1415437161922455,-0.02368688583374023,0.003026485443115234,XArbitraryZVertical,-0.17341118288527,0.06744035000277696,0.6992538749026689,-0.6902350956225678,0.1494174897670746,-0.3337048292160034,-0.9307607412338257,0,0,0,-1,-1,5936.208852666667,unknown,2,2022-06-30T10:09:22.168+02:00,2022-06-30T08:20:05.567+02:00,1582,1.53258,0,0,1248.267,0,0,2022-06-30T10:09:22.167+02:00
2022-06-30T10:09:23.579+02:00,5937.619216291667,-0.0261993408203125,-0.5988922119140625,-1.000762939453125,5937.609265291667,-1.617442952362163,0.163203991662046,0.3360726134923961,-0.3855567872524261,0.1962630599737167,-0.5872908234596252,-0.2762085795402527,-0.05513659119606018,-0.00423276424407959,XArbitraryZVertical,-0.1732220997222483,0.06509964838900306,0.701430440904055,-0.6882961759316242,0.1533908247947693,-0.3297819793224335,-0.9315122961997986,0,0,0,-1,-1,5936.208852666667,unknown,2,2022-06-30T10:09:22.168+02:00,2022-06-30T08:20:05.567+02:00,1582,1.53258,0,0,1248.267,0,0,2022-06-30T10:09:22.167+02:00
2022-06-30T10:09:23.589+02:00,5937.629168291667,-0.250946044921875,-0.513275146484375,-0.9887237548828125,5937.619216291667,-1.621963386284337,0.1665468055505544,0.3305173942872559,-0.5978397727012634,0.2483931183815002,-0.550919234752655,-0.2843835949897766,-0.2666239142417908,-0.04057139158248901,XArbitraryZVertical,-0.1723968986076743,0.06233786912092355,0.7031838755940248,-0.6869685447010516,0.1568051278591156,-0.3245324492454529,-0.9327865839004517,0,0,0,-1,-1,5936.208852666667,unknown,2,2022-06-30T10:09:22.168+02:00,2022-06-30T08:20:05.567+02:00,1582,1.53258,0,0,1248.267,0,0,2022-06-30T10:09:22.167+02:00
2022-06-30T10:09:23.599+02:00,5937.639119291667,-0.1971588134765625,-0.5787353515625,-1.05352783203125,5937.629168291667,-1.628512249538417,0.17208235861537,0.3222992944076298,-0.7928664684295654,0.4303385019302368,-0.9293421506881714,-0.1886164844036102,-0.2821442484855652,-0.06626230478286743,XArbitraryZVertical,-0.1714126643007101,0.05802986202747313,0.7056731282258824,-0.6850371041333064,0.1624174118041992,-0.3167482912540436,-0.9345004558563232,0,0,0,-1,-1,5936.208852666667,unknown,2,2022-06-30T10:09:22.168+02:00,2022-06-30T08:20:05.567+02:00,1582,1.53258,0,0,1248.267,0,0,2022-06-30T10:09:22.167+02:00
2022-06-30T10:09:23.609+02:00,5937.649071291667,-0.2567138671875,-0.63360595703125,-1.06103515625,5937.639119291667,-1.637102727918376,0.1791945660943494,0.3125317673683372,-0.8444284796714783,0.4793606400489807,-1.021757245063782,-0.4205487370491028,-0.2058067619800568,-0.05240213871002197,XArbitraryZVertical,-0.1704492370027849,0.05278579191879971,0.7088519964522241,-0.6824146571540369,0.1696029603481293,-0.3074687421321869,-0.9363214373588562,0,0,0,-1,-1,5936.208852666667,unknown,2,2022-06-30T10:09:22.168+02:00,2022-06-30T08:20:05.567+02:00,1582,1.53258,0,0,1248.267,0,0,2022-06-30T10:09:22.167+02:00
2022-06-30T10:09:23.619+02:00,5937.659022291667,-0.290130615234375,-0.6915283203125,-1.053085327148438,5937.649071291667,-1.646781866759612,0.1873717292890788,0.3015828926371835,-1.001745939254761,0.5922824740409851,-1.230847239494324,-0.375028669834137,-0.2817036509513855,-0.1153730154037476,XArbitraryZVertical,-0.1694981898474949,0.04682974915722305,0.7123998358986593,-0.6793848945586671,0.1778701096773148,-0.2970320284366608,-0.9381546974182129,0,0,0,-1,-1,5936.208852666667,unknown,2,2022-06-30T10:09:22.168+02:00,2022-06-30T08:20:05.567+02:00,1582,1.53258,0,0,1248.267,0,0,2022-06-30T10:09:22.167+02:00
2022-06-30T10:09:23.629+02:00,5937.668973291667,-0.3055877685546875,-0.737762451171875,-1.04119873046875,5937.659022291667,-1.65843065334724,0.197318293188632,0.2876799299493014,-1.324867010116577,0.737317681312561,-1.496242523193359,-0.4446976482868195,-0.3498780429363251,-0.1207370162010193,XArbitraryZVertical,-0.1682351921241007,0.03934378363122309,0.7167005290224028,-0.6756399794447688,0.1879840344190598,-0.2837282717227936,-0.9402979612350464,0,0,0,-1,-1,5936.208852666667,unknown,2,2022-06-30T10:09:22.168+02:00,2022-06-30T08:20:05.567+02:00,1582,1.53258,0,0,1248.267,0,0,2022-06-30T10:09:22.167+02:00
2022-06-30T10:09:23.639+02:00,5937.678925291667,-0.329193115234375,-0.725494384765625,-1.022293090820312,5937.668973291667,-1.671365310355386,0.2090634667724464,0.2695158245408519,-1.749518871307373,0.9284650087356567,-1.689929366111755,-0.4901818633079529,-0.4252638816833496,-0.1101734638214111,XArbitraryZVertical,-0.1663072322783724,0.02976664853017809,0.7216158709619718,-0.6713616604574451,0.2000515013933182,-0.2662647664546967,-0.942911684513092,0,0,0,-1,-1,5936.208852666667,unknown,2,2022-06-30T10:09:22.168+02:00,2022-06-30T08:20:05.567+02:00,1582,1.53258,0,0,1248.267,0,0,2022-06-30T10:09:22.167+02:00
2022-06-30T10:09:23.649+02:00,5937.688876291667,-0.3195648193359375,-0.6565399169921875,-1.01336669921875,5937.678925291667,-1.685021598623216,0.222978169347341,0.2466954114902052,-2.148752212524414,1.174534678459167,-1.884607195854187,-0.5200276374816895,-0.4935620427131653,-0.09548115730285645,XArbitraryZVertical,-0.1637857057289464,0.0177632165175502,0.7269370170039359,-0.666649379251095,0.2144401073455811,-0.2442007511854172,-0.9457173943519592,0,0,0,-1,-1,5936.208852666667,unknown,2,2022-06-30T10:09:22.168+02:00,2022-06-30T08:20:05.567+02:00,1582,1.53258,0,0,1248.267,0,0,2022-06-30T10:09:22.167+02:00
2022-06-30T10:09:23.659+02:00,5937.698828291667,-0.30389404296875,-0.5916290283203125,-1.028564453125,5937.688876291667,-1.69922140604073,0.239070425828767,0.2196828452413571,-2.480787754058838,1.414323210716248,-2.065372467041016,-0.5603013038635254,-0.5075746178627014,-0.07408428192138672,XArbitraryZVertical,-0.1608837293570945,0.003476373500085609,0.7325391477163474,-0.6614309075230632,0.2311085015535355,-0.2179200947284698,-0.9482086896896362,0,0,0,-1,-1,5936.208852666667,unknown,2,2022-06-30T10:09:22.168+02:00,2022-06-30T08:20:05.567+02:00,1582,1.53258,0,0,1248.267,0,0,2022-06-30T10:09:22.167+02:00
2022-06-30T10:09:23.668+02:00,5937.708779291667,-0.2855377197265625,-0.51025390625,-1.037002563476562,5937.698828291667,-1.714098617508987,0.2572958202746297,0.1894726879688521,-2.667583465576172,1.652834057807922,-2.262372493743896,-0.569476842880249,-0.4681991934776306,-0.06359207630157471,XArbitraryZVertical,-0.157960500503507,-0.01269872467141296,0.7383608518405529,-0.6555231458720601,0.2499123215675354,-0.1883410513401031,-0.949774444103241,0,0,0,-1,-1,5936.208852666667,unknown,2,2022-06-30T10:09:22.168+02:00,2022-06-30T08:20:05.567+02:00,1582,1.53258,0,0,1248.267,0,0,2022-06-30T10:09:22.167+02:00
2022-06-30T10:09:23.678+02:00,5937.718731291667,-0.2656402587890625,-0.4349822998046875,-1.037948608398438,5937.708779291667,-1.729697456315568,0.2775755616729444,0.1571142019332677,-2.78486156463623,1.888559341430664,-2.429383039474487,-0.5745434165000916,-0.435160756111145,-0.07868725061416626,XArbitraryZVertical,-0.1553760619245157,-0.03032771429705954,0.7443120537732378,-0.6487974168214673,0.270649641752243,-0.1564686149358749,-0.9498770236968994,0,0,0,-1,-1,5936.208852666667,unknown,2,2022-06-30T10:09:22.168+02:00,2022-06-30T08:20:05.567+02:00,1582,1.53258,0,0,1248.267,0,0,2022-06-30T10:09:22.167+02:00
2022-06-30T10:09:23.688+02:00,5937.728682291667,-0.23211669921875,-0.3798675537109375,-1.027374267578125,5937.718731291667,-1.745720623634653,0.2997009612277035,0.1227757564521343,-2.916543483734131,2.118518829345703,-2.59236741065979,-0.5785495638847351,-0.3877866864204407,-0.08876955509185791,XArbitraryZVertical,-0.1531498764123048,-0.04928158333233134,0.750271219911673,-0.6412562955958082,0.2930121421813965,-0.122467540204525,-0.948232889175415,0,0,0,-1,-1,5936.208852666667,unknown,2,2022-06-30T10:09:22.168+02:00,2022-06-30T08:20:05.567+02:00,1582,1.53258,0,0,1248.267,0,0,2022-06-30T10:09:22.167+02:00
2022-06-30T10:09:23.698+02:00,5937.738634291667,-0.17987060546875,-0.281158447265625,-0.975799560546875,5937.728682291667,-1.761910170347187,0.3235769699126739,0.08648552753210108,-3.036933898925781,2.351596117019653,-2.710204362869263,-0.582411527633667,-0.3486048579216003,-0.0933879017829895,XArbitraryZVertical,-0.1512876610006646,-0.06951081556066967,0.7561305242543743,-0.6328878721248618,0.316771537065506,-0.08637775480747223,-0.9445605874061584,0,0,0,-1,-1,5936.208852666667,unknown,2,2022-06-30T10:09:22.168+02:00,2022-06-30T08:20:05.567+02:00,1582,1.53258,0,0,1248.267,0,0,2022-06-30T10:09:22.167+02:00
2022-06-30T10:09:23.708+02:00,5937.748585291667,-0.1317901611328125,-0.1824493408203125,-0.9329986572265625,5937.738634291667,-1.777369189734117,0.3491723115886911,0.04828958402079575,-3.18498420715332,2.591125011444092,-2.742193460464478,-0.5738377571105957,-0.3315970301628113,-0.08881330490112305,XArbitraryZVertical,-0.1497834257827224,-0.09101926159226044,0.7615765293812914,-0.623924457313152,0.3417213559150696,-0.0482708178460598,-0.9385608434677124,0,0,0,-1,-1,5936.208852666667,unknown,2,2022-06-30T10:09:22.168+02:00,2022-06-30T08:20:05.567+02:00,1582,1.53258,0,0,1248.267,0,0,2022-06-30T10:09:22.167+02:00
2022-06-30T10:09:23.718+02:00,5937.758536291667,-0.050445556640625,-0.0892333984375,-0.8936309814453125,5937.748585291667,-1.791633945646945,0.3765290652316495,0.008397425023565127,-3.27630877494812,2.831769943237305,-2.78490948677063,-0.547552227973938,-0.2727614045143127,-0.04588574171066284,XArbitraryZVertical,-0.1486911646038027,-0.1137281335050335,0.7664271513594672,-0.6144480258830436,0.3676819503307343,-0.008397325873374939,-0.9299136996269226,0,0,0,-1,-1,5936.208852666667,unknown,2,2022-06-30T10:09:22.168+02:00,2022-06-30T08:20:05.567+02:00,1582,1.53258,0,0,1248.267,0,0,2022-06-30T10:09:22.167+02:00
2022-06-30T10:09:23.728+02:00,5937.768488291667,0.0288238525390625,0.0036163330078125,-0.844451904296875,5937.758536291667,-1.804840500841432,0.405442288712077,-0.03246347000096893,-3.305306434631348,3.008496284484863,-2.790044784545898,-0.5260072350502014,-0.2149073928594589,-0.01455467939376831,XArbitraryZVertical,-0.1481405362340545,-0.1372313690382229,0.7706814879631336,-0.6043773963065987,0.3942174017429352,0.03245776891708374,-0.9184438586235046,0,0,0,-1,-1,5936.208852666667,unknown,2,2022-06-30T10:09:22.168+02:00,2022-06-30T08:20:05.567+02:00,1582,1.53258,0,0,1248.267,0,0,2022-06-30T10:09:22.167+02:00
2022-06-30T10:09:23.738+02:00,5937.778439291667,0.1080169677734375,0.084014892578125,-0.8083953857421875,5937.768488291667,-1.816724629696185,0.4353433822806697,-0.07385981865365066,-3.303355932235718,3.141478300094604,-2.785191059112549,-0.4710172116756439,-0.1630263775587082,0.01062232255935669,XArbitraryZVertical,-0.1479930564504811,-0.1611566318927616,0.774270349931387,-0.5938282681271478,0.4205720126628876,0.07379268109798431,-0.9042531847953796,0,0,0,-1,-1,5936.208852666667,unknown,2,2022-06-30T10:09:22.168+02:00,2022-06-30T08:20:05.567+02:00,1582,1.53258,0,0,1248.267,0,0,2022-06-30T10:09:22.167+02:00
2022-06-30T10:09:23.748+02:00,5937.788391291667,0.185821533203125,0.18206787109375,-0.77423095703125,5937.778439291667,-1.827219064605625,0.4661022053486077,-0.1153696894780498,-3.29627251625061,3.253855466842651,-2.730141401290894,-0.4175959825515747,-0.1114978641271591,0.04293644428253174,XArbitraryZVertical,-0.1482724381936587,-0.1852597715822476,0.7771635820377145,-0.5828472551708278,0.4464201629161835,0.1151139289140701,-0.8873882293701172,0,0,0,-1,-1,5936.208852666667,unknown,2,2022-06-30T10:09:22.168+02:00,2022-06-30T08:20:05.567+02:00,1582,1.53258,0,0,1248.267,0,0,2022-06-30T10:09:22.167+02:00
2022-06-30T10:09:23.758+02:00,5937.798342291667,0.277984619140625,0.281158447265625,-0.717926025390625,5937.788391291667,-1.835830040883661,0.4978052077063855,-0.1566241667220891,-3.256898880004883,3.357737064361572,-2.624592304229736,-0.3636361658573151,-0.07196998596191406,0.05948257446289062,XArbitraryZVertical,-0.149017918472394,-0.2094153014113239,0.7792056373547391,-0.5716445986783647,0.4716534614562988,0.1559845954179764,-0.8678777813911438,0,0,0,-1,-1,5936.208852666667,unknown,2,2022-06-30T10:09:22.168+02:00,2022-06-30T08:20:05.567+02:00,1582,1.53258,0,0,1248.267,0,0,2022-06-30T10:09:22.167+02:00
2022-06-30T10:09:23.768+02:00,5937.808294291667,0.3496856689453125,0.3728790283203125,-0.662384033203125,5937.798342291667,-1.842227352958071,0.5303093603920024,-0.1973772559958514,-3.253749847412109,3.406816720962524,-2.504395008087158,-0.3101578950881958,-0.01403059065341949,0.07167083024978638,XArbitraryZVertical,-0.1501353363805835,-0.2334706876393471,0.7803279878668655,-0.5603918477149106,0.4959797561168671,0.196098193526268,-0.8459016084671021,0,0,0,-1,-1,5936.208852666667,unknown,2,2022-06-30T10:09:22.168+02:00,2022-06-30T08:20:05.567+02:00,1582,1.53258,0,0,1248.267,0,0,2022-06-30T10:09:22.167+02:00
2022-06-30T10:09:23.778+02:00,5937.818245291667,0.4115753173828125,0.443328857421875,-0.6226959228515625,5937.808294291667,-1.84634069109719,0.5634401763444447,-0.2376538808829914,-3.247164011001587,3.438010692596436,-2.390165328979492,-0.2411009669303894,0.04573507606983185,0.10373455286026,XArbitraryZVertical,-0.1514535598426498,-0.2573550328819471,0.7805598451958476,-0.5491416302475065,0.5190858840942383,0.2354231029748917,-0.8216603994369507,0,0,0,-1,-1,5936.208852666667,unknown,2,2022-06-30T10:09:22.168+02:00,2022-06-30T08:20:05.567+02:00,1582,1.53258,0,0,1248.267,0,0,2022-06-30T10:09:22.167+02:00
2022-06-30T10:09:23.788+02:00,5937.828197291667,0.463897705078125,0.4807281494140625,-0.6260986328125,5937.818245291667,-1.847943977693323,0.5973992816144762,-0.2774601741944927,-3.273207664489746,3.480668544769287,-2.250614166259766,-0.1912950873374939,0.09896489977836609,0.1327958106994629,XArbitraryZVertical,-0.1529296329885743,-0.2811097815827278,0.7798633672312548,-0.5379617801915837,0.5409810543060303,0.2739138603210449,-0.7951796650886536,0,0,0,-1,-1,5936.208852666667,unknown,2,2022-06-30T10:09:22.168+02:00,2022-06-30T08:20:05.567+02:00,1582,1.53258,0,0,1248.267,0,0,2022-06-30T10:09:22.167+02:00
2022-06-30T10:09:23.809+02:00,5937.838148291667,0.52093505859375,0.5124359130859375,-0.6148834228515625,5937.828197291667,-1.846689416526503,0.6326249729957139,-0.3166084127482932,-3.301436901092529,3.535647869110107,-2.086204051971436,-0.1503004431724548,0.1319832801818848,0.14369797706604,XArbitraryZVertical,-0.1546430576933528,-0.30477641053315,0.778151004731758,-0.526951548106668,0.561876118183136,0.3113453388214111,-0.7663937211036682,0,0,0,-1,-1,5936.208852666667,unknown,2,2022-06-30T10:09:22.168+02:00,2022-06-30T08:20:05.567+02:00,1582,1.53258,0,0,1248.267,0,0,2022-06-30T10:09:22.167+02:00
2022-06-30T10:09:23.811+02:00,5937.848099291667,0.573974609375,0.5435943603515625,-0.5892791748046875,5937.838148291667,-1.842050517656991,0.66943935878492,-0.3550789898951128,-3.385684728622437,3.559868574142456,-1.898038744926453,-0.1179381012916565,0.1330634951591492,0.1091539859771729,XArbitraryZVertical,-0.1565321962125966,-0.3284378955754294,0.7753131589390759,-0.5162516716341747,0.5818361639976501,0.3476644158363342,-0.7352524399757385,0,0,0,-1,-1,5936.208852666667,unknown,2,2022-06-30T10:09:22.168+02:00,2022-06-30T08:20:05.567+02:00,1582,1.53258,0,0,1248.267,0,0,2022-06-30T10:09:22.167+02:00
2022-06-30T10:09:23.818+02:00,5937.858051291667,0.61566162109375,0.603515625,-0.53033447265625,5937.848099291667,-1.833814793962936,0.7076720441208456,-0.3927071833866694,-3.418634414672852,3.528529405593872,-1.71638298034668,-0.07964581251144409,0.129744678735733,0.08714944124221802,XArbitraryZVertical,-0.1584198617902532,-0.3519755816996477,0.7713659345460939,-0.5059751595616176,0.600581169128418,0.3826909065246582,-0.7020326852798462,0,0,0,-1,-1,5936.208852666667,unknown,2,2022-06-30T10:09:22.168+02:00,2022-06-30T08:20:05.567+02:00,1582,1.53258,0,0,1248.267,0,0,2022-06-30T10:09:22.167+02:00
2022-06-30T10:09:23.828+02:00,5937.868002291667,0.6432342529296875,0.679962158203125,-0.4540863037109375,5937.858051291667,-1.822442357403577,0.7469806979537066,-0.4287306231591608,-3.389322996139526,3.456829309463501,-1.524129629135132,-0.04395949840545654,0.1278774440288544,0.07805657386779785,XArbitraryZVertical,-0.1603692840468255,-0.374985223837356,0.7664939885880545,-0.496139874588308,0.6179344058036804,0.4157166481018066,-0.667335569858551,0,0,0,-1,-1,5936.208852666667,unknown,2,2022-06-30T10:09:22.168+02:00,2022-06-30T08:20:05.567+02:00,1582,1.53258,0,0,1248.267,0,0,2022-06-30T10:09:22.167+02:00
2022-06-30T10:09:23.838+02:00,5937.877954291667,0.65521240234375,0.7046356201171875,-0.413665771484375,5937.868002291667,-1.80820852763482,0.7870344419484752,-0.4627625716810368,-3.309355497360229,3.372666835784912,-1.369226813316345,-0.01810771226882935,0.1570935845375061,0.1013647317886353,XArbitraryZVertical,-0.1623321155757125,-0.3972389285023054,0.7608378148498142,-0.486801324245608,0.633769690990448,0.4464218318462372,-0.6316990256309509,0,0,0,-1,-1,5936.208852666667,unknown,2,2022-06-30T10:09:22.168+02:00,2022-06-30T08:20:05.567+02:00,1582,1.53258,0,0,1248.267,0,0,2022-06-30T10:09:22.167+02:00
2022-06-30T10:09:23.847+02:00,5937.887905291667,0.68994140625,0.7095947265625,-0.381378173828125,5937.877954291667,-1.792394187682806,0.8275305994522202,-0.4944568339662425,-3.129343748092651,3.311217784881592,-1.278092861175537,-0.004843354225158691,0.2054082751274109,0.1415596604347229,XArbitraryZVertical,-0.1644958458742369,-0.4184713170101864,0.7547668713619381,-0.4776502423129657,0.6480779051780701,0.4745536148548126,-0.5956457257270813,0,0,0,-1,-1,5936.208852666667,unknown,2,2022-06-30T10:09:22.168+02:00,2022-06-30T08:20:05.567+02:00,1582,1.53258,0,0,1248.267,0,0,2022-06-30T10:09:22.167+02:00
2022-06-30T10:09:23.858+02:00,5937.897857291667,0.7442779541015625,0.7005767822265625,-0.390380859375,5937.887905291667,-1.776007594414388,0.8680491303757885,-0.5236094019812428,-2.903831243515015,3.235361099243164,-1.207785129547119,-0.005620837211608887,0.2046261429786682,0.1460574865341187,XArbitraryZVertical,-0.1669660288575888,-0.4384755804669939,0.7485709978735756,-0.468511481071514,0.6608335375785828,0.5000091791152954,-0.5597230195999146,0,0,0,-1,-1,5936.208852666667,unknown,2,2022-06-30T10:09:22.168+02:00,2022-06-30T08:20:05.567+02:00,1582,1.53258,0,0,1248.267,0,0,2022-06-30T10:09:22.167+02:00
2022-06-30T10:09:23.867+02:00,5937.907808291667,0.7469482421875,0.66192626953125,-0.4644012451171875,5937.897857291667,-1.759733614348152,0.9081110336812689,-0.5499045468701773,-2.619842529296875,3.150053977966309,-1.112606167793274,0.01782059669494629,0.1869886517524719,0.1431565284729004,XArbitraryZVertical,-0.1698383238140812,-0.4570423181268736,0.7424406924498731,-0.4594009655121288,0.6721211075782776,0.522605836391449,-0.5245345234870911,0,0,0,-1,-1,5936.208852666667,unknown,2,2022-06-30T10:09:22.168+02:00,2022-06-30T08:20:05.567+02:00,1582,1.53258,0,0,1248.267,0,0,2022-06-30T10:09:22.167+02:00
2022-06-30T10:09:23.877+02:00,5937.917760291667,0.75738525390625,0.6439361572265625,-0.51324462890625,5937.907808291667,-1.743890980606231,0.947704378269321,-0.5736356839940754,-2.391011238098145,3.13005518913269,-1.089354157447815,0.06218665838241577,0.1578872203826904,0.09976160526275635,XArbitraryZVertical,-0.1731291344074114,-0.474294373537385,0.736449498989832,-0.4502371788873554,0.6820916533470154,0.5426893830299377,-0.490142285823822,0,0,0,-1,-1,5936.208852666667,unknown,2,2022-06-30T10:09:22.168+02:00,2022-06-30T08:20:05.567+02:00,1582,1.53258,0,0,1248.267,0,0,2022-06-30T10:09:22.167+02:00
2022-06-30T10:09:23.887+02:00,5937.927711291667,0.7427215576171875,0.749908447265625,-0.4298553466796875,5937.917760291667,-1.729069756726853,0.9866347381833986,-0.5949923122090799,-2.089850902557373,3.030172824859619,-1.005242943763733,0.05612438917160034,0.1014236211776733,-0.007674634456634521,XArbitraryZVertical,-0.1768931945061271,-0.4902505166844783,0.7307344361890251,-0.4408973516122107,0.6908242106437683,0.5605024099349976,-0.456726461648941,0,0,0,-1,-1,5936.208852666667,unknown,2,2022-06-30T10:09:22.168+02:00,2022-06-30T08:20:05.567+02:00,1582,1.53258,0,0,1248.267,0,0,2022-06-30T10:09:22.167+02:00
2022-06-30T10:09:23.897+02:00,5937.937662291667,0.67327880859375,0.909210205078125,-0.2718505859375,5937.927711291667,-1.716203387085719,1.023309524757977,-0.6125753665853177,-1.565490245819092,2.88518500328064,-0.8278073072433472,0.0588030219078064,0.06895947456359863,-0.08735173940658569,XArbitraryZVertical,-0.1812991550930163,-0.5041668943134539,0.7255377901070669,-0.4319044302792409,0.6985825896263123,0.5749764442443848,-0.42589271068573,0,0,0,-1,-1,5936.208852666667,unknown,2,2022-06-30T10:09:22.168+02:00,2022-06-30T08:20:05.567+02:00,1582,1.53258,0,0,1248.267,0,0,2022-06-30T10:09:22.167+02:00
2022-06-30T10:09:23.907+02:00,5937.947614291667,0.65911865234375,1.005645751953125,-0.0778045654296875,5937.937662291667,-1.708171868025325,1.056192007156093,-0.6251564389841072,-0.8547337651252747,2.794210195541382,-0.6871417760848999,0.03686821460723877,0.1646840572357178,-0.03075185418128967,XArbitraryZVertical,-0.1870208998414721,-0.5152393123153873,0.7214881345187756,-0.4230916669034176,0.7058536410331726,0.5852241516113281,-0.3991032540798187,0,0,0,-1,-1,5936.208852666667,unknown,2,2022-06-30T10:09:22.168+02:00,2022-06-30T08:20:05.567+02:00,1582,1.53258,0,0,1248.267,0,0,2022-06-30T10:09:22.167+02:00
2022-06-30T10:09:23.917+02:00,5937.957565291667,0.7044219970703125,0.9683837890625,0.091583251953125,5937.947614291667,-1.706285468087184,1.084349095590318,-0.6332909072556849,-0.2240969240665436,2.643931150436401,-0.5969871878623962,-0.0392988920211792,0.3174092769622803,0.1049845814704895,XArbitraryZVertical,-0.1939999794964993,-0.5233990226958609,0.7188914597919728,-0.4142615604408522,0.7125780582427979,0.5918006896972656,-0.3768349289894104,0,0,0,-1,-1,5936.208852666667,unknown,2,2022-06-30T10:09:22.168+02:00,2022-06-30T08:20:05.567+02:00,1582,1.53258,0,0,1248.267,0,0,2022-06-30T10:09:22.167+02:00
2022-06-30T10:09:23.927+02:00,5937.967517291667,0.765533447265625,0.8830413818359375,0.231414794921875,5937.957565291667,-1.70994483146481,1.107539991092728,-0.6382241600872801,0.2707535326480865,2.459650993347168,-0.5449333190917969,-0.05938529968261719,0.4098754525184631,0.2810964584350586,XArbitraryZVertical,-0.2016749126689619,-0.5290338698581732,0.7176531217479692,-0.4054929477174811,0.7185042500495911,0.5957701206207275,-0.358900785446167,0,0,0,-1,-1,5936.208852666667,unknown,2,2022-06-30T10:09:22.168+02:00,2022-06-30T08:20:05.567+02:00,1582,1.53258,0,0,1248.267,0,0,2022-06-30T10:09:22.167+02:00
2022-06-30T10:09:23.937+02:00,5937.977468291667,0.8175811767578125,0.7922821044921875,0.339508056640625,5937.967517291667,-1.717433122032724,1.126668391088691,-0.6410244754339468,0.528118371963501,2.299012660980225,-0.4855475425720215,-0.01930594444274902,0.3703666925430298,0.4359574317932129,XArbitraryZVertical,-0.2096108601845198,-0.5328004427380294,0.71736770630418,-0.3969517793068559,0.7237282991409302,0.5980168581008911,-0.3443739414215088,0,0,0,-1,-1,5936.208852666667,unknown,2,2022-06-30T10:09:22.168+02:00,2022-06-30T08:20:05.567+02:00,1582,1.53258,0,0,1248.267,0,0,2022-06-30T10:09:22.167+02:00
2022-06-30T10:09:23.947+02:00,5937.987420291667,0.8549957275390625,0.7039947509765625,0.4084014892578125,5937.977468291667,-1.726083280286915,1.143573992137368,-0.6431092311633844,0.5143967270851135,2.149888753890991,-0.4825027585029602,0.0372236967086792,0.2833546996116638,0.5629879236221313,XArbitraryZVertical,-0.2173079010211525,-0.5357152296700601,0.7173987065651425,-0.3887488054448863,0.7283101081848145,0.5996864438056946,-0.331572949886322,0,0,0,-1,-1,5936.208852666667,unknown,2,2022-06-30T10:09:22.168+02:00,2022-06-30T08:20:05.567+02:00,1582,1.53258,0,0,1248.267,0,0,2022-06-30T10:09:22.167+02:00
2022-06-30T10:09:23.957+02:00,5937.997371,0.8981475830078125,0.637451171875,0.4585113525390625,5937.987420291667,-1.733512641990967,1.159816068585994,-0.6460298643241483,0.3196083009243011,2.021390914916992,-0.5342647433280945,0.08559101819992065,0.1902607679367065,0.6585077047348022,XArbitraryZVertical,-0.224183645736933,-0.5387411427571996,0.7172295898063041,-0.3808955225376974,0.7319904565811157,0.6020210981369019,-0.3189993500709534,0,0,0,-1,-1,5936.208852666667,unknown,2,2022-06-30T10:09:22.168+02:00,2022-06-30T08:20:05.567+02:00,1582,1.53258,0,0,1248.267,0,0,2022-06-30T10:09:22.167+02:00
2022-06-30T10:09:23.967+02:00,5938.007322,0.9264984130859375,0.65106201171875,0.535247802734375,5937.997371,-1.737927599908803,1.176438027360296,-0.6505014810738714,-0.04937958344817162,1.856172561645508,-0.5581250786781311,0.1202971935272217,0.09840893745422363,0.7141531109809875,XArbitraryZVertical,-0.2298922234827981,-0.5424701505352644,0.7164777095719969,-0.3735445870048049,0.7346988916397095,0.6055855751037598,-0.3057514131069183,0,0,0,-1,-1,5936.208852666667,unknown,2,2022-06-30T10:09:22.168+02:00,2022-06-30T08:20:05.567+02:00,1582,1.53258,0,0,1248.267,0,0,2022-06-30T10:09:22.167+02:00
2022-06-30T10:09:23.977+02:00,5938.017274000001,0.9419097900390625,0.7205963134765625,0.639984130859375,5938.007322,-1.737446953706073,1.19428197486681,-0.6565848951529615,-0.4810722470283508,1.686245083808899,-0.5372018814086914,0.1615501642227173,0.02703559398651123,0.7497451305389404,XArbitraryZVertical,-0.2341866431065383,-0.5473023441659969,0.7147391066219343,-0.3671033480226921,0.7365977764129639,0.6104153990745544,-0.2912335097789764,0,0,0,-1,-1,5936.208852666667,unknown,2,2022-06-30T10:09:22.168+02:00,2022-06-30T08:20:05.567+02:00,1582,1.53258,0,0,1248.267,0,0,2022-06-30T10:09:22.167+02:00
2022-06-30T10:09:23.987+02:00,5938.027225000001,0.9666900634765625,0.8205718994140625,0.75714111328125,5938.017274000001,-1.731649241164604,1.213882816540808,-0.6637701930381704,-0.9062432646751404,1.555904150009155,-0.465425431728363,0.1884632110595703,0.03497087955474854,0.8104490637779236,XArbitraryZVertical,-0.2372672536125128,-0.5532664328566966,0.7118857619841464,-0.3616893588394272,0.7380355000495911,0.6160908937454224,-0.2752010226249695,0,0,0,-1,-1,5936.208852666667,unknown,2,2022-06-30T10:09:22.168+02:00,2022-06-30T08:20:05.567+02:00,1582,1.53258,0,0,1248.267,0,0,2022-06-30T10:09:22.167+02:00
2022-06-30T10:09:23.997+02:00,5938.037177,1.004959106445312,0.866485595703125,0.8642730712890625,5938.027225000001,-1.720735420418018,1.235387285801107,-0.6712812722038347,-1.197391986846924,1.414149522781372,-0.3629039227962494,0.2025182247161865,0.09860628843307495,0.8977214097976685,XArbitraryZVertical,-0.2394373497326137,-0.5601796381758919,0.7079216762241889,-0.3573729226616778,0.7393918633460999,0.6219897866249084,-0.2577370703220367,0,0,0,-1,-1,5936.208852666667,unknown,2,2022-06-30T10:09:22.168+02:00,2022-06-30T08:20:05.567+02:00,1582,1.53258,0,0,1248.267,0,0,2022-06-30T10:09:22.167+02:00
2022-06-30T10:09:24.007+02:00,5938.047128,1.048873901367188,0.861358642578125,0.9765625,5938.037177,-1.707082058743401,1.256893597970249,-0.6782196348521984,-1.274246454238892,1.193637132644653,-0.2713835835456848,0.2260494828224182,0.1931639909744263,0.9975801110267639,XArbitraryZVertical,-0.2409303792445617,-0.567215279835828,0.7034562392905375,-0.3540744652848804,0.7406408786773682,0.6274076700210571,-0.2404387593269348,0,0,0,-1,-1,5936.208852666667,unknown,2,2022-06-30T10:09:22.168+02:00,2022-06-30T08:20:05.567+02:00,1582,1.53258,0,0,1248.267,0,0,2022-06-30T10:09:22.167+02:00
2022-06-30T10:09:24.017+02:00,5938.05708,1.071014404296875,0.8263702392578125,1.088104248046875,5938.047128,-1.692067072641558,1.276660748678342,-0.6841371732001348,-1.325843095779419,0.8802775144577026,-0.1471999436616898,0.2632770538330078,0.2344807982444763,1.088945388793945,XArbitraryZVertical,-0.2416540778891245,-0.5738181498789248,0.6989123603590682,-0.3519340745151041,0.7416823506355286,0.6320045590400696,-0.2246720790863037,0,0,0,-1,-1,5936.208852666667,unknown,2,2022-06-30T10:09:22.168+02:00,2022-06-30T08:20:05.567+02:00,1582,1.53258,0,0,1248.267,0,0,2022-06-30T10:09:22.167+02:00
2022-06-30T10:09:24.027+02:00,5938.067031,1.053146362304688,0.78314208984375,1.215560913085938,5938.05708,-1.675527349910483,1.294051505181659,-0.6885561787532567,-1.406129956245422,0.5191683173179626,0.0263819545507431,0.306090772151947,0.2259353995323181,1.187537908554077,XArbitraryZVertical,-0.2414993521866398,-0.5798193396599283,0.6942902586923388,-0.351352621365269,0.7427833676338196,0.6354230046272278,-0.2109751999378204,0,0,0,-1,-1,5936.208852666667,unknown,2,2022-06-30T10:09:22.168+02:00,2022-06-30T08:20:05.567+02:00,1582,1.53258,0,0,1248.267,0,0,2022-06-30T10:09:22.167+02:00
2022-06-30T10:09:24.037+02:00,5938.076983,1.02899169921875,0.7738800048828125,1.314559936523438,5938.067031,-1.657079465882387,1.30901408470813,-0.6915262058332116,-1.517710328102112,0.1325422525405884,0.1585188210010529,0.3269840478897095,0.1886565089225769,1.287453293800354,XArbitraryZVertical,-0.2403292232023188,-0.5852926535023171,0.6895153841212804,-0.3524811813578367,0.7440307140350342,0.6377134919166565,-0.1993487477302551,0,0,0,-1,-1,5936.208852666667,unknown,2,2022-06-30T10:09:22.168+02:00,2022-06-30T08:20:05.567+02:00,1582,1.53258,0,0,1248.267,0,0,2022-06-30T10:09:22.167+02:00
2022-06-30T10:09:24.047+02:00,5938.086934,0.99285888671875,0.8053741455078125,1.358413696289062,5938.076983,-1.636248092859935,1.321415393519533,-0.693590214434162,-1.718465566635132,-0.3099723160266876,0.2565338015556335,0.3079781532287598,0.1438398361206055,1.405342578887939,XArbitraryZVertical,-0.2377871517786262,-0.5903952451802161,0.6845466143968778,-0.3553684855096576,0.7451685070991516,0.6393020153045654,-0.1897814571857452,0,0,0,-1,-1,5936.208852666667,unknown,2,2022-06-30T10:09:22.168+02:00,2022-06-30T08:20:05.567+02:00,1582,1.53258,0,0,1248.267,0,0,2022-06-30T10:09:22.167+02:00
2022-06-30T10:09:24.057+02:00,5938.096885,0.9461212158203125,0.8843994140625,1.343368530273438,5938.086934,-1.612451966012457,1.331111470955918,-0.6951488262412676,-1.925153255462646,-0.7962167263031006,0.3317963480949402,0.2829872965812683,0.1333799958229065,1.496870875358582,XArbitraryZVertical,-0.2335240300241552,-0.5952404582853267,0.6793061182322155,-0.3601368802677745,0.7460047006607056,0.6404997110366821,-0.1823106557130814,0,0,0,-1,-1,5936.208852666667,unknown,2,2022-06-30T10:09:22.168+02:00,2022-06-30T08:20:05.567+02:00,1582,1.53258,0,0,1248.267,0,0,2022-06-30T10:09:22.167+02:00
2022-06-30T10:09:24.066+02:00,5938.106837,0.8942108154296875,0.9554443359375,1.320114135742188,5938.096885,-1.586010755391273,1.337532338461014,-0.6964385746429416,-2.10014009475708,-1.320255160331726,0.3747089207172394,0.2465035915374756,0.1638842225074768,1.535739779472351,XArbitraryZVertical,-0.2273677217819803,-0.5997007562399695,0.6738986794588784,-0.3667746129528372,0.7463556528091431,0.6414896845817566,-0.1773258447647095,0,0,0,-1,-1,5936.208852666667,unknown,2,2022-06-30T10:09:22.168+02:00,2022-06-30T08:20:05.567+02:00,1582,1.53258,0,0,1248.267,0,0,2022-06-30T10:09:22.167+02:00
2022-06-30T10:09:24.076+02:00,5938.116788,0.8341522216796875,0.9835662841796875,1.340240478515625,5938.106837,-1.557935729746771,1.339617922502487,-0.6975446589817348,-2.147516012191772,-1.879359006881714,0.4084577262401581,0.2000888586044312,0.2420614361763,1.518974900245667,XArbitraryZVertical,-0.2192521053541354,-0.6034280546118835,0.6685808320414149,-0.3752371329800759,0.74603271484375,0.6423377990722656,-0.1756061911582947,0,0,0,-1,-1,5936.208852666667,unknown,2,2022-06-30T10:09:22.168+02:00,2022-06-30T08:20:05.567+02:00,1582,1.53258,0,0,1248.267,0,0,2022-06-30T10:09:22.167+02:00
2022-06-30T10:09:24.086+02:00,5938.126740000001,0.769561767578125,0.9591217041015625,1.397735595703125,5938.116788,-1.529462240006113,1.3361686304106,-0.6985638466054428,-2.175791501998901,-2.491873979568481,0.4074119031429291,0.1494256854057312,0.3123255372047424,1.498140454292297,XArbitraryZVertical,-0.2091492587648463,-0.6060061966209291,0.6636527383990221,-0.3854585766886166,0.7447855472564697,0.6431186199188232,-0.1780261546373367,0,0,0,-1,-1,5936.208852666667,unknown,2,2022-06-30T10:09:22.168+02:00,2022-06-30T08:20:05.567+02:00,1582,1.53258,0,0,1248.267,0,0,2022-06-30T10:09:22.167+02:00
2022-06-30T10:09:24.096+02:00,5938.136691000001,0.705535888671875,0.9566192626953125,1.495834350585938,5938.126740000001,-1.500055184664718,1.326875216088385,-0.6999269149292009,-2.313449621200562,-3.181213140487671,0.4110553562641144,0.09190505743026733,0.339404284954071,1.52496874332428,XArbitraryZVertical,-0.1966901523739591,-0.6074116755868232,0.6589999735965357,-0.3975968483635779,0.7422475218772888,0.6441617608070374,-0.1847280859947205,0,0,0,-1,-1,5936.208852666667,unknown,2,2022-06-30T10:09:22.168+02:00,2022-06-30T08:20:05.567+02:00,1582,1.53258,0,0,1248.267,0,0,2022-06-30T10:09:22.167+02:00
2022-06-30T10:09:24.106+02:00,5938.146643,0.6161346435546875,1.002334594726562,1.612960815429688,5938.136691000001,-1.467091681202426,1.312819525429999,-0.7020424272661396,-2.733871936798096,-3.902571439743042,0.4395882189273834,0.0313037633895874,0.3133428692817688,1.592529892921448,XArbitraryZVertical,-0.1813305618290441,-0.6080478312440041,0.6539110190226015,-0.4120647820461937,0.7382583022117615,0.645778477191925,-0.1947941184043884,0,0,0,-1,-1,5936.208852666667,unknown,2,2022-06-30T10:09:22.168+02:00,2022-06-30T08:20:05.567+02:00,1582,1.53258,0,0,1248.267,0,0,2022-06-30T10:09:22.167+02:00
2022-06-30T10:09:24.116+02:00,5938.156594,0.5294036865234375,1.10919189453125,1.741348266601562,5938.146643,-1.427754233515006,1.295926483187598,-0.7056019543281675,-3.275699138641357,-4.597376823425293,0.4653646051883698,-0.02710938453674316,0.3081268072128296,1.702446460723877,XArbitraryZVertical,-0.1626276515068014,-0.6084786276682167,0.6475294259622735,-0.4289659974955405,0.7326456904411316,0.648492157459259,-0.2066120058298111,0,0,0,-1,-1,5936.208852666667,unknown,2,2022-06-30T10:09:22.168+02:00,2022-06-30T08:20:05.567+02:00,1582,1.53258,0,0,1248.267,0,0,2022-06-30T10:09:22.167+02:00
2022-06-30T10:09:24.126+02:00,5938.166546,0.4348297119140625,1.261886596679688,1.804183959960938,5938.156594,-1.381803920212213,1.276443981635147,-0.711057777173561,-3.746921539306641,-5.326361656188965,0.4522051513195038,-0.1089498400688171,0.3496987819671631,1.83277690410614,XArbitraryZVertical,-0.1404461507649563,-0.6085777762519314,0.6396117501491042,-0.4481127050025814,0.7250849008560181,0.6526355743408203,-0.2198159396648407,0,0,0,-1,-1,5936.208852666667,unknown,2,2022-06-30T10:09:22.168+02:00,2022-06-30T08:20:05.567+02:00,1582,1.53258,0,0,1248.267,0,0,2022-06-30T10:09:22.167+02:00
2022-06-30T10:09:24.136+02:00,5938.176497,0.290802001953125,1.412200927734375,1.724868774414062,5938.166546,-1.331517136570559,1.25240083394872,-0.7188231665474013,-3.970828294754028,-6.129461765289307,0.3619575202465057,-0.1853517293930054,0.4506921172142029,1.976938724517822,XArbitraryZVertical,-0.1147320160994284,-0.6074877505009322,0.6305987364615777,-0.4691913991536355,0.7147557735443115,0.6584994792938232,-0.235590398311615,0,0,0,-1,-1,5936.208852666667,unknown,2,2022-06-30T10:09:22.168+02:00,2022-06-30T08:20:05.567+02:00,1582,1.53258,0,0,1248.267,0,0,2022-06-30T10:09:22.167+02:00
2022-06-30T10:09:24.146+02:00,5938.186448,0.1051025390625,1.521636962890625,1.56719970703125,5938.176497,-1.280055059771881,1.221399550045958,-0.7292282385503479,-4.019736766815186,-6.938266754150391,0.2032174170017242,-0.2658038139343262,0.5955919623374939,2.059456586837769,XArbitraryZVertical,-0.08564064463019373,-0.6041766592596016,0.6211160723986737,-0.4917835920520246,0.7006338834762573,0.6662943363189697,-0.2552724778652191,0,0,0,-1,-1,5936.208852666667,unknown,2,2022-06-30T10:09:22.168+02:00,2022-06-30T08:20:05.567+02:00,1582,1.53258,0,0,1248.267,0,0,2022-06-30T10:09:22.167+02:00
2022-06-30T10:09:24.156+02:00,5938.196400000001,-0.0720367431640625,1.6884765625,1.387161254882812,5938.186448,-1.230398224843843,1.181879177480062,-0.7420947353997098,-3.776019811630249,-7.690956115722656,0.0787554457783699,-0.3912091255187988,0.7363672852516174,2.004350185394287,XArbitraryZVertical,-0.05375887859433344,-0.5978037795753141,0.6116147400265711,-0.5154300140116074,0.6820114850997925,0.6758333444595337,-0.2794812619686127,0,0,0,-1,-1,5936.208852666667,unknown,2,2022-06-30T10:09:22.168+02:00,2022-06-30T08:20:05.567+02:00,1582,1.53258,0,0,1248.267,0,0,2022-06-30T10:09:22.167+02:00
2022-06-30T10:09:24.166+02:00,5938.206351000001,-0.299530029296875,1.843795776367188,1.3177490234375,5938.196400000001,-1.185194098556417,1.132181032163985,-0.755279766505524,-3.393741369247437,-8.487748146057129,0.2122003138065338,-0.5540573596954346,0.8361443281173706,1.876405239105225,XArbitraryZVertical,-0.0203012466910541,-0.58735433910351,0.602217721870809,-0.5403115524031692,0.6591601967811584,0.6854923963546753,-0.3092054724693298,0,0,0,-1,-1,5936.208852666667,unknown,2,2022-06-30T10:09:22.168+02:00,2022-06-30T08:20:05.567+02:00,1582,1.53258,0,0,1248.267,0,0,2022-06-30T10:09:22.167+02:00
2022-06-30T10:09:24.176+02:00,5938.216303,-0.568878173828125,1.788681030273438,1.392364501953125,5938.206351000001,-1.142635999534422,1.072640958873226,-0.76764905020573,-3.309954881668091,-9.373244285583496,0.3432917892932892,-0.704132080078125,0.9940307140350342,1.730964183807373,XArbitraryZVertical,0.01457010535931076,-0.5726135061278584,0.5919551292892838,-0.5670014036112331,0.6320956349372864,0.6944455504417419,-0.3438029587268829,0,0,0,-1,-1,5936.208852666667,unknown,2,2022-06-30T10:09:22.168+02:00,2022-06-30T08:20:05.567+02:00,1582,1.53258,0,0,1248.267,0,0,2022-06-30T10:09:22.167+02:00
2022-06-30T10:09:24.186+02:00,5938.226254,-0.7500762939453125,1.767959594726562,1.423355102539062,5938.216303,-1.099357905488884,1.005493132039991,-0.7819096719203116,-3.498298168182373,-10.18729686737061,0.3569878935813904,-0.8987086415290833,1.139159679412842,1.697845220565796,XArbitraryZVertical,0.05200626307164499,-0.5542988577950896,0.5797960377892999,-0.5948820484763926,0.5991788506507874,0.7046357393264771,-0.3800962567329407,0,0,0,-1,-1,5936.208852666667,unknown,2,2022-06-30T10:09:22.168+02:00,2022-06-30T08:20:05.567+02:00,1582,1.53258,0,0,1248.267,0,0,2022-06-30T10:09:22.167+02:00
2022-06-30T10:09:24.196+02:00,5938.236206,-1.049423217773438,1.987640380859375,1.39825439453125,5938.226254,-1.05391996191656,0.9323869742069018,-0.7980295877922559,-3.640488386154175,-11.00810432434082,0.6724804043769836,-1.129498600959778,1.072698831558228,1.808386564254761,XArbitraryZVertical,0.09167606084213731,-0.5325264109247634,0.5648909884684349,-0.6236260450696225,0.5606207251548767,0.7159819006919861,-0.4160222411155701,0,0,0,-1,-1,5936.208852666667,unknown,2,2022-06-30T10:09:22.168+02:00,2022-06-30T08:20:05.567+02:00,1582,1.53258,0,0,1248.267,0,0,2022-06-30T10:09:22.167+02:00
2022-06-30T10:09:24.206+02:00,5938.246157,-1.576934814453125,2.20880126953125,1.0877685546875,5938.236206,-1.004584493496276,0.8544409584753268,-0.8147230742162935,-3.759932279586792,-11.7620267868042,1.001026034355164,-1.267512679100037,1.040423631668091,1.873856067657471,XArbitraryZVertical,0.1328849385272416,-0.5070414642938866,0.5461907174126144,-0.6533959216863794,0.5174366235733032,0.7275356650352478,-0.4505010843276978,0,0,0,-1,-1,5936.208852666667,unknown,2,2022-06-30T10:09:22.168+02:00,2022-06-30T08:20:05.567+02:00,1582,1.53258,0,0,1248.267,0,0,2022-06-30T10:09:22.167+02:00
2022-06-30T10:09:24.216+02:00,5938.256108,-2.169158935546875,2.44329833984375,0.6546173095703125,5938.246157,-0.9550179105416057,0.7712718331121226,-0.8312645708613298,-3.369229793548584,-12.24021148681641,1.264963984489441,-1.519192814826965,1.248855829238892,1.881487369537354,XArbitraryZVertical,0.1741195886171467,-0.4775623529147725,0.5244519698024556,-0.6830569081458254,0.4697698056697845,0.7387841939926147,-0.4832331240177155,0,0,0,-1,-1,5936.208852666667,unknown,2,2022-06-30T10:09:22.168+02:00,2022-06-30T08:20:05.567+02:00,1582,1.53258,0,0,1248.267,0,0,2022-06-30T10:09:22.167+02:00
2022-06-30T10:09:24.226+02:00,5938.26606,-7.252105712890625,-4.149307250976562,-2.919189453125,5938.256108,-0.9086598480641397,0.6843979080632435,-0.8468648034903723,-3.550844430923462,-11.70199489593506,1.015695571899414,-1.995667457580566,1.459593534469604,1.600945711135864,XArbitraryZVertical,0.2135442769424683,-0.4447585503496888,0.5007952292706569,-0.7111911948719158,0.4187328219413757,0.7492075562477112,-0.5131773352622986,0,0,0,-1,-1,5936.208852666667,unknown,2,2022-06-30T10:09:22.168+02:00,2022-06-30T08:20:05.567+02:00,1582,1.53258,0,0,1248.267,0,0,2022-06-30T10:09:22.167+02:00
2022-06-30T10:09:24.236+02:00,5938.276011,-9.108230590820312,-1.416213989257812,-14.79019165039062,5938.26606,-0.9358934605089868,0.5547546833486035,-0.8587043038466564,-7.558903217315674,-1.853901505470276,3.816648960113525,-2.513337135314941,1.686301469802856,1.210042476654053,XArbitraryZVertical,0.2450254802904554,-0.4028024326623551,0.4961767568975619,-0.7290551097563852,0.3441784381866455,0.7569965720176697,-0.5554254055023193,0,0,0,-1,-1,5936.208852666667,unknown,2,2022-06-30T10:09:22.168+02:00,2022-06-30T08:20:05.567+02:00,1582,1.53258,0,0,1248.267,0,0,2022-06-30T10:09:22.167+02:00
2022-06-30T10:09:24.246+02:00,5938.285963,-4.392105102539062,4.754608154296875,-7.362075805664062,5938.276011,-0.7502804555402673,0.6941494663147016,-0.9193169555709365,-13.4039945602417,-1.972940564155579,1.581831216812134,-7.640015602111816,-4.94449520111084,-2.453140020370483,XArbitraryZVertical,0.2764804410837063,-0.4365016242625361,0.4492013335466585,-0.7288642324641804,0.3879100680351257,0.7951876521110535,-0.4660497903823853,0,0,0,-1,-1,5936.208852666667,unknown,2,2022-06-30T10:09:22.168+02:00,2022-06-30T08:20:05.567+02:00,1582,1.53258,0,0,1248.267,0,0,2022-06-30T10:09:22.167+02:00
2022-06-30T10:09:24.256+02:00,5938.295914,-1.128082275390625,4.866806030273438,-2.434600830078125,5938.285963,-0.6646672828406744,0.7458870182396913,-1.003689054281049,-5.03947114944458,-0.06998416036367416,-3.308651924133301,-9.472783088684082,-2.25967264175415,-14.3956298828125,XArbitraryZVertical,0.3192498125185847,-0.448105566382514,0.432042553119093,-0.7145769475235132,0.3645527958869934,0.8434584736824036,-0.3945619165897369,0,0,0,-1,-1,5936.208852666667,unknown,2,2022-06-30T10:09:22.168+02:00,2022-06-30T08:20:05.567+02:00,1582,1.53258,0,0,1248.267,0,0,2022-06-30T10:09:22.167+02:00
2022-06-30T10:09:24.266+02:00,5938.305866000001,1.889877319335938,0.9755401611328125,1.052947998046875,5938.295914,-0.6647763103873668,0.7693719122849171,-1.040588742281777,-1.38535749912262,3.949562072753906,-1.48580527305603,-4.743921279907227,3.891905784606934,-6.998798847198486,XArbitraryZVertical,0.3293344137296617,-0.4581486283951446,0.4387791766525382,-0.6993650464782136,0.3518161177635193,0.8627021312713623,-0.3632773458957672,0,0,0,-1,-1,5936.208852666667,unknown,2,2022-06-30T10:09:22.168+02:00,2022-06-30T08:20:05.567+02:00,1582,1.53258,0,0,1248.267,0,0,2022-06-30T10:09:22.167+02:00
2022-06-30T10:09:24.276+02:00,5938.315817000001,2.145584106445312,0.4644927978515625,1.605209350585938,5938.305866000001,-0.657934339046728,0.8056425777866884,-1.043296786745566,0.7425646185874939,1.540271878242493,1.666943788528442,-1.491153955459595,4.002737522125244,-2.085939884185791,XArbitraryZVertical,0.3240396662079086,-0.4697527934513518,0.4425483382992381,-0.6917236502980733,0.3630717992782593,0.8640684485435486,-0.3486612141132355,0,0,0,-1,-1,5936.208852666667,unknown,2,2022-06-30T10:09:22.168+02:00,2022-06-30T08:20:05.567+02:00,1582,1.53258,0,0,1248.267,0,0,2022-06-30T10:09:22.167+02:00
2022-06-30T10:09:24.285+02:00,5938.325769,2.067031860351562,0.7590789794921875,0.0830535888671875,5938.315817000001,-0.6496823344340016,0.8125543714340374,-1.027231723166504,0.2793676555156708,-0.9160821437835693,0.7119835615158081,1.514373540878296,0.1196694374084473,1.408591508865356,XArbitraryZVertical,0.3178756613657555,-0.470247932549194,0.4393653997586107,-0.6962615530124442,0.3755039870738983,0.8558705449104309,-0.3556438982486725,0,0,0,-1,-1,5936.208852666667,unknown,2,2022-06-30T10:09:22.168+02:00,2022-06-30T08:20:05.567+02:00,1582,1.53258,0,0,1248.267,0,0,2022-06-30T10:09:22.167+02:00
2022-06-30T10:09:24.302+02:00,5938.33572,1.489791870117188,1.363433837890625,-0.491851806640625,5938.325769,-0.6404071750283707,0.8082094130040852,-1.02911280529915,-0.8922149538993835,-1.504261136054993,0.02384486049413681,1.772793889045715,-0.3923492431640625,1.961368322372437,XArbitraryZVertical,0.3217717468889872,-0.4673150008607935,0.4356071966335834,-0.6988033547220566,0.3727903962135315,0.8568419218063354,-0.3561592698097229,0,0,0,-1,-1,5936.208852666667,unknown,2,2022-06-30T10:09:22.168+02:00,2022-06-30T08:20:05.567+02:00,1582,1.53258,0,0,1248.267,0,0,2022-06-30T10:09:22.167+02:00
2022-06-30T10:09:24.305+02:00,5938.345672,0.06646728515625,1.410873413085938,-0.6811065673828125,5938.33572,-0.6305655838079158,0.7979445335299005,-1.029994755437591,0.2119020819664001,-2.164185523986816,0.4958717823028564,1.698458313941956,-0.09821748733520508,0.4424926042556763,XArbitraryZVertical,0.3266435766882002,-0.4621518207737619,0.4305740469347487,-0.7030830581402361,0.3685737252235413,0.8572962880134583,-0.359439343214035,0,0,0,-1,-1,5936.208852666667,unknown,2,2022-06-30T10:09:22.168+02:00,2022-06-30T08:20:05.567+02:00,1582,1.53258,0,0,1248.267,0,0,2022-06-30T10:09:22.167+02:00
2022-06-30T10:09:24.315+02:00,5938.355623,-0.4309539794921875,0.6934356689453125,-0.9578704833984375,5938.345672,-0.6382720851409674,0.7698127405464825,-1.021522155877544,1.440401673316956,-1.954322576522827,0.0004481248324736953,1.126432061195374,0.5105299353599548,-0.1169856488704681,XArbitraryZVertical,0.32742920731646,-0.453163189794078,0.4279563861386645,-0.7101313911362734,0.3633599579334259,0.8529036641120911,-0.3748664855957031,0,0,0,-1,-1,5936.208852666667,unknown,2,2022-06-30T10:09:22.168+02:00,2022-06-30T08:20:05.567+02:00,1582,1.53258,0,0,1248.267,0,0,2022-06-30T10:09:22.167+02:00
2022-06-30T10:09:24.326+02:00,5938.365574,-0.1648101806640625,0.2792816162109375,-1.09527587890625,5938.355623,-0.6584889652777017,0.736510070408858,-1.014374194391979,0.8688606023788452,-1.308892726898193,-0.4425878822803497,-0.2882953584194183,0.561722993850708,-0.2898431718349457,XArbitraryZVertical,0.3270738740321881,-0.4442868888097096,0.4291392726729739,-0.7151722140391392,0.3547627925872803,0.8491501808166504,-0.3912636935710907,0,0,0,-1,-1,5936.208852666667,unknown,2,2022-06-30T10:09:22.168+02:00,2022-06-30T08:20:05.567+02:00,1582,1.53258,0,0,1248.267,0,0,2022-06-30T10:09:22.167+02:00
2022-06-30T10:09:24.335+02:00,5938.375526000001,0.01348876953125,0.48077392578125,-0.926544189453125,5938.365574,-0.6663621825455135,0.7177751189507752,-1.013238341872313,-0.03805522248148918,-1.089503049850464,0.03502371162176132,-0.7789586782455444,-0.1551143527030945,-0.5593034029006958,XArbitraryZVertical,0.3288833376905244,-0.4388075558764896,0.4288045726259712,-0.7179207960850983,0.3480047881603241,0.8485497236251831,-0.3985673487186432,0,0,0,-1,-1,5936.208852666667,unknown,2,2022-06-30T10:09:22.168+02:00,2022-06-30T08:20:05.567+02:00,1582,1.53258,0,0,1248.267,0,0,2022-06-30T10:09:22.167+02:00
2022-06-30T10:09:24.345+02:00,5938.385477000001,0.1463775634765625,0.9464569091796875,-0.6267547607421875,5938.375526000001,-0.6590339256190197,0.7144855985120065,-1.012754574354911,-0.3061170279979706,-0.7787978053092957,0.5643701553344727,-0.5117707848548889,-0.5690122842788696,-0.6952561140060425,XArbitraryZVertical,0.3309886985524795,-0.4363902623881422,0.4255925731235974,-0.7203339157802494,0.3469607532024384,0.848293662071228,-0.400020033121109,0,0,0,-1,-1,5936.208852666667,unknown,2,2022-06-30T10:09:22.168+02:00,2022-06-30T08:20:05.567+02:00,1582,1.53258,0,0,1248.267,0,0,2022-06-30T10:09:22.167+02:00
2022-06-30T10:09:24.355+02:00,5938.395429,0.2368011474609375,1.049346923828125,-0.4381866455078125,5938.385477000001,-0.6488500855291731,0.7167779613776596,-1.010633435017595,-0.04882144927978516,-0.5184351801872253,0.460587203502655,-0.3355693221092224,-0.3663948774337769,-0.5259650945663452,XArbitraryZVertical,0.3318417093066822,-0.4354209077609624,0.4221457113447812,-0.7225529865265515,0.3490582406520844,0.8471685647964478,-0.400579422712326,0,0,0,-1,-1,5936.208852666667,unknown,2,2022-06-30T10:09:22.168+02:00,2022-06-30T08:20:05.567+02:00,1582,1.53258,0,0,1248.267,0,0,2022-06-30T10:09:22.167+02:00
2022-06-30T10:09:24.365+02:00,5938.40538,0.28369140625,0.94952392578125,-0.2410125732421875,5938.395429,-0.646608933152343,0.7135381307610897,-1.007809565219044,0.3379326462745667,-0.5290684103965759,0.1192461103200912,-0.2029452621936798,0.1007919311523438,-0.2232397794723511,XArbitraryZVertical,0.3318376473484821,-0.4337351085832727,0.4205908198507788,-0.7244729490217648,0.3493229746818542,0.8456647992134094,-0.4035152494907379,0,0,0,-1,-1,5936.208852666667,unknown,2,2022-06-30T10:09:22.168+02:00,2022-06-30T08:20:05.567+02:00,1582,1.53258,0,0,1248.267,0,0,2022-06-30T10:09:22.167+02:00
2022-06-30T10:09:24.375+02:00,5938.415332,0.2409515380859375,0.90673828125,-0.08782958984375,5938.40538,-0.6511764417950526,0.703900851275593,-1.003993821914231,0.5445435047149658,-0.6103458404541016,0.04516875743865967,-0.1107026040554047,0.2057245969772339,-0.02886706590652466,XArbitraryZVertical,0.3312889246908762,-0.4307988981549568,0.4203752654997938,-0.7265979950158732,0.3475039005279541,0.8436221480369568,-0.4093199074268341,0,0,0,-1,-1,5936.208852666667,unknown,2,2022-06-30T10:09:22.168+02:00,2022-06-30T08:20:05.567+02:00,1582,1.53258,0,0,1248.267,0,0,2022-06-30T10:09:22.167+02:00
2022-06-30T10:09:24.385+02:00,5938.425283,0.156707763671875,0.93878173828125,0.0013427734375,5938.415332,-0.6570221961126095,0.6925527158497176,-0.9993031035037998,0.5993305444717407,-0.6845883727073669,0.08982331305742264,-0.06166794896125793,0.1084294319152832,0.1752650439739227,XArbitraryZVertical,0.3304652645761644,-0.4273801007535448,0.4202987105558165,-0.7290321961799326,0.3453594446182251,0.8410942554473877,-0.4162779152393341,0,0,0,-1,-1,5936.208852666667,unknown,2,2022-06-30T10:09:22.168+02:00,2022-06-30T08:20:05.567+02:00,1582,1.53258,0,0,1248.267,0,0,2022-06-30T10:09:22.167+02:00
2022-06-30T10:09:24.395+02:00,5938.435234,0.025604248046875,0.8119049072265625,-0.05877685546875,5938.425283,-0.6643232473177401,0.6791695320567015,-0.9937350504439794,0.8125540018081665,-0.7552366852760315,-0.03315061330795288,-0.1017423570156097,0.06866848468780518,0.3366701006889343,XArbitraryZVertical,0.3294014271584532,-0.4233730408434156,0.4203859526439542,-0.731796113602625,0.3426940143108368,0.8380694985389709,-0.4244999289512634,0,0,0,-1,-1,5936.208852666667,unknown,2,2022-06-30T10:09:22.168+02:00,2022-06-30T08:20:05.567+02:00,1582,1.53258,0,0,1248.267,0,0,2022-06-30T10:09:22.167+02:00
2022-06-30T10:09:24.405+02:00,5938.445186,-0.006072998046875,0.655364990234375,-0.2395477294921875,5938.435234,-0.6775860227727084,0.6608662149019363,-0.9877030094938095,0.9878456592559814,-0.6915533542633057,-0.3321490287780762,-0.1812563240528107,0.1040180921554565,0.4360266327857971,XArbitraryZVertical,0.3279426208949819,-0.4184633183495861,0.4218615220555774,-0.7344216080882682,0.33796426653862,0.8347634673118591,-0.4346841871738434,0,0,0,-1,-1,5936.208852666667,unknown,2,2022-06-30T10:09:22.168+02:00,2022-06-30T08:20:05.567+02:00,1582,1.53258,0,0,1248.267,0,0,2022-06-30T10:09:22.167+02:00
2022-06-30T10:09:24.424+02:00,5938.455137,-0.061431884765625,0.6164398193359375,-0.3292083740234375,5938.445186,-0.6916292089259771,0.6425334435763016,-0.9836250917941943,0.5485835671424866,-0.6494243741035461,-0.3615024983882904,-0.306371659040451,-0.0206063985824585,0.3847510814666748,XArbitraryZVertical,0.3271899318769379,-0.4137422265205369,0.423787540093149,-0.7363208938788788,0.331976056098938,0.8325111865997314,-0.4435282349586487,0,0,0,-1,-1,5936.208852666667,unknown,2,2022-06-30T10:09:22.168+02:00,2022-06-30T08:20:05.567+02:00,1582,1.53258,0,0,1248.267,0,0,2022-06-30T10:09:22.167+02:00
2022-06-30T10:09:24.429+02:00,5938.465089,-0.243377685546875,0.7791748046875,-0.3565673828125,5938.455137,-0.6980406965686824,0.6306450350794213,-0.9846058420336992,-0.2586357295513153,-0.6586692929267883,-0.3504365384578705,-0.3322710394859314,-0.1776893138885498,0.2072356939315796,XArbitraryZVertical,0.3287999132041672,-0.4104860080430459,0.4242520049921905,-0.7371581727481906,0.3261981904506683,0.8330541253089905,-0.446783721446991,0,0,0,-1,-1,5936.208852666667,unknown,2,2022-06-30T10:09:22.168+02:00,2022-06-30T08:20:05.567+02:00,1582,1.53258,0,0,1248.267,0,0,2022-06-30T10:09:22.167+02:00
2022-06-30T10:09:24.435+02:00,5938.47504,-0.392181396484375,0.9473876953125,-0.516571044921875,5938.465089,-0.699584428300416,0.6233829347378375,-0.9908585072661349,-0.5462851524353027,-0.5155418515205383,-0.5133328437805176,-0.3813296854496002,-0.2200571298599243,0.1156942844390869,XArbitraryZVertical,0.3326405568386671,-0.4085324654934026,0.4239349824985839,-0.7367025869072863,0.3198979198932648,0.8364967107772827,-0.4449029564857483,0,0,0,-1,-1,5936.208852666667,unknown,2,2022-06-30T10:09:22.168+02:00,2022-06-30T08:20:05.567+02:00,1582,1.53258,0,0,1248.267,0,0,2022-06-30T10:09:22.167+02:00
2022-06-30T10:09:24.445+02:00,5938.484992000001,-0.480010986328125,1.0447998046875,-0.6859893798828125,5938.47504,-0.7037178327773546,0.6158747850626749,-0.9972997428478251,-0.1929124444723129,-0.3021243810653687,-0.5749123692512512,-0.5568069219589233,-0.06083440780639648,0.08631709218025208,XArbitraryZVertical,0.3360832724860799,-0.4069467331233424,0.4245092014512984,-0.7356862699386999,0.3134293556213379,0.8400089740753174,-0.442884773015976,0,0,0,-1,-1,5936.208852666667,unknown,2,2022-06-30T10:09:22.168+02:00,2022-06-30T08:20:05.567+02:00,1582,1.53258,0,0,1248.267,0,0,2022-06-30T10:09:22.167+02:00
2022-06-30T10:09:24.455+02:00,5938.494943000001,-0.54522705078125,1.133819580078125,-0.77484130859375,5938.484992000001,-0.7131442929691464,0.6058633774830188,-1.000493657437181,0.2504815757274628,-0.1072191745042801,-0.6290814876556396,-0.6996317505836487,0.1056498885154724,-0.07277855277061462,XArbitraryZVertical,0.3376331492209829,-0.4051017980917442,0.4264309238202377,-0.7348830226806747,0.3074504435062408,0.8417376279830933,-0.4437927901744843,0,0,0,-1,-1,5936.208852666667,unknown,2,2022-06-30T10:09:22.168+02:00,2022-06-30T08:20:05.567+02:00,1582,1.53258,0,0,1248.267,0,0,2022-06-30T10:09:22.167+02:00
2022-06-30T10:09:24.464+02:00,5938.504895,-0.6111602783203125,1.208938598632812,-0.78253173828125,5938.494943000001,-0.7272469599685886,0.5938588106751048,-1.001128094902655,0.5102114081382751,0.07771845906972885,-0.6863522529602051,-0.7818129062652588,0.2027196288108826,-0.2389808595180511,XArbitraryZVertical,0.3376174037189338,-0.4031253665545829,0.4296093847042418,-0.734125484498023,0.301802009344101,0.8420799374580383,-0.4470088481903076,0,0,0,-1,-1,5936.208852666667,unknown,2,2022-06-30T10:09:22.168+02:00,2022-06-30T08:20:05.567+02:00,1582,1.53258,0,0,1248.267,0,0,2022-06-30T10:09:22.167+02:00
2022-06-30T10:09:24.474+02:00,5938.514846,-0.68658447265625,1.232391357421875,-0.760528564453125,5938.504895,-0.7449422216259068,0.58075133866658,-0.9998787581727591,0.7666078805923462,0.2853446006774902,-0.7695391774177551,-0.8417210578918457,0.2924138903617859,-0.3230361640453339,XArbitraryZVertical,0.3363679568611916,-0.4011905638660433,0.4338474865032233,-0.7332660942254604,0.2964940965175629,0.84140545129776,-0.4518054723739624,0,0,0,-1,-1,5936.208852666667,unknown,2,2022-06-30T10:09:22.168+02:00,2022-06-30T08:20:05.567+02:00,1582,1.53258,0,0,1248.267,0,0,2022-06-30T10:09:22.167+02:00
2022-06-30T10:09:24.484+02:00,5938.524797,-0.6970062255859375,1.190673828125,-0.6698760986328125,5938.514846,-0.7664734732237144,0.5665008293466791,-0.9973346909359789,0.9234954714775085,0.4847437143325806,-0.903813898563385,-0.9023337960243225,0.3689104914665222,-0.3247426748275757,XArbitraryZVertical,0.3341102585295351,-0.3993440236418473,0.4392684687816838,-0.7320778649819549,0.2911736369132996,0.840027928352356,-0.4577893614768982,0,0,0,-1,-1,5936.208852666667,unknown,2,2022-06-30T10:09:22.168+02:00,2022-06-30T08:20:05.567+02:00,1582,1.53258,0,0,1248.267,0,0,2022-06-30T10:09:22.167+02:00
2022-06-30T10:09:24.494+02:00,5938.534749,-0.7012939453125,1.194732666015625,-0.5907135009765625,5938.524797,-0.7909683621034074,0.5514904075083812,-0.9939257128540872,1.108631372451782,0.6337447166442871,-0.9795817136764526,-0.9723525047302246,0.3942176103591919,-0.2959842681884766,XArbitraryZVertical,0.3311337484626944,-0.3975904241970436,0.4456435956556125,-0.730530004258563,0.2857682108879089,0.838173508644104,-0.4645445942878723,0,0,0,-1,-1,5936.208852666667,unknown,2,2022-06-30T10:09:22.168+02:00,2022-06-30T08:20:05.567+02:00,1582,1.53258,0,0,1248.267,0,0,2022-06-30T10:09:22.167+02:00
2022-06-30T10:09:24.504+02:00,5938.5447,-0.7034454345703125,1.220748901367188,-0.611907958984375,5938.534749,-0.8184787507490061,0.5355774905654095,-0.9885469520238506,1.431940197944641,0.810693085193634,-1.044955611228943,-0.9776428937911987,0.3554456830024719,-0.1969732344150543,XArbitraryZVertical,0.327020945571097,-0.3957344287745821,0.4529609729105141,-0.7288880518682654,0.280636727809906,0.8352278470993042,-0.4729031324386597,0,0,0,-1,-1,5936.208852666667,unknown,2,2022-06-30T10:09:22.168+02:00,2022-06-30T08:20:05.567+02:00,1582,1.53258,0,0,1248.267,0,0,2022-06-30T10:09:22.167+02:00
2022-06-30T10:09:24.514+02:00,5938.554652000001,-0.7093048095703125,1.22393798828125,-0.61322021484375,5938.5447,-0.8506553577632106,0.5175729069768165,-0.9795755283877918,1.944389343261719,0.9440777897834778,-1.132950186729431,-0.9770675897598267,0.3644716143608093,-0.1063423156738281,XArbitraryZVertical,0.3210766939262772,-0.3933497046845638,0.4616469745393357,-0.7273705349084102,0.2757737934589386,0.8302608728408813,-0.484371542930603,0,0,0,-1,-1,5936.208852666667,unknown,2,2022-06-30T10:09:22.168+02:00,2022-06-30T08:20:05.567+02:00,1582,1.53258,0,0,1248.267,0,0,2022-06-30T10:09:22.167+02:00
2022-06-30T10:09:24.524+02:00,5938.564603000001,-0.732025146484375,1.116592407226562,-0.60015869140625,5938.554652000001,-0.8882177722861981,0.4963326843439367,-0.9665083280985827,2.402125120162964,1.038833141326904,-1.304168462753296,-0.974013090133667,0.3978418111801147,-0.1122909188270569,XArbitraryZVertical,0.313284265953209,-0.3899285974693313,0.4718593820315152,-0.7260561155141114,0.2705678343772888,0.8229068517684937,-0.4996173083782196,0,0,0,-1,-1,5936.208852666667,unknown,2,2022-06-30T10:09:22.168+02:00,2022-06-30T08:20:05.567+02:00,1582,1.53258,0,0,1248.267,0,0,2022-06-30T10:09:22.167+02:00
2022-06-30T10:09:24.534+02:00,5938.574555,-0.7269439697265625,0.995452880859375,-0.598480224609375,5938.564603000001,-0.9299072197132345,0.4731825425334623,-0.950860031573606,2.569462060928345,1.171826243400574,-1.45977246761322,-0.974071204662323,0.4100221991539001,-0.09607422351837158,XArbitraryZVertical,0.3042923368826959,-0.3857888653502389,0.483444725070914,-0.724468270142449,0.2647665441036224,0.813915491104126,-0.5171462297439575,0,0,0,-1,-1,5936.208852666667,unknown,2,2022-06-30T10:09:22.168+02:00,2022-06-30T08:20:05.567+02:00,1582,1.53258,0,0,1248.267,0,0,2022-06-30T10:09:22.167+02:00
2022-06-30T10:09:24.545+02:00,5938.584506,-0.7385406494140625,0.902069091796875,-0.662689208984375,5938.574555,-0.970883993971658,0.4522504096614685,-0.9359269921483845,2.24653172492981,1.298578381538391,-1.510246276855469,-0.9911921620368958,0.3114429712295532,-0.06671059131622314,XArbitraryZVertical,0.2954346525098923,-0.3820918306487482,0.4952806264595859,-0.7220951083899625,0.2591671645641327,0.8051491975784302,-0.5334483981132507,0,0,0,-1,-1,5936.208852666667,unknown,2,2022-06-30T10:09:22.168+02:00,2022-06-30T08:20:05.567+02:00,1582,1.53258,0,0,1248.267,0,0,2022-06-30T10:09:22.167+02:00
2022-06-30T10:09:24.554+02:00,5938.594458,-0.7272796630859375,1.221466064453125,-0.7795257568359375,5938.584506,-1.009151522192713,0.4351558013097353,-0.9242224730186779,2.037979602813721,1.446808457374573,-1.590044736862183,-0.9809098839759827,0.1973000168800354,-0.05217128992080688,XArbitraryZVertical,0.2876653770014622,-0.3795972209598388,0.5067751745224918,-0.7185635054844967,0.2539660632610321,0.7981525659561157,-0.5463091731071472,0,0,0,-1,-1,5936.208852666667,unknown,2,2022-06-30T10:09:22.168+02:00,2022-06-30T08:20:05.567+02:00,1582,1.53258,0,0,1248.267,0,0,2022-06-30T10:09:22.167+02:00
2022-06-30T10:09:24.564+02:00,5938.604409,-0.9267120361328125,1.45501708984375,-0.9585113525390625,5938.594458,-1.046013370635886,0.4209079225320437,-0.9111710966536751,2.278831481933594,1.593193888664246,-1.492634892463684,-0.9889324903488159,0.1118468642234802,-0.1033567190170288,XArbitraryZVertical,0.2790590694196524,-0.3774383097031898,0.5182728367592658,-0.7148843211163476,0.2503919899463654,0.7902219295501709,-0.5593327283859253,0,0,0,-1,-1,5936.208852666667,unknown,2,2022-06-30T10:09:22.168+02:00,2022-06-30T08:20:05.567+02:00,1582,1.53258,0,0,1248.267,0,0,2022-06-30T10:09:22.167+02:00
2022-06-30T10:09:24.574+02:00,5938.61436,-0.935577392578125,1.567840576171875,-1.003646850585938,5938.604409,-1.088264265885054,0.4052065336730543,-0.8943200894319243,2.950413465499878,1.888872623443604,-1.958770275115967,-0.9740734100341797,0.4416822195053101,-0.2041736841201782,XArbitraryZVertical,0.2684650549472151,-0.3745001060881474,0.5316725446436092,-0.7106339321165703,0.2467939704656601,0.7797836065292358,-0.5753523707389832,0,0,0,-1,-1,5936.208852666667,unknown,2,2022-06-30T10:09:22.168+02:00,2022-06-30T08:20:05.567+02:00,1582,1.53258,0,0,1248.267,0,0,2022-06-30T10:09:22.167+02:00
2022-06-30T10:09:24.584+02:00,5938.624312,-0.9805450439453125,1.607650756835938,-0.94720458984375,5938.61436,-1.138838343518901,0.3858504080745798,-0.8712792833344993,3.806609630584717,2.083715438842773,-2.138840675354004,-1.16902232170105,0.6898636221885681,-0.3619998693466187,XArbitraryZVertical,0.255097198820282,-0.3696884876993436,0.5478612701206306,-0.7057647438782664,0.2423104494810104,0.7651532292366028,-0.5965116620063782,0,0,0,-1,-1,5936.208852666667,unknown,2,2022-06-30T10:09:22.168+02:00,2022-06-30T08:20:05.567+02:00,1582,1.53258,0,0,1248.267,0,0,2022-06-30T10:09:22.167+02:00
2022-06-30T10:09:24.594+02:00,5938.634263,-1.11834716796875,1.57623291015625,-0.9022216796875,5938.624312,-1.192494571786012,0.367109543050641,-0.8404112157724493,4.515995502471924,2.31151008605957,-2.171208620071411,-1.175032377243042,0.8229228258132935,-0.3809440135955811,XArbitraryZVertical,0.2383064838898267,-0.363123253793227,0.5656900832480477,-0.700960954685814,0.2394552230834961,0.7449175119400024,-0.6227030158042908,0,0,0,-1,-1,5936.208852666667,unknown,2,2022-06-30T10:09:22.168+02:00,2022-06-30T08:20:05.567+02:00,1582,1.53258,0,0,1248.267,0,0,2022-06-30T10:09:22.167+02:00
2022-06-30T10:09:24.604+02:00,5938.644215,-1.156265258789062,1.400894165039062,-0.8524169921875,5938.634263,-1.248398620779432,0.3505473298400771,-0.8054329432491484,4.694692611694336,2.611694812774658,-2.523744583129883,-1.218460321426392,0.8865198493003845,-0.2965383529663086,XArbitraryZVertical,0.2193815447619269,-0.3557225055955895,0.5849084755946521,-0.6951369510807633,0.2379154711961746,0.7211306691169739,-0.6506664752960205,0,0,0,-1,-1,5936.208852666667,unknown,2,2022-06-30T10:09:22.168+02:00,2022-06-30T08:20:05.567+02:00,1582,1.53258,0,0,1248.267,0,0,2022-06-30T10:09:22.167+02:00
2022-06-30T10:09:24.614+02:00,5938.654166,-1.164016723632812,1.23187255859375,-0.79144287109375,5938.644215,-1.305888714246737,0.3370108058864851,-0.7714535910482879,4.44687557220459,2.869975090026855,-2.805197954177856,-1.355401873588562,0.8790546059608459,-0.2256512641906738,XArbitraryZVertical,0.200206654404526,-0.348757740694891,0.6050356237849149,-0.6871807977048994,0.2370549291372299,0.697178065776825,-0.6765706539154053,0,0,0,-1,-1,5936.208852666667,unknown,2,2022-06-30T10:09:22.168+02:00,2022-06-30T08:20:05.567+02:00,1582,1.53258,0,0,1248.267,0,0,2022-06-30T10:09:22.167+02:00
2022-06-30T10:09:24.624+02:00,5938.664118000001,-1.203994750976562,1.141250610351562,-0.7966766357421875,5938.654166,-1.36183174490132,0.3286011072239654,-0.7413124564531384,3.930112838745117,3.179440021514893,-2.933233022689819,-1.394297242164612,0.7256373167037964,-0.1542987823486328,XArbitraryZVertical,0.1816879379454022,-0.3434097885158349,0.6248877885089131,-0.6771813655255328,0.238032266497612,0.6752565503120422,-0.6981184482574463,0,0,0,-1,-1,5936.208852666667,unknown,2,2022-06-30T10:09:22.168+02:00,2022-06-30T08:20:05.567+02:00,1582,1.53258,0,0,1248.267,0,0,2022-06-30T10:09:22.167+02:00
2022-06-30T10:09:24.634+02:00,5938.674069000001,-1.209915161132812,1.212570190429688,-0.8303375244140625,5938.664118000001,-1.41581805883727,0.3261825500067572,-0.7168298211084809,3.347879409790039,3.572967290878296,-3.146390676498413,-1.405585527420044,0.5748742818832397,-0.07730156183242798,XArbitraryZVertical,0.1640962067033149,-0.3405902102074534,0.6441176362936663,-0.6649686973004906,0.2415691316127777,0.6569979786872864,-0.7141414880752563,0,0,0,-1,-1,5936.208852666667,unknown,2,2022-06-30T10:09:22.168+02:00,2022-06-30T08:20:05.567+02:00,1582,1.53258,0,0,1248.267,0,0,2022-06-30T10:09:22.167+02:00
2022-06-30T10:09:24.644+02:00,5938.684021,-1.249160766601562,1.421890258789062,-0.89691162109375,5938.674069000001,-1.4691418526462,0.3287989543210484,-0.697697152602768,2.951322793960571,3.925867795944214,-3.299226522445679,-1.451445341110229,0.4987956285476685,-0.07140439748764038,XArbitraryZVertical,0.1471588580146203,-0.340158907399855,0.6629187009960689,-0.6505189912080924,0.2474509477615356,0.6424546837806702,-0.7252723574638367,0,0,0,-1,-1,5936.208852666667,unknown,2,2022-06-30T10:09:22.168+02:00,2022-06-30T08:20:05.567+02:00,1582,1.53258,0,0,1248.267,0,0,2022-06-30T10:09:22.167+02:00
2022-06-30T10:09:24.654+02:00,5938.693972,-1.3487548828125,1.684463500976562,-0.9711151123046875,5938.684021,-1.522095041410937,0.3359674417552821,-0.6811406377708629,2.931203603744507,4.289624691009521,-3.372111320495605,-1.466030478477478,0.5828903913497925,-0.09691524505615234,XArbitraryZVertical,0.1297793437897047,-0.3412419951463063,0.6813573797305059,-0.6344000341256647,0.2561156451702118,0.6296795606613159,-0.7334224581718445,0,0,0,-1,-1,5936.208852666667,unknown,2,2022-06-30T10:09:22.168+02:00,2022-06-30T08:20:05.567+02:00,1582,1.53258,0,0,1248.267,0,0,2022-06-30T10:09:22.167+02:00
2022-06-30T10:09:24.663+02:00,5938.703923,-1.456268310546875,1.863967895507812,-0.9822845458984375,5938.693972,-1.577091766633298,0.346220881205916,-0.6634173077239625,3.357884168624878,4.66085958480835,-3.608776807785034,-1.516528129577637,0.8060771226882935,-0.1557713747024536,XArbitraryZVertical,0.1105992834277602,-0.3423413824169376,0.7001770111600004,-0.6167028265836847,0.2673676311969757,0.6158128976821899,-0.7411403656005859,0,0,0,-1,-1,5936.208852666667,unknown,2,2022-06-30T10:09:22.168+02:00,2022-06-30T08:20:05.567+02:00,1582,1.53258,0,0,1248.267,0,0,2022-06-30T10:09:22.167+02:00
2022-06-30T10:09:24.673+02:00,5938.713875,-1.512527465820312,1.951873779296875,-0.943084716796875,5938.703923,-1.637653289675822,0.3575624763720092,-0.6420851982980663,3.98999547958374,5.015896320343018,-3.974413633346558,-1.629045128822327,1.085596561431885,-0.2209179401397705,XArbitraryZVertical,0.08887235169871552,-0.3420571194664478,0.7203144639079521,-0.5968632946304588,0.2802906036376953,0.5988666415214539,-0.7501972913742065,0,0,0,-1,-1,5936.208852666667,unknown,2,2022-06-30T10:09:22.168+02:00,2022-06-30T08:20:05.567+02:00,1582,1.53258,0,0,1248.267,0,0,2022-06-30T10:09:22.167+02:00
2022-06-30T10:09:24.683+02:00,5938.723826,-1.557708740234375,2.0579833984375,-0.89251708984375,5938.713875,-1.703967522287111,0.3699653049818468,-0.6168452665712272,4.574536323547363,5.325434684753418,-4.271416187286377,-1.751214027404785,1.285502910614014,-0.2217680215835571,XArbitraryZVertical,0.0645874387907365,-0.339956117824713,0.7416080119718562,-0.5746964416641828,0.294946014881134,0.578464686870575,-0.7605165839195251,0,0,0,-1,-1,5936.208852666667,unknown,2,2022-06-30T10:09:22.168+02:00,2022-06-30T08:20:05.567+02:00,1582,1.53258,0,0,1248.267,0,0,2022-06-30T10:09:22.167+02:00
2022-06-30T10:09:24.693+02:00,5938.733778000001,-1.57550048828125,2.17608642578125,-0.8101043701171875,5938.723826,-1.775548629073117,0.383553332032922,-0.5885446157744773,5.049685478210449,5.56233024597168,-4.657662391662598,-1.823782682418823,1.396722435951233,-0.1717694401741028,XArbitraryZVertical,0.03821240997171001,-0.335979416022943,0.7636081619489034,-0.5500549107497501,0.3112556338310242,0.555151104927063,-0.7713152766227722,0,0,0,-1,-1,5936.208852666667,unknown,2,2022-06-30T10:09:22.168+02:00,2022-06-30T08:20:05.567+02:00,1582,1.53258,0,0,1248.267,0,0,2022-06-30T10:09:22.167+02:00
2022-06-30T10:09:24.703+02:00,5938.743729000001,-1.591644287109375,2.236328125,-0.61907958984375,5938.733778000001,-1.852153764599133,0.3981392080660782,-0.5588027925749173,5.37907600402832,5.73615026473999,-4.994865417480469,-1.886438608169556,1.527811765670776,-0.1109452247619629,XArbitraryZVertical,0.01053197119137107,-0.3303076654310782,0.785876375510368,-0.522670227288468,0.3287303149700165,0.5301714539527893,-0.7815718650817871,0,0,0,-1,-1,5936.208852666667,unknown,2,2022-06-30T10:09:22.168+02:00,2022-06-30T08:20:05.567+02:00,1582,1.53258,0,0,1248.267,0,0,2022-06-30T10:09:22.167+02:00
2022-06-30T10:09:24.716+02:00,5938.753681,-1.610855102539062,2.287490844726562,-0.43511962890625,5938.743729000001,-1.931752708727304,0.4146605004116453,-0.5294275839113857,5.413309574127197,5.876774311065674,-5.229602813720703,-1.923223614692688,1.671046853065491,-0.02015268802642822,XArbitraryZVertical,-0.01781874020047377,-0.3235841236509956,0.8075221289022089,-0.4928324578477556,0.3477235734462738,0.505039393901825,-0.7899516224861145,0,0,0,-1,-1,5936.208852666667,unknown,2,2022-06-30T10:09:22.168+02:00,2022-06-30T08:20:05.567+02:00,1582,1.53258,0,0,1248.267,0,0,2022-06-30T10:09:22.167+02:00
2022-06-30T10:09:24.724+02:00,5938.763632,-1.59088134765625,2.42205810546875,-0.3553619384765625,5938.753681,-2.012393013241378,0.4338510737919689,-0.5032682680059776,5.143179416656494,5.98788595199585,-5.440263271331787,-1.959891080856323,1.754036903381348,0.1757722496986389,XArbitraryZVertical,-0.04599409689281679,-0.3169521524979066,0.8276961424904398,-0.4608091343982165,0.3682471811771393,0.4822911620140076,-0.7948517799377441,0,0,0,-1,-1,5936.208852666667,unknown,2,2022-06-30T10:09:22.168+02:00,2022-06-30T08:20:05.567+02:00,1582,1.534429,0,0,1248.267,0,0,2022-06-30T10:09:24.712+02:00
2022-06-30T10:09:24.733+02:00,5938.773584,-1.600433349609375,2.663177490234375,-0.4126739501953125,5938.763632,-2.092957986030667,0.4557570915610655,-0.4818799701350991,4.903341293334961,6.088447093963623,-5.598892211914062,-2.000875949859619,1.824044823646545,0.3605571985244751,XArbitraryZVertical,-0.073546725127574,-0.3110506693539126,0.8459140423918921,-0.4269284295171866,0.3900211751461029,0.4634458720684052,-0.7956767082214355,0,0,0,-1,-1,5936.208852666667,unknown,2,2022-06-30T10:09:22.168+02:00,2022-06-30T08:20:05.567+02:00,1582,1.534429,0,0,1248.267,0,0,2022-06-30T10:09:24.712+02:00
2022-06-30T10:09:24.743+02:00,5938.783535,-1.597991943359375,2.92083740234375,-0.4723663330078125,5938.773584,-2.174447492423089,0.4797478563104852,-0.464042844944878,4.889538764953613,6.199223041534424,-5.78923225402832,-2.003627061843872,1.974490880966187,0.43793785572052,XArbitraryZVertical,-0.1008519443229398,-0.3052524465167323,0.8623459376451911,-0.3911642190616794,0.4127461910247803,0.4475670754909515,-0.793299674987793,0,0,0,-1,-1,5936.208852666667,unknown,2,2022-06-30T10:09:22.168+02:00,2022-06-30T08:20:05.567+02:00,1582,1.534429,0,0,1248.267,0,0,2022-06-30T10:09:24.712+02:00
2022-06-30T10:09:24.753+02:00,5938.793486,-1.575607299804688,3.137664794921875,-0.3845672607421875,5938.783535,-2.258131410663759,0.5048891688657688,-0.4476186814172232,5.17949914932251,6.262303352355957,-5.946540832519531,-2.03648829460144,2.23035740852356,0.3763271570205688,XArbitraryZVertical,-0.1282899897727147,-0.2983977478774633,0.87722696857686,-0.3535157042110941,0.436055451631546,0.432820051908493,-0.789000928401947,0,0,0,-1,-1,5936.208852666667,unknown,2,2022-06-30T10:09:22.168+02:00,2022-06-30T08:20:05.567+02:00,1582,1.534429,0,0,1248.267,0,0,2022-06-30T10:09:24.712+02:00
2022-06-30T10:09:24.763+02:00,5938.803438,-1.538970947265625,3.286544799804688,-0.1842193603515625,5938.793486,-2.344880487306238,0.5300295034307068,-0.43015026250248,5.706864833831787,6.199263095855713,-6.016189098358154,-2.057495594024658,2.503829956054688,0.3118283748626709,XArbitraryZVertical,-0.1559562310436101,-0.2891027823198994,0.8907116538153604,-0.3142133304935648,0.4595039486885071,0.4170073866844177,-0.7841944694519043,0,0,0,-1,-1,5936.208852666667,unknown,2,2022-06-30T10:09:22.168+02:00,2022-06-30T08:20:05.567+02:00,1582,1.534429,0,0,1248.267,0,0,2022-06-30T10:09:24.712+02:00
2022-06-30T10:09:24.773+02:00,5938.813389,-1.497848510742188,3.311187744140625,-0.0005035400390625,5938.803438,-2.435252519656273,0.553994780368145,-0.4097903048335585,6.304993152618408,6.034114360809326,-6.079543113708496,-2.058137655258179,2.739247798919678,0.3954508304595947,XArbitraryZVertical,-0.1835327347848779,-0.2762368817034001,0.902880844297905,-0.2735233435508027,0.4825308620929718,0.3984169960021973,-0.7800178527832031,0,0,0,-1,-1,5936.208852666667,unknown,2,2022-06-30T10:09:22.168+02:00,2022-06-30T08:20:05.567+02:00,1582,1.534429,0,0,1248.267,0,0,2022-06-30T10:09:24.712+02:00
2022-06-30T10:09:24.783+02:00,5938.823341,-1.408447265625,3.420669555664062,0.135345458984375,5938.813389,-2.529037998483804,0.5765306108042063,-0.3877117087793169,6.720102310180664,5.817774772644043,-6.192367553710938,-2.043628692626953,2.908473968505859,0.5919139981269836,XArbitraryZVertical,-0.2102944518360377,-0.2602108547076426,0.9135114391242559,-0.2314379280252536,0.5046581029891968,0.3780709505081177,-0.776133120059967,0,0,0,-1,-1,5936.208852666667,unknown,2,2022-06-30T10:09:22.168+02:00,2022-06-30T08:20:05.567+02:00,1582,1.534429,0,0,1248.267,0,0,2022-06-30T10:09:24.712+02:00
2022-06-30T10:09:24.793+02:00,5938.833292,-1.339035034179688,3.4404296875,0.2237701416015625,5938.823341,-2.625004304367461,0.5976182727505617,-0.3653171511464914,6.916908264160156,5.531161308288574,-6.269365787506104,-2.023392677307129,2.95394229888916,0.7716227769851685,XArbitraryZVertical,-0.2355402096978483,-0.2417804694121747,0.92227231480143,-0.1883528327689571,0.5255445241928101,0.357245534658432,-0.7721260190010071,0,0,0,-1,-1,5936.208852666667,unknown,2,2022-06-30T10:09:22.168+02:00,2022-06-30T08:20:05.567+02:00,1582,1.534429,0,0,1248.267,0,0,2022-06-30T10:09:24.712+02:00
2022-06-30T10:09:24.803+02:00,5938.843244000001,-1.229339599609375,3.385345458984375,0.2327117919921875,5938.833292,-2.722099930492688,0.6175738291104724,-0.3452671487303525,6.780421733856201,5.280609130859375,-6.442193031311035,-1.953332662582397,3.082221508026123,0.9025174975395203,XArbitraryZVertical,-0.2587500151476095,-0.2224018302908362,0.9288418534231332,-0.1443559030762044,0.5448856949806213,0.3384480774402618,-0.7671717405319214,0,0,0,-1,-1,5936.208852666667,unknown,2,2022-06-30T10:09:22.168+02:00,2022-06-30T08:20:05.567+02:00,1582,1.534429,0,0,1248.267,0,0,2022-06-30T10:09:24.712+02:00
2022-06-30T10:09:24.813+02:00,5938.853195000001,-1.200454711914062,3.484878540039062,0.1765289306640625,5938.843244000001,-2.818101283590172,0.6370913116416383,-0.3297397241157748,6.394315719604492,5.048250198364258,-6.446498394012451,-1.9018474817276,3.11663293838501,0.9842948913574219,XArbitraryZVertical,-0.279805392240957,-0.2035846901167978,0.9328639268286509,-0.1001353852869667,0.5628128051757812,0.3237967789173126,-0.7605244517326355,0,0,0,-1,-1,5936.208852666667,unknown,2,2022-06-30T10:09:22.168+02:00,2022-06-30T08:20:05.567+02:00,1582,1.534429,0,0,1248.267,0,0,2022-06-30T10:09:24.712+02:00
2022-06-30T10:09:24.823+02:00,5938.863147,-1.230453491210938,3.683746337890625,0.1150360107421875,5938.853195000001,-2.911143787376329,0.6566536552750541,-0.3187523934345189,6.098784446716309,4.851076126098633,-6.390706062316895,-1.809057950973511,3.071963548660278,0.9848542809486389,XArbitraryZVertical,-0.2989905420361548,-0.1858320534836903,0.9342730031296776,-0.05661332524550586,0.5797187089920044,0.3133820295333862,-0.7521421909332275,0,0,0,-1,-1,5936.208852666667,unknown,2,2022-06-30T10:09:22.168+02:00,2022-06-30T08:20:05.567+02:00,1582,1.534429,0,0,1248.267,0,0,2022-06-30T10:09:24.712+02:00
2022-06-30T10:09:24.833+02:00,5938.873098,-1.26025390625,3.851409912109375,0.093353271484375,5938.863147,-3.004033169535504,0.6749170609552512,-0.3096423924921488,6.342573642730713,4.600339889526367,-6.452969551086426,-1.795571565628052,3.180160760879517,0.9201571941375732,XArbitraryZVertical,-0.3163564243816001,-0.1676443668356502,0.9336174392884685,-0.01313922051451515,0.5951172113418579,0.3047180473804474,-0.7436279654502869,0,0,0,-1,-1,5936.208852666667,unknown,2,2022-06-30T10:09:22.168+02:00,2022-06-30T08:20:05.567+02:00,1582,1.534429,0,0,1248.267,0,0,2022-06-30T10:09:24.712+02:00
2022-06-30T10:09:24.843+02:00,5938.883049,-1.224700927734375,3.908355712890625,0.0891876220703125,5938.873098,-3.100163041922732,0.690613827273318,-0.2995786772378105,6.855725288391113,4.359223365783691,-6.585183620452881,-1.839091777801514,3.388628959655762,0.8515583276748657,XArbitraryZVertical,-0.3317149048105877,-0.1473235576715247,0.9312818289925073,0.03122888156517767,0.6086386442184448,0.2951176762580872,-0.7365219593048096,0,0,0,-1,-1,5936.208852666667,unknown,2,2022-06-30T10:09:22.168+02:00,2022-06-30T08:20:05.567+02:00,1582,1.534429,0,0,1248.267,0,0,2022-06-30T10:09:24.712+02:00
2022-06-30T10:09:24.853+02:00,5938.893001,-1.125961303710938,3.87249755859375,0.1898651123046875,5938.883049,3.082490123458546,0.703097116091423,-0.2880280965435062,7.302755355834961,4.006612777709961,-6.756435871124268,-1.880201578140259,3.567348003387451,0.8247722387313843,XArbitraryZVertical,-0.3446196376410092,-0.1246112923537646,0.9272557648127658,0.07685143531213497,0.6199479699134827,0.2840621173381805,-0.7314186692237854,0,0,0,-1,-1,5936.208852666667,unknown,2,2022-06-30T10:09:22.168+02:00,2022-06-30T08:20:05.567+02:00,1582,1.534429,0,0,1248.267,0,0,2022-06-30T10:09:24.712+02:00
2022-06-30T10:09:24.863+02:00,5938.902952,-1.016815185546875,3.7943115234375,0.298492431640625,5938.893001,2.978908454559912,0.7122266695901239,-0.2759008227398774,7.479840278625488,3.636348485946655,-6.850053787231445,-1.853505373001099,3.635942220687866,0.817470371723175,XArbitraryZVertical,-0.3546524671746685,-0.1004011387301901,0.9213900484936777,0.1232143987239521,0.6288048028945923,0.2724137902259827,-0.7282824516296387,0,0,0,-1,-1,5936.208852666667,unknown,2,2022-06-30T10:09:22.168+02:00,2022-06-30T08:20:05.567+02:00,1582,1.534429,0,0,1248.267,0,0,2022-06-30T10:09:24.712+02:00
2022-06-30T10:09:24.873+02:00,5938.912904000001,-0.890960693359375,3.647369384765625,0.4219818115234375,5938.902952,2.875463009334976,0.7189416078618085,-0.2653853509067306,7.192649841308594,3.281921148300171,-6.895505905151367,-1.761493563652039,3.610216617584229,0.9160246253013611,XArbitraryZVertical,-0.3620351848397073,-0.07649124955765764,0.9134772459423649,0.1692309492646108,0.6355324387550354,0.2622811496257782,-0.7261592149734497,0,0,0,-1,-1,5936.208852666667,unknown,2,2022-06-30T10:09:22.168+02:00,2022-06-30T08:20:05.567+02:00,1582,1.534429,0,0,1248.267,0,0,2022-06-30T10:09:24.712+02:00
2022-06-30T10:09:24.883+02:00,5938.922855000001,-0.7418060302734375,3.548187255859375,0.5740203857421875,5938.912904000001,2.774856984078039,0.7237944509147733,-0.2590287737377395,6.618857860565186,2.94173526763916,-6.924509525299072,-1.656955003738403,3.538170099258423,1.022793889045715,XArbitraryZVertical,-0.3672226129766371,-0.0547446636337882,0.9035086198700449,0.2140626570072059,0.6401399970054626,0.2561418414115906,-0.7243011593818665,0,0,0,-1,-1,5936.208852666667,unknown,2,2022-06-30T10:09:22.168+02:00,2022-06-30T08:20:05.567+02:00,1582,1.534429,0,0,1248.267,0,0,2022-06-30T10:09:24.712+02:00
2022-06-30T10:09:24.892+02:00,5938.932807,-0.5937042236328125,3.514434814453125,0.597930908203125,5938.922855000001,2.678876358025353,0.7269088138384194,-0.2580490769400756,5.873904705047607,2.630658626556396,-6.928986549377441,-1.533519744873047,3.392175197601318,1.144473195075989,XArbitraryZVertical,-0.3707326437532188,-0.03621770554756464,0.8917200909017836,0.2570620677773863,0.6425591111183167,0.2551947236061096,-0.7224911451339722,0,0,0,-1,-1,5936.208852666667,unknown,2,2022-06-30T10:09:22.168+02:00,2022-06-30T08:20:05.567+02:00,1582,1.534429,0,0,1248.267,0,0,2022-06-30T10:09:24.712+02:00
2022-06-30T10:09:24.902+02:00,5938.942758,-0.4213714599609375,3.607772827148438,0.644195556640625,5938.932807,2.587347370496212,0.7280864898974005,-0.2628729530308851,5.240939140319824,2.341098308563232,-6.995763778686523,-1.38438880443573,3.288331747055054,1.294827222824097,XArbitraryZVertical,-0.3730230725009168,-0.02122411227076602,0.8782925480486922,0.2983380080915209,0.6425828337669373,0.2598558664321899,-0.7208066582679749,0,0,0,-1,-1,5936.208852666667,unknown,2,2022-06-30T10:09:22.168+02:00,2022-06-30T08:20:05.567+02:00,1582,1.534429,0,0,1248.267,0,0,2022-06-30T10:09:24.712+02:00
2022-06-30T10:09:24.912+02:00,5938.95271,-0.2782745361328125,3.596694946289062,0.8314361572265625,5938.942758,2.498438970327953,0.7261496505370278,-0.2712911192522806,4.967543125152588,1.984016060829163,-7.02830171585083,-1.233414530754089,3.246459722518921,1.318319797515869,XArbitraryZVertical,-0.3738043831623342,-0.008715233605353898,0.8635630135205139,0.3383096370510816,0.6397103667259216,0.2679755687713623,-0.720388650894165,0,0,0,-1,-1,5936.208852666667,unknown,2,2022-06-30T10:09:22.168+02:00,2022-06-30T08:20:05.567+02:00,1582,1.534429,0,0,1248.267,0,0,2022-06-30T10:09:24.712+02:00
2022-06-30T10:09:24.922+02:00,5938.962661,-0.0736846923828125,3.469451904296875,1.0474853515625,5938.95271,2.410349878518054,0.7197839023934993,-0.2815128518535528,4.723419666290283,1.55348014831543,-7.107145309448242,-1.054644107818604,3.32996392250061,1.366544485092163,XArbitraryZVertical,-0.3725875351260647,0.002041803290612865,0.8477623475582724,0.3774565271849025,0.6332727670669556,0.2778092622756958,-0.722348690032959,0,0,0,-1,-1,5936.208852666667,unknown,2,2022-06-30T10:09:22.168+02:00,2022-06-30T08:20:05.567+02:00,1582,1.534429,0,0,1248.267,0,0,2022-06-30T10:09:24.712+02:00
2022-06-30T10:09:24.932+02:00,5938.972612,0.0916900634765625,3.4288330078125,1.23358154296875,5938.962661,2.32410244164573,0.7081147676702593,-0.2930613790651733,4.377549171447754,1.010520935058594,-6.957768440246582,-0.9009468555450439,3.30781102180481,1.558639883995056,XArbitraryZVertical,-0.36916755778532,0.01065586537056315,0.8313601676889482,0.4152615064110914,0.6226723194122314,0.2888844311237335,-0.7272035479545593,0,0,0,-1,-1,5936.208852666667,unknown,2,2022-06-30T10:09:22.168+02:00,2022-06-30T08:20:05.567+02:00,1582,1.534429,0,0,1248.267,0,0,2022-06-30T10:09:24.712+02:00
2022-06-30T10:09:24.942+02:00,5938.982564,0.218994140625,3.414642333984375,1.344253540039062,5938.972612,2.241908636162825,0.6911142610353602,-0.3049495972686168,3.923496007919312,0.4439320266246796,-6.671511173248291,-0.6816728115081787,3.169207334518433,1.78247082233429,XArbitraryZVertical,-0.3636236903008448,0.01688562685728845,0.8150834556613138,0.4507015044105392,0.6079880595207214,0.3002451062202454,-0.7349853515625,0,0,0,-1,-1,5936.208852666667,unknown,2,2022-06-30T10:09:22.168+02:00,2022-06-30T08:20:05.567+02:00,1582,1.534429,0,0,1248.267,0,0,2022-06-30T10:09:24.712+02:00
2022-06-30T10:09:24.952+02:00,5938.992515,0.3459625244140625,3.279388427734375,1.4117431640625,5938.982564,2.164829904948837,0.6693206708885222,-0.3174455166627743,3.372387170791626,-0.07983121275901794,-6.39641284942627,-0.4977629780769348,3.116692781448364,1.978641033172607,XArbitraryZVertical,-0.3564503635180776,0.02033424866017718,0.7992587594198634,0.4834409203225455,0.5894529819488525,0.3121407330036163,-0.7450593113899231,0,0,0,-1,-1,5936.208852666667,unknown,2,2022-06-30T10:09:22.168+02:00,2022-06-30T08:20:05.567+02:00,1582,1.534429,0,0,1248.267,0,0,2022-06-30T10:09:24.712+02:00
2022-06-30T10:09:24.962+02:00,5939.002468041667,0.506805419921875,3.111053466796875,1.428253173828125,5938.992515,2.093148641162117,0.6434748253093395,-0.33108087663999,2.764898538589478,-0.523837149143219,-6.092494010925293,-0.3484010100364685,3.089577436447144,2.100821971893311,XArbitraryZVertical,-0.3482588158902571,0.02077767890897092,0.7839822216486747,0.5134745186647955,0.567395031452179,0.325065404176712,-0.7565681934356689,0,0,0,-1,-1,5936.208852666667,unknown,2,2022-06-30T10:09:22.168+02:00,2022-06-30T08:20:05.567+02:00,1582,1.534429,0,0,1248.267,0,0,2022-06-30T10:09:24.712+02:00
2022-06-30T10:09:24.972+02:00,5939.012419041667,0.6115570068359375,2.92462158203125,1.389846801757812,5939.002468041667,2.027650544458495,0.6145264426500802,-0.3453288378639131,2.220299243927002,-0.9341609477996826,-5.666722297668457,-0.196570873260498,2.940882682800293,2.180554866790771,XArbitraryZVertical,-0.3394881567929443,0.01849333769317376,0.7696039331640879,0.5404771914831586,0.542533278465271,0.3385061323642731,-0.7688115835189819,0,0,0,-1,-1,5936.208852666667,unknown,2,2022-06-30T10:09:22.168+02:00,2022-06-30T08:20:05.567+02:00,1582,1.534429,0,0,1248.267,0,0,2022-06-30T10:09:24.712+02:00
2022-06-30T10:09:24.982+02:00,5939.022371041667,0.753631591796875,2.672271728515625,1.4219970703125,5939.012419041667,1.967294985678604,0.5825187215264667,-0.3595674314327051,1.828266739845276,-1.327893853187561,-5.379833221435547,-0.008142530918121338,2.759184598922729,2.2099289894104,XArbitraryZVertical,-0.3301036818835953,0.01391968439437037,0.7561603312992423,0.5648534196591067,0.514947772026062,0.3518693745136261,-0.7816755771636963,0,0,0,-1,-1,5936.208852666667,unknown,2,2022-06-30T10:09:22.168+02:00,2022-06-30T08:20:05.567+02:00,1582,1.534429,0,0,1248.267,0,0,2022-06-30T10:09:24.712+02:00
2022-06-30T10:09:24.992+02:00,5939.032322041667,0.8643646240234375,2.437393188476562,1.498336791992188,5939.022371041667,1.910733066779031,0.5469274575418307,-0.3729393258086307,1.544209599494934,-1.779580235481262,-5.043544292449951,0.1272405683994293,2.560267686843872,2.185261011123657,XArbitraryZVertical,-0.3197456365391692,0.007458675023035748,0.7436508889000525,0.5871035245730434,0.4843162894248962,0.364354282617569,-0.7954142093658447,0,0,0,-1,-1,5936.208852666667,unknown,2,2022-06-30T10:09:22.168+02:00,2022-06-30T08:20:05.567+02:00,1582,1.534429,0,0,1248.267,0,0,2022-06-30T10:09:24.712+02:00
2022-06-30T10:09:25.002+02:00,5939.042273041667,0.9799346923828125,2.147979736328125,1.522354125976562,5939.032322041667,1.858027984126277,0.5073693616485346,-0.3859044724694935,1.090283989906311,-2.273344039916992,-4.821190357208252,0.3034841120243073,2.295874834060669,2.231745719909668,XArbitraryZVertical,-0.3084221918196154,-0.001236996348987784,0.7321938581212146,0.6072614331267256,0.4501473009586334,0.3763972520828247,-0.8097484707832336,0,0,0,-1,-1,5936.208852666667,unknown,2,2022-06-30T10:09:22.168+02:00,2022-06-30T08:20:05.567+02:00,1582,1.534429,0,0,1248.267,0,0,2022-06-30T10:09:24.712+02:00
2022-06-30T10:09:25.012+02:00,5939.052225041667,1.088348388671875,1.851547241210938,1.45196533203125,5939.042273041667,1.809415836433664,0.4638099396574748,-0.401085296518562,0.3692662119865417,-2.768772602081299,-4.595712184906006,0.4525090157985687,2.04697585105896,2.321713447570801,XArbitraryZVertical,-0.2968769063546808,-0.0132576926518843,0.7215717422510618,0.6253180633847096,0.4118554294109344,0.3904177248477936,-0.8233766555786133,0,0,0,-1,-1,5936.208852666667,unknown,2,2022-06-30T10:09:22.168+02:00,2022-06-30T08:20:05.567+02:00,1582,1.534429,0,0,1248.267,0,0,2022-06-30T10:09:24.712+02:00
2022-06-30T10:09:25.022+02:00,5939.062176041667,1.110458374023438,1.659103393554688,1.2401123046875,5939.052225041667,1.766186570026775,0.4169299234519279,-0.4205441653601283,-0.5542192459106445,-3.206851243972778,-4.319715976715088,0.6102641820907593,1.739722847938538,2.357021808624268,XArbitraryZVertical,-0.2860188825127538,-0.02931580747288647,0.7119055344621812,0.6407218461253248,0.3696703016757965,0.4082572758197784,-0.8346675634384155,0,0,0,-1,-1,5936.208852666667,unknown,2,2022-06-30T10:09:22.168+02:00,2022-06-30T08:20:05.567+02:00,1582,1.534429,0,0,1248.267,0,0,2022-06-30T10:09:24.712+02:00
2022-06-30T10:09:25.032+02:00,5939.072128041667,1.084762573242188,1.602005004882812,0.947021484375,5939.062176041667,1.72771869947503,0.367684066888572,-0.4453286488442066,-1.380097985267639,-3.491926908493042,-4.109626293182373,0.7639508843421936,1.420793175697327,2.294115543365479,XArbitraryZVertical,-0.2765807071805956,-0.04927478369763214,0.7028667513604284,0.6534933119566934,0.3243972957134247,0.4307545125484467,-0.8421502113342285,0,0,0,-1,-1,5936.208852666667,unknown,2,2022-06-30T10:09:22.168+02:00,2022-06-30T08:20:05.567+02:00,1582,1.534429,0,0,1248.267,0,0,2022-06-30T10:09:24.712+02:00
2022-06-30T10:09:25.042+02:00,5939.082079041667,1.020431518554688,1.574676513671875,0.691070556640625,5939.072128041667,1.69215086392969,0.3165100132131495,-0.473833561770968,-1.877577185630798,-3.693711757659912,-3.911860227584839,0.8334982991218567,1.202802896499634,2.085738182067871,XArbitraryZVertical,-0.2683421726636729,-0.07196964093711289,0.6941557782182213,0.6640487097152348,0.2769598364830017,0.4563008248806,-0.8456256985664368,0,0,0,-1,-1,5936.208852666667,unknown,2,2022-06-30T10:09:22.168+02:00,2022-06-30T08:20:05.567+02:00,1582,1.534429,0,0,1248.267,0,0,2022-06-30T10:09:24.712+02:00
2022-06-30T10:09:25.052+02:00,5939.092031041667,0.981964111328125,1.519821166992188,0.4813232421875,5939.082079041667,1.658051826161944,0.2637090577463576,-0.5038521750901757,-2.258301496505737,-3.840294599533081,-3.711090087890625,0.8564919829368591,1.119202733039856,1.792476773262024,XArbitraryZVertical,-0.2608150818418093,-0.09616620620823667,0.6856625484694407,0.6727514380012712,0.2282703667879105,0.4828025698661804,-0.8454551100730896,0,0,0,-1,-1,5936.208852666667,unknown,2,2022-06-30T10:09:22.168+02:00,2022-06-30T08:20:05.567+02:00,1582,1.534429,0,0,1248.267,0,0,2022-06-30T10:09:24.712+02:00
2022-06-30T10:09:25.062+02:00,5939.101982041667,0.976318359375,1.441146850585938,0.18359375,5939.092031041667,1.625229988872742,0.210188342146352,-0.5347368173960697,-2.588841438293457,-3.954474449157715,-3.545082569122314,0.8409132957458496,1.065062284469604,1.532537460327148,XArbitraryZVertical,-0.2541191733301656,-0.1212025988206851,0.6773694157868639,0.6796353506106129,0.1795179694890976,0.5096145868301392,-0.8414667248725891,0,0,0,-1,-1,5936.208852666667,unknown,2,2022-06-30T10:09:22.168+02:00,2022-06-30T08:20:05.567+02:00,1582,1.534429,0,0,1248.267,0,0,2022-06-30T10:09:24.712+02:00
2022-06-30T10:09:25.072+02:00,5939.111934041667,0.9650421142578125,1.3388671875,-0.33544921875,5939.101982041667,1.595487610535554,0.1604734948794586,-0.5640896902884388,-2.774232864379883,-4.000931262969971,-3.317676067352295,0.8469328880310059,0.9851747751235962,1.31554126739502,XArbitraryZVertical,-0.2488359158071985,-0.1448162199487807,0.6697108546906104,0.6845409897868957,0.1350309550762177,0.53464674949646,-0.83421790599823,0,0,0,-1,-1,5936.208852666667,unknown,2,2022-06-30T10:09:22.168+02:00,2022-06-30T08:20:05.567+02:00,1582,1.534429,0,0,1248.267,0,0,2022-06-30T10:09:24.712+02:00
2022-06-30T10:09:25.082+02:00,5939.121885041667,0.88983154296875,1.386428833007812,-0.8062744140625,5939.111934041667,1.563811993692234,0.1057754881150754,-0.5939605226340068,-2.619379997253418,-3.835147619247437,-3.030412197113037,0.888822078704834,0.8814995288848877,1.007692813873291,XArbitraryZVertical,-0.2429729869923928,-0.1700431661269774,0.6618686316650565,0.6884615836915666,0.08749601989984512,0.5596476197242737,-0.8240988850593567,0,0,0,-1,-1,5936.208852666667,unknown,2,2022-06-30T10:09:22.168+02:00,2022-06-30T08:20:05.567+02:00,1582,1.534429,0,0,1248.267,0,0,2022-06-30T10:09:24.712+02:00
2022-06-30T10:09:25.092+02:00,5939.131836041667,0.8132781982421875,1.397262573242188,-0.969635009765625,5939.121885041667,1.532148948597292,0.05194136679438636,-0.620786289050375,-2.402090311050415,-3.566805839538574,-2.745734691619873,0.9228106141090393,0.7571926116943359,0.4768753051757812,XArbitraryZVertical,-0.2371757803093879,-0.1938697539691862,0.6542425081206016,0.6914686988246438,0.04223122075200081,0.5816749334335327,-0.8123243451118469,0,0,0,-1,-1,5936.208852666667,unknown,2,2022-06-30T10:09:22.168+02:00,2022-06-30T08:20:05.567+02:00,1582,1.534429,0,0,1248.267,0,0,2022-06-30T10:09:24.712+02:00
2022-06-30T10:09:25.101+02:00,5939.141788041667,0.74493408203125,1.337875366210938,-1.070785522460938,5939.131836041667,1.502284138990565,0.001595232469938811,-0.6440431158321929,-2.267248630523682,-3.256272554397583,-2.421533584594727,0.888555645942688,0.7859956026077271,-0.006600499153137207,XArbitraryZVertical,-0.2318382111204046,-0.21543954424101,0.6472084157208952,0.6935115305209419,0.001275666523724794,0.6004335284233093,-0.7996736764907837,0,0,0,-1,-1,5936.208852666667,unknown,2,2022-06-30T10:09:22.168+02:00,2022-06-30T08:20:05.567+02:00,1582,1.534429,0,0,1248.267,0,0,2022-06-30T10:09:24.712+02:00
2022-06-30T10:09:25.111+02:00,5939.151739041667,0.6629486083984375,1.274673461914062,-1.178665161132812,5939.141788041667,1.475933233079185,-0.04138413450124668,-0.6663384463580818,-2.592747211456299,-2.878053188323975,-2.272455215454102,0.8458002805709839,0.7791510820388794,-0.184217631816864,XArbitraryZVertical,-0.2287497290453794,-0.2344461227536537,0.6406590200478963,0.6944527987381331,-0.03252237662672997,0.6181118488311768,-0.7854171395301819,0,0,0,-1,-1,5936.208852666667,unknown,2,2022-06-30T10:09:22.168+02:00,2022-06-30T08:20:05.567+02:00,1582,1.534429,0,0,1248.267,0,0,2022-06-30T10:09:24.712+02:00
2022-06-30T10:09:25.121+02:00,5939.161691041667,0.582427978515625,1.294570922851562,-1.260360717773438,5939.151739041667,1.445971970058337,-0.08629136101192296,-0.6937938597430706,-3.268901109695435,-2.513553380966187,-2.137990951538086,0.8111945390701294,0.698417067527771,-0.3048202991485596,XArbitraryZVertical,-0.2278544960058589,-0.2551467270810772,0.6326316066826898,0.6948092559561563,-0.06626070290803909,0.6394585967063904,-0.7659649252891541,0,0,0,-1,-1,5936.208852666667,unknown,2,2022-06-30T10:09:22.168+02:00,2022-06-30T08:20:05.567+02:00,1582,1.534429,0,0,1248.267,0,0,2022-06-30T10:09:24.712+02:00
2022-06-30T10:09:25.132+02:00,5939.171642041667,0.4999847412109375,1.430694580078125,-1.471572875976562,5939.161691041667,1.414755233546116,-0.1295096268516222,-0.726940018633016,-3.835737466812134,-2.143049478530884,-1.92546272277832,0.7594491243362427,0.6100874543190002,-0.4377110004425049,XArbitraryZVertical,-0.2303492107265544,-0.2765181376836024,0.6236005705267306,0.6939736385825911,-0.09650079905986786,0.6645863056182861,-0.7409539222717285,0,0,0,-1,-1,5936.208852666667,unknown,2,2022-06-30T10:09:22.168+02:00,2022-06-30T08:20:05.567+02:00,1582,1.534429,0,0,1248.267,0,0,2022-06-30T10:09:24.712+02:00
2022-06-30T10:09:25.141+02:00,5939.181594041667,0.442840576171875,1.521804809570312,-1.718856811523438,5939.171642041667,1.383288622422022,-0.1701153973391953,-0.7620582862703273,-3.754680871963501,-1.790902733802795,-1.652186989784241,0.7048993110656738,0.6041591763496399,-0.5473862886428833,XArbitraryZVertical,-0.2350840086769737,-0.2970664205273535,0.6142549729974403,0.6922266944847798,-0.1224715709686279,0.6904119253158569,-0.7129741311073303,0,0,0,-1,-1,5936.208852666667,unknown,2,2022-06-30T10:09:22.168+02:00,2022-06-30T08:20:05.567+02:00,1582,1.534429,0,0,1248.267,0,0,2022-06-30T10:09:24.712+02:00
2022-06-30T10:09:25.151+02:00,5939.191545041667,0.3922271728515625,1.451675415039062,-1.783660888671875,5939.181594041667,1.354041384436729,-0.206935502289742,-0.7925238962569687,-2.996487140655518,-1.527046322822571,-1.339562892913818,0.6442289352416992,0.7185673713684082,-0.7845004796981812,XArbitraryZVertical,-0.2395443241891538,-0.314773675626893,0.6059096271967254,0.6902243265733481,-0.1442444771528244,0.7121274471282959,-0.6870720982551575,0,0,0,-1,-1,5936.208852666667,unknown,2,2022-06-30T10:09:22.168+02:00,2022-06-30T08:20:05.567+02:00,1582,1.534429,0,0,1248.267,0,0,2022-06-30T10:09:24.712+02:00
2022-06-30T10:09:25.161+02:00,5939.201497041667,0.3460235595703125,1.379974365234375,-1.725692749023438,5939.191545041667,1.330107240900482,-0.2380872426535539,-0.8145858290243684,-2.094848871231079,-1.298318147659302,-0.9524948000907898,0.6046695113182068,0.7943636178970337,-1.052042961120605,XArbitraryZVertical,-0.2422050603311775,-0.3285269401383742,0.5996289723559074,0.6883690331265104,-0.1618292033672333,0.7274414896965027,-0.6668134927749634,0,0,0,-1,-1,5936.208852666667,unknown,2,2022-06-30T10:09:22.168+02:00,2022-06-30T08:20:05.567+02:00,1582,1.534429,0,0,1248.267,0,0,2022-06-30T10:09:24.712+02:00
2022-06-30T10:09:25.171+02:00,5939.211448041667,0.28460693359375,1.252151489257812,-1.608001708984375,5939.201497041667,1.31297054830063,-0.2626676204550121,-0.8303477871653018,-1.625600934028625,-1.136339426040649,-0.5746706128120422,0.567396879196167,0.7135095596313477,-1.132180452346802,XArbitraryZVertical,-0.2436208299996601,-0.3389820476498821,0.5955183594486873,0.6863657221072068,-0.1751699596643448,0.7381660342216492,-0.6514801383018494,0,0,0,-1,-1,5936.208852666667,unknown,2,2022-06-30T10:09:22.168+02:00,2022-06-30T08:20:05.567+02:00,1582,1.534429,0,0,1248.267,0,0,2022-06-30T10:09:24.712+02:00
2022-06-30T10:09:25.181+02:00,5939.221400041667,0.2728271484375,1.097625732421875,-1.505569458007812,5939.211448041667,1.30016775709652,-0.2825277562712032,-0.8443467125114786,-1.587260246276855,-0.9632582664489746,-0.3467842042446136,0.531197190284729,0.6324372291564941,-1.087806344032288,XArbitraryZVertical,-0.24518632217186,-0.3477651999971834,0.5925355039933229,0.6839918437896459,-0.1851739138364792,0.74753737449646,-0.6378860473632812,0,0,0,-1,-1,5936.208852666667,unknown,2,2022-06-30T10:09:22.168+02:00,2022-06-30T08:20:05.567+02:00,1582,1.534429,0,0,1248.267,0,0,2022-06-30T10:09:24.712+02:00
2022-06-30T10:09:25.191+02:00,5939.231351041667,0.2293548583984375,1.046142578125,-1.453033447265625,5939.221400041667,1.289887757906347,-0.2991627901260127,-0.8595654811337102,-1.75201404094696,-0.8473056554794312,-0.08634039759635925,0.4769902527332306,0.4945927262306213,-0.9842281937599182,XArbitraryZVertical,-0.2478203162212443,-0.355947310537287,0.5900018895885319,0.6810172557626362,-0.1923836171627045,0.7575590014457703,-0.6237732172012329,0,0,0,-1,-1,5936.208852666667,unknown,2,2022-06-30T10:09:22.168+02:00,2022-06-30T08:20:05.567+02:00,1582,1.534429,0,0,1248.267,0,0,2022-06-30T10:09:24.712+02:00
2022-06-30T10:09:25.201+02:00,5939.241302041667,0.166961669921875,1.026687622070312,-1.44866943359375,5939.231351041667,1.282307008196806,-0.3129102483994491,-0.8770744066552693,-1.889045119285583,-0.7730348706245422,0.1914920210838318,0.4696536660194397,0.3287544250488281,-0.8972141146659851,XArbitraryZVertical,-0.2517545206332623,-0.3639260380638056,0.5879312559609844,0.6771369027853801,-0.1968268007040024,0.768871545791626,-0.6083549857139587,0,0,0,-1,-1,5936.208852666667,unknown,2,2022-06-30T10:09:22.168+02:00,2022-06-30T08:20:05.567+02:00,1582,1.534429,0,0,1248.267,0,0,2022-06-30T10:09:24.712+02:00
2022-06-30T10:09:25.211+02:00,5939.251254041667,0.0628509521484375,1.03814697265625,-1.485214233398438,5939.241302041667,1.277979893449788,-0.3237970931241537,-0.8955314194132693,-1.773165106773376,-0.7575341463088989,0.4377049505710602,0.428243100643158,0.2656013965606689,-0.8604130148887634,XArbitraryZVertical,-0.2563302353584969,-0.3714630006401055,0.5865804859531288,0.6724830734241729,-0.1988885253667831,0.7805413603782654,-0.5926200747489929,0,0,0,-1,-1,5936.208852666667,unknown,2,2022-06-30T10:09:22.168+02:00,2022-06-30T08:20:05.567+02:00,1582,1.534429,0,0,1248.267,0,0,2022-06-30T10:09:24.712+02:00
